timestamp,kalman.stateZ,gyro.x,gyro.xRaw,gyro.xVariance,gyro.y,gyro.yRaw,gyro.yVariance
0,0.30262571573257446,-0.6091119647026062,-11,6266.0,2.1400318145751953,35,9897.0
10,0.30267268419265747,-1.420457363128662,-31,6266.0,1.5848875045776367,25,9897.0
20,0.3027210235595703,-2.287898540496826,-43,6266.0,1.1044058799743652,20,9897.0
30,0.30276599526405334,-2.074270486831665,-28,6266.0,0.6261245012283325,13,9897.0
40,0.30300796031951904,-0.9398766160011292,-12,6266.0,0.2874843180179596,2,9897.0
50,0.3030650019645691,0.02759508602321148,7,6266.0,-0.3775317966938019,5,9897.0
60,0.30310967564582825,1.147213101387024,33,6266.0,-0.6372207999229431,-11,9897.0
70,0.3031542897224426,2.0992584228515625,33,6266.0,-0.9207570552825928,-23,9897.0
80,0.30325445532798767,1.9846067428588867,26,6266.0,-1.6549237966537476,-29,9897.0
90,0.3033091127872467,1.3972464799880981,17,6266.0,-2.212139129638672,-37,9897.0
100,0.3033692538738251,0.5358871817588806,3,6266.0,-2.6584203243255615,-43,9897.0
110,0.3034333884716034,-0.6380066275596619,-7,6266.0,-3.073146343231201,-56,9897.0
120,0.30350133776664734,-1.2856982946395874,-22,6266.0,-3.4876301288604736,-55,9897.0
130,0.30316904187202454,-1.75913667678833,-33,6266.0,-3.5453293323516846,-53,9897.0
140,0.3032186031341553,-1.659475564956665,-20,6266.0,-3.624565839767456,-60,9897.0
150,0.30326616764068604,-1.417006492614746,-16,6266.0,-3.042654275894165,-56,9897.0
160,0.30331355333328247,-0.5532025098800659,0,6266.0,-3.192525863647461,-54,9897.0
170,0.3030996322631836,0.44730144739151,8,6266.0,-2.972801685333252,-50,9897.0
180,0.30314064025878906,1.0850887298583984,21,6266.0,-2.6339046955108643,-45,9897.0
190,0.3031594455242157,1.3307825326919556,21,6266.0,-2.8101298809051514,-51,9897.0
200,0.3031664490699768,1.2477699518203735,39,6266.0,-3.480625629425049,-69,9897.0
210,0.3031843602657318,1.596362829208374,16,6266.0,-7.424102783203125,-139,9897.0
220,0.3021441102027893,2.624497652053833,39,6266.0,-14.196267127990723,-281,9897.0
230,0.3022608757019043,2.1612443923950195,44,6266.0,-23.993045806884766,-454,9897.0
240,0.30238407850265503,3.428709030151367,20,6266.0,-40.289581298828125,-731,9897.0
250,0.302327424287796,1.655260443687439,4,6266.0,-56.705806732177734,-968,9897.0
260,0.3033204674720764,2.8273048400878906,7,6266.0,-74.71932983398438,-1268,9897.0
270,0.3033972978591919,1.3087949752807617,24,6266.0,-87.05977630615234,-1495,9897.0
280,0.30329227447509766,0.5188606977462769,22,6266.0,-96.92820739746094,-1650,9897.0
290,0.3037504255771637,0.707628071308136,42,6266.0,-101.6003189086914,-1734,9897.0
300,0.3034436106681824,3.072112560272217,138,6266.0,-100.9631118774414,-1705,9897.0
310,0.30277103185653687,1.389331579208374,-21,6266.0,-99.34561157226562,-1583,9897.0
320,0.3024001121520996,2.256099224090576,25,6266.0,-82.78742218017578,-1297,9897.0
330,0.30410435795783997,4.21938419342041,66,6266.0,-64.2437744140625,-908,9897.0
340,0.3027932047843933,3.7236433029174805,89,6266.0,-42.01028823852539,-612,9897.0
350,0.30218809843063354,4.977589130401611,60,6266.0,-18.526947021484375,-267,9897.0
360,0.30159008502960205,5.870784282684326,72,6266.0,1.6945509910583496,142,9897.0
370,0.3018226623535156,7.184200286865234,95,6266.0,18.002056121826172,499,9897.0
380,0.3021719753742218,6.771706581115723,106,6266.0,31.712831497192383,583,9897.0
390,0.3024671971797943,5.385457992553711,139,6266.0,40.97073745727539,597,9897.0
400,0.3026491105556488,5.631222248077393,31,6266.0,43.71670913696289,716,9897.0
410,0.3024194538593292,3.7747600078582764,65,6266.0,41.19330978393555,709,9897.0
420,0.3024987578392029,4.2383646965026855,0,6266.0,35.566688537597656,635,9897.0
430,0.3030359745025635,0.7330143451690674,47,6266.0,24.36879539489746,430,9897.0
440,0.30294859409332275,-0.6347896456718445,34,6266.0,14.014795303344727,64,9897.0
450,0.3030310869216919,-2.085054874420166,-58,6266.0,2.540522575378418,-174,9897.0
460,0.3028998076915741,-4.308730125427246,-82,6266.0,-11.7857666015625,-223,9897.0
470,0.3028942048549652,-4.6053056716918945,-61,6266.0,-21.928442001342773,-323,9897.0
480,0.3032641112804413,-4.418109893798828,-114,6266.0,-29.269222259521484,-455,9897.0
490,0.3033265471458435,-5.863966941833496,-168,6266.0,-34.02201843261719,-431,9897.0
500,0.30346110463142395,-4.687407493591309,-149,6266.0,-32.59825134277344,-302,9897.0
510,0.30381330847740173,-0.7348412871360779,-112,6266.0,-28.554784774780273,-232,9897.0
520,0.3050647974014282,-0.7338497638702393,-90,6266.0,-17.11197853088379,-268,9897.0
530,0.3052772581577301,-0.3803822696208954,-17,6266.0,-7.93184232711792,-74,9897.0
540,0.3056027591228485,0.06090058386325836,79,6266.0,2.7193853855133057,35,9897.0
550,0.30608639121055603,1.496936321258545,45,6266.0,12.606426239013672,92,9897.0
560,0.3065491020679474,0.5414835214614868,26,6266.0,21.290990829467773,279,9897.0
570,0.3069654107093811,1.060336947441101,75,6266.0,25.809921264648438,585,9897.0
580,0.307332843542099,0.4834926426410675,58,6266.0,27.83769416809082,584,9897.0
590,0.30777037143707275,0.011181153357028961,23,6266.0,31.71741485595703,433,9897.0
600,0.3081449568271637,1.0346415042877197,-16,6266.0,28.725727081298828,406,9897.0
610,0.30887091159820557,1.566129207611084,-47,6266.0,21.968677520751953,364,9897.0
620,0.309401273727417,0.2572578489780426,-3,6266.0,13.980488777160645,199,9897.0
630,0.30971938371658325,1.756561040878296,-2,6266.0,6.325747966766357,183,9897.0
640,0.3103742003440857,0.2664200961589813,-40,6266.0,-0.07807881385087967,-115,9897.0
650,0.3107249438762665,0.00945688784122467,9,6266.0,-7.823031425476074,-297,9897.0
660,0.31119072437286377,-0.09827668964862823,30,6266.0,-11.98859691619873,-317,9897.0
670,0.3114214539527893,0.9204043745994568,76,6266.0,-16.953136444091797,-270,9897.0
680,0.3115297555923462,2.5273265838623047,80,6266.0,-20.911462783813477,-178,9897.0
690,0.3117673993110657,4.234002590179443,11,6266.0,-19.3353328704834,-126,9897.0
700,0.31198781728744507,2.678171396255493,2,6266.0,-15.294892311096191,-214,9897.0
710,0.31210076808929443,-0.799694299697876,9,6266.0,-12.467307090759277,-325,9897.0
720,0.3123185634613037,-1.4723984003067017,-3,6266.0,-8.885452270507812,-161,9897.0
730,0.31249943375587463,-1.6537182331085205,30,6266.0,-8.437215805053711,26,9897.0
740,0.312220960855484,-1.2056248188018799,-50,6266.0,-5.843865871429443,38,9897.0
750,0.3124794661998749,-1.6402837038040161,-72,6266.0,-2.2263078689575195,-18,9897.0
760,0.31272584199905396,-1.4759330749511719,10,6266.0,1.891413927078247,-57,9897.0
770,0.3129093050956726,-1.3643873929977417,24,6266.0,4.710684299468994,82,9897.0
780,0.3131601810455322,0.5154706835746765,15,6266.0,1.8770583868026733,272,9897.0
790,0.3121630549430847,1.9500643014907837,-18,6266.0,1.94289231300354,193,9897.0
800,0.3124573528766632,-0.9088432192802429,-1,6266.0,2.626011371612549,49,9897.0
810,0.31272149085998535,-2.358705997467041,140,6266.0,2.178835391998291,-63,9897.0
820,0.31283414363861084,-1.8195000886917114,-32,6266.0,-1.5690786838531494,-49,9897.0
830,0.3117374777793884,-0.8149553537368774,-66,6266.0,-3.5147809982299805,-30,9897.0
840,0.3117258846759796,-1.8710241317749023,-49,6266.0,-6.218813896179199,-83,9897.0
850,0.31177976727485657,-1.8060616254806519,-16,6266.0,-9.45048999786377,-208,9897.0
860,0.3118492364883423,-1.0620136260986328,-50,6266.0,-11.841187477111816,-78,9897.0
870,0.31036093831062317,0.8118008375167847,-42,6266.0,-14.400376319885254,-135,9897.0
880,0.31026971340179443,0.38933131098747253,-5,6266.0,-13.847296714782715,-292,9897.0
890,0.3101465702056885,-0.0769052729010582,79,6266.0,-13.221949577331543,-387,9897.0
900,0.31005918979644775,1.762819528579712,7,6266.0,-12.810403823852539,-243,9897.0
910,0.3100779056549072,-2.2740232944488525,-38,6266.0,-8.758280754089355,-194,9897.0
920,0.30928999185562134,-2.2999794483184814,25,6266.0,-9.009889602661133,-234,9897.0
930,0.30940425395965576,-1.2447208166122437,70,6266.0,-9.712000846862793,-51,9897.0
940,0.3095966577529907,-0.7821191549301147,-63,6266.0,-6.146535396575928,-23,9897.0
950,0.3098156750202179,0.03039371408522129,22,6266.0,-3.5192859172821045,16,9897.0
960,0.30974018573760986,0.8728411793708801,-33,6266.0,-0.5428182482719421,149,9897.0
970,0.3099503219127655,3.5406644344329834,33,6266.0,0.3790127635002136,60,9897.0
980,0.31016531586647034,2.406562089920044,59,6266.0,2.699629783630371,88,9897.0
990,0.31036919355392456,2.7395195960998535,-8,6266.0,1.6686053276062012,167,9897.0
1000,0.3105175793170929,0.9862308502197266,37,6266.0,3.4807872772216797,92,9897.0
1010,0.31158602237701416,1.823616862297058,117,6266.0,2.619771718978882,138,9897.0
1020,0.31158319115638733,2.981980323791504,-42,6266.0,2.8583035469055176,16,9897.0
1030,0.3114645779132843,0.18395698070526123,91,6266.0,3.7028863430023193,-109,9897.0
1040,0.31136760115623474,0.23215645551681519,-29,6266.0,3.534275531768799,27,9897.0
1050,0.31066587567329407,-2.0511696338653564,44,6266.0,4.352932929992676,-105,9897.0
1060,0.3104781210422516,-1.3550993204116821,101,6266.0,2.6488616466522217,34,9897.0
1070,0.3101854920387268,-1.767289161682129,-15,6266.0,4.630692005157471,-124,9897.0
1080,0.31004777550697327,-0.2120702564716339,85,6266.0,2.7464160919189453,-68,9897.0
1090,0.31185460090637207,-0.8661786317825317,-43,6266.0,3.704704761505127,-101,9897.0
1100,0.31188908219337463,-0.9208784699440002,180,6266.0,3.4148244857788086,-16,9897.0
1110,0.3119376301765442,0.8701823949813843,-12,6266.0,3.496077060699463,38,9897.0
1120,0.31202223896980286,-0.7412364482879639,74,6266.0,5.197567939758301,-34,9897.0
1130,0.31211021542549133,-2.4531478881835938,-27,6266.0,7.496601104736328,86,9897.0
1140,0.31380322575569153,-2.8130996227264404,27,6266.0,7.185800075531006,137,9897.0
1150,0.3139554262161255,-2.6282737255096436,-69,6266.0,8.954279899597168,183,9897.0
1160,0.3140091896057129,-4.101497173309326,43,6266.0,10.79411792755127,104,9897.0
1170,0.3141159415245056,0.8250150680541992,-94,6266.0,10.822351455688477,167,9897.0
1180,0.3152591288089752,-2.681421995162964,2,6266.0,10.558416366577148,321,9897.0
1190,0.31534165143966675,-1.8533167839050293,-82,6266.0,11.325342178344727,285,9897.0
1200,0.3154081404209137,-1.995530366897583,-108,6266.0,9.535022735595703,327,9897.0
1210,0.3154892325401306,1.834213376045227,-40,6266.0,7.614201545715332,115,9897.0
1220,0.3156023919582367,-0.606207013130188,-27,6266.0,9.177227973937988,228,9897.0
1230,0.31712254881858826,0.5718531012535095,50,6266.0,6.109976768493652,-96,9897.0
1240,0.31725236773490906,-0.38060012459754944,16,6266.0,8.580169677734375,8,9897.0
1250,0.3174249231815338,0.7482426762580872,196,6266.0,7.194650173187256,-49,9897.0
1260,0.31778886914253235,1.6820652484893799,46,6266.0,5.311230182647705,25,9897.0
1270,0.3192604184150696,0.989382803440094,131,6266.0,2.0485727787017822,-149,9897.0
1280,0.31953728199005127,0.856338620185852,-28,6266.0,1.4739127159118652,57,9897.0
1290,0.31972917914390564,0.4002888798713684,138,6266.0,-0.03717011213302612,23,9897.0
1300,0.3199259340763092,2.7769620418548584,-14,6266.0,0.43781864643096924,1,9897.0
1310,0.3199838399887085,2.6287732124328613,20,6266.0,0.0833476111292839,190,9897.0
1320,0.3216870129108429,3.2988734245300293,-7,6266.0,0.35949572920799255,36,9897.0
1330,0.3217122554779053,2.8949596881866455,-37,6266.0,1.5272470712661743,-13,9897.0
1340,0.32163408398628235,3.7365825176239014,119,6266.0,1.6201099157333374,27,9897.0
1350,0.3215598165988922,2.6734812259674072,115,6266.0,3.4999325275421143,-124,9897.0
1360,0.3232590854167938,1.023542046546936,13,6266.0,1.6305955648422241,40,9897.0
1370,0.32319626212120056,0.4802590012550354,102,6266.0,-0.4514167308807373,1,9897.0
1380,0.3230833411216736,-0.391254723072052,-33,6266.0,-0.3784220516681671,-32,9897.0
1390,0.3229414224624634,0.8652018904685974,-79,6266.0,-1.7283432483673096,188,9897.0
1400,0.32514360547065735,1.1930240392684937,-7,6266.0,-2.9357259273529053,-18,9897.0
1410,0.3250789940357208,1.110202431678772,-28,6266.0,-6.781180381774902,-160,9897.0
1420,0.32500627636909485,2.0620763301849365,60,6266.0,-5.239140033721924,-145,9897.0
1430,0.3249216675758362,2.193232774734497,185,6266.0,-7.0894622802734375,-167,9897.0
1440,0.3247336745262146,1.7160305976867676,16,6266.0,-5.3013200759887695,-88,9897.0
1450,0.3257877826690674,2.847020387649536,-41,6266.0,-9.32091236114502,59,9897.0
1460,0.32553693652153015,-0.5427183508872986,-62,6266.0,-4.95810604095459,22,9897.0
1470,0.3252946138381958,0.2607250213623047,-107,6266.0,-2.9634735584259033,-99,9897.0
1480,0.3250126838684082,-3.060436725616455,-85,6266.0,-3.965733528137207,-103,9897.0
1490,0.3258562386035919,-3.588733434677124,61,6266.0,-4.342417240142822,-205,9897.0
1500,0.3255910873413086,-4.095896244049072,20,6266.0,-3.3843507766723633,-132,9897.0
1510,0.3253326714038849,-0.6720346212387085,-28,6266.0,-5.358613967895508,0,9897.0
1520,0.3250381350517273,-2.110964298248291,16,6266.0,-5.275295734405518,28,9897.0
1530,0.3246643841266632,-0.28665801882743835,-73,6266.0,-5.708099842071533,-132,9897.0
1540,0.32522088289260864,1.198905110359192,-74,6266.0,-4.073866844177246,-44,9897.0
1550,0.32491523027420044,0.9533935189247131,116,6266.0,-2.9114723205566406,-103,9897.0
1560,0.3245956301689148,-0.9258303046226501,60,6266.0,0.8013485074043274,-127,9897.0
1570,0.3242737650871277,0.3608894646167755,42,6266.0,0.16645373404026031,62,9897.0
1580,0.32591018080711365,1.1911735534667969,49,6266.0,-0.7557350397109985,59,9897.0
1590,0.32578498125076294,-0.047529950737953186,-72,6266.0,-1.2948280572891235,27,9897.0
1600,0.32563281059265137,0.1821049451828003,-96,6266.0,-1.1161656379699707,-9,9897.0
1610,0.32538464665412903,-1.5660386085510254,1,6266.0,-1.2318147420883179,-9,9897.0
1620,0.3261619508266449,-2.1511363983154297,44,6266.0,-1.3915228843688965,-236,9897.0
1630,0.3260270357131958,-2.7129099369049072,-12,6266.0,-0.6505339741706848,19,9897.0
1640,0.32590582966804504,-0.47882595658302307,28,6266.0,-3.523134231567383,45,9897.0
1650,0.3256731927394867,-0.7149580717086792,-48,6266.0,-1.957427740097046,43,9897.0
1660,0.32539254426956177,1.2512569427490234,-127,6266.0,-4.518481731414795,-57,9897.0
1670,0.32577064633369446,-0.1937524974346161,-41,6266.0,-0.3497920632362366,-12,9897.0
1680,0.32555899024009705,2.021272659301758,113,6266.0,-3.232977867126465,-187,9897.0
1690,0.3252328932285309,1.452562928199768,76,6266.0,1.4716721773147583,-93,9897.0
1700,0.3249039351940155,2.696542739868164,7,6266.0,0.07274749875068665,108,9897.0
1710,0.3258790373802185,-0.7424656748771667,4,6266.0,-0.4509296119213104,73,9897.0
1720,0.3256750702857971,-0.9297583699226379,-101,6266.0,-0.6781015992164612,20,9897.0
1730,0.32537955045700073,-1.890988826751709,-117,6266.0,0.8574766516685486,41,9897.0
1740,0.32538968324661255,-1.199930191040039,22,6266.0,-1.8367482423782349,-89,9897.0
1750,0.32692691683769226,-1.8744202852249146,78,6266.0,-1.6751548051834106,-149,9897.0
1760,0.326703816652298,-1.0232266187667847,-6,6266.0,-1.4870362281799316,-36,9897.0
1770,0.32657334208488464,-0.04359283670783043,56,6266.0,-2.3782198429107666,156,9897.0
1780,0.3264656662940979,0.9633257985115051,-12,6266.0,-2.8216891288757324,-57,9897.0
1790,0.32635045051574707,2.2410097122192383,-46,6266.0,-2.0794670581817627,12,9897.0
1800,0.32819172739982605,2.7180469036102295,77,6266.0,-0.1391325145959854,-13,9897.0
1810,0.3283022344112396,1.5541713237762451,121,6266.0,-0.40708908438682556,-59,9897.0
1820,0.32838043570518494,-0.6156142354011536,-26,6266.0,0.29835113883018494,17,9897.0
1830,0.3284444510936737,-2.5101747512817383,-63,6266.0,-0.46868282556533813,90,9897.0
1840,0.3279697000980377,-2.592853546142578,-53,6266.0,-0.5452044606208801,78,9897.0
1850,0.3280886113643646,-0.9407307505607605,-138,6266.0,-2.3361878395080566,-24,9897.0
1860,0.3281731903553009,-2.3134450912475586,-90,6266.0,-0.7090822458267212,27,9897.0
1870,0.32815021276474,-1.3654751777648926,22,6266.0,-3.0033209323883057,-177,9897.0
1880,0.3281397223472595,-3.7472498416900635,-43,6266.0,1.0635650157928467,-184,9897.0
1890,0.3285209834575653,-1.0436385869979858,49,6266.0,-1.8289607763290405,20,9897.0
1900,0.3285943269729614,-0.31652116775512695,60,6266.0,-3.7090113162994385,-59,9897.0
1910,0.32861778140068054,1.2530601024627686,-71,6266.0,-3.090686798095703,125,9897.0
1920,0.3286416232585907,2.0517477989196777,46,6266.0,-0.1934843361377716,96,9897.0
1930,0.32798871397972107,0.8057953119277954,-67,6266.0,4.87031364440918,61,9897.0
1940,0.3278477191925049,1.4277138710021973,-34,6266.0,3.9800381660461426,210,9897.0
1950,0.3276780843734741,0.6320176124572754,12,6266.0,3.9236671924591064,20,9897.0
1960,0.32759010791778564,-0.8754045963287354,1,6266.0,5.783824443817139,-41,9897.0
1970,0.3265960216522217,0.22327718138694763,62,6266.0,4.329362869262695,34,9897.0
1980,0.32643961906433105,0.4570392370223999,115,6266.0,1.3877544403076172,-4,9897.0
1990,0.3262457251548767,-0.74128657579422,-87,6266.0,0.36465540528297424,97,9897.0
2000,0.32611292600631714,-1.0546860694885254,-75,6266.0,-0.15412797033786774,120,9897.0
2010,0.32610073685646057,-3.1667587757110596,-113,6266.0,-2.7639291286468506,-11,9897.0
2020,0.325268030166626,-2.0502638816833496,-108,6266.0,-2.769293785095215,-170,9897.0
2030,0.3252323567867279,-0.10558992624282837,57,6266.0,-6.055378437042236,-134,9897.0
2040,0.3252868056297302,0.8087186217308044,160,6266.0,-3.226884365081787,-215,9897.0
2050,0.3254184126853943,2.8457202911376953,34,6266.0,-1.110932469367981,-39,9897.0
2060,0.325695276260376,2.7979817390441895,90,6266.0,-1.7911549806594849,169,9897.0
2070,0.3257651627063751,2.6825435161590576,-35,6266.0,1.4369416236877441,32,9897.0
2080,0.32589811086654663,1.6323907375335693,-69,6266.0,1.2926762104034424,158,9897.0
2090,0.32611873745918274,-1.4548126459121704,-19,6266.0,3.342186689376831,88,9897.0
2100,0.32583287358283997,0.5169040560722351,-5,6266.0,1.9048982858657837,-112,9897.0
2110,0.3260118067264557,-2.608876943588257,-13,6266.0,4.823286056518555,19,9897.0
2120,0.3262280821800232,-2.4647741317749023,69,6266.0,4.023447513580322,-23,9897.0
2130,0.32641932368278503,-2.859395980834961,3,6266.0,4.08294153213501,77,9897.0
2140,0.3265317380428314,-0.790195643901825,-89,6266.0,0.9524071216583252,112,9897.0
2150,0.32604530453681946,-2.2731616497039795,-94,6266.0,1.83725106716156,158,9897.0
2160,0.3263245224952698,-1.2572643756866455,-111,6266.0,1.0527809858322144,68,9897.0
2170,0.32661840319633484,-0.9594141244888306,-83,6266.0,0.9348945617675781,16,9897.0
2180,0.32688474655151367,2.7498645782470703,83,6266.0,-2.130671262741089,-138,9897.0
2190,0.32675662636756897,1.1906816959381104,29,6266.0,-0.3546251654624939,-100,9897.0
2200,0.32713809609413147,1.2145113945007324,83,6266.0,-1.4887795448303223,-47,9897.0
2210,0.3274702727794647,-0.7091894745826721,76,6266.0,-1.214155673980713,-52,9897.0
2220,0.3277478516101837,2.117314100265503,-16,6266.0,-3.4804255962371826,25,9897.0
2230,0.328071653842926,0.01763317547738552,0,6266.0,-0.2376786470413208,141,9897.0
2240,0.32665690779685974,1.6852810382843018,-116,6266.0,-0.9498139023780823,43,9897.0
2250,0.3268424868583679,-0.2780071794986725,-82,6266.0,0.7571583390235901,113,9897.0
2260,0.32705041766166687,0.7215210199356079,16,6266.0,1.3559608459472656,-26,9897.0
2270,0.3273245096206665,-2.040724515914917,-58,6266.0,3.9757330417633057,-75,9897.0
2280,0.32738953828811646,-1.5542552471160889,54,6266.0,3.3297078609466553,-3,9897.0
2290,0.3277299702167511,-3.3387792110443115,54,6266.0,3.0809414386749268,-151,9897.0
2300,0.3281208276748657,-0.5808014869689941,3,6266.0,-0.398423969745636,39,9897.0
2310,0.3285342752933502,-0.7090332508087158,130,6266.0,3.069608211517334,54,9897.0
2320,0.3270667493343353,0.8282267451286316,-33,6266.0,3.678795099258423,137,9897.0
2330,0.327432245016098,2.218750476837158,-10,6266.0,1.38698148727417,181,9897.0
2340,0.327815443277359,2.220407009124756,-41,6266.0,0.9825742840766907,22,9897.0
2350,0.3281397223472595,0.08854945749044418,-132,6266.0,0.9516448378562927,66,9897.0
2360,0.32849550247192383,1.0257383584976196,22,6266.0,-0.6583148241043091,38,9897.0
2370,0.3261811435222626,-0.09048552066087723,-41,6266.0,1.1997328996658325,-115,9897.0
2380,0.326557457447052,0.9020657539367676,49,6266.0,0.7005148530006409,-105,9897.0
2390,0.32696130871772766,-0.2800004482269287,137,6266.0,2.0873355865478516,-159,9897.0
2400,0.32746607065200806,0.4107174873352051,11,6266.0,-0.5575265288352966,1,9897.0
2410,0.32453441619873047,-1.8179168701171875,22,6266.0,-0.6702989935874939,-32,9897.0
2420,0.3249485492706299,-1.979563593864441,-84,6266.0,-1.8930377960205078,7,9897.0
2430,0.3254036605358124,-4.8952412605285645,8,6266.0,0.8955802917480469,101,9897.0
2440,0.32582131028175354,1.5678740739822388,-60,6266.0,-1.310676097869873,46,9897.0
2450,0.3260968327522278,-0.4793287515640259,-65,6266.0,-1.6136502027511597,130,9897.0
2460,0.3237346112728119,1.556232213973999,8,6266.0,0.8884525895118713,-36,9897.0
2470,0.3238687515258789,2.6339540481567383,-11,6266.0,1.381833553314209,10,9897.0
2480,0.32401153445243835,0.6708841323852539,58,6266.0,0.7287970185279846,16,9897.0
2490,0.3241763412952423,-1.4097979068756104,41,6266.0,-0.015932345762848854,-254,9897.0
2500,0.3239283561706543,0.0020434369798749685,46,6266.0,-2.398139238357544,-78,9897.0
2510,0.32414957880973816,-1.4720120429992676,108,6266.0,-5.420161724090576,-191,9897.0
2520,0.32434967160224915,-0.7215669751167297,-74,6266.0,-4.6070332527160645,-19,9897.0
2530,0.3246176540851593,-4.380766868591309,60,6266.0,-3.5675735473632812,-16,9897.0
2540,0.3233298659324646,-0.2657076120376587,-45,6266.0,-4.034424781799316,-87,9897.0
2550,0.3233603537082672,0.19174277782440186,88,6266.0,-5.327536106109619,118,9897.0
2560,0.3233356475830078,0.10132324695587158,-25,6266.0,-2.827812910079956,52,9897.0
2570,0.3233053982257843,1.8514150381088257,-30,6266.0,-2.7646327018737793,-14,9897.0
2580,0.32330968976020813,1.3106706142425537,-4,6266.0,-0.12789417803287506,38,9897.0
2590,0.3244249224662781,3.3124427795410156,-2,6266.0,-0.4028310179710388,58,9897.0
2600,0.3246110677719116,2.8600285053253174,30,6266.0,0.4836682081222534,5,9897.0
2610,0.32477933168411255,4.217273712158203,85,6266.0,2.4131314754486084,-92,9897.0
2620,0.3249511420726776,2.8504886627197266,58,6266.0,1.8688985109329224,-36,9897.0
2630,0.32433468103408813,1.7433035373687744,139,6266.0,-0.483837753534317,-102,9897.0
2640,0.3244568109512329,0.17870615422725677,5,6266.0,0.30354467034339905,-9,9897.0
2650,0.3245145082473755,-1.146996021270752,-22,6266.0,-0.47847452759742737,94,9897.0
2660,0.324608713388443,-3.623487710952759,-77,6266.0,1.2615411281585693,63,9897.0
2670,0.3247576951980591,-3.1344993114471436,-118,6266.0,-2.533923387527466,162,9897.0
2680,0.3224964141845703,-2.770313262939453,-77,6266.0,-1.6349745988845825,163,9897.0
2690,0.3223806917667389,-0.4260009825229645,-95,6266.0,-0.10001132637262344,61,9897.0
2700,0.3223385512828827,-1.4454842805862427,-84,6266.0,2.319410800933838,41,9897.0
2710,0.32234469056129456,1.7055789232254028,95,6266.0,-2.0105602741241455,-128,9897.0
2720,0.3211081027984619,0.6030398011207581,27,6266.0,3.08725905418396,-107,9897.0
2730,0.321120023727417,-0.474987655878067,75,6266.0,3.433736801147461,20,9897.0
2740,0.32109037041664124,-2.1900575160980225,30,6266.0,3.4194483757019043,20,9897.0
2750,0.32104259729385376,2.264138698577881,-44,6266.0,0.47688162326812744,135,9897.0
2760,0.3217701017856598,0.4451664090156555,0,6266.0,-0.5964368581771851,91,9897.0
2770,0.3218494951725006,2.254483461380005,-67,6266.0,-1.8527100086212158,39,9897.0
2780,0.32193100452423096,0.13129863142967224,-88,6266.0,-0.30056262016296387,14,9897.0
2790,0.3220943510532379,0.5279975533485413,18,6266.0,0.17278383672237396,-57,9897.0
2800,0.32232701778411865,-1.4160783290863037,-42,6266.0,2.159644603729248,-164,9897.0
2810,0.32351645827293396,-1.1990094184875488,55,6266.0,-0.7212092876434326,-20,9897.0
2820,0.3237859606742859,-3.928267240524292,86,6266.0,1.4365023374557495,-20,9897.0
2830,0.32400649785995483,-0.5253824591636658,-57,6266.0,4.047530174255371,101,9897.0
2840,0.3243284225463867,-1.0828028917312622,2,6266.0,3.214566469192505,230,9897.0
2850,0.3255308270454407,0.563766598701477,-83,6266.0,2.553532123565674,50,9897.0
2860,0.325922429561615,0.21312399208545685,-98,6266.0,5.199801445007324,171,9897.0
2870,0.3263489603996277,1.0842455625534058,40,6266.0,4.140336990356445,149,9897.0
2880,0.32687026262283325,1.104448676109314,-28,6266.0,6.59987211227417,-33,9897.0
2890,0.3273719549179077,0.24876466393470764,47,6266.0,6.4443511962890625,45,9897.0
2900,0.3273221552371979,0.41726401448249817,142,6266.0,5.246352195739746,-100,9897.0
2910,0.32781484723091125,1.5424094200134277,44,6266.0,4.401796340942383,51,9897.0
2920,0.32826924324035645,0.9616481065750122,103,6266.0,3.3255772590637207,77,9897.0
2930,0.32874318957328796,3.0960423946380615,-36,6266.0,0.7048609852790833,96,9897.0
2940,0.3276374042034149,2.2507243156433105,34,6266.0,1.3149341344833374,127,9897.0
2950,0.3281700313091278,2.7715632915496826,-23,6266.0,3.479504346847534,169,9897.0
2960,0.3286181688308716,1.0984296798706055,-70,6266.0,2.8159494400024414,137,9897.0
2970,0.3290815055370331,0.16839425265789032,-20,6266.0,4.8254714012146,164,9897.0
2980,0.3274482786655426,-0.06112077087163925,-43,6266.0,2.467564105987549,41,9897.0
2990,0.32782161235809326,-1.4009538888931274,0,6266.0,4.097312927246094,24,9897.0
3000,0.3281252980232239,-1.423483967781067,-11,6266.0,4.710597991943359,-126,9897.0
3010,0.32833680510520935,-1.789796233177185,-4,6266.0,2.559929370880127,-45,9897.0
3020,0.32845622301101685,-1.703339695930481,78,6266.0,-0.18923306465148926,-217,9897.0
3030,0.32791832089424133,-2.942999839782715,-9,6266.0,-3.7118372917175293,-12,9897.0
3040,0.32796069979667664,-3.3845770359039307,117,6266.0,-4.6613945960998535,-2,9897.0
3050,0.32790830731391907,-0.21367628872394562,-41,6266.0,-4.3404693603515625,-91,9897.0
3060,0.3277783691883087,1.6464847326278687,28,6266.0,-3.935206413269043,49,9897.0
3070,0.32779449224472046,1.0861423015594482,-25,6266.0,-3.623159408569336,28,9897.0
3080,0.3276335299015045,3.098766565322876,-89,6266.0,-4.067671775817871,64,9897.0
3090,0.3274480402469635,0.2666665017604828,-36,6266.0,-3.0141103267669678,46,9897.0
3100,0.32736337184906006,1.2547856569290161,-67,6266.0,-4.478222370147705,-107,9897.0
3110,0.32720789313316345,0.870913028717041,28,6266.0,-1.6642730236053467,0,9897.0
3120,0.3256433606147766,-0.8466032147407532,44,6266.0,-4.87769889831543,-202,9897.0
3130,0.32531821727752686,-2.4688146114349365,-22,6266.0,-2.5747461318969727,-136,9897.0
3140,0.32507187128067017,-3.8366341590881348,146,6266.0,-1.884443998336792,-175,9897.0
3150,0.32481151819229126,1.1264196634292603,-21,6266.0,-4.890776634216309,-109,9897.0
3160,0.32468125224113464,-0.362996369600296,20,6266.0,-9.513224601745605,7,9897.0
3170,0.32437199354171753,0.7729231715202332,-33,6266.0,-8.149971961975098,-87,9897.0
3180,0.3240426480770111,2.0800929069519043,-75,6266.0,-12.110217094421387,-161,9897.0
3190,0.3237619698047638,3.7682502269744873,64,6266.0,-10.592608451843262,-104,9897.0
3200,0.32223284244537354,3.8247103691101074,63,6266.0,-6.833728790283203,-256,9897.0
3210,0.3220924437046051,-0.5375929474830627,34,6266.0,-3.23433256149292,-78,9897.0
3220,0.32198023796081543,-0.08928390592336655,136,6266.0,-2.665634870529175,-197,9897.0
3230,0.3219524323940277,-2.1167964935302734,-19,6266.0,-1.3272429704666138,-104,9897.0
3240,0.32201310992240906,-3.3054306507110596,-70,6266.0,-2.8987796306610107,-123,9897.0
3250,0.3220425248146057,-3.290982484817505,-11,6266.0,-0.9287741184234619,-38,9897.0
3260,0.32196277379989624,-2.280355215072632,-93,6266.0,-1.8129990100860596,84,9897.0
3270,0.32195010781288147,-1.9496790170669556,-27,6266.0,0.6208948493003845,169,9897.0
3280,0.3220575153827667,2.6705644130706787,-46,6266.0,-3.0642855167388916,-1,9897.0
3290,0.32136255502700806,1.7711020708084106,-43,6266.0,0.8827236294746399,128,9897.0
3300,0.3215227723121643,2.8142223358154297,52,6266.0,-1.2690199613571167,-55,9897.0
3310,0.3217873275279999,1.8714251518249512,9,6266.0,1.597891926765442,-138,9897.0
3320,0.3220751881599426,0.6395214796066284,125,6266.0,0.42693838477134705,0,9897.0
3330,0.322283536195755,-1.5390870571136475,61,6266.0,3.5542500019073486,-67,9897.0
3340,0.3235638439655304,-1.7265585660934448,-68,6266.0,3.0329926013946533,92,9897.0
3350,0.3238813877105713,-3.6556451320648193,64,6266.0,3.0899853706359863,125,9897.0
3360,0.32413187623023987,-1.4038335084915161,-128,6266.0,3.548567771911621,103,9897.0
3370,0.32438603043556213,-3.1997432708740234,-133,6266.0,4.107652187347412,280,9897.0
3380,0.3239896297454834,-4.443053245544434,-89,6266.0,5.60042667388916,125,9897.0
3390,0.32423076033592224,-2.198120594024658,-96,6266.0,7.399377822875977,51,9897.0
3400,0.3244815766811371,-2.306159257888794,14,6266.0,7.335020065307617,197,9897.0
3410,0.32475748658180237,-0.31797605752944946,80,6266.0,10.533224105834961,-52,9897.0
3420,0.3253999650478363,-0.05679725855588913,63,6266.0,9.570120811462402,136,9897.0
3430,0.3255978226661682,3.820972204208374,222,6266.0,9.537424087524414,85,9897.0
3440,0.3258507549762726,4.941530227661133,67,6266.0,7.809512138366699,94,9897.0
3450,0.32627254724502563,5.879029273986816,12,6266.0,4.485879421234131,267,9897.0
3460,0.3266041576862335,3.4750311374664307,-41,6266.0,3.7323689460754395,69,9897.0
3470,0.326529324054718,2.6979892253875732,-47,6266.0,2.6801135540008545,114,9897.0
3480,0.3268418610095978,-0.8823561668395996,-11,6266.0,5.135138988494873,174,9897.0
3490,0.32714080810546875,-0.7488369941711426,-79,6266.0,5.038087368011475,-17,9897.0
3500,0.32733699679374695,-3.332099437713623,-84,6266.0,6.187087535858154,63,9897.0
3510,0.327645868062973,-2.782966375350952,46,6266.0,5.986270427703857,-13,9897.0
3520,0.32773658633232117,-4.950831413269043,-35,6266.0,8.991351127624512,-19,9897.0
3530,0.32776251435279846,0.7598838210105896,166,6266.0,2.940490484237671,13,9897.0
3540,0.32788750529289246,-0.34222203493118286,52,6266.0,5.366453170776367,8,9897.0
3550,0.32804760336875916,4.8026123046875,54,6266.0,3.4947662353515625,145,9897.0
3560,0.3273653984069824,3.396049737930298,77,6266.0,2.4069387912750244,138,9897.0
3570,0.3274008333683014,6.404139518737793,-16,6266.0,0.22344720363616943,134,9897.0
3580,0.32749027013778687,4.3515729904174805,23,6266.0,-1.2784206867218018,107,9897.0
3590,0.32755032181739807,2.2296082973480225,-2,6266.0,-1.7060590982437134,-89,9897.0
3600,0.32765883207321167,-1.3015822172164917,-74,6266.0,-0.9836601614952087,-95,9897.0
3610,0.3274742364883423,0.5688303709030151,87,6266.0,-2.8508365154266357,-118,9897.0
3620,0.32721608877182007,-2.053239583969116,-38,6266.0,-3.658215284347534,-211,9897.0
3630,0.3268539309501648,-0.2022954672574997,46,6266.0,-5.3126044273376465,-134,9897.0
3640,0.32631877064704895,-2.6701114177703857,68,6266.0,-4.994270324707031,-164,9897.0
3650,0.3260481357574463,-0.5166329741477966,-33,6266.0,-4.838449001312256,-6,9897.0
3660,0.3257552683353424,-0.4833659827709198,28,6266.0,-4.076938629150391,34,9897.0
3670,0.3254522383213043,0.9254032373428345,-83,6266.0,-2.1567487716674805,8,9897.0
3680,0.3252279460430145,0.8465113639831543,-21,6266.0,-2.515366792678833,93,9897.0
3690,0.32538941502571106,1.1912319660186768,-18,6266.0,0.7793692946434021,40,9897.0
3700,0.3250496983528137,-0.9483652114868164,-63,6266.0,1.0065264701843262,-56,9897.0
3710,0.3247075080871582,-1.854511022567749,27,6266.0,1.5209661722183228,18,9897.0
3720,0.32431143522262573,-2.0610511302948,40,6266.0,-1.765799641609192,-209,9897.0
3730,0.32388582825660706,-3.1529555320739746,-63,6266.0,-3.0699663162231445,-103,9897.0
3740,0.3233732581138611,-4.009496688842773,109,6266.0,-6.8305745124816895,-84,9897.0
3750,0.32292336225509644,-3.367365598678589,-73,6266.0,-5.687154769897461,-53,9897.0
3760,0.3224886357784271,0.34538060426712036,-81,6266.0,-7.413051128387451,66,9897.0
3770,0.32205697894096375,2.264254093170166,-40,6266.0,-8.03981876373291,-147,9897.0
3780,0.32156962156295776,3.2107748985290527,-35,6266.0,-7.779038429260254,-170,9897.0
3790,0.3210698366165161,2.941183090209961,91,6266.0,-7.84416389465332,-137,9897.0
3800,0.3205476999282837,2.751887321472168,114,6266.0,-5.868106365203857,-246,9897.0
3810,0.32008126378059387,-1.229129433631897,24,6266.0,-4.732471942901611,-55,9897.0
3820,0.3202116787433624,-1.1562551259994507,-19,6266.0,-3.4832372665405273,-3,9897.0
3830,0.3198855519294739,-3.2761690616607666,-78,6266.0,-2.0821268558502197,111,9897.0
3840,0.3196127116680145,0.8587638735771179,-103,6266.0,-1.8727471828460693,99,9897.0
3850,0.31939560174942017,-0.04321666806936264,-72,6266.0,-1.6822566986083984,41,9897.0
3860,0.32071158289909363,0.4985746443271637,88,6266.0,-1.0670050382614136,-149,9897.0
3870,0.3206624984741211,-0.38223302364349365,-17,6266.0,1.3843042850494385,-159,9897.0
3880,0.32058748602867126,3.2973849773406982,111,6266.0,-2.0743227005004883,-10,9897.0
3890,0.32058948278427124,0.10255520045757294,77,6266.0,2.7276384830474854,-2,9897.0
3900,0.32069870829582214,0.832406759262085,42,6266.0,1.5016294717788696,91,9897.0
3910,0.32209131121635437,-0.8337028622627258,1,6266.0,0.9111897349357605,71,9897.0
3920,0.3222021162509918,1.3971127271652222,-85,6266.0,3.3750524520874023,60,9897.0
3930,0.3222956955432892,1.1292201280593872,-10,6266.0,4.47037935256958,263,9897.0
3940,0.3223969042301178,-0.0037333692889660597,-5,6266.0,3.3185086250305176,6,9897.0
3950,0.3230283260345459,0.71563321352005,-36,6266.0,3.4153659343719482,-51,9897.0
3960,0.3230346143245697,-0.759626030921936,33,6266.0,2.2339627742767334,-23,9897.0
3970,0.3230791985988617,-0.9383623003959656,138,6266.0,2.129666805267334,-88,9897.0
3980,0.3231360614299774,0.09837260097265244,-7,6266.0,2.0398714542388916,43,9897.0
3990,0.32311055064201355,0.7322949767112732,-2,6266.0,1.3016636371612549,149,9897.0
4000,0.32502445578575134,-0.2812938392162323,-63,6266.0,3.351013422012329,227,9897.0
4010,0.3251858651638031,1.5888493061065674,-103,6266.0,2.605431318283081,74,9897.0
4020,0.3252495229244232,-1.2793575525283813,-81,6266.0,6.154298305511475,225,9897.0
4030,0.3252626657485962,-0.43423038721084595,28,6266.0,6.829643249511719,-22,9897.0
4040,0.3255620002746582,-3.5825788974761963,-61,6266.0,9.823122024536133,20,9897.0
4050,0.32557788491249084,0.990531861782074,111,6266.0,4.998183250427246,68,9897.0
4060,0.3254936635494232,-0.830724835395813,62,6266.0,7.661872863769531,8,9897.0
4070,0.32533788681030273,0.330800861120224,-57,6266.0,7.1062331199646,167,9897.0
4080,0.325505793094635,-0.14065992832183838,76,6266.0,5.734039306640625,170,9897.0
4090,0.3252873122692108,1.4872084856033325,-43,6266.0,6.397183418273926,122,9897.0
4100,0.3249090313911438,1.9616581201553345,-38,6266.0,2.426292657852173,190,9897.0
4110,0.32446953654289246,1.5752722024917603,43,6266.0,1.772465467453003,-83,9897.0
4120,0.3240632712841034,-0.6098082065582275,-18,6266.0,0.2720380425453186,-160,9897.0
4130,0.3259221315383911,0.500612199306488,92,6266.0,-0.4365048110485077,-27,9897.0
4140,0.3254726529121399,-0.5980930328369141,83,6266.0,-0.605778694152832,-95,9897.0
4150,0.3249748647212982,-1.2837421894073486,-87,6266.0,-1.6347367763519287,87,9897.0
4160,0.3244672417640686,-1.5599145889282227,-37,6266.0,0.36751800775527954,129,9897.0
4170,0.32588836550712585,-0.48698174953460693,-56,6266.0,0.11731108278036118,40,9897.0
4180,0.32531243562698364,1.10198974609375,-42,6266.0,1.3047411441802979,10,9897.0
4190,0.3246985971927643,2.1708312034606934,57,6266.0,0.5237450003623962,-58,9897.0
4200,0.3240017592906952,3.154085397720337,172,6266.0,1.555759310722351,-116,9897.0
4210,0.3232024013996124,2.579280376434326,37,6266.0,2.026486873626709,-51,9897.0
4220,0.3250594735145569,3.2324423789978027,87,6266.0,0.5250333547592163,172,9897.0
4230,0.3244144022464752,1.4467459917068481,14,6266.0,-0.21688151359558105,22,9897.0
4240,0.3237071931362152,0.9154552221298218,-66,6266.0,-4.560209274291992,-39,9897.0
4250,0.322989284992218,-1.1469992399215698,-64,6266.0,-2.6136598587036133,-15,9897.0
4260,0.3252820372581482,-0.714082658290863,30,6266.0,-5.656558990478516,-148,9897.0
4270,0.3247741162776947,-2.904677152633667,22,6266.0,-8.650110244750977,-282,9897.0
4280,0.32426396012306213,-2.394277572631836,-63,6266.0,-8.947672843933105,-107,9897.0
4290,0.32370463013648987,-1.0194019079208374,22,6266.0,-10.00623607635498,-38,9897.0
4300,0.32463717460632324,-0.3623785078525543,-73,6266.0,-6.8638787269592285,-141,9897.0
4310,0.3243495523929596,1.3072867393493652,-50,6266.0,-5.816800117492676,-40,9897.0
4320,0.3241185247898102,-0.3905900716781616,12,6266.0,-0.9350687265396118,-14,9897.0
4330,0.32380640506744385,2.4930219650268555,109,6266.0,1.7833889722824097,-56,9897.0
4340,0.32352176308631897,1.3258742094039917,73,6266.0,1.5928189754486084,-57,9897.0
4350,0.32508668303489685,0.9347827434539795,10,6266.0,2.838179588317871,226,9897.0
4360,0.32492169737815857,-1.1117972135543823,-30,6266.0,0.6185311079025269,151,9897.0
4370,0.324633926153183,-1.6630779504776,-88,6266.0,1.8923336267471313,70,9897.0
4380,0.3243333399295807,-3.3499035835266113,-143,6266.0,-0.9315115809440613,-27,9897.0
4390,0.32520756125450134,-4.1124796867370605,-77,6266.0,1.6408674716949463,-60,9897.0
4400,0.32488539814949036,-3.3283421993255615,39,6266.0,-3.639064073562622,-270,9897.0
4410,0.32455945014953613,-2.0197696685791016,22,6266.0,-7.134416580200195,-74,9897.0
4420,0.32423344254493713,2.7911252975463867,140,6266.0,-7.3979997634887695,-26,9897.0
4430,0.32518938183784485,4.480452537536621,56,6266.0,-4.275446891784668,27,9897.0
4440,0.325067400932312,9.989766120910645,57,6266.0,-4.5505900382995605,70,9897.0
4450,0.32488545775413513,8.451713562011719,99,6266.0,-2.515113115310669,41,9897.0
4460,0.3247481882572174,5.979655742645264,90,6266.0,0.1533237099647522,-74,9897.0
4470,0.32468634843826294,2.527277708053589,20,6266.0,3.0979208946228027,-216,9897.0
4480,0.32637840509414673,-3.2869417667388916,7,6266.0,1.4461432695388794,4,9897.0
4490,0.3263776898384094,-5.8130340576171875,62,6266.0,0.9030813574790955,-36,9897.0
4500,0.32641711831092834,-7.357053279876709,-104,6266.0,-1.2164013385772705,33,9897.0
4510,0.3265094757080078,-6.133650779724121,-236,6266.0,-2.4816157817840576,90,9897.0
4520,0.3271077871322632,-5.6020941734313965,-132,6266.0,-1.7617558240890503,109,9897.0
4530,0.32709187269210815,-4.0426177978515625,-70,6266.0,-3.0516316890716553,-66,9897.0
4540,0.3271476924419403,-2.638753652572632,-76,6266.0,-0.2359420210123062,-92,9897.0
4550,0.32714423537254333,2.006275177001953,124,6266.0,2.86572003364563,-13,9897.0
4560,0.3270076811313629,3.5607717037200928,160,6266.0,1.9979541301727295,-188,9897.0
4570,0.3272479176521301,3.6061151027679443,138,6266.0,1.4731929302215576,1,9897.0
4580,0.32711535692214966,5.114018440246582,202,6266.0,2.9484128952026367,-29,9897.0
4590,0.3269115090370178,6.478283882141113,125,6266.0,6.8933258056640625,-46,9897.0
4600,0.32673001289367676,4.184576034545898,112,6266.0,8.207884788513184,193,9897.0
4610,0.32642662525177,-2.3667519092559814,16,6266.0,11.880187034606934,141,9897.0
4620,0.3265659809112549,-15.206106185913086,-339,6266.0,13.482725143432617,286,9897.0
4630,0.32674846053123474,-14.470699310302734,-219,6266.0,9.691627502441406,363,9897.0
4640,0.3269612491130829,-9.060296058654785,-223,6266.0,3.3234877586364746,73,9897.0
4650,0.32814422249794006,-7.1519880294799805,-166,6266.0,-2.1821258068084717,-62,9897.0
4660,0.32811155915260315,-5.702279567718506,19,6266.0,-8.867045402526855,-294,9897.0
4670,0.32782796025276184,-1.1246479749679565,113,6266.0,-16.131105422973633,-361,9897.0
4680,0.32745787501335144,8.551170349121094,184,6266.0,-23.213062286376953,-330,9897.0
4690,0.32682541012763977,16.329580307006836,340,6266.0,-26.430137634277344,-349,9897.0
4700,0.32757434248924255,22.505868911743164,315,6266.0,-23.706775665283203,-349,9897.0
4710,0.3267333209514618,25.373876571655273,314,6266.0,-20.532411575317383,-295,9897.0
4720,0.32568198442459106,21.210195541381836,279,6266.0,-12.453147888183594,13,9897.0
4730,0.32452747225761414,19.918289184570312,293,6266.0,-6.626454830169678,32,9897.0
4740,0.324223130941391,18.101581573486328,227,6266.0,1.7207273244857788,65,9897.0
4750,0.3230745792388916,9.682731628417969,106,6266.0,6.766333103179932,238,9897.0
4760,0.32138487696647644,3.6439363956451416,-45,6266.0,13.086372375488281,387,9897.0
4770,0.3199070692062378,3.8462772369384766,122,6266.0,13.8344087600708,334,9897.0
4780,0.3173274099826813,3.541327714920044,95,6266.0,17.936389923095703,191,9897.0
4790,0.31592628359794617,5.510555744171143,79,6266.0,18.313846588134766,223,9897.0
4800,0.3140711188316345,7.728961944580078,179,6266.0,20.02618408203125,301,9897.0
4810,0.3122442364692688,10.151745796203613,303,6266.0,22.45758819580078,221,9897.0
4820,0.30916425585746765,8.601119995117188,272,6266.0,20.93001365661621,149,9897.0
4830,0.30759114027023315,11.730663299560547,214,6266.0,18.795438766479492,257,9897.0
4840,0.3053382635116577,14.364877700805664,287,6266.0,18.95176124572754,441,9897.0
4850,0.30285006761550903,15.32644271850586,215,6266.0,20.269025802612305,430,9897.0
4860,0.30054017901420593,14.178326606750488,134,6266.0,21.930618286132812,441,9897.0
4870,0.299302875995636,15.627839088439941,134,6266.0,21.608064651489258,423,9897.0
4880,0.2966770529747009,9.674970626831055,20,6266.0,25.853435516357422,503,9897.0
4890,0.294271320104599,0.010025890544056892,-25,6266.0,30.35896110534668,532,9897.0
4900,0.29182687401771545,-7.5860595703125,-51,6266.0,35.03514099121094,461,9897.0
4910,0.28749075531959534,-12.601181030273438,-65,6266.0,34.45541763305664,441,9897.0
4920,0.28648465871810913,-18.369726181030273,-244,6266.0,38.739261627197266,604,9897.0
4930,0.2836371064186096,-18.023324966430664,-372,6266.0,42.21230697631836,715,9897.0
4940,0.2814876437187195,-17.475360870361328,-315,6266.0,42.535579681396484,789,9897.0
4950,0.27690061926841736,-15.517163276672363,-192,6266.0,42.79434585571289,649,9897.0
4960,0.2751820981502533,-8.594122886657715,-33,6266.0,40.2546501159668,548,9897.0
4970,0.2728387713432312,-1.1036593914031982,-8,6266.0,40.78554916381836,685,9897.0
4980,0.2703104019165039,6.818187236785889,12,6266.0,39.6883544921875,692,9897.0
4990,0.26592516899108887,8.273143768310547,127,6266.0,38.83976364135742,621,9897.0
5000,0.2633250653743744,8.464484214782715,281,6266.0,41.647193908691406,596,9897.0
5010,0.2663041651248932,7.0461249351501465,113,6266.0,37.239845275878906,688,9897.0
5020,0.26414984464645386,5.49800968170166,2,6266.0,36.963897705078125,588,9897.0
5030,0.2598605155944824,1.1911882162094116,49,6266.0,37.33905029296875,470,9897.0
5040,0.25955837965011597,2.233349084854126,74,6266.0,39.36507797241211,697,9897.0
5050,0.2626308798789978,6.713856220245361,7,6266.0,41.38623809814453,727,9897.0
5060,0.26068413257598877,5.039815902709961,12,6266.0,36.34489440917969,491,9897.0
5070,0.2574036121368408,-1.8486865758895874,-23,6266.0,34.290958404541016,548,9897.0
5080,0.2575475573539734,-4.917379379272461,-173,6266.0,30.821990966796875,610,9897.0
5090,0.2548445463180542,-6.311266899108887,-147,6266.0,33.82522964477539,406,9897.0
5100,0.253795325756073,-6.130201816558838,-52,6266.0,32.72425842285156,496,9897.0
5110,0.25086668133735657,-3.6094775199890137,-145,6266.0,30.811325073242188,529,9897.0
5120,0.25084155797958374,-3.751094341278076,8,6266.0,23.734355926513672,332,9897.0
5130,0.24878810346126556,-4.767372131347656,-82,6266.0,20.224815368652344,425,9897.0
5140,0.24857103824615479,-5.2657270431518555,-180,6266.0,21.716297149658203,333,9897.0
5150,0.24590130150318146,-7.533210754394531,-46,6266.0,23.3662109375,355,9897.0
5160,0.24487945437431335,-5.013623237609863,-69,6266.0,21.84810447692871,377,9897.0
5170,0.2438085824251175,1.083096981048584,-12,6266.0,18.45975685119629,215,9897.0
5180,0.2403809130191803,0.6015043258666992,53,6266.0,16.379512786865234,226,9897.0
5190,0.23761750757694244,-1.3498692512512207,-118,6266.0,14.13917350769043,310,9897.0
5200,0.23700299859046936,-3.324064016342163,-80,6266.0,14.093338966369629,53,9897.0
5210,0.23663105070590973,-8.744315147399902,-68,6266.0,17.169158935546875,226,9897.0
5220,0.23558683693408966,-9.96487808227539,-212,6266.0,13.633736610412598,303,9897.0
5230,0.23572692275047302,-11.051485061645508,-282,6266.0,11.79527759552002,219,9897.0
5240,0.2355036586523056,-13.861751556396484,-189,6266.0,9.83873176574707,-11,9897.0
5250,0.23495875298976898,-15.864365577697754,-225,6266.0,6.624685287475586,157,9897.0
5260,0.23489654064178467,-17.603403091430664,-356,6266.0,2.852447032928467,84,9897.0
5270,0.23721368610858917,-20.810752868652344,-289,6266.0,1.9839370250701904,15,9897.0
5280,0.23721519112586975,-19.022010803222656,-334,6266.0,-2.4471595287323,6,9897.0
5290,0.23769207298755646,-19.93865203857422,-303,6266.0,-1.9267185926437378,-124,9897.0
5300,0.23736140131950378,-19.68142318725586,-247,6266.0,-2.500566005706787,26,9897.0
5310,0.23964689671993256,-16.048601150512695,-324,6266.0,-5.085101127624512,-54,9897.0
5320,0.2395249456167221,-12.37065601348877,-114,6266.0,-6.115596294403076,-203,9897.0
5330,0.23993916809558868,-8.174083709716797,-94,6266.0,-8.981249809265137,-12,9897.0
5340,0.24108892679214478,0.10932202637195587,-13,6266.0,-6.395326614379883,-162,9897.0
5350,0.2417643517255783,6.052714824676514,194,6266.0,-9.058531761169434,-129,9897.0
5360,0.2426707148551941,9.311323165893555,137,6266.0,-8.432714462280273,-62,9897.0
5370,0.24308080971240997,12.527205467224121,162,6266.0,-6.011072158813477,-133,9897.0
5380,0.24438783526420593,12.261022567749023,263,6266.0,-6.862156867980957,-175,9897.0
5390,0.2449033260345459,12.958150863647461,224,6266.0,-6.927202224731445,-29,9897.0
5400,0.24643610417842865,14.555121421813965,218,6266.0,-7.332197666168213,-114,9897.0
5410,0.24706391990184784,12.700064659118652,166,6266.0,-4.633034706115723,-80,9897.0
5420,0.24817390739917755,8.387007713317871,202,6266.0,0.10825061798095703,-126,9897.0
5430,0.2492498755455017,4.657429218292236,110,6266.0,-0.5352457165718079,-4,9897.0
5440,0.24992142617702484,-0.6136478781700134,-51,6266.0,-0.05873720347881317,78,9897.0
5450,0.2508840560913086,-2.690436840057373,-156,6266.0,-2.143954038619995,45,9897.0
5460,0.25146380066871643,-6.6301422119140625,-142,6266.0,-5.300963401794434,-88,9897.0
5470,0.2519892156124115,-5.958600997924805,-110,6266.0,-6.150410175323486,-205,9897.0
5480,0.2523948550224304,-5.982063293457031,-16,6266.0,-9.180256843566895,-236,9897.0
5490,0.25515085458755493,-6.748356819152832,-28,6266.0,-9.914163589477539,-229,9897.0
5500,0.2556571066379547,-5.208009719848633,-69,6266.0,-15.503899574279785,-277,9897.0
5510,0.2559821903705597,-2.963175058364868,-110,6266.0,-14.738424301147461,-115,9897.0
5520,0.25639334321022034,3.1028475761413574,-60,6266.0,-19.664234161376953,-169,9897.0
5530,0.25805556774139404,9.33360767364502,58,6266.0,-20.304445266723633,-287,9897.0
5540,0.2587302327156067,10.83236312866211,140,6266.0,-15.49570083618164,-230,9897.0
5550,0.2592797577381134,13.337350845336914,154,6266.0,-15.024887084960938,-186,9897.0
5560,0.25958624482154846,12.249990463256836,172,6266.0,-15.315284729003906,-190,9897.0
5570,0.259899377822876,11.38921070098877,146,6266.0,-16.41177749633789,-257,9897.0
5580,0.26218491792678833,6.806487560272217,79,6266.0,-15.548004150390625,-175,9897.0
5590,0.2626785337924957,1.8349895477294922,-9,6266.0,-17.583581924438477,-204,9897.0
5600,0.26318252086639404,-5.369903564453125,-123,6266.0,-14.241978645324707,-171,9897.0
5610,0.2634395360946655,-8.714102745056152,-153,6266.0,-9.106402397155762,-13,9897.0
5620,0.2633768320083618,-8.094940185546875,-168,6266.0,-6.427508354187012,-33,9897.0
5630,0.26364850997924805,-9.240690231323242,-159,6266.0,-3.669393301010132,-50,9897.0
5640,0.2638608515262604,-8.509105682373047,-179,6266.0,-4.430365562438965,-53,9897.0
5650,0.26406019926071167,-5.5982489585876465,-119,6266.0,-7.4111247062683105,-104,9897.0
5660,0.26426804065704346,-4.94510555267334,-117,6266.0,-7.370673179626465,-155,9897.0
5670,0.2653854787349701,-3.4006869792938232,-109,6266.0,-10.261999130249023,-115,9897.0
5680,0.26560550928115845,-0.24465127289295197,-41,6266.0,-11.190448760986328,-126,9897.0
5690,0.2657834589481354,1.4692671298980713,-4,6266.0,-13.045719146728516,-115,9897.0
5700,0.2659742534160614,3.6218903064727783,68,6266.0,-11.801209449768066,-187,9897.0
5710,0.2664298415184021,3.846341371536255,90,6266.0,-12.473402976989746,-128,9897.0
5720,0.2665380537509918,6.984716892242432,101,6266.0,-13.296337127685547,-162,9897.0
5730,0.2667747437953949,7.809799671173096,179,6266.0,-11.58066463470459,-287,9897.0
5740,0.26688605546951294,7.3057541847229,116,6266.0,-9.396240234375,-213,9897.0
5750,0.2657114267349243,6.967541217803955,115,6266.0,-5.752490043640137,-108,9897.0
5760,0.26570284366607666,3.5646471977233887,70,6266.0,-5.128161907196045,-171,9897.0
5770,0.2657168507575989,1.7906198501586914,50,6266.0,-6.364215850830078,-183,9897.0
5780,0.26573503017425537,-1.3911659717559814,-27,6266.0,-5.5571441650390625,-134,9897.0
5790,0.26573845744132996,-3.0352237224578857,-34,6266.0,-3.923419713973999,-107,9897.0
5800,0.2657892405986786,-2.89811635017395,-41,6266.0,-3.718618631362915,-176,9897.0
5810,0.2656871974468231,-3.67667818069458,-6,6266.0,-4.840360641479492,-150,9897.0
5820,0.26554185152053833,-4.009599685668945,-13,6266.0,-5.289798259735107,-143,9897.0
5830,0.26538100838661194,-3.430285692214966,8,6266.0,-5.819885730743408,-186,9897.0
5840,0.2659047842025757,-1.3525830507278442,26,6266.0,-5.51248836517334,-160,9897.0
5850,0.2658153176307678,0.16880697011947632,30,6266.0,-8.308317184448242,-202,9897.0
5860,0.26564839482307434,2.191452741622925,15,6266.0,-4.6665778160095215,-50,9897.0
5870,0.2656344175338745,2.4826321601867676,117,6266.0,-4.953593730926514,-32,9897.0
5880,0.26552698016166687,2.368807792663574,105,6266.0,-0.5062546730041504,-4,9897.0
5890,0.26645389199256897,2.151315689086914,47,6266.0,-1.8624190092086792,60,9897.0
5900,0.2664840519428253,-1.4976863861083984,18,6266.0,-0.2674148678779602,-82,9897.0
5910,0.2664424777030945,-0.4304030239582062,-7,6266.0,-1.2989500761032104,-79,9897.0
5920,0.266462504863739,1.2545078992843628,-59,6266.0,-3.80503249168396,-64,9897.0
5930,0.26757121086120605,-0.606147825717926,-81,6266.0,-7.325385093688965,-72,9897.0
5940,0.26771730184555054,-0.9384788870811462,-57,6266.0,-6.80880880355835,-52,9897.0
5950,0.26801684498786926,-0.127117320895195,-55,6266.0,-5.39884090423584,-13,9897.0
5960,0.26839104294776917,0.6171582341194153,-66,6266.0,-5.314538478851318,29,9897.0
5970,0.2696220278739929,1.3235392570495605,-50,6266.0,-2.4315261840820312,36,9897.0
5980,0.27013036608695984,-0.285914808511734,-113,6266.0,-2.159773349761963,17,9897.0
5990,0.270603209733963,-0.5094137191772461,-81,6266.0,2.113529682159424,153,9897.0
6000,0.2710905969142914,0.10602306574583054,-52,6266.0,-3.9611191749572754,127,9897.0
6010,0.27160921692848206,0.04593100771307945,-100,6266.0,-1.6449716091156006,175,9897.0
6020,0.2722289562225342,-1.5039088726043701,-91,6266.0,0.856269121170044,107,9897.0
6030,0.27264392375946045,-2.191617965698242,-94,6266.0,-2.0553088188171387,102,9897.0
6040,0.2730801999568939,-0.8715537190437317,-43,6266.0,-3.7310338020324707,96,9897.0
6050,0.27347514033317566,0.5426945686340332,-56,6266.0,-2.820923328399658,143,9897.0
6060,0.2731127142906189,3.095032215118408,-34,6266.0,-1.793326497077942,21,9897.0
6070,0.2734016180038452,1.8533295392990112,-9,6266.0,0.2941226065158844,73,9897.0
6080,0.27369216084480286,3.1208181381225586,-5,6266.0,-0.730819582939148,73,9897.0
6090,0.2739275395870209,1.1088637113571167,-70,6266.0,-0.08694392442703247,115,9897.0
6100,0.2741512656211853,0.2664007842540741,-71,6266.0,3.3813719749450684,81,9897.0
6110,0.27430111169815063,-0.6446702480316162,-38,6266.0,1.9229869842529297,87,9897.0
6120,0.27445000410079956,-1.5491485595703125,-54,6266.0,4.7982282638549805,165,9897.0
6130,0.2745782732963562,0.6085893511772156,-57,6266.0,4.011768341064453,90,9897.0
6140,0.27465030550956726,0.5757293105125427,-39,6266.0,0.7921352982521057,47,9897.0
6150,0.27641621232032776,1.1536921262741089,-37,6266.0,0.30345332622528076,83,9897.0
6160,0.2766033709049225,0.9102258086204529,-39,6266.0,0.3252907693386078,114,9897.0
6170,0.2767825722694397,0.2383785992860794,-46,6266.0,2.4355063438415527,106,9897.0
6180,0.276934951543808,0.1153448224067688,-79,6266.0,1.0550776720046997,67,9897.0
6190,0.2782230079174042,1.912911295890808,-47,6266.0,-1.1280282735824585,26,9897.0
6200,0.2784101963043213,1.4692565202713013,-81,6266.0,-4.2372212409973145,106,9897.0
6210,0.2786427140235901,2.322610855102539,-36,6266.0,-3.2372398376464844,24,9897.0
6220,0.27885928750038147,2.007277011871338,-13,6266.0,-3.1847705841064453,-16,9897.0
6230,0.27907878160476685,2.049880266189575,22,6266.0,-2.9967777729034424,45,9897.0
6240,0.2796553373336792,4.916379928588867,7,6266.0,-3.5423824787139893,29,9897.0
6250,0.279890239238739,3.4575531482696533,22,6266.0,-0.9645512104034424,54,9897.0
6260,0.2801664173603058,2.6618564128875732,24,6266.0,2.2728676795959473,31,9897.0
6270,0.2804267406463623,3.173539638519287,70,6266.0,1.6572524309158325,123,9897.0
6280,0.2827795445919037,2.8444948196411133,27,6266.0,1.8460783958435059,24,9897.0
6290,0.28318434953689575,3.4052157402038574,19,6266.0,2.485220193862915,142,9897.0
6300,0.28358137607574463,2.7398014068603516,7,6266.0,3.6676676273345947,5,9897.0
6310,0.28405284881591797,2.570240020751953,36,6266.0,1.4747074842453003,-6,9897.0
6320,0.2845298647880554,2.4138593673706055,51,6266.0,-2.689444065093994,-84,9897.0
6330,0.28561729192733765,2.056640863418579,24,6266.0,-5.433064937591553,-40,9897.0
6340,0.2861115038394928,3.8738670349121094,25,6266.0,-3.4357988834381104,-28,9897.0
6350,0.28665491938591003,3.174074411392212,85,6266.0,0.5280231833457947,-53,9897.0
6360,0.28731513023376465,6.134961128234863,75,6266.0,2.0274970531463623,13,9897.0
6370,0.28930866718292236,6.253407001495361,108,6266.0,2.142444372177124,-12,9897.0
6380,0.28986451029777527,5.091380596160889,75,6266.0,7.791924476623535,62,9897.0
6390,0.290391743183136,5.895806789398193,101,6266.0,10.170080184936523,28,9897.0
6400,0.2909134030342102,6.788370609283447,141,6266.0,8.00805950164795,30,9897.0
6410,0.29204151034355164,7.466312408447266,161,6266.0,9.848495483398438,61,9897.0
6420,0.29254549741744995,9.615252494812012,198,6266.0,8.638020515441895,112,9897.0
6430,0.29346174001693726,12.27039909362793,182,6266.0,4.877927303314209,109,9897.0
6440,0.2939848005771637,19.180667877197266,327,6266.0,1.4056649208068848,63,9897.0
6450,0.2945394814014435,21.57634925842285,374,6266.0,0.64312344789505,11,9897.0
6460,0.2939850687980652,21.565881729125977,329,6266.0,1.2989870309829712,-71,9897.0
6470,0.2944611608982086,14.028169631958008,191,6266.0,-4.266449451446533,-158,9897.0
6480,0.29491713643074036,4.087886333465576,-28,6266.0,-6.909837245941162,-168,9897.0
6490,0.29546087980270386,-7.17651891708374,-222,6266.0,-5.073640823364258,-26,9897.0
6500,0.29461243748664856,-21.2723445892334,-409,6266.0,-2.659522294998169,78,9897.0
6510,0.295103520154953,-31.648258209228516,-591,6266.0,-2.0461134910583496,36,9897.0
6520,0.2955256700515747,-39.34346389770508,-631,6266.0,3.0561091899871826,-51,9897.0
6530,0.2959757447242737,-41.55849075317383,-668,6266.0,7.157318592071533,103,9897.0
6540,0.2963559329509735,-38.620296478271484,-675,6266.0,8.436887741088867,207,9897.0
6550,0.29874634742736816,-36.45213317871094,-613,6266.0,9.348325729370117,191,9897.0
6560,0.2994559407234192,-31.08503532409668,-527,6266.0,8.864866256713867,271,9897.0
6570,0.2999650537967682,-26.209117889404297,-384,6266.0,8.082620620727539,115,9897.0
6580,0.30036962032318115,-20.594009399414062,-274,6266.0,4.35035514831543,-46,9897.0
6590,0.3011784553527832,-10.061123847961426,-181,6266.0,1.1789970397949219,-111,9897.0
6600,0.3016469180583954,-1.4556292295455933,38,6266.0,-1.6962966918945312,-112,9897.0
6610,0.30215132236480713,8.501486778259277,196,6266.0,-3.611304998397827,-62,9897.0
6620,0.30267900228500366,16.88825225830078,382,6266.0,-4.2682976722717285,-124,9897.0
6630,0.30347174406051636,21.249271392822266,410,6266.0,-4.980559349060059,-50,9897.0
6640,0.30391624569892883,23.485607147216797,410,6266.0,-5.678135871887207,-42,9897.0
6650,0.30431151390075684,20.336322784423828,305,6266.0,-4.434739589691162,31,9897.0
6660,0.30465590953826904,17.305944442749023,181,6266.0,-2.104799270629883,2,9897.0
6670,0.3049134612083435,13.501664161682129,189,6266.0,0.029380997642874718,-70,9897.0
6680,0.30612099170684814,9.058828353881836,141,6266.0,0.9061082005500793,-144,9897.0
6690,0.306499719619751,3.2548105716705322,38,6266.0,-1.8023215532302856,-45,9897.0
6700,0.3069920837879181,-1.2137396335601807,-37,6266.0,-1.5349891185760498,101,9897.0
6710,0.30737799406051636,-4.304643154144287,-100,6266.0,-3.2408010959625244,99,9897.0
6720,0.3075752258300781,-7.242176055908203,-44,6266.0,0.2748076021671295,-1,9897.0
6730,0.30790331959724426,-7.501039505004883,-56,6266.0,0.20991502702236176,-55,9897.0
6740,0.30812713503837585,-4.078499794006348,-35,6266.0,1.3438847064971924,-60,9897.0
6750,0.3084583580493927,-2.611553907394409,-2,6266.0,-1.6547517776489258,-47,9897.0
6760,0.3076338768005371,-0.2394675463438034,25,6266.0,-2.764893054962158,-37,9897.0
6770,0.30779942870140076,0.816236138343811,-4,6266.0,-4.654215335845947,-99,9897.0
6780,0.30799582600593567,2.9706013202667236,5,6266.0,-5.190861701965332,-160,9897.0
6790,0.3082180917263031,2.8216121196746826,36,6266.0,-4.860029697418213,-208,9897.0
6800,0.3083515763282776,5.3016276359558105,65,6266.0,-3.1691946983337402,-33,9897.0
6810,0.3079812228679657,6.926794528961182,101,6266.0,-0.3345504105091095,92,9897.0
6820,0.30817124247550964,9.44926643371582,89,6266.0,-0.5423977971076965,104,9897.0
6830,0.30823060870170593,5.987750053405762,96,6266.0,1.8051402568817139,40,9897.0
6840,0.3082730174064636,2.986544132232666,57,6266.0,7.220831394195557,-13,9897.0
6850,0.3079095482826233,-0.4891078770160675,-2,6266.0,5.6224799156188965,-59,9897.0
6860,0.30782264471054077,-4.039011001586914,-55,6266.0,4.013964653015137,23,9897.0
6870,0.30816397070884705,-7.055383205413818,-116,6266.0,-0.7179010510444641,63,9897.0
6880,0.3082485795021057,-6.947153568267822,-136,6266.0,-3.399488925933838,94,9897.0
6890,0.3083658814430237,-10.085371971130371,-191,6266.0,-6.796651840209961,-57,9897.0
6900,0.30786633491516113,-12.582672119140625,-199,6266.0,-4.549959182739258,-50,9897.0
6910,0.3079732358455658,-13.83374309539795,-212,6266.0,-5.457306861877441,-166,9897.0
6920,0.30791541934013367,-12.821569442749023,-210,6266.0,-7.101496696472168,-85,9897.0
6930,0.30803191661834717,-9.678531646728516,-109,6266.0,-9.131643295288086,-201,9897.0
6940,0.30720841884613037,-8.99583911895752,-115,6266.0,-6.105140209197998,-185,9897.0
6950,0.30713996291160583,-5.169022560119629,-43,6266.0,-4.879387378692627,-104,9897.0
6960,0.30714151263237,-2.69494366645813,2,6266.0,-4.804097652435303,-41,9897.0
6970,0.3070817291736603,-0.41446101665496826,33,6266.0,-2.211991548538208,72,9897.0
6980,0.30786222219467163,1.6902596950531006,-16,6266.0,0.33596593141555786,161,9897.0
6990,0.30781102180480957,2.0773203372955322,-36,6266.0,-2.8957362174987793,81,9897.0
7000,0.30784302949905396,2.135240077972412,-44,6266.0,-2.7950668334960938,45,9897.0
7010,0.30771681666374207,-2.628098964691162,-92,6266.0,-1.042982816696167,-28,9897.0
7020,0.307734876871109,-4.753684043884277,-87,6266.0,0.48813700675964355,-7,9897.0
7030,0.3093746304512024,-5.928707599639893,-119,6266.0,-0.758364200592041,-40,9897.0
7040,0.3094576299190521,-6.641827583312988,-95,6266.0,2.7477073669433594,-19,9897.0
7050,0.3095497190952301,-6.636622905731201,-73,6266.0,0.7329323291778564,7,9897.0
7060,0.3097231388092041,-6.26242733001709,-71,6266.0,1.4353889226913452,12,9897.0
7070,0.3116016983985901,-2.6284892559051514,-26,6266.0,0.7431658506393433,12,9897.0
7080,0.311951220035553,-1.749450445175171,-30,6266.0,1.6047991514205933,-1,9897.0
7090,0.31229618191719055,1.4505599737167358,60,6266.0,-0.7019801139831543,42,9897.0
7100,0.312649130821228,2.3560986518859863,77,6266.0,1.0301843881607056,34,9897.0
7110,0.3129960000514984,3.762808322906494,98,6266.0,2.280216932296753,95,9897.0
7120,0.31420740485191345,6.994241714477539,96,6266.0,0.14855045080184937,41,9897.0
7130,0.3146505355834961,6.111405849456787,105,6266.0,2.175069570541382,62,9897.0
7140,0.3151003122329712,6.492597579956055,99,6266.0,1.49214506149292,52,9897.0
7150,0.3155670762062073,7.579932689666748,101,6266.0,0.776546061038971,22,9897.0
7160,0.31740617752075195,4.124902248382568,123,6266.0,4.277015686035156,-86,9897.0
7170,0.3178861439228058,2.5526182651519775,70,6266.0,2.770503282546997,16,9897.0
7180,0.318352073431015,2.661734104156494,31,6266.0,2.562877893447876,-21,9897.0
7190,0.31880125403404236,1.740151286125183,21,6266.0,2.418684959411621,-1,9897.0
7200,0.31951647996902466,1.8416239023208618,22,6266.0,-0.3844746947288513,102,9897.0
7210,0.3199441134929657,1.3563251495361328,41,6266.0,0.15337194502353668,24,9897.0
7220,0.3203674554824829,1.7855517864227295,23,6266.0,1.4370077848434448,11,9897.0
7230,0.32077914476394653,4.947879314422607,91,6266.0,-3.182309627532959,-33,9897.0
7240,0.3211875855922699,6.2165656089782715,107,6266.0,-1.8373351097106934,-78,9897.0
7250,0.32390010356903076,7.746754169464111,139,6266.0,0.6897350549697876,18,9897.0
7260,0.324353963136673,7.564119815826416,157,6266.0,-1.5545470714569092,26,9897.0
7270,0.3248344361782074,7.564276218414307,107,6266.0,3.0275685787200928,145,9897.0
7280,0.32529082894325256,7.967470169067383,116,6266.0,1.347359538078308,107,9897.0
7290,0.3264387845993042,7.35302209854126,134,6266.0,1.9696727991104126,14,9897.0
7300,0.32727524638175964,4.786015510559082,120,6266.0,3.8293750286102295,-4,9897.0
7310,0.3280663788318634,4.330672740936279,92,6266.0,3.305844783782959,31,9897.0
7320,0.32847946882247925,4.8351149559021,96,6266.0,4.171043395996094,87,9897.0
7330,0.32893529534339905,3.6702218055725098,82,6266.0,-0.19593863189220428,49,9897.0
7340,0.328817754983902,3.4065186977386475,53,6266.0,-1.4637264013290405,75,9897.0
7350,0.32907071709632874,2.1138415336608887,24,6266.0,-5.235408306121826,-42,9897.0
7360,0.3293607831001282,0.44166719913482666,12,6266.0,-4.400415897369385,-124,9897.0
7370,0.32958173751831055,-0.9737818241119385,21,6266.0,-4.1581807136535645,-237,9897.0
7380,0.3299010396003723,-2.8228793144226074,-64,6266.0,0.7799351811408997,-105,9897.0
7390,0.32999786734580994,-1.485148310661316,-65,6266.0,-3.773591995239258,-9,9897.0
7400,0.33010804653167725,-3.2990732192993164,-9,6266.0,-3.3370842933654785,52,9897.0
7410,0.33020439743995667,-2.417789936065674,-96,6266.0,-1.6641367673873901,56,9897.0
7420,0.3313470184803009,-2.964104175567627,-50,6266.0,2.169567346572876,1,9897.0
7430,0.33143189549446106,-1.8687093257904053,-73,6266.0,1.9375323057174683,-92,9897.0
7440,0.3314838409423828,-0.3866976499557495,-52,6266.0,2.8775312900543213,-114,9897.0
7450,0.33150210976600647,-2.7275760173797607,-51,6266.0,1.159813642501831,-36,9897.0
7460,0.3315257132053375,-2.2163474559783936,-41,6266.0,3.6188058853149414,72,9897.0
7470,0.3321029543876648,0.46101048588752747,-32,6266.0,2.210466146469116,189,9897.0
7480,0.33210811018943787,-0.6603855490684509,-54,6266.0,3.459458827972412,154,9897.0
7490,0.33211514353752136,-1.5280687808990479,-50,6266.0,1.4107604026794434,130,9897.0
7500,0.3320828378200531,0.6903116703033447,-7,6266.0,0.2773634195327759,-9,9897.0
7510,0.33239245414733887,0.46927401423454285,28,6266.0,3.753038167953491,-23,9897.0
7520,0.3323405683040619,0.03805256634950638,25,6266.0,1.5749130249023438,-59,9897.0
7530,0.33228227496147156,-0.8935319781303406,35,6266.0,1.2161856889724731,-19,9897.0
7540,0.3322085440158844,-1.262099027633667,-8,6266.0,2.48827862739563,76,9897.0
7550,0.3321254551410675,-2.147965431213379,-6,6266.0,0.1519254595041275,127,9897.0
7560,0.3324072062969208,-1.5798956155776978,16,6266.0,0.6877861022949219,138,9897.0
7570,0.33232635259628296,-0.7068021893501282,2,6266.0,-0.6309728026390076,80,9897.0
7580,0.3322235643863678,-0.020221948623657227,37,6266.0,-0.5626525282859802,9,9897.0
7590,0.3321091830730438,0.28491148352622986,49,6266.0,0.46279552578926086,-67,9897.0
7600,0.33233481645584106,-0.610978901386261,42,6266.0,0.2319905012845993,-82,9897.0
7610,0.33218881487846375,0.33336326479911804,19,6266.0,2.46927809715271,-66,9897.0
7620,0.33200210332870483,0.4999927878379822,38,6266.0,2.1327321529388428,4,9897.0
7630,0.3318544626235962,0.22515451908111572,27,6266.0,2.0497617721557617,75,9897.0
7640,0.33141350746154785,-0.19646544754505157,11,6266.0,1.5059019327163696,128,9897.0
7650,0.33124396204948425,-1.5669370889663696,-53,6266.0,2.0759453773498535,129,9897.0
7660,0.33106011152267456,-1.6183642148971558,-30,6266.0,1.5345878601074219,42,9897.0
7670,0.3308955729007721,-1.2040776014328003,-15,6266.0,4.58837890625,8,9897.0
7680,0.3307241201400757,-1.509503722190857,4,6266.0,3.546794891357422,-75,9897.0
7690,0.3323051929473877,-1.7873718738555908,19,6266.0,3.184025287628174,-9,9897.0
7700,0.3322535753250122,-0.25486287474632263,9,6266.0,1.4247432947158813,34,9897.0
7710,0.33222150802612305,0.5910369753837585,2,6266.0,-1.7130496501922607,-3,9897.0
7720,0.33227407932281494,-0.5376178622245789,-42,6266.0,1.178164005279541,67,9897.0
7730,0.3325381875038147,0.4272859990596771,-20,6266.0,-0.9662576913833618,72,9897.0
7740,0.3325346112251282,0.7270127534866333,-11,6266.0,-0.3674335479736328,104,9897.0
7750,0.33257657289505005,2.0164880752563477,-1,6266.0,1.6570433378219604,26,9897.0
7760,0.33257561922073364,-0.5302830338478088,-4,6266.0,2.4410693645477295,-28,9897.0
7770,0.33262866735458374,0.11671973764896393,12,6266.0,3.3818366527557373,-140,9897.0
7780,0.33238285779953003,0.6104843616485596,-15,6266.0,1.3945186138153076,-109,9897.0
7790,0.3324302136898041,1.3489290475845337,9,6266.0,-0.19378125667572021,-67,9897.0
7800,0.3325188159942627,2.116314172744751,33,6266.0,0.1758074313402176,23,9897.0
7810,0.3326643109321594,1.3150891065597534,5,6266.0,-0.4768499433994293,0,9897.0
7820,0.33415353298187256,1.120476245880127,11,6266.0,-1.4789701700210571,18,9897.0
7830,0.3343164324760437,0.0729089230298996,9,6266.0,-0.9189921617507935,-15,9897.0
7840,0.33445966243743896,-0.3175070583820343,-27,6266.0,0.5296804904937744,-75,9897.0
7850,0.33457639813423157,0.9132793545722961,14,6266.0,-1.3679569959640503,-91,9897.0
7860,0.3346606194972992,-0.9823868274688721,-23,6266.0,0.7597100138664246,-51,9897.0
7870,0.3353395462036133,-0.8161156177520752,-24,6266.0,0.4085443615913391,-29,9897.0
7880,0.3354935646057129,-1.5867679119110107,-42,6266.0,0.39266395568847656,75,9897.0
7890,0.33562973141670227,-1.3735222816467285,-34,6266.0,1.8248424530029297,33,9897.0
7900,0.3357629179954529,-2.7298290729522705,-40,6266.0,4.583285331726074,25,9897.0
7910,0.33679836988449097,-2.4952316284179688,-45,6266.0,5.527688503265381,24,9897.0
7920,0.336948424577713,-2.0373542308807373,-37,6266.0,2.0133559703826904,-34,9897.0
7930,0.33709609508514404,-1.9329962730407715,-24,6266.0,1.1616684198379517,9,9897.0
7940,0.33726394176483154,-1.2704710960388184,4,6266.0,1.4114925861358643,22,9897.0
7950,0.3389274477958679,-1.0500425100326538,12,6266.0,3.0342025756835938,161,9897.0
7960,0.3392099440097809,-0.2911686301231384,11,6266.0,-3.0764877796173096,98,9897.0
7970,0.3394993543624878,0.04578808695077896,30,6266.0,-3.691845178604126,78,9897.0
7980,0.3397728502750397,-0.8560816645622253,21,6266.0,-1.918418288230896,34,9897.0
7990,0.34003788232803345,-1.1786079406738281,19,6266.0,-2.175055503845215,-97,9897.0
8000,0.3419286906719208,0.9516271948814392,20,6266.0,-0.1504008173942566,-18,9897.0
8010,0.34222671389579773,-0.9911741018295288,-6,6266.0,2.165881633758545,20,9897.0
8020,0.3425416052341461,-1.0422117710113525,13,6266.0,-0.9118470549583435,17,9897.0
8030,0.342819482088089,-1.342147707939148,-4,6266.0,1.3115479946136475,57,9897.0
8040,0.34431004524230957,1.069392442703247,49,6266.0,0.5957547426223755,-5,9897.0
8050,0.34456583857536316,2.795687198638916,6,6266.0,1.7479196786880493,-43,9897.0
8060,0.34476861357688904,2.7349977493286133,76,6266.0,-2.230111837387085,-121,9897.0
8070,0.34494397044181824,6.419862747192383,74,6266.0,0.5361198782920837,-69,9897.0
8080,0.346249520778656,3.2368946075439453,13,6266.0,0.5927613377571106,23,9897.0
8090,0.3464029133319855,4.345572471618652,28,6266.0,-5.085332870483398,18,9897.0
8100,0.34648656845092773,0.6599873900413513,-6,6266.0,-0.8452090620994568,70,9897.0
8110,0.346606969833374,0.1162843257188797,-28,6266.0,-3.0931313037872314,-33,9897.0
8120,0.34673669934272766,-2.379633665084839,-17,6266.0,-1.8829914331436157,-124,9897.0
8130,0.3469395935535431,-3.068680763244629,-18,6266.0,-4.688209533691406,-73,9897.0
8140,0.3470231294631958,-1.4063254594802856,-10,6266.0,-2.023860454559326,36,9897.0
8150,0.3470730483531952,-3.005582332611084,-56,6266.0,-0.9395920634269714,167,9897.0
8160,0.34709134697914124,-3.1251702308654785,-39,6266.0,2.999177932739258,50,9897.0
8170,0.3486230969429016,-3.151362657546997,-23,6266.0,3.4442496299743652,92,9897.0
8180,0.3486252725124359,-4.8518476486206055,19,6266.0,5.174487590789795,10,9897.0
8190,0.34861886501312256,-3.2032887935638428,9,6266.0,7.237710475921631,-55,9897.0
8200,0.3486209213733673,-2.8034048080444336,-16,6266.0,5.875668048858643,42,9897.0
8210,0.34860458970069885,-1.2571429014205933,11,6266.0,1.2213225364685059,84,9897.0
8220,0.34747952222824097,0.12221047282218933,-21,6266.0,0.0801769569516182,104,9897.0
8230,0.3473820686340332,0.40469035506248474,-23,6266.0,1.3867957592010498,83,9897.0
8240,0.347318172454834,0.27509748935699463,-34,6266.0,-1.2358956336975098,4,9897.0
8250,0.34717532992362976,1.6871424913406372,-9,6266.0,-2.276728391647339,-18,9897.0
8260,0.34731143712997437,3.9872117042541504,50,6266.0,0.6006089448928833,-13,9897.0
8270,0.34710997343063354,5.6561102867126465,116,6266.0,-1.125891089439392,-141,9897.0
8280,0.3469926714897156,8.605731964111328,136,6266.0,-2.496735095977783,-116,9897.0
8290,0.3467916250228882,7.684709548950195,128,6266.0,-4.0372796058654785,-131,9897.0
8300,0.3467302918434143,6.39730978012085,84,6266.0,-5.678678512573242,-157,9897.0
8310,0.3465315103530884,3.5117549896240234,63,6266.0,-5.25856876373291,-103,9897.0
8320,0.3462693691253662,1.174950361251831,5,6266.0,-4.853794097900391,-6,9897.0
8330,0.3461258113384247,-1.258289098739624,-61,6266.0,-1.4422823190689087,94,9897.0
8340,0.3458605706691742,-2.1564066410064697,-75,6266.0,-1.433676838874817,137,9897.0
8350,0.3448343575000763,-1.7840087413787842,-81,6266.0,-2.724860191345215,37,9897.0
8360,0.3448430001735687,-2.73679256439209,-83,6266.0,-1.676865577697754,72,9897.0
8370,0.3442527651786804,-5.03394079208374,-63,6266.0,-2.263493776321411,-13,9897.0
8380,0.34425151348114014,-3.6297545433044434,-67,6266.0,1.8550890684127808,18,9897.0
8390,0.34472259879112244,-2.967463731765747,-50,6266.0,-0.8930522203445435,-18,9897.0
8400,0.3443985879421234,-2.478367328643799,-6,6266.0,3.629915237426758,-22,9897.0
8410,0.34406283497810364,0.6746909618377686,48,6266.0,1.189010500907898,15,9897.0
8420,0.3436521291732788,1.2107585668563843,37,6266.0,5.379553318023682,11,9897.0
8430,0.34323111176490784,3.0526950359344482,53,6266.0,6.127554416656494,3,9897.0
8440,0.34371036291122437,2.1083364486694336,68,6266.0,0.3982088565826416,19,9897.0
8450,0.34336087107658386,-0.16231176257133484,-2,6266.0,1.2984477281570435,-82,9897.0
8460,0.343060165643692,-1.073114037513733,11,6266.0,0.22873911261558533,-71,9897.0
8470,0.34265172481536865,-2.0034990310668945,-16,6266.0,0.5266038179397583,-91,9897.0
8480,0.34494510293006897,-2.993842840194702,-26,6266.0,0.5785995125770569,-120,9897.0
8490,0.3447771966457367,-0.9621816277503967,-28,6266.0,-1.0688093900680542,-85,9897.0
8500,0.3446696996688843,-2.6829795837402344,-12,6266.0,3.2750346660614014,-16,9897.0
8510,0.34462666511535645,0.6180908679962158,6,6266.0,1.672183632850647,-18,9897.0
8520,0.3451373279094696,4.094056129455566,25,6266.0,0.3415183126926422,6,9897.0
8530,0.345173716545105,3.631723165512085,60,6266.0,3.622105836868286,58,9897.0
8540,0.3452136814594269,4.595739364624023,27,6266.0,2.2120797634124756,-4,9897.0
8550,0.34527698159217834,4.067501068115234,26,6266.0,1.3987118005752563,39,9897.0
8560,0.3454326093196869,3.9050800800323486,47,6266.0,-1.0819722414016724,21,9897.0
8570,0.3461926579475403,5.766582012176514,45,6266.0,0.9953166842460632,87,9897.0
8580,0.34651175141334534,1.6195346117019653,-22,6266.0,2.3878769874572754,63,9897.0
8590,0.3468422591686249,2.1038272380828857,-4,6266.0,1.964716911315918,8,9897.0
8600,0.34722185134887695,-0.9919851422309875,-37,6266.0,2.4356954097747803,45,9897.0
8610,0.34889066219329834,-1.902784824371338,-42,6266.0,-2.157743215560913,-54,9897.0
8620,0.34938138723373413,-2.8413522243499756,-57,6266.0,-2.39737606048584,-44,9897.0
8630,0.34989580512046814,-2.159762144088745,-60,6266.0,-2.9513981342315674,2,9897.0
8640,0.3504016101360321,-3.297147512435913,-30,6266.0,1.231184720993042,-32,9897.0
8650,0.3508776128292084,-2.077817678451538,-10,6266.0,2.3381426334381104,0,9897.0
8660,0.3531775176525116,0.7980506420135498,15,6266.0,-1.074694037437439,-3,9897.0
8670,0.3536624014377594,1.0111637115478516,7,6266.0,2.902214288711548,84,9897.0
8680,0.35408130288124084,1.8441261053085327,24,6266.0,-0.6492177844047546,141,9897.0
8690,0.35444456338882446,2.2912166118621826,13,6266.0,-1.61839759349823,103,9897.0
8700,0.3544848561286926,2.309356451034546,33,6266.0,-4.291012287139893,-33,9897.0
8710,0.3548037111759186,0.8556957840919495,76,6266.0,-0.26185742020606995,-44,9897.0
8720,0.3551170825958252,-0.8303308486938477,79,6266.0,1.2836493253707886,-101,9897.0
8730,0.3554113507270813,-1.3379191160202026,40,6266.0,1.5688403844833374,-77,9897.0
8740,0.35468870401382446,-1.4605703353881836,4,6266.0,1.9699554443359375,-16,9897.0
8750,0.3548769950866699,-1.9605790376663208,-14,6266.0,-0.31417176127433777,79,9897.0
8760,0.3550057113170624,-0.911941647529602,-40,6266.0,2.9061951637268066,104,9897.0
8770,0.35503527522087097,-1.0618696212768555,-24,6266.0,5.551535606384277,124,9897.0
8780,0.35497573018074036,1.2780433893203735,17,6266.0,1.54830801486969,40,9897.0
8790,0.3553089499473572,2.484330177307129,-10,6266.0,2.9133951663970947,23,9897.0
8800,0.35518768429756165,2.6055448055267334,-22,6266.0,1.4796444177627563,-80,9897.0
8810,0.35502520203590393,2.0847628116607666,23,6266.0,0.8345826268196106,-82,9897.0
8820,0.3548220992088318,-1.633440375328064,-4,6266.0,1.0509113073349,-97,9897.0
8830,0.3547428548336029,-2.9381470680236816,-52,6266.0,2.097115993499756,7,9897.0
8840,0.35448065400123596,-3.317122220993042,-58,6266.0,-0.9732519388198853,91,9897.0
8850,0.3541654944419861,-1.1509581804275513,-48,6266.0,-1.358657956123352,157,9897.0
8860,0.3537923991680145,-1.4431232213974,-66,6266.0,-1.4500536918640137,102,9897.0
8870,0.35438278317451477,-1.1066100597381592,-28,6266.0,-2.048417806625366,26,9897.0
8880,0.3540054261684418,-1.2070447206497192,22,6266.0,-0.042086753994226456,-14,9897.0
8890,0.35361650586128235,-0.67845618724823,23,6266.0,-0.9883277416229248,-46,9897.0
8900,0.35321152210235596,-0.4748050570487976,45,6266.0,0.6789659857749939,-61,9897.0
8910,0.3528091311454773,2.0892364978790283,55,6266.0,2.9091811180114746,-23,9897.0
8920,0.3534086048603058,1.9771254062652588,34,6266.0,-0.2238134890794754,-34,9897.0
8930,0.3529982566833496,1.8412224054336548,39,6266.0,-2.124974489212036,-12,9897.0
8940,0.35250627994537354,1.6653920412063599,71,6266.0,0.9047386050224304,70,9897.0
8950,0.35209107398986816,-0.8226879835128784,26,6266.0,3.045719623565674,163,9897.0
8960,0.3521369397640228,-1.5005472898483276,6,6266.0,1.5067623853683472,83,9897.0
8970,0.35171568393707275,-0.15859416127204895,-27,6266.0,1.3616273403167725,130,9897.0
8980,0.351316899061203,-1.239802598953247,-67,6266.0,0.4656413793563843,91,9897.0
8990,0.35097333788871765,-2.029470205307007,-66,6266.0,-3.7493107318878174,117,9897.0
9000,0.3514940142631531,-3.84537410736084,-46,6266.0,-2.2911484241485596,21,9897.0
9010,0.3511849641799927,-1.903490424156189,-72,6266.0,-0.6518028378486633,5,9897.0
9020,0.3508898913860321,-1.656507134437561,-18,6266.0,0.7839131355285645,75,9897.0
9030,0.3506188690662384,-0.7206220030784607,4,6266.0,0.5953118205070496,44,9897.0
9040,0.3503468334674835,1.4157023429870605,28,6266.0,1.693332552909851,30,9897.0
9050,0.3516451120376587,0.3665606379508972,0,6266.0,1.577512264251709,-19,9897.0
9060,0.3514642119407654,0.22180430591106415,33,6266.0,4.400379180908203,-7,9897.0
9070,0.3513072729110718,0.18330161273479462,12,6266.0,0.22897213697433472,-75,9897.0
9080,0.3511693775653839,-0.5269005298614502,18,6266.0,0.7654151320457458,-19,9897.0
9090,0.35256338119506836,-2.016530990600586,-25,6266.0,3.4029695987701416,-23,9897.0
9100,0.3524971604347229,-1.1191785335540771,3,6266.0,-1.28920578956604,-64,9897.0
9110,0.3524197041988373,-1.5157763957977295,32,6266.0,-2.015575885772705,-58,9897.0
9120,0.3523022532463074,-0.005205137655138969,10,6266.0,-3.0224220752716064,-7,9897.0
9130,0.35213837027549744,1.289384365081787,13,6266.0,-2.777374505996704,15,9897.0
9140,0.35199013352394104,2.5106866359710693,14,6266.0,-2.3676373958587646,14,9897.0
9150,0.35185566544532776,4.731060028076172,11,6266.0,-1.930962324142456,65,9897.0
9160,0.35172343254089355,4.736107349395752,13,6266.0,-1.9021457433700562,127,9897.0
9170,0.35162436962127686,3.8742175102233887,69,6266.0,1.7639387845993042,117,9897.0
9180,0.35325124859809875,2.116569995880127,42,6266.0,1.5668365955352783,75,9897.0
9190,0.3532201051712036,1.0082000494003296,75,6266.0,2.865992307662964,-9,9897.0
9200,0.35315951704978943,-0.27138540148735046,89,6266.0,-1.8227959871292114,11,9897.0
9210,0.353084534406662,-1.3383452892303467,83,6266.0,-0.6411985754966736,-121,9897.0
9220,0.3530622720718384,-1.1680985689163208,71,6266.0,0.019317185506224632,-96,9897.0
9230,0.35539209842681885,-1.2059053182601929,44,6266.0,-3.6384074687957764,-71,9897.0
9240,0.3555111885070801,-0.6992840766906738,26,6266.0,-7.2218194007873535,-83,9897.0
9250,0.3556489646434784,-0.5066065192222595,39,6266.0,-1.6527777910232544,20,9897.0
9260,0.3557295501232147,0.9697533249855042,55,6266.0,-3.3870818614959717,13,9897.0
9270,0.3566459119319916,1.0813639163970947,-1,6266.0,0.23986780643463135,81,9897.0
9280,0.3566911518573761,2.58475399017334,14,6266.0,-0.17637021839618683,84,9897.0
9290,0.35671570897102356,3.521937131881714,38,6266.0,2.4473161697387695,102,9897.0
9300,0.3567200005054474,2.414062976837158,25,6266.0,1.3638373613357544,42,9897.0
9310,0.3594660758972168,0.7503293752670288,6,6266.0,3.555105686187744,66,9897.0
9320,0.35957470536231995,0.02530096471309662,12,6266.0,1.9297972917556763,-83,9897.0
9330,0.35970327258110046,-1.3556674718856812,10,6266.0,0.19181020557880402,-75,9897.0
9340,0.35983628034591675,-2.2667016983032227,-22,6266.0,-0.010697143152356148,-26,9897.0
9350,0.35996013879776,-1.9790717363357544,-48,6266.0,0.5058666467666626,40,9897.0
9360,0.36083248257637024,-2.7382800579071045,-45,6266.0,-4.421962738037109,-51,9897.0
9370,0.360956609249115,-1.9142838716506958,-25,6266.0,-2.2042384147644043,-14,9897.0
9380,0.3610386252403259,-3.559408187866211,-70,6266.0,-3.0487146377563477,-28,9897.0
9390,0.36106473207473755,-1.2230712175369263,-45,6266.0,-3.21974515914917,-6,9897.0
9400,0.36103054881095886,-0.7755165100097656,-37,6266.0,-1.9338949918746948,-33,9897.0
9410,0.3609638512134552,0.7552384734153748,-8,6266.0,0.15661107003688812,-86,9897.0
9420,0.36085695028305054,-0.42953646183013916,-17,6266.0,3.5837655067443848,-92,9897.0
9430,0.36073943972587585,-2.946737051010132,-44,6266.0,5.810337066650391,-79,9897.0
9440,0.36297860741615295,-3.5657007694244385,-93,6266.0,3.060974359512329,-26,9897.0
9450,0.3629468083381653,-3.211677312850952,-93,6266.0,0.666854739189148,90,9897.0
9460,0.3628985583782196,-2.829254627227783,-91,6266.0,1.6595371961593628,134,9897.0
9470,0.3628048300743103,-2.2235584259033203,-60,6266.0,-0.18084818124771118,104,9897.0
9480,0.3626749515533447,-1.160352349281311,-46,6266.0,-2.266814947128296,86,9897.0
9490,0.3638724386692047,0.9351354837417603,8,6266.0,1.868515133857727,-14,9897.0
9500,0.363741397857666,0.4127483069896698,3,6266.0,1.1699726581573486,-57,9897.0
9510,0.3636050820350647,-0.637532651424408,1,6266.0,0.8000513315200806,-60,9897.0
9520,0.363444983959198,-0.5273805260658264,7,6266.0,0.6903203129768372,-1,9897.0
9530,0.36505430936813354,0.8633432984352112,32,6266.0,-0.8077715039253235,31,9897.0
9540,0.3649657070636749,0.2718049883842468,16,6266.0,0.4837151765823364,77,9897.0
9550,0.3648551106452942,0.3868970572948456,-34,6266.0,-0.09559355676174164,102,9897.0
9560,0.36470121145248413,0.6503414511680603,1,6266.0,-0.8445769548416138,81,9897.0
9570,0.36454105377197266,-0.13232280313968658,28,6266.0,-0.21300068497657776,-20,9897.0
9580,0.3658427596092224,1.8023982048034668,119,6266.0,2.028212785720825,-74,9897.0
9590,0.36575713753700256,1.9880125522613525,105,6266.0,2.7870876789093018,-67,9897.0
9600,0.3656167984008789,2.7733981609344482,64,6266.0,0.42994463443756104,-2,9897.0
9610,0.36544811725616455,1.3467645645141602,57,6266.0,1.427932858467102,27,9897.0
9620,0.36594584584236145,0.9600743651390076,57,6266.0,2.6212220191955566,157,9897.0
9630,0.3657523989677429,-0.6070058941841125,-15,6266.0,1.1117719411849976,170,9897.0
9640,0.3655288517475128,-1.0914404392242432,-36,6266.0,1.899774193763733,125,9897.0
9650,0.3652912676334381,-1.7722657918930054,-8,6266.0,-0.080178402364254,86,9897.0
9660,0.36463820934295654,-1.9566521644592285,-13,6266.0,1.0831061601638794,24,9897.0
9670,0.36443328857421875,-2.6016595363616943,10,6266.0,0.059930380433797836,-50,9897.0
9680,0.36418429017066956,-3.297297239303589,5,6266.0,-0.31231361627578735,-55,9897.0
9690,0.36390379071235657,-2.6622653007507324,-4,6266.0,1.0615068674087524,7,9897.0
9700,0.3635972738265991,0.5602228045463562,41,6266.0,-0.43063175678253174,-8,9897.0
9710,0.36557862162590027,-0.14117179811000824,21,6266.0,1.6157840490341187,122,9897.0
9720,0.36535894870758057,2.2995405197143555,41,6266.0,1.5296074151992798,56,9897.0
9730,0.36511239409446716,0.4713640511035919,30,6266.0,-0.23640133440494537,70,9897.0
9740,0.3648609519004822,-0.21498160064220428,10,6266.0,0.7512791156768799,24,9897.0
9750,0.3663211166858673,0.20548295974731445,-4,6266.0,-0.2465890347957611,-58,9897.0
9760,0.3662009835243225,-1.8852767944335938,7,6266.0,0.9251207709312439,-90,9897.0
9770,0.3661004602909088,0.3876303732395172,-15,6266.0,2.9843873977661133,-97,9897.0
9780,0.366011381149292,-1.8057996034622192,-1,6266.0,-0.15476228296756744,-55,9897.0
9790,0.3658987581729889,-1.2902871370315552,-5,6266.0,-0.5397918224334717,-15,9897.0
9800,0.3670634925365448,-1.2049548625946045,-29,6266.0,-1.3381649255752563,45,9897.0
9810,0.36694687604904175,-2.829000473022461,-32,6266.0,-3.2143235206604004,36,9897.0
9820,0.3668018877506256,-1.714664340019226,-6,6266.0,-3.6449787616729736,43,9897.0
9830,0.3666035234928131,-0.7511370182037354,-12,6266.0,-2.032789945602417,24,9897.0
9840,0.3662140667438507,0.9254871010780334,-45,6266.0,-0.549065113067627,-64,9897.0
9850,0.36591842770576477,-0.033727750182151794,-26,6266.0,2.723952054977417,-34,9897.0
9860,0.36561015248298645,-2.3138129711151123,29,6266.0,4.899482727050781,-20,9897.0
9870,0.3653000593185425,0.954662561416626,53,6266.0,5.739738941192627,83,9897.0
9880,0.36499351263046265,2.128291368484497,34,6266.0,2.717491865158081,67,9897.0
9890,0.365075021982193,1.3078364133834839,30,6266.0,2.4181137084960938,144,9897.0
9900,0.3647626042366028,1.73531973361969,0,6266.0,-2.470243453979492,134,9897.0
9910,0.36438634991645813,0.8410173058509827,10,6266.0,-2.584703207015991,34,9897.0
9920,0.36397966742515564,-0.15552131831645966,24,6266.0,-4.599195957183838,14,9897.0
9930,0.363309770822525,-2.17499041557312,-45,6266.0,-1.767784595489502,-25,9897.0
9940,0.3627704977989197,-1.4254331588745117,-28,6266.0,1.785895824432373,-68,9897.0
9950,0.3622164726257324,0.34865596890449524,46,6266.0,-4.146695137023926,-59,9897.0
9960,0.36165139079093933,-0.6786960959434509,40,6266.0,-2.3726537227630615,-37,9897.0
9970,0.3595445156097412,0.957396388053894,31,6266.0,-2.078023910522461,-18,9897.0
9980,0.35894283652305603,1.4757648706436157,33,6266.0,-1.4885748624801636,-38,9897.0
9990,0.35837212204933167,-0.3367411494255066,30,6266.0,1.6959730386734009,100,9897.0
10000,0.3578134775161743,-0.37326598167419434,0,6266.0,2.5545144081115723,162,9897.0
10010,0.35724160075187683,1.4271963834762573,-28,6266.0,0.8726983070373535,154,9897.0
10020,0.35718220472335815,-0.9973682761192322,-60,6266.0,0.21301491558551788,126,9897.0
10030,0.35657671093940735,-2.50948429107666,-98,6266.0,2.809643507003784,133,9897.0
10040,0.3559698760509491,-4.121898174285889,-93,6266.0,1.9211617708206177,11,9897.0
10050,0.35536661744117737,-1.6643096208572388,-50,6266.0,-2.0829765796661377,11,9897.0
10060,0.3563916087150574,-1.7093641757965088,-8,6266.0,-1.4453043937683105,-15,9897.0
10070,0.35596755146980286,1.0300850868225098,28,6266.0,0.8505005240440369,-43,9897.0
10080,0.3555915653705597,0.614143967628479,27,6266.0,0.1970451921224594,29,9897.0
10090,0.3552630543708801,0.36764517426490784,-27,6266.0,-0.6759724020957947,-78,9897.0
10100,0.35572731494903564,1.9839863777160645,47,6266.0,-0.686346173286438,-36,9897.0
10110,0.3555029332637787,0.2487175315618515,10,6266.0,5.104369640350342,-43,9897.0
10120,0.3553095757961273,-0.35683003067970276,41,6266.0,4.674520492553711,0,9897.0
10130,0.355151504278183,0.6508384346961975,16,6266.0,4.043396472930908,-8,9897.0
10140,0.35506731271743774,1.8310015201568604,30,6266.0,2.8901889324188232,-15,9897.0
10150,0.3573566675186157,3.3885233402252197,23,6266.0,1.9848356246948242,0,9897.0
10160,0.35744035243988037,3.061602830886841,-9,6266.0,2.606229543685913,-20,9897.0
10170,0.35751667618751526,2.253851890563965,-28,6266.0,1.4476852416992188,-31,9897.0
10180,0.35758283734321594,2.039905071258545,-9,6266.0,-1.7182269096374512,-17,9897.0
10190,0.3585531413555145,4.248473644256592,5,6266.0,-0.17320497334003448,23,9897.0
10200,0.35872143507003784,2.1832265853881836,-6,6266.0,-3.322141408920288,24,9897.0
10210,0.35890981554985046,4.9329352378845215,-4,6266.0,-0.9497548937797546,69,9897.0
10220,0.359096884727478,4.13672399520874,15,6266.0,0.3245580494403839,44,9897.0
10230,0.3592730760574341,4.105227947235107,50,6266.0,-3.805126667022705,12,9897.0
10240,0.36126846075057983,1.1428554058074951,6,6266.0,0.26616615056991577,62,9897.0
10250,0.3614710867404938,1.199012279510498,-13,6266.0,1.088183045387268,25,9897.0
10260,0.36162427067756653,2.101776123046875,-3,6266.0,-1.0120372772216797,-84,9897.0
10270,0.36175933480262756,1.1280567646026611,24,6266.0,-1.911861777305603,-132,9897.0
10280,0.3619202971458435,0.8817762136459351,35,6266.0,-1.690199851989746,-155,9897.0
10290,0.3620387315750122,-1.1413929462432861,29,6266.0,-1.596295952796936,-142,9897.0
10300,0.36213424801826477,-0.20750296115875244,29,6266.0,-2.784149408340454,-36,9897.0
10310,0.3622567057609558,-0.9427739381790161,-25,6266.0,-4.090856075286865,37,9897.0
10320,0.36300361156463623,0.510595440864563,-10,6266.0,-4.942040920257568,73,9897.0
10330,0.36309540271759033,-0.4206559360027313,27,6266.0,-3.684396982192993,150,9897.0
10340,0.3631291091442108,-1.2534019947052002,33,6266.0,-0.39177563786506653,64,9897.0
10350,0.36309918761253357,0.16066469252109528,61,6266.0,-1.871871829032898,-37,9897.0
10360,0.36303508281707764,0.7631385326385498,76,6266.0,0.7153996229171753,-47,9897.0
10370,0.3633590340614319,-0.30119869112968445,58,6266.0,1.3883095979690552,4,9897.0
10380,0.36324411630630493,1.0295770168304443,41,6266.0,-0.18929144740104675,-32,9897.0
10390,0.36311838030815125,3.217160701751709,34,6266.0,1.017594575881958,130,9897.0
10400,0.36297526955604553,1.4398032426834106,-14,6266.0,-1.7913410663604736,32,9897.0
10410,0.363284170627594,-0.2168179750442505,-22,6266.0,-1.5885608196258545,43,9897.0
10420,0.3631415367126465,-0.7213585376739502,-17,6266.0,-1.7633060216903687,-9,9897.0
10430,0.36296364665031433,-0.6158789992332458,-44,6266.0,1.0473599433898926,-97,9897.0
10440,0.3627532720565796,-1.9500956535339355,-37,6266.0,-1.433504581451416,-152,9897.0
10450,0.36251091957092285,-2.8350257873535156,-69,6266.0,0.6948970556259155,-164,9897.0
10460,0.3628319501876831,-4.750925064086914,-63,6266.0,0.22623014450073242,-87,9897.0
10470,0.3625566363334656,-2.5949134826660156,-57,6266.0,1.0282397270202637,-29,9897.0
10480,0.3622640073299408,-2.060817241668701,-58,6266.0,-2.123746633529663,24,9897.0
10490,0.3619869351387024,-1.7903168201446533,-110,6266.0,0.02218334563076496,80,9897.0
10500,0.36383482813835144,-1.5918673276901245,-19,6266.0,-1.0169188976287842,-56,9897.0
10510,0.36367252469062805,1.1940605640411377,75,6266.0,2.503317356109619,91,9897.0
10520,0.36350834369659424,2.8432250022888184,66,6266.0,-1.7934907674789429,14,9897.0
10530,0.3633398711681366,-0.31260862946510315,27,6266.0,-2.1708693504333496,-79,9897.0
10540,0.3631773889064789,0.9804292321205139,88,6266.0,1.341705083847046,5,9897.0
10550,0.3633301556110382,3.717223882675171,88,6266.0,2.543278694152832,-3,9897.0
10560,0.3631405532360077,1.240492343902588,54,6266.0,0.3672679364681244,24,9897.0
10570,0.36293813586235046,0.59517502784729,30,6266.0,-0.5654163360595703,56,9897.0
10580,0.3627302646636963,-1.5525437593460083,-51,6266.0,2.14499831199646,66,9897.0
10590,0.3627172112464905,-2.638742446899414,-51,6266.0,1.8866322040557861,23,9897.0
10600,0.3625095784664154,-3.284909963607788,-70,6266.0,0.4694264233112335,88,9897.0
10610,0.3622896671295166,-2.8265459537506104,-62,6266.0,-0.34544357657432556,-95,9897.0
10620,0.36205652356147766,-2.638174057006836,1,6266.0,1.192204475402832,-106,9897.0
10630,0.36340227723121643,-1.4787718057632446,34,6266.0,4.348532676696777,-107,9897.0
10640,0.3632042706012726,-0.07699763774871826,17,6266.0,2.3044636249542236,-89,9897.0
10650,0.362972229719162,-0.169115349650383,13,6266.0,0.46001964807510376,-85,9897.0
10660,0.3627387583255768,-0.4984702169895172,-20,6266.0,1.3936711549758911,-2,9897.0
10670,0.3624994158744812,-1.720682978630066,-59,6266.0,3.4146082401275635,31,9897.0
10680,0.3620656132698059,-2.425685405731201,-36,6266.0,1.2448021173477173,68,9897.0
10690,0.3618282079696655,-1.760191559791565,-58,6266.0,-1.7667781114578247,57,9897.0
10700,0.361605703830719,-0.1200140193104744,-24,6266.0,3.141197919845581,84,9897.0
10710,0.3614107668399811,0.33325695991516113,-11,6266.0,2.9141018390655518,111,9897.0
10720,0.3627067804336548,2.0031213760375977,1,6266.0,2.6710422039031982,90,9897.0
10730,0.3625805079936981,1.933480143547058,-42,6266.0,0.582141101360321,18,9897.0
10740,0.3623804748058319,0.8957442045211792,-22,6266.0,-0.9430821537971497,-35,9897.0
10750,0.36213162541389465,1.3040910959243774,8,6266.0,3.1478378772735596,54,9897.0
10760,0.36227911710739136,0.18382196128368378,34,6266.0,4.043135166168213,-11,9897.0
10770,0.3619879484176636,-0.23685181140899658,2,6266.0,5.08372163772583,55,9897.0
10780,0.36168161034584045,0.7479397058486938,0,6266.0,3.1735522747039795,39,9897.0
10790,0.361366868019104,0.2909006178379059,-26,6266.0,0.04074857011437416,73,9897.0
10800,0.36102381348609924,0.05810465291142464,-12,6266.0,1.436662197113037,112,9897.0
10810,0.3619749844074249,-0.5739476084709167,-48,6266.0,1.5052675008773804,106,9897.0
10820,0.3616722524166107,-0.29213079810142517,-25,6266.0,1.0041593313217163,4,9897.0
10830,0.3613528311252594,-1.9531128406524658,-91,6266.0,-1.595914363861084,-44,9897.0
10840,0.36100369691848755,-1.7110326290130615,-44,6266.0,1.5113095045089722,-71,9897.0
10850,0.3630751669406891,-2.302088737487793,-72,6266.0,3.300255060195923,-79,9897.0
10860,0.3629075884819031,-2.836482286453247,-13,6266.0,-2.2666711807250977,-66,9897.0
10870,0.3627315163612366,-1.3773878812789917,-14,6266.0,-0.5563153624534607,-64,9897.0
10880,0.3625546395778656,-0.9421323537826538,7,6266.0,2.9409308433532715,-12,9897.0
10890,0.3623875677585602,0.878489077091217,22,6266.0,1.940490484237671,-9,9897.0
10900,0.3624582588672638,1.4947502613067627,54,6266.0,2.301037311553955,35,9897.0
10910,0.3623236119747162,0.6208632588386536,8,6266.0,0.35694146156311035,36,9897.0
10920,0.36219698190689087,-1.0535318851470947,-17,6266.0,2.291156053543091,63,9897.0
10930,0.3620709180831909,0.47880426049232483,-12,6266.0,-5.644906520843506,64,9897.0
10940,0.36236831545829773,-1.331472396850586,-52,6266.0,-2.80562686920166,74,9897.0
10950,0.36225947737693787,-0.8072181344032288,-38,6266.0,-1.2490373849868774,101,9897.0
10960,0.3621194362640381,0.25646334886550903,40,6266.0,-3.510303020477295,80,9897.0
10970,0.36197492480278015,-1.3991024494171143,18,6266.0,-2.921989917755127,-114,9897.0
10980,0.36150333285331726,-0.5385951399803162,-3,6266.0,-0.7233334183692932,2,9897.0
10990,0.3612976372241974,-2.507152557373047,-4,6266.0,5.713599681854248,47,9897.0
11000,0.36107245087623596,-0.7821394801139832,19,6266.0,4.386434078216553,67,9897.0
11010,0.3608420193195343,-1.44580078125,12,6266.0,4.259632587432861,130,9897.0
11020,0.3606230914592743,-1.1874486207962036,-15,6266.0,1.8559409379959106,113,9897.0
11030,0.36346444487571716,-2.3635497093200684,-20,6266.0,-3.63215708732605,54,9897.0
11040,0.3634146451950073,-0.46228811144828796,-49,6266.0,-4.566188335418701,-10,9897.0
11050,0.3633596897125244,-0.23349647223949432,-48,6266.0,-5.048377513885498,7,9897.0
11060,0.36328375339508057,0.7755513787269592,-42,6266.0,-6.355069637298584,24,9897.0
11070,0.3627152144908905,1.0483883619308472,6,6266.0,-4.261774063110352,-6,9897.0
11080,0.36252468824386597,2.5575482845306396,50,6266.0,-0.4722079038619995,-20,9897.0
11090,0.3623030483722687,2.9175360202789307,66,6266.0,-1.5988277196884155,-160,9897.0
11100,0.36213070154190063,1.3624961376190186,54,6266.0,1.4559344053268433,-113,9897.0
11110,0.36193379759788513,0.31520986557006836,12,6266.0,2.9167587757110596,-66,9897.0
11120,0.36255013942718506,-1.0877326726913452,37,6266.0,1.0823122262954712,-112,9897.0
11130,0.36251235008239746,-2.30754017829895,-14,6266.0,-4.080231189727783,-104,9897.0
11140,0.3624643385410309,-3.628972053527832,-25,6266.0,-5.193414688110352,-36,9897.0
11150,0.3624054789543152,-3.7495908737182617,-64,6266.0,-3.9824273586273193,-40,9897.0
11160,0.36136794090270996,-1.8231145143508911,-38,6266.0,-5.4861159324646,-44,9897.0
11170,0.3611692488193512,0.32680991291999817,-9,6266.0,-2.1068644523620605,-7,9897.0
11180,0.3609309196472168,1.1121881008148193,1,6266.0,-0.18196672201156616,13,9897.0
11190,0.3606207072734833,3.9850690364837646,27,6266.0,5.671930313110352,77,9897.0
11200,0.3598078191280365,3.62662410736084,95,6266.0,-0.6899608969688416,-17,9897.0
11210,0.35946276783943176,1.150638461112976,45,6266.0,-0.2871372401714325,-72,9897.0
11220,0.35912537574768066,0.36321166157722473,27,6266.0,-2.47422194480896,94,9897.0
11230,0.35882946848869324,-0.8159364461898804,-18,6266.0,-1.5474672317504883,58,9897.0
11240,0.3585459589958191,-1.9083447456359863,-71,6266.0,-0.9849691390991211,81,9897.0
11250,0.360202819108963,-4.028643608093262,-104,6266.0,-3.2259345054626465,30,9897.0
11260,0.3599989414215088,-2.8478569984436035,-81,6266.0,-5.592784881591797,-101,9897.0
11270,0.35980015993118286,-1.8624022006988525,-36,6266.0,-3.308129072189331,-41,9897.0
11280,0.3595612049102783,-1.8540459871292114,-28,6266.0,-2.2400424480438232,-50,9897.0
11290,0.36032143235206604,-0.00670511182397604,49,6266.0,-0.26101842522621155,-95,9897.0
11300,0.36010873317718506,2.348663806915283,79,6266.0,2.858812093734741,-22,9897.0
11310,0.3599150478839874,2.0895955562591553,95,6266.0,6.221146106719971,-20,9897.0
11320,0.3597285747528076,1.690306544303894,42,6266.0,5.245904922485352,33,9897.0
11330,0.35954537987709045,1.1963441371917725,16,6266.0,4.05833625793457,62,9897.0
11340,0.35994067788124084,1.1237685680389404,8,6266.0,7.500757694244385,136,9897.0
11350,0.35978397727012634,0.1917981654405594,-21,6266.0,0.1419493854045868,26,9897.0
11360,0.3596336245536804,-1.801576852798462,-40,6266.0,1.636258602142334,52,9897.0
11370,0.35955435037612915,-1.8525385856628418,-68,6266.0,-2.815554618835449,-54,9897.0
11380,0.36083292961120605,0.14152289927005768,-40,6266.0,-4.730884075164795,-60,9897.0
11390,0.36081695556640625,1.1988179683685303,-10,6266.0,-0.20333127677440643,-57,9897.0
11400,0.36078786849975586,2.482753276824951,-2,6266.0,-4.955212116241455,-78,9897.0
11410,0.36072996258735657,3.8880515098571777,49,6266.0,-0.8388330340385437,-67,9897.0
11420,0.3615354299545288,3.1663057804107666,62,6266.0,2.2317144870758057,-85,9897.0
11430,0.36145323514938354,1.9303593635559082,30,6266.0,4.793281555175781,-100,9897.0
11440,0.3613249659538269,0.8920271396636963,18,6266.0,4.91201639175415,-12,9897.0
11450,0.36113259196281433,2.0580458641052246,15,6266.0,7.281258583068848,116,9897.0
11460,0.36093267798423767,1.26637601852417,-23,6266.0,4.371231555938721,134,9897.0
11470,0.3615364134311676,2.312253952026367,23,6266.0,5.654226779937744,127,9897.0
11480,0.3614049553871155,2.3447914123535156,-8,6266.0,4.8980841636657715,200,9897.0
11490,0.3613172173500061,1.8257578611373901,-7,6266.0,1.7770575284957886,207,9897.0
11500,0.361235111951828,0.6462883353233337,18,6266.0,-1.4298099279403687,92,9897.0
11510,0.36265820264816284,1.693630576133728,44,6266.0,0.12919428944587708,81,9897.0
11520,0.36265721917152405,2.6822967529296875,80,6266.0,0.989223837852478,0,9897.0
11530,0.3626517355442047,0.5269918441772461,65,6266.0,1.2334504127502441,-82,9897.0
11540,0.3626249134540558,0.6417812705039978,60,6266.0,-2.5875730514526367,-75,9897.0
11550,0.3625650107860565,-0.04129292815923691,56,6266.0,-2.4682695865631104,-137,9897.0
11560,0.3638419210910797,0.33593839406967163,35,6266.0,-1.504740834236145,-38,9897.0
11570,0.3637843132019043,-0.997136116027832,4,6266.0,0.2962050437927246,8,9897.0
11580,0.36370742321014404,-3.517134189605713,-68,6266.0,0.9504762291908264,91,9897.0
11590,0.3636380732059479,-1.927492380142212,-45,6266.0,1.7289173603057861,104,9897.0
11600,0.3625367283821106,-1.4719884395599365,-46,6266.0,2.1922457218170166,111,9897.0
11610,0.3624171316623688,-1.4953227043151855,-32,6266.0,1.6915907859802246,3,9897.0
11620,0.3623110055923462,-0.3489922285079956,-18,6266.0,2.6707732677459717,-71,9897.0
11630,0.3621877133846283,0.5245447754859924,3,6266.0,2.625756025314331,-159,9897.0
11640,0.36203545331954956,1.2154470682144165,50,6266.0,3.952486038208008,-151,9897.0
11650,0.3618314862251282,0.36990997195243835,20,6266.0,2.2574312686920166,-128,9897.0
11660,0.36161914467811584,0.7428237199783325,-37,6266.0,-1.469508171081543,-31,9897.0
11670,0.3613804280757904,-0.8102737665176392,-40,6266.0,-1.4120264053344727,17,9897.0
11680,0.3611190915107727,-1.9159166812896729,-109,6266.0,-3.4095420837402344,44,9897.0
11690,0.3624006509780884,-1.9847254753112793,-70,6266.0,-0.857791543006897,99,9897.0
11700,0.36221998929977417,-2.030587911605835,-33,6266.0,0.7595694661140442,29,9897.0
11710,0.3620328903198242,-1.7003370523452759,-3,6266.0,2.072446823120117,59,9897.0
11720,0.3618563711643219,0.0027205299120396376,24,6266.0,0.7211787700653076,37,9897.0
11730,0.36261215806007385,0.8765325546264648,11,6266.0,-0.3958584666252136,-22,9897.0
11740,0.36243706941604614,0.5694528818130493,18,6266.0,3.133251667022705,19,9897.0
11750,0.3622046113014221,1.809870719909668,29,6266.0,-0.39838290214538574,-54,9897.0
11760,0.3619866371154785,2.2225232124328613,32,6266.0,0.7006325125694275,108,9897.0
11770,0.3617647886276245,0.15388108789920807,14,6266.0,-1.0073658227920532,30,9897.0
11780,0.3624408543109894,-0.6929081082344055,-7,6266.0,-3.833749771118164,63,9897.0
11790,0.36224234104156494,-1.1826735734939575,5,6266.0,-3.2060887813568115,7,9897.0
11800,0.36205005645751953,-0.9155142903327942,-35,6266.0,-2.4451615810394287,74,9897.0
11810,0.36180704832077026,0.2913132309913635,1,6266.0,-2.4884884357452393,-30,9897.0
11820,0.36334386467933655,-1.6523702144622803,-9,6266.0,0.11081655323505402,69,9897.0
11830,0.3631541430950165,-3.697831153869629,-26,6266.0,-1.6687819957733154,-55,9897.0
11840,0.3629399240016937,-1.4090653657913208,-14,6266.0,0.16612927615642548,-102,9897.0
11850,0.36274027824401855,0.8099967241287231,79,6266.0,-0.7362265586853027,-167,9897.0
11860,0.36255791783332825,-0.08124163746833801,-25,6266.0,2.144024133682251,-12,9897.0
11870,0.3633556067943573,2.065335273742676,1,6266.0,-2.067704916000366,10,9897.0
11880,0.3632071316242218,2.0073797702789307,-18,6266.0,-0.9581999182701111,44,9897.0
11890,0.36305928230285645,0.09549139440059662,-63,6266.0,-1.806946873664856,40,9897.0
11900,0.36291706562042236,-0.5122215747833252,-18,6266.0,-6.016984462738037,-20,9897.0
11910,0.36280396580696106,0.11379963159561157,16,6266.0,-3.5110673904418945,53,9897.0
11920,0.3626517355442047,-0.5020806789398193,-26,6266.0,-2.5793097019195557,73,9897.0
11930,0.36250418424606323,-2.085158109664917,-5,6266.0,-0.06478819251060486,-27,9897.0
11940,0.36234551668167114,0.5516112446784973,20,6266.0,1.7593244314193726,18,9897.0
11950,0.3621077537536621,0.9983518123626709,38,6266.0,0.5387263298034668,-8,9897.0
11960,0.361921489238739,0.3454922139644623,30,6266.0,3.6366207599639893,66,9897.0
11970,0.361724853515625,0.22396735846996307,50,6266.0,1.189608097076416,86,9897.0
11980,0.36150702834129333,-0.20689956843852997,26,6266.0,1.383212924003601,40,9897.0
11990,0.36124131083488464,1.207245111465454,24,6266.0,1.0600329637527466,154,9897.0
12000,0.36124610900878906,0.7550427317619324,-13,6266.0,1.318588137626648,134,9897.0
12010,0.3609709143638611,1.2000858783721924,3,6266.0,-0.031918786466121674,89,9897.0
12020,0.3607024848461151,0.693656861782074,-12,6266.0,-2.181849718093872,77,9897.0
12030,0.36045151948928833,-0.5398285388946533,-35,6266.0,0.10818665474653244,33,9897.0
12040,0.3605397343635559,-1.789984941482544,-20,6266.0,-0.20229922235012054,-78,9897.0
12050,0.3603675067424774,-1.5198386907577515,-35,6266.0,-2.444794178009033,-133,9897.0
12060,0.360181599855423,-0.5959201455116272,22,6266.0,-1.4502558708190918,-171,9897.0
12070,0.3599570691585541,-0.2040708363056183,-1,6266.0,0.26599690318107605,-117,9897.0
12080,0.3605617582798004,2.7895381450653076,39,6266.0,0.5330613255500793,-68,9897.0
12090,0.36026668548583984,-0.07175295054912567,-4,6266.0,3.3481361865997314,-24,9897.0
12100,0.3598985970020294,1.0326972007751465,-14,6266.0,1.7367016077041626,57,9897.0
12110,0.35949981212615967,-0.334079772233963,-24,6266.0,2.619898557662964,44,9897.0
12120,0.3591105341911316,-1.1142046451568604,-49,6266.0,3.4295122623443604,139,9897.0
12130,0.35907095670700073,-0.0527658574283123,-16,6266.0,1.7448980808258057,57,9897.0
12140,0.3587131202220917,-1.402209758758545,-50,6266.0,3.5834507942199707,93,9897.0
12150,0.3583606779575348,-1.697814702987671,-88,6266.0,-1.6099313497543335,-46,9897.0
12160,0.35801762342453003,-1.8357183933258057,-63,6266.0,-5.312746047973633,-44,9897.0
12170,0.35897210240364075,-0.6869368553161621,-36,6266.0,-1.0383541584014893,10,9897.0
12180,0.3586987555027008,-1.5686105489730835,8,6266.0,-4.692780017852783,-130,9897.0
12190,0.3584379553794861,-1.3674945831298828,-11,6266.0,-0.14599569141864777,-76,9897.0
12200,0.3581711947917938,-0.4447958767414093,-5,6266.0,-2.0049214363098145,-23,9897.0
12210,0.357909619808197,-0.5384849905967712,12,6266.0,1.6169551610946655,33,9897.0
12220,0.3581157922744751,-0.010460170917212963,15,6266.0,0.8116799592971802,52,9897.0
12230,0.35792669653892517,1.499981164932251,38,6266.0,5.971189022064209,7,9897.0
12240,0.35771942138671875,-0.17620429396629333,30,6266.0,2.3171305656433105,26,9897.0
12250,0.3574778437614441,0.10561572015285492,58,6266.0,3.647218704223633,135,9897.0
12260,0.35751408338546753,3.2397310733795166,63,6266.0,4.604564666748047,149,9897.0
12270,0.357215017080307,0.9153584837913513,31,6266.0,1.3741809129714966,115,9897.0
12280,0.3568934202194214,0.47564175724983215,-5,6266.0,1.821507215499878,156,9897.0
12290,0.3565554916858673,0.9493551850318909,-16,6266.0,-0.38560014963150024,161,9897.0
12300,0.35806339979171753,0.9366241693496704,-16,6266.0,-2.7603049278259277,52,9897.0
12310,0.35783904790878296,0.6711109280586243,-17,6266.0,-3.738171100616455,67,9897.0
12320,0.35759806632995605,-0.5322233438491821,-13,6266.0,-0.9667888283729553,48,9897.0
12330,0.3573575019836426,2.135455846786499,-39,6266.0,-6.0785698890686035,-5,9897.0
12340,0.3571164608001709,0.6435353755950928,12,6266.0,1.4156023263931274,16,9897.0
12350,0.35844555497169495,-2.272719144821167,-41,6266.0,0.3573917746543884,-64,9897.0
12360,0.35831183195114136,-1.4711791276931763,-11,6266.0,4.8748779296875,-66,9897.0
12370,0.3581889867782593,0.39404943585395813,57,6266.0,1.394670844078064,-19,9897.0
12380,0.35805127024650574,1.3505051136016846,46,6266.0,2.141291379928589,-87,9897.0
12390,0.35873594880104065,1.1940336227416992,64,6266.0,-0.0199909545481205,-119,9897.0
12400,0.3585766553878784,-0.7192506790161133,-20,6266.0,0.1912960559129715,144,9897.0
12410,0.35842323303222656,0.6758001446723938,31,6266.0,5.711039066314697,123,9897.0
12420,0.3582780063152313,-0.2340143918991089,-30,6266.0,5.341656684875488,118,9897.0
12430,0.35812342166900635,-0.45399367809295654,-32,6266.0,3.2641141414642334,25,9897.0
12440,0.359126478433609,-3.545135974884033,-95,6266.0,1.394850730895996,86,9897.0
12450,0.3590191602706909,-0.9391298890113831,-60,6266.0,-1.6706902980804443,-2,9897.0
12460,0.3589131832122803,-0.7124743461608887,-49,6266.0,-3.5915234088897705,-27,9897.0
12470,0.35877740383148193,-0.47101128101348877,-47,6266.0,-1.6020987033843994,-97,9897.0
12480,0.3616017699241638,-0.27371856570243835,-26,6266.0,-5.595534324645996,1,9897.0
12490,0.36163294315338135,-2.465338945388794,31,6266.0,-2.2572808265686035,-189,9897.0
12500,0.36168989539146423,-0.14428938925266266,33,6266.0,-3.7887496948242188,-164,9897.0
12510,0.36172446608543396,1.094057321548462,30,6266.0,-3.446061134338379,-123,9897.0
12520,0.3617199957370758,1.0566151142120361,28,6266.0,-4.012505054473877,28,9897.0
12530,0.3613949120044708,0.729997992515564,34,6266.0,2.01885724067688,102,9897.0
12540,0.36130380630493164,2.5294299125671387,40,6266.0,-1.4103413820266724,84,9897.0
12550,0.36114516854286194,2.0674500465393066,28,6266.0,2.806985855102539,145,9897.0
12560,0.36096540093421936,2.1537909507751465,16,6266.0,4.035983085632324,141,9897.0
12570,0.3627568781375885,3.27740478515625,26,6266.0,5.285006523132324,82,9897.0
12580,0.3626541197299957,3.3101205825805664,4,6266.0,1.0980442762374878,-28,9897.0
12590,0.3625614643096924,1.9305769205093384,-8,6266.0,2.424342393875122,-62,9897.0
12600,0.36248040199279785,-0.9733219742774963,-37,6266.0,1.2863377332687378,-180,9897.0
12610,0.36379531025886536,-2.0300259590148926,-53,6266.0,-10.254603385925293,-289,9897.0
12620,0.3636848032474518,-2.0889017581939697,-60,6266.0,-6.063153266906738,-126,9897.0
12630,0.3635261058807373,-0.7397049069404602,-1,6266.0,-2.5095572471618652,-101,9897.0
12640,0.3633560538291931,-0.09524542838335037,-16,6266.0,1.291367769241333,20,9897.0
12650,0.3631322681903839,1.387821912765503,-22,6266.0,0.7217400670051575,126,9897.0
12660,0.3628391623497009,1.899216651916504,9,6266.0,1.9299098253250122,109,9897.0
12670,0.3625965416431427,1.5310611724853516,29,6266.0,5.362573623657227,125,9897.0
12680,0.36234837770462036,2.1643714904785156,26,6266.0,2.1474320888519287,47,9897.0
12690,0.3621131181716919,-0.37289801239967346,-15,6266.0,4.085081100463867,2,9897.0
12700,0.3633843958377838,-2.594200372695923,-55,6266.0,0.9773914813995361,-9,9897.0
12710,0.3631784915924072,-1.3326847553253174,-12,6266.0,-1.6255120038986206,-31,9897.0
12720,0.3629215359687805,-3.1328494548797607,-32,6266.0,1.8839819431304932,-2,9897.0
12730,0.3626128137111664,-2.2327210903167725,-1,6266.0,-1.9457440376281738,-51,9897.0
12740,0.3629458248615265,-1.1637072563171387,45,6266.0,-1.7965114116668701,-30,9897.0
12750,0.36260154843330383,1.8308956623077393,88,6266.0,-4.096571922302246,-28,9897.0
12760,0.3622059226036072,0.09699111431837082,48,6266.0,-1.8283320665359497,53,9897.0
12770,0.36177489161491394,4.803067684173584,53,6266.0,-3.5100765228271484,115,9897.0
12780,0.36130931973457336,4.792760848999023,22,6266.0,-0.20719590783119202,106,9897.0
12790,0.3594856858253479,3.831355333328247,-11,6266.0,0.06272232532501221,66,9897.0
12800,0.35885220766067505,2.7496073246002197,-6,6266.0,0.8302053809165955,51,9897.0
12810,0.3581875264644623,-2.3532705307006836,-87,6266.0,1.3048614263534546,67,9897.0
12820,0.35752007365226746,-3.4815902709960938,-86,6266.0,-0.24543945491313934,-41,9897.0
12830,0.35888463258743286,-4.124033451080322,-63,6266.0,1.4827836751937866,-83,9897.0
12840,0.3583367168903351,-4.498940467834473,-68,6266.0,2.603476047515869,-115,9897.0
12850,0.3578372001647949,-4.830221176147461,-5,6266.0,5.65068244934082,-91,9897.0
12860,0.3573679029941559,-2.323341131210327,31,6266.0,2.0546834468841553,-93,9897.0
12870,0.35690170526504517,-1.9431102275848389,-10,6266.0,5.190179824829102,-98,9897.0
12880,0.35685309767723083,-1.931946873664856,45,6266.0,1.817070484161377,-164,9897.0
12890,0.3563481867313385,1.0335121154785156,3,6266.0,1.1492642164230347,-93,9897.0
12900,0.3558051884174347,1.4844499826431274,18,6266.0,-1.4238141775131226,2,9897.0
12910,0.3552151918411255,1.3358840942382812,2,6266.0,-1.7798868417739868,-87,9897.0
12920,0.357636421918869,1.3317736387252808,28,6266.0,-2.722684860229492,-83,9897.0
12930,0.35720470547676086,3.157633066177368,37,6266.0,-2.306806802749634,-57,9897.0
12940,0.35670870542526245,1.6388404369354248,-28,6266.0,-5.576878547668457,22,9897.0
12950,0.3560970425605774,1.6976933479309082,-11,6266.0,-2.8153185844421387,37,9897.0
12960,0.357697993516922,2.2469592094421387,-19,6266.0,0.23941457271575928,87,9897.0
12970,0.35719266533851624,-1.0154293775558472,-66,6266.0,-1.5911651849746704,93,9897.0
12980,0.3567064106464386,-1.703477144241333,-85,6266.0,-2.958362102508545,-14,9897.0
12990,0.3562471270561218,-2.4234707355499268,-95,6266.0,-2.798264265060425,54,9897.0
13000,0.35576683282852173,0.2994396686553955,-56,6266.0,-3.554190158843994,40,9897.0
13010,0.35792461037635803,-0.6159195899963379,-75,6266.0,-3.7155587673187256,-45,9897.0
13020,0.35764265060424805,-0.4631945788860321,-77,6266.0,-4.531622886657715,6,9897.0
13030,0.35739609599113464,1.8310983180999756,-21,6266.0,-1.2760215997695923,40,9897.0
13040,0.35720133781433105,2.011327028274536,-47,6266.0,-0.95339035987854,65,9897.0
13050,0.35946401953697205,1.4716601371765137,-50,6266.0,-0.4906444847583771,45,9897.0
13060,0.3594549000263214,0.3999396860599518,-59,6266.0,-3.055177927017212,24,9897.0
13070,0.3594517409801483,0.30712172389030457,-28,6266.0,-0.8915825486183167,-15,9897.0
13080,0.35944506525993347,0.07313134521245956,-42,6266.0,1.9877582788467407,146,9897.0
13090,0.35944148898124695,1.9644793272018433,19,6266.0,-0.44081881642341614,-73,9897.0
13100,0.3609312176704407,1.564328908920288,-1,6266.0,-2.5054430961608887,-37,9897.0
13110,0.3610311448574066,0.46867257356643677,33,6266.0,-2.3051846027374268,-83,9897.0
13120,0.36119166016578674,1.3408657312393188,52,6266.0,-4.89491605758667,-138,9897.0
13130,0.3613441586494446,1.4654686450958252,61,6266.0,-5.593973636627197,-138,9897.0
13140,0.362521231174469,3.555863857269287,110,6266.0,-2.715606451034546,-111,9897.0
13150,0.3627026379108429,4.563671112060547,119,6266.0,-5.087890148162842,-43,9897.0
13160,0.36285486817359924,4.184699535369873,49,6266.0,-1.3197630643844604,45,9897.0
13170,0.36298343539237976,3.2243456840515137,53,6266.0,-3.9483983516693115,46,9897.0
13180,0.3631044328212738,1.3837352991104126,-37,6266.0,-0.28947290778160095,67,9897.0
13190,0.36567991971969604,-0.58458012342453,-45,6266.0,-2.639493227005005,-28,9897.0
13200,0.36587101221084595,-2.3112850189208984,-34,6266.0,-1.553358554840088,-53,9897.0
13210,0.3659849464893341,-2.661860704421997,-50,6266.0,-1.0873425006866455,-103,9897.0
13220,0.3660288155078888,-2.596318006515503,-37,6266.0,-0.7016870379447937,-91,9897.0
13230,0.3680035471916199,-2.9735817909240723,-88,6266.0,2.670778274536133,-19,9897.0
13240,0.36803606152534485,-3.0840916633605957,-107,6266.0,3.6701736450195312,65,9897.0
13250,0.3680271506309509,-2.6293351650238037,-69,6266.0,3.175764799118042,118,9897.0
13260,0.3679727613925934,-1.8698488473892212,-42,6266.0,3.146669626235962,160,9897.0
13270,0.36791667342185974,1.7305843830108643,-34,6266.0,2.471984386444092,128,9897.0
13280,0.3677796423435211,-0.2017611563205719,5,6266.0,0.23915502429008484,5,9897.0
13290,0.36760836839675903,-0.04199954867362976,56,6266.0,-0.24100470542907715,-71,9897.0
13300,0.3673730492591858,-0.3804576098918915,78,6266.0,0.18939347565174103,-92,9897.0
13310,0.36707553267478943,-0.1995238959789276,52,6266.0,0.06895055621862411,-123,9897.0
13320,0.3678871989250183,0.44804146885871887,24,6266.0,-1.7193280458450317,-101,9897.0
13330,0.3675463795661926,0.06894754618406296,-11,6266.0,-2.4571731090545654,-5,9897.0
13340,0.36718159914016724,1.9285266399383545,24,6266.0,-1.441247582435608,51,9897.0
13350,0.36675533652305603,0.7043315172195435,-31,6266.0,2.1202328205108643,153,9897.0
13360,0.3659876883029938,0.1412888765335083,-63,6266.0,4.6837358474731445,146,9897.0
13370,0.3654453456401825,-1.0070757865905762,-26,6266.0,5.264085292816162,100,9897.0
13380,0.3648489713668823,-0.6853923201560974,-5,6266.0,4.81292724609375,30,9897.0
13390,0.36422550678253174,-0.5613513588905334,-17,6266.0,0.9086261987686157,-89,9897.0
13400,0.36533302068710327,-2.0068235397338867,-13,6266.0,6.331757068634033,-21,9897.0
13410,0.3648175001144409,-2.2856171131134033,13,6266.0,6.360360145568848,-54,9897.0
13420,0.3642963767051697,-2.866464853286743,-8,6266.0,3.105548143386841,-1,9897.0
13430,0.3637760281562805,-1.4311695098876953,2,6266.0,3.0882630348205566,48,9897.0
13440,0.3632778227329254,-2.5279877185821533,-7,6266.0,5.401532173156738,121,9897.0
13450,0.36303043365478516,-1.4062857627868652,-16,6266.0,4.926011085510254,129,9897.0
13460,0.3625156879425049,0.14496684074401855,9,6266.0,4.508826732635498,161,9897.0
13470,0.3620072603225708,0.9853726029396057,4,6266.0,0.17681197822093964,174,9897.0
13480,0.3615078926086426,-0.5000051259994507,-44,6266.0,4.220918655395508,237,9897.0
13490,0.36179882287979126,0.454894483089447,-3,6266.0,1.403485655784607,191,9897.0
13500,0.36133167147636414,-0.33726271986961365,-7,6266.0,3.230785846710205,149,9897.0
13510,0.3608385920524597,-2.055469036102295,-42,6266.0,3.776989221572876,189,9897.0
13520,0.3603157699108124,-2.534578800201416,-38,6266.0,3.9510743618011475,134,9897.0
13530,0.35975655913352966,-3.82287859916687,-71,6266.0,3.3328988552093506,135,9897.0
13540,0.3604906499385834,-4.692604064941406,-13,6266.0,3.4206228256225586,22,9897.0
13550,0.36001381278038025,-3.7270350456237793,27,6266.0,1.9112393856048584,-34,9897.0
13560,0.35955536365509033,-2.8587751388549805,15,6266.0,0.45362570881843567,-58,9897.0
13570,0.35910576581954956,-2.018476724624634,18,6266.0,0.1777024269104004,-83,9897.0
13580,0.360157310962677,0.4184414744377136,98,6266.0,-0.059234898537397385,-85,9897.0
13590,0.3598007261753082,-1.4343438148498535,23,6266.0,-0.006259179208427668,-39,9897.0
13600,0.35946792364120483,0.18371015787124634,70,6266.0,-2.1588196754455566,-78,9897.0
13610,0.3591754138469696,0.283868670463562,30,6266.0,-1.9412760734558105,23,9897.0
13620,0.3589465618133545,-1.271781325340271,10,6266.0,-0.25697657465934753,-37,9897.0
13630,0.35869792103767395,-0.5864248871803284,23,6266.0,-1.8707274198532104,16,9897.0
13640,0.3584481477737427,0.43053677678108215,39,6266.0,-1.021512746810913,7,9897.0
13650,0.35820016264915466,-0.3080708384513855,12,6266.0,2.783522367477417,60,9897.0
13660,0.35794538259506226,0.5740661025047302,-24,6266.0,-1.7775245904922485,108,9897.0
13670,0.35773175954818726,2.35867977142334,-22,6266.0,0.2034287303686142,92,9897.0
13680,0.35750624537467957,0.8365991115570068,-47,6266.0,1.2227824926376343,144,9897.0
13690,0.3572852909564972,2.728705883026123,-13,6266.0,-0.7957695126533508,94,9897.0
13700,0.3570578396320343,0.35964518785476685,8,6266.0,0.99381023645401,84,9897.0
13710,0.3589322865009308,-2.6364858150482178,-37,6266.0,0.26692330837249756,13,9897.0
13720,0.3588084578514099,-3.5027687549591064,-23,6266.0,0.48313233256340027,-112,9897.0
13730,0.3586711883544922,-2.3040592670440674,1,6266.0,0.17366264760494232,-167,9897.0
13740,0.35852986574172974,-1.8753273487091064,-35,6266.0,-0.7352634072303772,-154,9897.0
13750,0.35840004682540894,-2.9954113960266113,-34,6266.0,-1.0001102685928345,-144,9897.0
13760,0.3585253059864044,-0.5356314182281494,12,6266.0,-0.8961516618728638,-153,9897.0
13770,0.35842886567115784,0.8114105463027954,11,6266.0,-0.23088446259498596,-5,9897.0
13780,0.358358234167099,1.7239363193511963,43,6266.0,2.0402841567993164,32,9897.0
13790,0.35828733444213867,4.224146842956543,36,6266.0,-0.4357539117336273,26,9897.0
13800,0.35807403922080994,3.497889518737793,-6,6266.0,0.8832101225852966,78,9897.0
13810,0.35794270038604736,1.3218597173690796,-21,6266.0,2.0716774463653564,-1,9897.0
13820,0.35779082775115967,0.5097286701202393,-22,6266.0,0.08339535444974899,58,9897.0
13830,0.35760578513145447,-1.6736953258514404,-37,6266.0,1.505725622177124,-37,9897.0
13840,0.35740119218826294,-0.9126144051551819,49,6266.0,-3.5310957431793213,-92,9897.0
13850,0.3574187755584717,0.31450504064559937,14,6266.0,-1.5102713108062744,-44,9897.0
13860,0.3571842312812805,-0.08975028246641159,34,6266.0,-0.8898736238479614,-7,9897.0
13870,0.3569273054599762,0.9626596570014954,5,6266.0,-1.8152530193328857,9,9897.0
13880,0.35664916038513184,1.0076264142990112,2,6266.0,-1.9580130577087402,61,9897.0
13890,0.3577081561088562,0.11986932158470154,-6,6266.0,-1.3077722787857056,16,9897.0
13900,0.3574851155281067,2.431656837463379,18,6266.0,-4.116155624389648,74,9897.0
13910,0.3572595715522766,1.5605878829956055,10,6266.0,1.9259096384048462,70,9897.0
13920,0.3570231795310974,1.7350679636001587,0,6266.0,3.283198118209839,70,9897.0
13930,0.3568487763404846,1.455383539199829,-38,6266.0,0.9797817468643188,-4,9897.0
13940,0.3565165102481842,2.184570074081421,-27,6266.0,1.6484789848327637,-19,9897.0
13950,0.3561181128025055,1.0649287700653076,-10,6266.0,3.1671156883239746,-75,9897.0
13960,0.35567721724510193,1.423890471458435,-18,6266.0,0.24082772433757782,-137,9897.0
13970,0.35525524616241455,2.5071675777435303,53,6266.0,-1.154343843460083,-140,9897.0
13980,0.35516592860221863,1.257085919380188,77,6266.0,-0.7112763524055481,-122,9897.0
13990,0.35481810569763184,2.005594491958618,27,6266.0,-1.0147192478179932,-112,9897.0
14000,0.3545110821723938,0.0328955203294754,53,6266.0,-3.604989528656006,-101,9897.0
14010,0.3542289733886719,1.399613380432129,47,6266.0,-0.5716345906257629,44,9897.0
14020,0.3546348214149475,-0.3750242590904236,9,6266.0,0.9543051719665527,118,9897.0
14030,0.3543790876865387,0.771852433681488,-1,6266.0,-0.7069665789604187,85,9897.0
14040,0.3541138470172882,1.007180094718933,-45,6266.0,0.2751571536064148,137,9897.0
14050,0.3538394272327423,-0.9786701202392578,-31,6266.0,0.21966393291950226,196,9897.0
14060,0.3545059859752655,-0.3479606509208679,-14,6266.0,4.093934059143066,99,9897.0
14070,0.3542500436306,-0.11308643966913223,-54,6266.0,-0.47014814615249634,118,9897.0
14080,0.3539693057537079,-3.3317039012908936,-27,6266.0,2.182813882827759,2,9897.0
14090,0.35363757610321045,-2.7779252529144287,-7,6266.0,-3.1198184490203857,-86,9897.0
14100,0.3532595634460449,-1.316285490989685,68,6266.0,0.7404634356498718,21,9897.0
14110,0.35392069816589355,0.856027364730835,55,6266.0,1.2514243125915527,-39,9897.0
14120,0.3535339832305908,1.383898377418518,66,6266.0,2.425016403198242,-25,9897.0
14130,0.35317176580429077,2.4489850997924805,100,6266.0,-3.1963512897491455,-104,9897.0
14140,0.35285618901252747,1.4687494039535522,34,6266.0,-3.9641125202178955,-59,9897.0
14150,0.3526061773300171,0.5682375431060791,63,6266.0,-0.8910178542137146,-10,9897.0
14160,0.3523246943950653,0.8777391910552979,68,6266.0,-1.8111597299575806,-20,9897.0
14170,0.3520407974720001,1.0523109436035156,60,6266.0,-1.6319527626037598,75,9897.0
14180,0.35177081823349,0.2289298176765442,28,6266.0,-1.313845157623291,73,9897.0
14190,0.3515511155128479,2.053415536880493,10,6266.0,-0.9242385029792786,64,9897.0
14200,0.3523833751678467,0.4986654222011566,-12,6266.0,3.657503843307495,124,9897.0
14210,0.3522319793701172,0.2513108551502228,-38,6266.0,3.399630308151245,138,9897.0
14220,0.3520616590976715,-0.6073523759841919,-46,6266.0,6.227853775024414,124,9897.0
14230,0.35187602043151855,-0.04813159629702568,-35,6266.0,4.524481773376465,137,9897.0
