timestamp,kalman.stateZ,gyro.x,gyro.xRaw,gyro.xVariance,gyro.y,gyro.yRaw,gyro.yVariance
0,0.27759432792663574,-0.2659150958061218,4,6266.0,1.6555280685424805,26,9897.0
10,0.2775562107563019,-0.2268609255552292,4,6266.0,1.6590032577514648,23,9897.0
20,0.2777371406555176,-0.3024156391620636,-1,6266.0,1.3752903938293457,23,9897.0
30,0.27770063281059265,0.07952199876308441,2,6266.0,1.0253242254257202,14,9897.0
40,0.2776543200016022,0.29973021149635315,8,6266.0,0.4430290758609772,7,9897.0
50,0.27760621905326843,0.6266351938247681,11,6266.0,-0.14227819442749023,-5,9897.0
60,0.2777426242828369,0.5520191192626953,8,6266.0,-0.2596052289009094,-5,9897.0
70,0.2777126431465149,-0.2802557945251465,2,6266.0,-0.919584333896637,-18,9897.0
80,0.27769148349761963,-0.23555739223957062,0,6266.0,-1.2636805772781372,-24,9897.0
90,0.2776835560798645,-0.24205315113067627,-5,6266.0,-1.6094926595687866,-29,9897.0
100,0.27823296189308167,-0.783494234085083,-11,6266.0,-1.8557803630828857,-32,9897.0
110,0.278251588344574,-1.0037168264389038,-14,6266.0,-2.070726156234741,-28,9897.0
120,0.27825579047203064,-0.7677779793739319,-9,6266.0,-2.293423891067505,-38,9897.0
130,0.27825450897216797,-0.5242944955825806,-2,6266.0,-2.414699077606201,-39,9897.0
140,0.2782460153102875,0.24435721337795258,7,6266.0,-2.7424070835113525,-41,9897.0
150,0.27819809317588806,0.8680042624473572,18,6266.0,-2.730186700820923,-46,9897.0
160,0.2781923711299896,0.9252007603645325,14,6266.0,-3.1143910884857178,-50,9897.0
170,0.2781864106655121,0.1795339584350586,2,6266.0,-3.399858236312866,-60,9897.0
180,0.2781843841075897,0.06980518996715546,-6,6266.0,-5.948156356811523,-111,9897.0
190,0.2785381078720093,-0.5443565845489502,2,6266.0,-10.211871147155762,-195,9897.0
200,0.2786639332771301,-1.2291792631149292,7,6266.0,-17.91529655456543,-341,9897.0
210,0.2787795662879944,1.4965307712554932,5,6266.0,-30.190929412841797,-535,9897.0
220,0.2790352702140808,3.7880024909973145,87,6266.0,-45.04671096801758,-819,9897.0
230,0.2790201008319855,5.021820545196533,68,6266.0,-62.7152214050293,-1096,9897.0
240,0.2792362570762634,6.574094772338867,125,6266.0,-76.08641815185547,-1353,9897.0
250,0.27910223603248596,4.852596759796143,111,6266.0,-88.03206634521484,-1508,9897.0
260,0.2788736820220947,3.6915087699890137,90,6266.0,-96.03614044189453,-1599,9897.0
270,0.2788955867290497,5.20181941986084,60,6266.0,-97.5818099975586,-1603,9897.0
280,0.279449999332428,-0.23874801397323608,-54,6266.0,-97.61394500732422,-1439,9897.0
290,0.27891305088996887,-1.4086148738861084,-23,6266.0,-81.41297912597656,-1282,9897.0
300,0.2786564230918884,-0.8025895357131958,-5,6266.0,-65.28863525390625,-937,9897.0
310,0.2801806926727295,-0.2775951623916626,64,6266.0,-44.479698181152344,-692,9897.0
320,0.28070539236068726,3.0279650688171387,58,6266.0,-22.88204002380371,-293,9897.0
330,0.28092166781425476,5.194035530090332,23,6266.0,-3.972883939743042,152,9897.0
340,0.2808787524700165,6.414908409118652,79,6266.0,12.02221965789795,343,9897.0
350,0.2811168432235718,7.606158256530762,116,6266.0,22.804733276367188,427,9897.0
360,0.2813117504119873,7.626113414764404,124,6266.0,34.29826354980469,474,9897.0
370,0.27937254309654236,5.859792709350586,179,6266.0,34.922889709472656,507,9897.0
380,0.279228150844574,6.785186767578125,61,6266.0,32.155250549316406,547,9897.0
390,0.279061496257782,4.199626922607422,55,6266.0,26.303510665893555,534,9897.0
400,0.2791091501712799,3.7286176681518555,3,6266.0,19.242931365966797,323,9897.0
410,0.2791108787059784,3.6539270877838135,-41,6266.0,9.254985809326172,241,9897.0
420,0.27912649512290955,0.1498318761587143,-58,6266.0,0.7902407646179199,39,9897.0
430,0.2790343761444092,-1.3894586563110352,-28,6266.0,-6.839632987976074,-284,9897.0
440,0.27916428446769714,-1.7264533042907715,-40,6266.0,-16.096492767333984,-440,9897.0
450,0.2791186273097992,-2.726189136505127,-43,6266.0,-21.51329803466797,-383,9897.0
460,0.2802133858203888,-2.3023693561553955,-29,6266.0,-21.663328170776367,-372,9897.0
470,0.2803315818309784,-2.299135684967041,-40,6266.0,-20.683115005493164,-362,9897.0
480,0.28038424253463745,-2.041074514389038,-118,6266.0,-17.450054168701172,-322,9897.0
490,0.2807137370109558,-2.054561138153076,-31,6266.0,-14.51377010345459,-88,9897.0
500,0.2813871204853058,-2.736250162124634,-84,6266.0,-6.036252975463867,102,9897.0
510,0.28166085481643677,-0.12369313091039658,-124,6266.0,0.6306398510932922,81,9897.0
520,0.28202933073043823,1.8947819471359253,-44,6266.0,6.265626430511475,322,9897.0
530,0.2824103832244873,-1.0909148454666138,7,6266.0,16.63118553161621,419,9897.0
540,0.28142523765563965,-0.34955406188964844,45,6266.0,23.367446899414062,227,9897.0
550,0.28137093782424927,-1.338029146194458,95,6266.0,23.5803279876709,302,9897.0
560,0.2815563678741455,0.2657665014266968,-27,6266.0,22.928272247314453,380,9897.0
570,0.28217849135398865,-0.8684728145599365,-89,6266.0,19.252477645874023,414,9897.0
580,0.2825859487056732,0.1805921345949173,-49,6266.0,18.05733299255371,408,9897.0
590,0.2850816249847412,1.4640780687332153,-36,6266.0,13.527300834655762,242,9897.0
600,0.2857634425163269,0.13614843785762787,11,6266.0,11.760268211364746,-86,9897.0
610,0.2863519787788391,0.1462778002023697,118,6266.0,6.430168628692627,-173,9897.0
620,0.2866951823234558,0.369735985994339,-26,6266.0,0.7023161053657532,-100,9897.0
630,0.28778472542762756,-0.26389938592910767,-37,6266.0,-3.036346912384033,78,9897.0
640,0.2881346642971039,1.0239081382751465,25,6266.0,-7.517073154449463,-10,9897.0
650,0.288536012172699,-0.11536946892738342,25,6266.0,-6.8186211585998535,-156,9897.0
660,0.2889571785926819,-1.273004412651062,-46,6266.0,-7.008179187774658,-55,9897.0
670,0.28944694995880127,-0.1706862896680832,-38,6266.0,-6.199805736541748,-90,9897.0
680,0.28997743129730225,-3.827251434326172,15,6266.0,-2.618412733078003,-112,9897.0
690,0.29040566086769104,-3.401123523712158,7,6266.0,0.40788549184799194,-82,9897.0
700,0.29078981280326843,-2.9363932609558105,-95,6266.0,-0.4100630581378937,171,9897.0
710,0.2912636697292328,-0.544262170791626,-22,6266.0,-0.4515298902988434,140,9897.0
720,0.2922515869140625,-1.4467949867248535,-7,6266.0,2.8547117710113525,49,9897.0
730,0.29283860325813293,-0.192959263920784,-47,6266.0,5.154281139373779,83,9897.0
740,0.2935526371002197,0.7760728001594543,-17,6266.0,4.210910797119141,11,9897.0
750,0.29419341683387756,0.6443066000938416,146,6266.0,6.605830192565918,-138,9897.0
760,0.29376474022865295,2.7256133556365967,35,6266.0,4.740142822265625,-39,9897.0
770,0.2943047285079956,0.9134823083877563,-35,6266.0,0.286470890045166,228,9897.0
780,0.2948452830314636,1.9531432390213013,17,6266.0,1.3484848737716675,54,9897.0
790,0.29511508345603943,-0.6526252627372742,43,6266.0,-0.44679999351501465,26,9897.0
800,0.29526397585868835,1.76580810546875,-31,6266.0,-1.6422306299209595,-3,9897.0
810,0.2945181727409363,-0.4443114399909973,11,6266.0,-2.7196288108825684,-89,9897.0
820,0.29496046900749207,-0.971075177192688,53,6266.0,-2.8827555179595947,-254,9897.0
830,0.2950924336910248,-1.8696064949035645,-33,6266.0,-3.688098669052124,-100,9897.0
840,0.2952515482902527,-3.3863255977630615,-50,6266.0,-4.076719284057617,-82,9897.0
850,0.2937317192554474,0.4706293046474457,44,6266.0,-8.838467597961426,-125,9897.0
860,0.29383060336112976,-0.2943337857723236,-67,6266.0,-11.72883129119873,-26,9897.0
870,0.2939082086086273,-0.35360974073410034,-21,6266.0,-14.3795747756958,-59,9897.0
880,0.29394078254699707,-1.2688170671463013,-53,6266.0,-13.549649238586426,-208,9897.0
890,0.2940213084220886,-1.589711308479309,-65,6266.0,-14.116138458251953,-192,9897.0
900,0.29319003224372864,0.2870224416255951,-39,6266.0,-12.353923797607422,-306,9897.0
910,0.29301947355270386,-2.7656383514404297,32,6266.0,-13.55974292755127,-401,9897.0
920,0.2927235960960388,-0.6635828614234924,-62,6266.0,-14.710596084594727,-241,9897.0
930,0.2923974394798279,-0.9978882074356079,12,6266.0,-12.829691886901855,-385,9897.0
940,0.29135793447494507,2.2096750736236572,26,6266.0,-15.473929405212402,-271,9897.0
950,0.2910027801990509,-0.1951972395181656,45,6266.0,-10.043686866760254,-360,9897.0
960,0.290582537651062,2.6868128776550293,84,6266.0,-12.618063926696777,-271,9897.0
970,0.2901032269001007,1.869036316871643,59,6266.0,-8.721729278564453,-219,9897.0
980,0.29051488637924194,2.832972526550293,63,6266.0,-11.045372009277344,-234,9897.0
990,0.2900635898113251,0.27568721771240234,40,6266.0,-6.236722946166992,-174,9897.0
1000,0.28963395953178406,1.0413298606872559,70,6266.0,-5.299022197723389,-183,9897.0
1010,0.2891988754272461,-1.368303894996643,22,6266.0,-3.616032361984253,-128,9897.0
1020,0.28875088691711426,0.42382365465164185,51,6266.0,-1.787772297859192,-103,9897.0
1030,0.2881660461425781,0.29259270429611206,107,6266.0,-2.900693416595459,-182,9897.0
1040,0.28770291805267334,3.746547222137451,66,6266.0,-3.99849271774292,-105,9897.0
1050,0.28727754950523376,0.9893549680709839,126,6266.0,-2.083705425262451,-238,9897.0
1060,0.286916583776474,2.1582608222961426,-8,6266.0,-1.6596945524215698,-88,9897.0
1070,0.28746795654296875,-1.430864930152893,116,6266.0,0.2762507498264313,-188,9897.0
1080,0.28706228733062744,0.9127025008201599,-50,6266.0,-1.0883491039276123,-22,9897.0
1090,0.2866733968257904,-0.3478327989578247,-85,6266.0,2.0258214473724365,11,9897.0
1100,0.28626638650894165,-3.981874942779541,-83,6266.0,2.6601457595825195,54,9897.0
1110,0.28580859303474426,-3.4021689891815186,-205,6266.0,3.3252806663513184,128,9897.0
1120,0.2884107530117035,-4.47618293762207,-97,6266.0,1.719238519668579,162,9897.0
1130,0.2881048917770386,-2.9710423946380615,-58,6266.0,-0.1614694595336914,24,9897.0
1140,0.28787556290626526,-3.1569254398345947,-85,6266.0,3.9590771198272705,169,9897.0
1150,0.28789421916007996,1.1756900548934937,148,6266.0,4.9260382652282715,54,9897.0
1160,0.29101449251174927,2.3326523303985596,43,6266.0,8.217534065246582,237,9897.0
1170,0.29117104411125183,4.1562042236328125,206,6266.0,11.263153076171875,198,9897.0
1180,0.2912803590297699,2.560689687728882,177,6266.0,14.744248390197754,70,9897.0
1190,0.2916572391986847,4.610428810119629,-14,6266.0,14.210243225097656,146,9897.0
1200,0.29454365372657776,3.536391496658325,10,6266.0,12.609146118164062,270,9897.0
1210,0.29472970962524414,1.3730815649032593,-46,6266.0,13.375093460083008,218,9897.0
1220,0.29530346393585205,-0.8383817672729492,-101,6266.0,10.97647476196289,373,9897.0
1230,0.2958279848098755,-4.390000820159912,-95,6266.0,13.118439674377441,360,9897.0
1240,0.29658910632133484,-2.290051221847534,22,6266.0,11.049212455749512,174,9897.0
1250,0.2985164225101471,-5.241203784942627,12,6266.0,15.830023765563965,211,9897.0
1260,0.29936647415161133,-0.9618422985076904,-10,6266.0,12.619696617126465,139,9897.0
1270,0.3002348840236664,0.7205244898796082,118,6266.0,15.149402618408203,145,9897.0
1280,0.3011476397514343,2.0986621379852295,-62,6266.0,13.894392967224121,233,9897.0
1290,0.30234548449516296,3.1070148944854736,-24,6266.0,13.590200424194336,356,9897.0
1300,0.3034825623035431,2.39604115486145,28,6266.0,14.188763618469238,229,9897.0
1310,0.3046398162841797,4.0161824226379395,137,6266.0,16.739919662475586,316,9897.0
1320,0.30572178959846497,4.614798069000244,118,6266.0,14.012285232543945,275,9897.0
1330,0.30669155716896057,5.075725555419922,231,6266.0,14.869653701782227,35,9897.0
1340,0.30950871109962463,5.589389801025391,159,6266.0,11.26934814453125,101,9897.0
1350,0.3104853630065918,7.2516350746154785,-13,6266.0,7.573841571807861,122,9897.0
1360,0.3113875687122345,5.82912015914917,42,6266.0,7.369319915771484,198,9897.0
1370,0.31228798627853394,5.291131019592285,34,6266.0,5.016118049621582,111,9897.0
1380,0.31356483697891235,3.018017053604126,7,6266.0,4.400614261627197,248,9897.0
1390,0.3144077658653259,1.559926986694336,33,6266.0,3.139922618865967,146,9897.0
1400,0.3151765465736389,4.653298377990723,214,6266.0,1.3470925092697144,-46,9897.0
1410,0.31594419479370117,2.1399474143981934,139,6266.0,5.058541774749756,31,9897.0
1420,0.3179146349430084,2.7138254642486572,18,6266.0,6.6682024002075195,-50,9897.0
1430,0.3186585605144501,4.398534774780273,86,6266.0,5.93610954284668,-39,9897.0
1440,0.31934741139411926,-0.6599177718162537,44,6266.0,7.9968485832214355,-15,9897.0
1450,0.31987833976745605,1.081735372543335,-105,6266.0,4.859885215759277,79,9897.0
1460,0.32022082805633545,-2.6027097702026367,-62,6266.0,5.027195453643799,-20,9897.0
1470,0.3210054636001587,-4.513306140899658,-150,6266.0,1.1226389408111572,53,9897.0
1480,0.3212841749191284,-2.0255050659179688,-190,6266.0,-0.9928290843963623,104,9897.0
1490,0.32155048847198486,-5.4756550788879395,-115,6266.0,-3.889145851135254,13,9897.0
1500,0.32180866599082947,-3.623326539993286,-54,6266.0,-8.135004997253418,-15,9897.0
1510,0.32309237122535706,-4.541805744171143,-128,6266.0,-8.71848201751709,48,9897.0
1520,0.3232111632823944,-6.189697265625,-51,6266.0,-13.845010757446289,-226,9897.0
1530,0.3232232928276062,-5.517580032348633,-44,6266.0,-14.210992813110352,-204,9897.0
1540,0.32305294275283813,-5.695681095123291,-117,6266.0,-11.30994987487793,-140,9897.0
1550,0.3231053054332733,-3.5799500942230225,34,6266.0,-10.888748168945312,-267,9897.0
1560,0.32260021567344666,-5.231080532073975,16,6266.0,-10.086885452270508,-185,9897.0
1570,0.32201018929481506,-2.536890983581543,-10,6266.0,-6.769138813018799,-161,9897.0
1580,0.321311354637146,-1.2311190366744995,178,6266.0,-3.9327433109283447,-289,9897.0
1590,0.3204379379749298,-1.3966116905212402,15,6266.0,-2.8060178756713867,-141,9897.0
1600,0.32046738266944885,-0.5459726452827454,-97,6266.0,0.23873932659626007,70,9897.0
1610,0.31948408484458923,-4.373574256896973,-51,6266.0,-0.9466213583946228,-60,9897.0
1620,0.3184657394886017,-0.337279349565506,-78,6266.0,-3.3519625663757324,82,9897.0
1630,0.31741997599601746,-1.5940983295440674,-110,6266.0,-7.126474857330322,64,9897.0
1640,0.3162651062011719,-0.5650710463523865,31,6266.0,-9.791433334350586,-123,9897.0
1650,0.31519296765327454,2.1856377124786377,154,6266.0,-10.889293670654297,-264,9897.0
1660,0.3141755163669586,1.8718340396881104,41,6266.0,-11.609095573425293,-231,9897.0
1670,0.313186377286911,2.974508047103882,0,6266.0,-13.23646354675293,-189,9897.0
1680,0.31224524974823,2.5473670959472656,10,6266.0,-14.473471641540527,-170,9897.0
1690,0.31238701939582825,5.283536911010742,46,6266.0,-12.267291069030762,-82,9897.0
1700,0.3115098774433136,4.667575359344482,109,6266.0,-9.57354736328125,-225,9897.0
1710,0.3107292354106903,4.0352463722229,98,6266.0,-9.78765869140625,-198,9897.0
1720,0.3099464476108551,3.423753499984741,28,6266.0,-9.483088493347168,-180,9897.0
1730,0.31142687797546387,2.266896963119507,4,6266.0,-8.608453750610352,-99,9897.0
1740,0.3108295500278473,2.4673566818237305,41,6266.0,-7.972461700439453,-16,9897.0
1750,0.31030160188674927,2.823385000228882,53,6266.0,-7.206422805786133,-183,9897.0
1760,0.30982705950737,1.0165867805480957,50,6266.0,-5.167130947113037,-136,9897.0
1770,0.3093377649784088,-0.4499245285987854,-83,6266.0,-3.3307268619537354,-36,9897.0
1780,0.3107631802558899,-2.085829257965088,-74,6266.0,-3.385064125061035,27,9897.0
1790,0.3104453384876251,0.8466616868972778,57,6266.0,-9.144768714904785,-32,9897.0
1800,0.3102568984031677,2.0852603912353516,121,6266.0,-7.615115165710449,-226,9897.0
1810,0.31012946367263794,-2.1891567707061768,96,6266.0,-7.992280960083008,-195,9897.0
1820,0.31079527735710144,-1.3215560913085938,-147,6266.0,-4.059115886688232,-8,9897.0
1830,0.3107600510120392,-2.1413776874542236,13,6266.0,-2.0284032821655273,24,9897.0
1840,0.3108058273792267,-0.25445812940597534,-40,6266.0,-2.1164307594299316,56,9897.0
1850,0.31092366576194763,-1.2533823251724243,-65,6266.0,0.8049720525741577,-52,9897.0
1860,0.31182366609573364,-1.1901686191558838,-23,6266.0,2.0295519828796387,-56,9897.0
1870,0.312188982963562,-0.9727156162261963,78,6266.0,1.56151282787323,42,9897.0
1880,0.3124426007270813,-0.008764978498220444,75,6266.0,4.930172443389893,21,9897.0
1890,0.31277361512184143,1.8132874965667725,48,6266.0,7.760568141937256,55,9897.0
1900,0.3131849467754364,0.08633692562580109,-59,6266.0,10.346076011657715,171,9897.0
1910,0.31501099467277527,1.4293262958526611,-99,6266.0,6.642354488372803,228,9897.0
1920,0.3156101107597351,-1.3480913639068604,-33,6266.0,11.12480640411377,261,9897.0
1930,0.31606730818748474,-2.004120111465454,76,6266.0,10.918384552001953,66,9897.0
1940,0.31654366850852966,-4.448830604553223,67,6266.0,11.597884178161621,19,9897.0
1950,0.3162132501602173,-3.428502082824707,-126,6266.0,10.301597595214844,103,9897.0
1960,0.31655776500701904,-1.0059490203857422,-131,6266.0,6.104310989379883,230,9897.0
1970,0.3168420195579529,-2.111243724822998,-88,6266.0,6.002256393432617,142,9897.0
1980,0.31714558601379395,-0.928459107875824,-19,6266.0,1.4337109327316284,87,9897.0
1990,0.3175203800201416,-0.20672014355659485,-40,6266.0,4.252880096435547,92,9897.0
2000,0.3175928592681885,1.3178379535675049,98,6266.0,6.32994270324707,28,9897.0
2010,0.31767788529396057,2.852020740509033,153,6266.0,2.1985363960266113,-122,9897.0
2020,0.31767141819000244,2.2713663578033447,27,6266.0,2.869762897491455,43,9897.0
2030,0.3176623284816742,5.182764053344727,-31,6266.0,1.912182092666626,194,9897.0
2040,0.31818297505378723,3.6641170978546143,4,6266.0,2.0608203411102295,158,9897.0
2050,0.3181045651435852,2.317589044570923,56,6266.0,0.479566752910614,84,9897.0
2060,0.31799420714378357,1.373083233833313,56,6266.0,3.1300902366638184,101,9897.0
2070,0.3178665339946747,0.6455202698707581,9,6266.0,1.739579677581787,-1,9897.0
2080,0.3174479603767395,0.24671156704425812,75,6266.0,5.476908206939697,-36,9897.0
2090,0.31725528836250305,0.5472021102905273,67,6266.0,1.58683180809021,-141,9897.0
2100,0.3171226978302002,-0.10369284451007843,-78,6266.0,5.1436004638671875,72,9897.0
2110,0.31699711084365845,1.7060946226119995,-85,6266.0,0.14973761141300201,144,9897.0
2120,0.31677359342575073,-0.12219536304473877,-51,6266.0,3.2167961597442627,153,9897.0
2130,0.31772151589393616,1.399993658065796,93,6266.0,-0.30778148770332336,1,9897.0
2140,0.3174947500228882,1.324186086654663,110,6266.0,-0.5968285799026489,19,9897.0
2150,0.3172679841518402,-0.7436695098876953,19,6266.0,-3.0259265899658203,-32,9897.0
2160,0.3169609606266022,-0.8868135809898376,34,6266.0,-0.5326826572418213,-52,9897.0
2170,0.3195192217826843,-1.1917943954467773,31,6266.0,-0.8183004856109619,-158,9897.0
2180,0.31943339109420776,-1.3604737520217896,-85,6266.0,-3.605855941772461,66,9897.0
2190,0.31936460733413696,-2.214418649673462,-139,6266.0,-3.20743989944458,91,9897.0
2200,0.31921011209487915,-3.2433605194091797,-101,6266.0,-3.0324857234954834,60,9897.0
2210,0.3193614184856415,-3.2388272285461426,30,6266.0,1.5795384645462036,-69,9897.0
2220,0.3191586136817932,-3.195117950439453,39,6266.0,0.6874098181724548,-125,9897.0
2230,0.3190174102783203,-3.800844669342041,-90,6266.0,2.5125880241394043,-101,9897.0
2240,0.31884777545928955,-1.6629403829574585,-37,6266.0,-1.346910834312439,-108,9897.0
2250,0.31873542070388794,-2.0125815868377686,-34,6266.0,0.05170702934265137,31,9897.0
2260,0.319185346364975,1.723357915878296,-48,6266.0,-0.1858031302690506,103,9897.0
2270,0.31905075907707214,-0.03783399239182472,-70,6266.0,0.7798734903335571,145,9897.0
2280,0.31882527470588684,-2.688852310180664,41,6266.0,1.4628326892852783,-43,9897.0
2290,0.31860587000846863,0.11072825640439987,103,6266.0,-0.5530413389205933,-97,9897.0
2300,0.31862205266952515,-0.03953854367136955,2,6266.0,0.4949842393398285,-167,9897.0
2310,0.3183755874633789,3.527557611465454,24,6266.0,-0.9439394474029541,-27,9897.0
2320,0.318017840385437,2.013768434524536,-9,6266.0,-1.7378976345062256,-31,9897.0
2330,0.3176322877407074,2.69694185256958,-34,6266.0,-0.7982243299484253,54,9897.0
2340,0.3172578513622284,3.284299850463867,-43,6266.0,1.2956323623657227,218,9897.0
2350,0.3182939887046814,2.4754459857940674,41,6266.0,-0.1189950704574585,30,9897.0
2360,0.31784334778785706,3.4028537273406982,155,6266.0,1.9645445346832275,-118,9897.0
2370,0.31745806336402893,2.7374236583709717,115,6266.0,1.0007667541503906,-170,9897.0
2380,0.31707707047462463,1.4026371240615845,-44,6266.0,-0.412259578704834,22,9897.0
2390,0.31683671474456787,2.9006409645080566,-50,6266.0,-3.4220902919769287,-78,9897.0
2400,0.3164891302585602,0.955935537815094,-12,6266.0,-8.70017147064209,-84,9897.0
2410,0.3162730932235718,1.1567339897155762,22,6266.0,-5.341851234436035,-110,9897.0
2420,0.3161921799182892,-0.9752960801124573,41,6266.0,-6.138118267059326,-165,9897.0
2430,0.31612852215766907,-0.32568129897117615,1,6266.0,-10.382494926452637,-158,9897.0
2440,0.31677958369255066,-1.118683934211731,-12,6266.0,-6.821017742156982,-175,9897.0
2450,0.3167313039302826,0.18049077689647675,23,6266.0,-5.705544471740723,-59,9897.0
2460,0.3167452812194824,0.3973821997642517,-39,6266.0,-3.1176013946533203,-68,9897.0
2470,0.31677544116973877,1.5386364459991455,-42,6266.0,2.1862237453460693,172,9897.0
2480,0.317737340927124,1.0907410383224487,48,6266.0,3.144317150115967,35,9897.0
2490,0.3177966773509979,1.5182654857635498,111,6266.0,5.778781890869141,-2,9897.0
2500,0.31792783737182617,0.2665514349937439,96,6266.0,6.993710517883301,-101,9897.0
2510,0.3180699944496155,2.1775152683258057,11,6266.0,5.534620761871338,75,9897.0
2520,0.31624242663383484,0.059702951461076736,-27,6266.0,1.769710898399353,57,9897.0
2530,0.31622758507728577,-1.9931714534759521,-81,6266.0,2.427065372467041,124,9897.0
2540,0.3162429630756378,-1.6518213748931885,84,6266.0,-1.8391964435577393,-98,9897.0
2550,0.3162504732608795,-2.3158516883850098,-49,6266.0,-0.3006960451602936,135,9897.0
2560,0.3162033259868622,-4.5472259521484375,-23,6266.0,-0.39289605617523193,-43,9897.0
2570,0.3171636462211609,-2.8456039428710938,96,6266.0,0.2247803509235382,-217,9897.0
2580,0.31713181734085083,-0.7253949046134949,-56,6266.0,0.9251279234886169,-59,9897.0
2590,0.3171761631965637,0.1175784021615982,-131,6266.0,-0.641862690448761,81,9897.0
2600,0.31715765595436096,-0.26694923639297485,-103,6266.0,0.4848536252975464,116,9897.0
2610,0.31548330187797546,-0.5423104166984558,61,6266.0,3.1374118328094482,12,9897.0
2620,0.31523826718330383,1.1996177434921265,102,6266.0,4.333296775817871,-33,9897.0
2630,0.31501808762550354,-0.02767934836447239,36,6266.0,5.67234992980957,13,9897.0
2640,0.3147883415222168,1.4265470504760742,-49,6266.0,2.5585689544677734,68,9897.0
2650,0.31463783979415894,-0.241979718208313,-40,6266.0,0.3766399323940277,-11,9897.0
2660,0.315024733543396,-2.9847571849823,-78,6266.0,3.0199851989746094,75,9897.0
2670,0.31490957736968994,-1.9531846046447754,-95,6266.0,1.0263882875442505,107,9897.0
2680,0.3147509694099426,-3.723991870880127,-54,6266.0,3.21604323387146,68,9897.0
2690,0.31451430916786194,-2.753880262374878,-5,6266.0,-3.0456149578094482,-197,9897.0
2700,0.31498807668685913,-2.7191619873046875,43,6266.0,-1.2178395986557007,-162,9897.0
2710,0.3149377703666687,-0.6488359570503235,-71,6266.0,-0.4630897045135498,-2,9897.0
2720,0.3149518668651581,1.593609094619751,-85,6266.0,-0.4341503977775574,144,9897.0
2730,0.3149421513080597,1.1209166049957275,-12,6266.0,4.990156173706055,174,9897.0
2740,0.3164462149143219,-0.1413756012916565,73,6266.0,4.680066108703613,34,9897.0
2750,0.3164662718772888,0.8542532324790955,128,6266.0,5.9409589767456055,-34,9897.0
2760,0.31655123829841614,1.812322974205017,-5,6266.0,5.7335662841796875,-14,9897.0
2770,0.31665992736816406,2.858670711517334,29,6266.0,6.19077730178833,135,9897.0
2780,0.3166922926902771,0.2972274124622345,-30,6266.0,4.602128982543945,63,9897.0
2790,0.31838372349739075,-0.5821698307991028,-13,6266.0,2.356182336807251,44,9897.0
2800,0.31845998764038086,1.7382346391677856,6,6266.0,3.0150222778320312,45,9897.0
2810,0.318426251411438,-0.692603349685669,52,6266.0,-0.6658716201782227,-39,9897.0
2820,0.31831276416778564,0.5465843677520752,77,6266.0,-4.1878790855407715,-224,9897.0
2830,0.31776928901672363,-0.49908682703971863,64,6266.0,-2.9169974327087402,-208,9897.0
2840,0.3177359998226166,-1.9913616180419922,-73,6266.0,-2.751509428024292,35,9897.0
2850,0.31766000390052795,-0.18661972880363464,-108,6266.0,-1.8628480434417725,123,9897.0
2860,0.3174493908882141,-1.354522705078125,-50,6266.0,-3.1155195236206055,127,9897.0
2870,0.31714197993278503,-0.19875362515449524,47,6266.0,-0.4346422553062439,-38,9897.0
2880,0.31697800755500793,0.20051974058151245,122,6266.0,2.2716593742370605,-44,9897.0
2890,0.3167864978313446,-0.7942264080047607,43,6266.0,3.6074440479278564,48,9897.0
2900,0.3165341913700104,0.08753781020641327,-22,6266.0,5.136251926422119,53,9897.0
2910,0.31631797552108765,-0.47564661502838135,-13,6266.0,4.942246437072754,104,9897.0
2920,0.31799426674842834,-0.25927433371543884,-30,6266.0,3.530992269515991,89,9897.0
2930,0.3178671598434448,0.06970784068107605,-23,6266.0,3.3079872131347656,174,9897.0
2940,0.3177202641963959,-0.8885481357574463,7,6266.0,3.7964138984680176,69,9897.0
2950,0.31752026081085205,-1.2709448337554932,65,6266.0,0.29251545667648315,-116,9897.0
2960,0.31843313574790955,0.9826772809028625,119,6266.0,-1.674878478050232,-213,9897.0
2970,0.31837284564971924,0.6770988702774048,-11,6266.0,-3.252065420150757,-12,9897.0
2980,0.3182072341442108,1.6860991716384888,-75,6266.0,-3.754836082458496,90,9897.0
2990,0.31800901889801025,-0.12374385446310043,-50,6266.0,-2.7745683193206787,93,9897.0
3000,0.31982338428497314,1.6045558452606201,110,6266.0,-1.5640144348144531,-2,9897.0
3010,0.3197079002857208,-0.8929582834243774,94,6266.0,2.0400633811950684,-141,9897.0
3020,0.31956395506858826,-1.148905873298645,33,6266.0,-3.622127056121826,-19,9897.0
3030,0.3194270730018616,0.16983452439308167,-45,6266.0,-2.620532751083374,-102,9897.0
3040,0.31934067606925964,-0.3228040635585785,-47,6266.0,-1.7401055097579956,19,9897.0
3050,0.3215666115283966,1.137719750404358,15,6266.0,-3.772855281829834,-54,9897.0
3060,0.3214518427848816,0.7345260381698608,-3,6266.0,-3.3204386234283447,42,9897.0
3070,0.32131272554397583,-0.9416716694831848,21,6266.0,-2.9986073970794678,20,9897.0
3080,0.32126742601394653,-1.179277777671814,16,6266.0,4.6941728591918945,-37,9897.0
3090,0.3219468891620636,-1.0081989765167236,110,6266.0,3.9751498699188232,-84,9897.0
3100,0.32197368144989014,0.44870442152023315,-2,6266.0,1.0628749132156372,-44,9897.0
3110,0.32197409868240356,-0.572947084903717,-102,6266.0,3.630215883255005,166,9897.0
3120,0.3219974637031555,0.9345755577087402,-72,6266.0,4.23723030090332,231,9897.0
3130,0.32204103469848633,0.3330674171447754,60,6266.0,4.1233086585998535,66,9897.0
3140,0.32206010818481445,1.75614333152771,161,6266.0,4.427751541137695,-134,9897.0
3150,0.32214054465293884,0.249833345413208,65,6266.0,1.249592900276184,-85,9897.0
3160,0.3222944140434265,1.3713217973709106,42,6266.0,-0.010892551392316818,124,9897.0
3170,0.3224777579307556,0.44905680418014526,149,6266.0,3.2910268306732178,-105,9897.0
3180,0.3212047815322876,2.431551694869995,-21,6266.0,1.6180639266967773,71,9897.0
3190,0.32121753692626953,1.5497361421585083,-99,6266.0,-0.0953657403588295,157,9897.0
3200,0.3211439549922943,0.5402290225028992,-27,6266.0,-1.9044206142425537,73,9897.0
3210,0.3211096525192261,-1.9961748123168945,55,6266.0,0.05455407872796059,-83,9897.0
3220,0.3195389211177826,-0.5509457588195801,89,6266.0,-0.5147899389266968,-67,9897.0
3230,0.3193539083003998,-1.418690800666809,-5,6266.0,2.407789945602417,-23,9897.0
3240,0.3191303312778473,-0.6780508756637573,-42,6266.0,2.9821760654449463,57,9897.0
3250,0.3188430964946747,-2.150454044342041,-80,6266.0,-0.6135416030883789,7,9897.0
3260,0.31846678256988525,0.48178327083587646,-52,6266.0,-2.992833375930786,107,9897.0
3270,0.31996455788612366,-0.5072720646858215,-65,6266.0,-3.421837329864502,78,9897.0
3280,0.3196048140525818,-2.687133312225342,-25,6266.0,-2.807464122772217,25,9897.0
3290,0.31926223635673523,-2.354403495788574,105,6266.0,-0.6714980602264404,-130,9897.0
3300,0.3188989460468292,-0.46668747067451477,119,6266.0,-1.7600301504135132,-193,9897.0
3310,0.31983399391174316,0.18816199898719788,-54,6266.0,0.7030054330825806,27,9897.0
3320,0.3195800185203552,1.7155683040618896,-128,6266.0,-0.3778935372829437,147,9897.0
3330,0.3194665312767029,1.125609278678894,-12,6266.0,0.2783671021461487,159,9897.0
3340,0.31939390301704407,0.9317626953125,100,6266.0,0.8134493827819824,-78,9897.0
3350,0.31929197907447815,0.7533794641494751,133,6266.0,0.8524786829948425,-177,9897.0
3360,0.3183830678462982,-0.7744563817977905,-25,6266.0,-2.4897773265838623,1,9897.0
3370,0.3184126019477844,-1.800588607788086,-107,6266.0,-2.597336530685425,29,9897.0
3380,0.3185017704963684,-2.440235137939453,-81,6266.0,-4.085661888122559,99,9897.0
3390,0.3185851573944092,-2.0698134899139404,-11,6266.0,-0.5502636432647705,2,9897.0
3400,0.3188202381134033,-0.24958251416683197,82,6266.0,-3.9624297618865967,-36,9897.0
3410,0.3190279006958008,-0.7269824147224426,58,6266.0,-1.7336150407791138,-120,9897.0
3420,0.31928080320358276,-0.785366415977478,-45,6266.0,-1.0656392574310303,-64,9897.0
3430,0.3195191025733948,0.8335427641868591,-7,6266.0,0.30850425362586975,42,9897.0
3440,0.31872740387916565,0.5438137650489807,-2,6266.0,0.2725909352302551,52,9897.0
3450,0.3189573585987091,0.18340881168842316,-29,6266.0,2.642134666442871,205,9897.0
3460,0.31919199228286743,-1.487452745437622,-51,6266.0,4.076556205749512,113,9897.0
3470,0.3193575143814087,-0.34736302495002747,72,6266.0,3.545379638671875,35,9897.0
3480,0.31945133209228516,-0.5931094288825989,126,6266.0,4.29157018661499,-141,9897.0
3490,0.3193686902523041,-0.8890522122383118,25,6266.0,3.4697678089141846,-1,9897.0
3500,0.31949296593666077,-0.7443329691886902,-116,6266.0,0.18331068754196167,31,9897.0
3510,0.319585382938385,0.3102506399154663,-50,6266.0,-0.5056396722793579,130,9897.0
3520,0.31962716579437256,-1.5126187801361084,36,6266.0,2.9911141395568848,102,9897.0
3530,0.31898996233940125,1.8891288042068481,96,6266.0,-0.07044986635446548,-24,9897.0
3540,0.31894978880882263,-0.48851317167282104,29,6266.0,-1.7247824668884277,2,9897.0
3550,0.3188774585723877,-0.07054644078016281,22,6266.0,-3.030668258666992,-135,9897.0
3560,0.31881770491600037,-0.7181488275527954,97,6266.0,-2.302907943725586,-129,9897.0
3570,0.3188069462776184,0.9511175155639648,-43,6266.0,-0.7763732671737671,17,9897.0
3580,0.32016274333000183,4.2352447509765625,-66,6266.0,-2.4202187061309814,172,9897.0
3590,0.32024386525154114,2.085556745529175,9,6266.0,-0.7252421975135803,108,9897.0
3600,0.32028645277023315,1.9695414304733276,138,6266.0,-2.5543265342712402,-108,9897.0
3610,0.32037287950515747,1.6198234558105469,147,6266.0,-3.4213998317718506,-110,9897.0
3620,0.318667471408844,0.7601795196533203,2,6266.0,3.0857226848602295,3,9897.0
3630,0.3186602294445038,-0.3277883529663086,-60,6266.0,4.797000885009766,90,9897.0
3640,0.3186500370502472,-1.9321383237838745,-60,6266.0,5.671395778656006,74,9897.0
3650,0.31861793994903564,-2.634460210800171,-66,6266.0,4.74041748046875,168,9897.0
3660,0.3185116648674011,-0.6808295249938965,-46,6266.0,3.790120840072632,188,9897.0
3670,0.31849250197410583,-0.1066969633102417,4,6266.0,3.157944440841675,35,9897.0
3680,0.3182998299598694,1.087794303894043,118,6266.0,-2.107576847076416,-95,9897.0
3690,0.3181515634059906,1.2078680992126465,120,6266.0,-1.8042783737182617,-219,9897.0
3700,0.3180377781391144,-0.806228518486023,-42,6266.0,-3.3856418132781982,-23,9897.0
3710,0.31784552335739136,0.798038899898529,-94,6266.0,-4.534560680389404,-8,9897.0
3720,0.31764188408851624,-0.9519686698913574,-101,6266.0,-3.5835494995117188,110,9897.0
3730,0.31749576330184937,1.1330870389938354,100,6266.0,-2.337820529937744,-23,9897.0
3740,0.3174007833003998,0.5028092861175537,102,6266.0,2.6115221977233887,-153,9897.0
3750,0.3192288875579834,-0.8852517604827881,46,6266.0,0.8146103024482727,-20,9897.0
3760,0.3193514943122864,0.5018734931945801,-62,6266.0,2.492705821990967,74,9897.0
3770,0.3195714056491852,-1.190839171409607,-44,6266.0,4.297816276550293,101,9897.0
3780,0.3198505938053131,0.10941679775714874,-6,6266.0,1.9736427068710327,25,9897.0
3790,0.3200933039188385,1.9561418294906616,-14,6266.0,0.5941051840782166,4,9897.0
3800,0.31946077942848206,1.3666977882385254,66,6266.0,-0.7757867574691772,3,9897.0
3810,0.3197127878665924,-0.1878719925880432,92,6266.0,-1.1512928009033203,-108,9897.0
3820,0.3200667202472687,0.4477912485599518,155,6266.0,0.04005004093050957,-61,9897.0
3830,0.3204154968261719,-0.8409054279327393,8,6266.0,-1.203059434890747,-62,9897.0
3840,0.32120704650878906,-1.4081734418869019,-91,6266.0,-1.0587635040283203,84,9897.0
3850,0.3214243948459625,-0.18162669241428375,-67,6266.0,-1.0338870286941528,38,9897.0
3860,0.3216879367828369,-0.11647763103246689,29,6266.0,-0.9893081784248352,40,9897.0
3870,0.32197698950767517,-0.5175337195396423,6,6266.0,-0.8292427659034729,77,9897.0
3880,0.3209589123725891,-0.5435858964920044,20,6266.0,0.05902373790740967,48,9897.0
3890,0.321076899766922,1.6025084257125854,109,6266.0,1.5404889583587646,-9,9897.0
3900,0.3212665617465973,1.669167160987854,143,6266.0,1.6871293783187866,-153,9897.0
3910,0.3213314414024353,0.19360706210136414,26,6266.0,5.525108814239502,79,9897.0
3920,0.3212837874889374,2.283334970474243,-100,6266.0,0.2137659788131714,167,9897.0
3930,0.3211108148097992,0.29976949095726013,-83,6266.0,3.364893913269043,169,9897.0
3940,0.3210574686527252,-2.1356966495513916,-3,6266.0,3.605609893798828,25,9897.0
3950,0.3209490478038788,-2.3732540607452393,31,6266.0,0.1394888013601303,8,9897.0
3960,0.32088327407836914,-2.560633897781372,38,6266.0,-0.76978600025177,-34,9897.0
3970,0.32055115699768066,-1.1867473125457764,17,6266.0,-3.428811550140381,-120,9897.0
3980,0.3206014633178711,0.6389266848564148,112,6266.0,-3.332400321960449,-120,9897.0
3990,0.32055139541625977,0.4274512529373169,-20,6266.0,-3.850935459136963,-120,9897.0
4000,0.32048657536506653,2.1087377071380615,-43,6266.0,-0.16236674785614014,241,9897.0
4010,0.3204506039619446,2.6688106060028076,12,6266.0,0.7071612477302551,162,9897.0
4020,0.32027262449264526,1.3447965383529663,97,6266.0,1.326764702796936,50,9897.0
4030,0.3202259838581085,0.8699962496757507,148,6266.0,5.526033401489258,-122,9897.0
4040,0.32012030482292175,1.1739314794540405,64,6266.0,2.845048427581787,3,9897.0
4050,0.31994274258613586,1.451486587524414,-57,6266.0,3.2612175941467285,173,9897.0
4060,0.32021430134773254,-0.01211054902523756,-76,6266.0,3.7478673458099365,61,9897.0
4070,0.32002606987953186,-2.288275957107544,-15,6266.0,0.7435935735702515,38,9897.0
4080,0.3197553753852844,-1.8727928400039673,-17,6266.0,-0.5622608661651611,-49,9897.0
4090,0.3195624351501465,-2.8688502311706543,-9,6266.0,-0.7970898747444153,-29,9897.0
4100,0.3207782208919525,-0.6231106519699097,17,6266.0,0.30229705572128296,-124,9897.0
4110,0.3205772638320923,-0.13225576281547546,-18,6266.0,-3.5878937244415283,-159,9897.0
4120,0.3203263282775879,0.09406059980392456,-57,6266.0,-3.8430018424987793,44,9897.0
4130,0.32007545232772827,1.8339247703552246,-12,6266.0,-3.539903402328491,40,9897.0
4140,0.3199196457862854,1.1700735092163086,-16,6266.0,0.526309609413147,39,9897.0
4150,0.3205954432487488,1.200327754020691,87,6266.0,-2.1439952850341797,-22,9897.0
4160,0.320390522480011,1.7035280466079712,120,6266.0,-0.6818059086799622,-200,9897.0
4170,0.32015347480773926,0.8709604144096375,-25,6266.0,-0.7127173542976379,-36,9897.0
4180,0.320004403591156,1.852607250213623,-45,6266.0,-1.6089012622833252,60,9897.0
4190,0.32034486532211304,0.7654775977134705,-79,6266.0,-0.16085395216941833,188,9897.0
4200,0.3202395737171173,-0.5539111495018005,10,6266.0,5.313320636749268,159,9897.0
4210,0.32010185718536377,-1.122432827949524,96,6266.0,4.928145408630371,-72,9897.0
4220,0.3200339078903198,-3.285229206085205,101,6266.0,3.8097448348999023,-113,9897.0
4230,0.3200420141220093,-1.3680320978164673,-71,6266.0,-1.3675352334976196,7,9897.0
4240,0.3216574192047119,-0.8679824471473694,-137,6266.0,1.4875143766403198,74,9897.0
4250,0.3216690421104431,-1.8908767700195312,-25,6266.0,1.9660660028457642,114,9897.0
4260,0.32165995240211487,0.9557263851165771,78,6266.0,-0.4594869911670685,-67,9897.0
4270,0.3217155933380127,-0.9503531455993652,84,6266.0,1.3378270864486694,-123,9897.0
4280,0.32189974188804626,-0.2590811252593994,-4,6266.0,-1.3587243556976318,-12,9897.0
4290,0.32190579175949097,2.584416627883911,-98,6266.0,-3.7985899448394775,-41,9897.0
4300,0.321862131357193,1.1524837017059326,-35,6266.0,-1.4302042722702026,56,9897.0
4310,0.321869820356369,0.029836362227797508,44,6266.0,-1.4822386503219604,-72,9897.0
4320,0.3227509558200836,0.7544265985488892,65,6266.0,-2.974151611328125,-109,9897.0
4330,0.3228149116039276,-2.600552797317505,66,6266.0,1.1220704317092896,-54,9897.0
4340,0.3228764832019806,-0.8937689661979675,-25,6266.0,1.9991549253463745,75,9897.0
4350,0.32286518812179565,-0.503781259059906,-33,6266.0,4.615610599517822,167,9897.0
4360,0.32287123799324036,1.182915210723877,-66,6266.0,6.032388210296631,151,9897.0
4370,0.3224864900112152,0.8680447340011597,7,6266.0,2.256333112716675,127,9897.0
4380,0.32236161828041077,-0.23348093032836914,58,6266.0,5.2849812507629395,117,9897.0
4390,0.3222496509552002,-1.721089482307434,10,6266.0,5.847921848297119,16,9897.0
4400,0.3221197724342346,-0.03893427923321724,19,6266.0,4.523186206817627,42,9897.0
4410,0.3231762647628784,0.6912805438041687,57,6266.0,3.4631824493408203,28,9897.0
4420,0.32298311591148376,1.8034898042678833,-13,6266.0,2.443211078643799,83,9897.0
4430,0.32269158959388733,0.6955787539482117,-78,6266.0,3.0240437984466553,143,9897.0
4440,0.32243236899375916,-0.1547093689441681,-6,6266.0,-0.4533168375492096,34,9897.0
4450,0.3221609592437744,-0.045628126710653305,96,6266.0,0.7836804389953613,-100,9897.0
4460,0.32210105657577515,-1.4542042016983032,73,6266.0,-1.4271087646484375,-127,9897.0
4470,0.32164570689201355,-1.0911576747894287,-51,6266.0,2.974807024002075,35,9897.0
4480,0.32122209668159485,-1.457169532775879,-64,6266.0,0.6889870166778564,170,9897.0
4490,0.32083624601364136,-0.2978938817977905,-62,6266.0,0.27064988017082214,100,9897.0
4500,0.3228427469730377,1.1542649269104004,20,6266.0,0.042900603264570236,-1,9897.0
4510,0.32244861125946045,1.1009130477905273,28,6266.0,4.286652088165283,9,9897.0
4520,0.32207179069519043,-0.5695779919624329,39,6266.0,0.8940147757530212,-74,9897.0
4530,0.32187482714653015,1.7244852781295776,-57,6266.0,-1.3814948797225952,-67,9897.0
4540,0.32419103384017944,2.424903154373169,-36,6266.0,-3.7944798469543457,-36,9897.0
4550,0.3240922689437866,-0.08621509373188019,13,6266.0,-1.3967276811599731,14,9897.0
4560,0.32397007942199707,1.6048530340194702,66,6266.0,-3.830303907394409,-126,9897.0
4570,0.32388952374458313,-0.34890031814575195,112,6266.0,-2.6137962341308594,-174,9897.0
4580,0.3239043951034546,-1.1261030435562134,-34,6266.0,0.6486438512802124,68,9897.0
4590,0.3252013623714447,-0.2960987687110901,-82,6266.0,-1.4830186367034912,44,9897.0
4600,0.3252786695957184,-1.998265027999878,-59,6266.0,-1.8992807865142822,133,9897.0
4610,0.3253386616706848,-0.9738473296165466,16,6266.0,1.6837347745895386,69,9897.0
4620,0.32545334100723267,-0.20532947778701782,70,6266.0,-1.5877125263214111,-84,9897.0
4630,0.3261606991291046,-0.12781429290771484,48,6266.0,0.3761536777019501,-21,9897.0
4640,0.32626619935035706,1.2626783847808838,-45,6266.0,0.6175392866134644,-32,9897.0
4650,0.32625728845596313,1.950510859489441,-28,6266.0,2.2792654037475586,93,9897.0
4660,0.3262787461280823,0.06231752410531044,10,6266.0,0.047072526067495346,-21,9897.0
4670,0.3264000415802002,0.34369969367980957,40,6266.0,0.0324571430683136,10,9897.0
4680,0.32835859060287476,-1.9499322175979614,27,6266.0,1.8793541193008423,-47,9897.0
4690,0.328505277633667,-2.623991012573242,-58,6266.0,0.19119757413864136,-86,9897.0
4700,0.3286145031452179,0.6743237376213074,3,6266.0,-3.770642042160034,-79,9897.0
4710,0.3287970721721649,-0.3965367376804352,-43,6266.0,-0.9486225247383118,-24,9897.0
4720,0.32907572388648987,-0.2542528510093689,-88,6266.0,-4.533129692077637,27,9897.0
4730,0.32917284965515137,-0.7771728038787842,-31,6266.0,-2.4818849563598633,113,9897.0
4740,0.32918617129325867,-2.319196939468384,-3,6266.0,0.6457552909851074,15,9897.0
4750,0.3292039632797241,0.19131013751029968,132,6266.0,2.1020278930664062,-32,9897.0
4760,0.3298962712287903,0.5314813852310181,158,6266.0,5.182912349700928,-93,9897.0
4770,0.3297745883464813,2.3771750926971436,-32,6266.0,3.930238962173462,66,9897.0
4780,0.3295406103134155,2.114223003387451,-115,6266.0,0.8144885301589966,209,9897.0
4790,0.3293262720108032,1.2459460496902466,-109,6266.0,0.5324023962020874,142,9897.0
4800,0.3291267454624176,-2.1115007400512695,19,6266.0,-3.949418783187866,40,9897.0
4810,0.3284291625022888,-1.5206588506698608,40,6266.0,-0.9436718821525574,-24,9897.0
4820,0.32814347743988037,-3.7220101356506348,-59,6266.0,-3.524975538253784,-81,9897.0
4830,0.3279382884502411,-1.477948546409607,23,6266.0,-1.95169198513031,-100,9897.0
4840,0.32778316736221313,-0.15142099559307098,12,6266.0,-2.5962092876434326,-132,9897.0
4850,0.3285328447818756,0.8055952191352844,-30,6266.0,-3.730503797531128,-22,9897.0
4860,0.328386515378952,1.1420480012893677,-65,6266.0,-0.7367792725563049,105,9897.0
4870,0.3283461034297943,-0.4442661702632904,-20,6266.0,0.7814408540725708,128,9897.0
4880,0.3283759653568268,1.0247299671173096,105,6266.0,-0.7533416152000427,-69,9897.0
4890,0.3283692002296448,0.8041470646858215,52,6266.0,2.7280995845794678,-227,9897.0
4900,0.3273887634277344,0.6667037606239319,20,6266.0,0.09333234280347824,-81,9897.0
4910,0.3274172842502594,1.6961424350738525,-66,6266.0,2.2050952911376953,72,9897.0
4920,0.3275034427642822,1.907510757446289,-81,6266.0,-2.8051469326019287,94,9897.0
4930,0.32749879360198975,-0.007807542569935322,19,6266.0,-1.5866650342941284,96,9897.0
4940,0.32482507824897766,-1.6040700674057007,110,6266.0,-1.804211139678955,-141,9897.0
4950,0.32467958331108093,-0.9763298034667969,96,6266.0,-1.420404314994812,-193,9897.0
4960,0.3245634436607361,-0.05797990411520004,-71,6266.0,0.8283889293670654,53,9897.0
4970,0.32433655858039856,0.5432441234588623,-105,6266.0,-8.350796699523926,-77,9897.0
4980,0.3240479528903961,-0.43332362174987793,-33,6266.0,-3.3894059658050537,110,9897.0
4990,0.3238255977630615,-0.2770012319087982,62,6266.0,-2.1627228260040283,-44,9897.0
5000,0.3236813545227051,2.441314220428467,86,6266.0,0.865086019039154,-89,9897.0
5010,0.3235049545764923,1.7097762823104858,72,6266.0,-0.8010438680648804,-71,9897.0
5020,0.3232645094394684,1.0506856441497803,-62,6266.0,4.121347427368164,-20,9897.0
5030,0.32254287600517273,0.20728036761283875,-59,6266.0,3.441133499145508,80,9897.0
5040,0.3224411904811859,-0.28144529461860657,-3,6266.0,0.5697628855705261,71,9897.0
5050,0.32240962982177734,0.4597359597682953,1,6266.0,-2.9689831733703613,-42,9897.0
5060,0.32234281301498413,-1.4401419162750244,63,6266.0,0.13553017377853394,-115,9897.0
5070,0.32214346528053284,-0.1327306032180786,-20,6266.0,-6.070931434631348,-84,9897.0
5080,0.32214781641960144,-0.627314567565918,-33,6266.0,-3.179816961288452,0,9897.0
5090,0.3222554326057434,-0.1651056557893753,-30,6266.0,-4.578935623168945,77,9897.0
5100,0.32237812876701355,-0.4312881529331207,-50,6266.0,-3.4338607788085938,-50,9897.0
5110,0.3224431276321411,0.8673665523529053,48,6266.0,-3.025608539581299,-14,9897.0
5120,0.32315632700920105,-0.8664491176605225,55,6266.0,1.9104846715927124,24,9897.0
5130,0.32334762811660767,2.1639952659606934,27,6266.0,3.8847732543945312,-53,9897.0
5140,0.32359567284584045,-0.34461602568626404,134,6266.0,3.5329818725585938,52,9897.0
5150,0.32378947734832764,0.9206494092941284,-81,6266.0,2.3508553504943848,114,9897.0
5160,0.3240468204021454,0.9317854642868042,-95,6266.0,0.14443840086460114,47,9897.0
5170,0.3243238031864166,-1.1004669666290283,-68,6266.0,2.8687381744384766,126,9897.0
5180,0.3246149718761444,-2.307056188583374,66,6266.0,1.9349278211593628,-2,9897.0
5190,0.3248503804206848,-3.315941095352173,54,6266.0,2.2143454551696777,-76,9897.0
5200,0.32345014810562134,-1.5334807634353638,-76,6266.0,2.8876028060913086,31,9897.0
5210,0.3236083388328552,2.2314577102661133,-49,6266.0,0.4656495153903961,81,9897.0
5220,0.32384759187698364,0.3371964395046234,-37,6266.0,0.4874284267425537,120,9897.0
5230,0.3240598142147064,0.7519522905349731,7,6266.0,3.9866740703582764,35,9897.0
5240,0.3242394030094147,1.3610032796859741,28,6266.0,0.6667537689208984,105,9897.0
5250,0.326729953289032,-1.2144105434417725,33,6266.0,0.8178949952125549,-9,9897.0
5260,0.32700052857398987,-1.0980948209762573,39,6266.0,1.953857421875,-85,9897.0
5270,0.32724493741989136,-1.7878882884979248,81,6266.0,1.4593390226364136,-127,9897.0
5280,0.3274826109409332,-0.8724028468132019,-67,6266.0,1.2164130210876465,34,9897.0
5290,0.3262892961502075,0.5850967168807983,-73,6266.0,0.9012555480003357,216,9897.0
5300,0.32651573419570923,-0.12049170583486557,-105,6266.0,3.4622414112091064,249,9897.0
5310,0.32663577795028687,0.12854906916618347,49,6266.0,3.2562241554260254,10,9897.0
5320,0.32668909430503845,1.6180870532989502,171,6266.0,1.7985376119613647,-61,9897.0
5330,0.32675620913505554,0.2789466679096222,58,6266.0,3.2496328353881836,-107,9897.0
5340,0.3265172839164734,2.161102056503296,-52,6266.0,3.9253368377685547,52,9897.0
5350,0.3265218734741211,0.8746787309646606,-31,6266.0,3.052748918533325,63,9897.0
5360,0.3265790641307831,-1.967788577079773,-41,6266.0,1.6234755516052246,1,9897.0
5370,0.3267386853694916,0.21741782128810883,-12,6266.0,-0.29724761843681335,141,9897.0
5380,0.3274233937263489,-0.24037417769432068,-27,6266.0,-0.1621726006269455,81,9897.0
5390,0.3275333642959595,1.4431871175765991,100,6266.0,0.8694581389427185,-26,9897.0
5400,0.3275437355041504,3.5148468017578125,216,6266.0,1.5593746900558472,-159,9897.0
5410,0.3275527060031891,7.657636642456055,195,6266.0,-0.6841815710067749,-220,9897.0
5420,0.32573872804641724,8.270294189453125,77,6266.0,-5.84234094619751,-89,9897.0
5430,0.32545801997184753,7.855865001678467,-10,6266.0,-5.061764240264893,31,9897.0
5440,0.32507210969924927,4.42095422744751,-28,6266.0,-6.48892879486084,16,9897.0
5450,0.32458534836769104,0.8469247817993164,-7,6266.0,-5.336886882781982,25,9897.0
5460,0.32397717237472534,2.5176117420196533,25,6266.0,-3.478679656982422,-70,9897.0
5470,0.32228535413742065,1.3336575031280518,-7,6266.0,-1.9268192052841187,29,9897.0
5480,0.321469247341156,-1.1345064640045166,-125,6266.0,0.7525103092193604,218,9897.0
5490,0.320225328207016,-10.63635540008545,-200,6266.0,1.8076444864273071,254,9897.0
5500,0.3189549446105957,-16.651935577392578,-215,6266.0,7.9716362953186035,177,9897.0
5510,0.31802767515182495,-15.531672477722168,-148,6266.0,13.168644905090332,183,9897.0
5520,0.31641626358032227,-18.72374725341797,-171,6266.0,14.02623176574707,240,9897.0
5530,0.31451085209846497,-20.027881622314453,-270,6266.0,21.38536834716797,259,9897.0
5540,0.31298646330833435,-22.449247360229492,-342,6266.0,24.066747665405273,354,9897.0
5550,0.3118726909160614,-19.83500099182129,-307,6266.0,23.13277244567871,238,9897.0
5560,0.31156155467033386,-22.658376693725586,-306,6266.0,20.881803512573242,187,9897.0
5570,0.3104294538497925,-23.252090454101562,-371,6266.0,21.481779098510742,282,9897.0
5580,0.30872002243995667,-22.810928344726562,-409,6266.0,22.578859329223633,299,9897.0
5590,0.3072824478149414,-22.299949645996094,-404,6266.0,24.709762573242188,480,9897.0
5600,0.30624181032180786,-18.079275131225586,-334,6266.0,23.724571228027344,509,9897.0
5610,0.3047202229499817,-15.143146514892578,-202,6266.0,22.97669219970703,453,9897.0
5620,0.3035103976726532,-15.13034725189209,-192,6266.0,27.98758888244629,472,9897.0
5630,0.3018541634082794,-18.04840660095215,-212,6266.0,27.946916580200195,306,9897.0
5640,0.30363476276397705,-19.63791847229004,-328,6266.0,25.854772567749023,412,9897.0
5650,0.3026652932167053,-20.56464385986328,-476,6266.0,24.86752700805664,436,9897.0
5660,0.3015208840370178,-21.498083114624023,-396,6266.0,26.329416275024414,520,9897.0
5670,0.3005404770374298,-16.187820434570312,-286,6266.0,31.74395179748535,627,9897.0
5680,0.29851919412612915,-13.9388427734375,-180,6266.0,33.41431427001953,521,9897.0
5690,0.3030236065387726,-14.004858016967773,-147,6266.0,30.083694458007812,473,9897.0
5700,0.3025343120098114,-10.407123565673828,-174,6266.0,34.36446762084961,561,9897.0
5710,0.3021640479564667,-8.287299156188965,-174,6266.0,33.28989791870117,607,9897.0
5720,0.30081862211227417,-8.059548377990723,-133,6266.0,29.808027267456055,553,9897.0
5730,0.3047071397304535,-4.758162975311279,-23,6266.0,23.911640167236328,394,9897.0
5740,0.3042793273925781,-5.985570430755615,-86,6266.0,23.89396095275879,272,9897.0
5750,0.30412763357162476,-4.793127536773682,-98,6266.0,22.279024124145508,385,9897.0
5760,0.30321311950683594,-2.115400552749634,-119,6266.0,18.478429794311523,469,9897.0
5770,0.3033936321735382,-2.0822629928588867,-31,6266.0,16.60735511779785,361,9897.0
5780,0.3056568205356598,-0.19030717015266418,95,6266.0,17.055767059326172,239,9897.0
5790,0.305392324924469,4.609969615936279,188,6266.0,13.64301872253418,148,9897.0
5800,0.3045912981033325,4.8012003898620605,172,6266.0,13.541448593139648,187,9897.0
5810,0.30455508828163147,4.273211479187012,165,6266.0,12.315533638000488,203,9897.0
5820,0.3051292300224304,4.000357627868652,173,6266.0,16.297592163085938,270,9897.0
5830,0.3047463297843933,7.8759446144104,117,6266.0,19.18121337890625,346,9897.0
5840,0.30411529541015625,10.55789566040039,111,6266.0,16.623619079589844,394,9897.0
5850,0.30350810289382935,7.624148368835449,38,6266.0,15.498106956481934,403,9897.0
5860,0.30388516187667847,4.633331775665283,1,6266.0,18.21541976928711,412,9897.0
5870,0.303986132144928,-0.006685140077024698,-53,6266.0,16.84092903137207,308,9897.0
5880,0.30303090810775757,-2.180310010910034,-50,6266.0,13.843108177185059,244,9897.0
5890,0.3036647140979767,-3.1354873180389404,16,6266.0,8.88576889038086,272,9897.0
5900,0.3028898239135742,-3.448939561843872,78,6266.0,9.105270385742188,203,9897.0
5910,0.3040907382965088,-1.4222228527069092,140,6266.0,6.642375469207764,30,9897.0
5920,0.30378589034080505,3.54941725730896,130,6266.0,10.048398971557617,95,9897.0
5930,0.3039587438106537,12.186310768127441,230,6266.0,6.765904903411865,29,9897.0
5940,0.30457982420921326,14.345452308654785,305,6266.0,5.862582683563232,44,9897.0
5950,0.3036108911037445,17.26881217956543,330,6266.0,4.708256721496582,91,9897.0
5960,0.3033689260482788,21.494831085205078,331,6266.0,-0.06260450929403305,-12,9897.0
5970,0.3036799430847168,18.944923400878906,304,6266.0,0.06736592203378677,-110,9897.0
5980,0.303682804107666,14.796589851379395,309,6266.0,0.06372453272342682,-149,9897.0
5990,0.3035295605659485,11.011089324951172,240,6266.0,-0.9693930149078369,-208,9897.0
6000,0.302359014749527,7.64046573638916,211,6266.0,-1.5775493383407593,-167,9897.0
6010,0.30202722549438477,7.137248516082764,170,6266.0,-7.9396071434021,-9,9897.0
6020,0.30192831158638,6.583617687225342,121,6266.0,-3.6971640586853027,-37,9897.0
6030,0.30149248242378235,6.526420593261719,159,6266.0,-3.9809865951538086,-7,9897.0
6040,0.3011604845523834,7.981053352355957,146,6266.0,-3.476736545562744,-7,9897.0
6050,0.30055925250053406,9.584444999694824,125,6266.0,-1.7128549814224243,76,9897.0
6060,0.30044108629226685,9.100345611572266,104,6266.0,-0.8103917837142944,189,9897.0
6070,0.30055665969848633,8.343290328979492,126,6266.0,0.6379502415657043,204,9897.0
6080,0.2984359562397003,8.0624361038208,36,6266.0,4.943297863006592,235,9897.0
6090,0.297914057970047,8.084441184997559,48,6266.0,2.817026376724243,154,9897.0
6100,0.2974114716053009,8.172663688659668,134,6266.0,0.31491491198539734,74,9897.0
6110,0.2970506548881531,10.344039916992188,174,6266.0,2.743687391281128,162,9897.0
6120,0.296495646238327,9.62436294555664,154,6266.0,1.0938560962677002,81,9897.0
6130,0.2928745448589325,9.96072006225586,115,6266.0,-2.1674909591674805,48,9897.0
6140,0.2921179234981537,10.323736190795898,151,6266.0,-8.100767135620117,-89,9897.0
6150,0.29134178161621094,8.425421714782715,99,6266.0,-3.492910861968994,3,9897.0
6160,0.29051628708839417,5.689526081085205,73,6266.0,-5.121619701385498,43,9897.0
6170,0.28740906715393066,3.1482183933258057,89,6266.0,-3.553297996520996,42,9897.0
6180,0.2863364815711975,0.9343805313110352,3,6266.0,-2.2022595405578613,83,9897.0
6190,0.2853420376777649,-0.2559303045272827,-23,6266.0,-1.3753817081451416,57,9897.0
6200,0.28468865156173706,0.521798849105835,50,6266.0,-2.052677869796753,105,9897.0
6210,0.28363123536109924,2.6964893341064453,129,6266.0,0.31312957406044006,13,9897.0
6220,0.2804962992668152,7.231383800506592,243,6266.0,-1.8411520719528198,-87,9897.0
6230,0.2797682285308838,7.737380504608154,252,6266.0,-0.12281179428100586,-84,9897.0
6240,0.2789498269557953,10.312796592712402,201,6266.0,-1.401958703994751,-65,9897.0
6250,0.277736097574234,11.807467460632324,103,6266.0,-2.3607044219970703,-86,9897.0
6260,0.2763121426105499,12.461572647094727,129,6266.0,-5.228336334228516,-59,9897.0
6270,0.2756100594997406,11.477801322937012,127,6266.0,-5.246178150177002,37,9897.0
6280,0.27499324083328247,10.20556354522705,57,6266.0,-3.0506176948547363,37,9897.0
6290,0.27439773082733154,9.257319450378418,145,6266.0,-4.063288688659668,-8,9897.0
6300,0.27455654740333557,6.06559944152832,199,6266.0,-4.953878879547119,-90,9897.0
6310,0.274099737405777,4.8258819580078125,133,6266.0,-2.5618300437927246,-74,9897.0
6320,0.27395379543304443,-0.7612258791923523,129,6266.0,-4.899010181427002,-196,9897.0
6330,0.2737194001674652,1.2442433834075928,-16,6266.0,-8.624762535095215,-190,9897.0
6340,0.27392759919166565,3.431617259979248,-12,6266.0,-8.3104887008667,-117,9897.0
6350,0.27416086196899414,4.040884494781494,16,6266.0,-10.245436668395996,-41,9897.0
6360,0.2743343710899353,5.471973896026611,136,6266.0,-10.476310729980469,-190,9897.0
6370,0.2744998335838318,6.2788286209106445,186,6266.0,-11.012248992919922,-317,9897.0
6380,0.2747139632701874,6.008302211761475,191,6266.0,-10.28211498260498,-305,9897.0
6390,0.2761804759502411,6.31549596786499,103,6266.0,-11.537363052368164,-296,9897.0
6400,0.27687159180641174,5.296720027923584,18,6266.0,-12.752273559570312,-205,9897.0
6410,0.27760979533195496,7.685723781585693,68,6266.0,-12.658066749572754,-135,9897.0
6420,0.2783729135990143,8.60571575164795,99,6266.0,-10.633408546447754,-69,9897.0
6430,0.2791418433189392,7.9924798011779785,79,6266.0,-12.56801986694336,-43,9897.0
6440,0.2807035744190216,7.684537410736084,81,6266.0,-9.474099159240723,8,9897.0
6450,0.2817068099975586,6.2961602210998535,144,6266.0,-6.8390374183654785,-70,9897.0
6460,0.2826147973537445,5.583515644073486,175,6266.0,-5.83602237701416,-186,9897.0
6470,0.28348222374916077,2.7078096866607666,59,6266.0,-4.696202278137207,-130,9897.0
6480,0.2853146195411682,1.1981264352798462,133,6266.0,-8.344062805175781,-176,9897.0
6490,0.2862227261066437,-0.5267326831817627,24,6266.0,-10.36742115020752,-200,9897.0
6500,0.28712284564971924,-1.9945001602172852,53,6266.0,-13.331600189208984,-228,9897.0
6510,0.2880941927433014,-1.591691493988037,58,6266.0,-8.199865341186523,-133,9897.0
6520,0.288983017206192,0.0035620208363980055,64,6266.0,-7.14801549911499,-187,9897.0
6530,0.2910011112689972,0.5529823303222656,78,6266.0,-9.781113624572754,-182,9897.0
6540,0.29187870025634766,-0.22941851615905762,110,6266.0,-9.261665344238281,-224,9897.0
6550,0.29268357157707214,1.2458300590515137,77,6266.0,-11.162005424499512,-172,9897.0
6560,0.2935096025466919,1.8068838119506836,23,6266.0,-10.371153831481934,-217,9897.0
6570,0.2972526550292969,3.1407885551452637,76,6266.0,-7.938857078552246,-130,9897.0
6580,0.2980964183807373,2.9190642833709717,135,6266.0,-8.284570693969727,-110,9897.0
6590,0.29891565442085266,6.642195701599121,151,6266.0,-5.0452117919921875,-68,9897.0
6600,0.299671471118927,6.6841139793396,146,6266.0,-0.17608779668807983,-53,9897.0
6610,0.3000101149082184,5.790431976318359,131,6266.0,0.8845629096031189,29,9897.0
6620,0.30057159066200256,4.289131164550781,116,6266.0,2.0028703212738037,96,9897.0
6630,0.30103665590286255,2.6237950325012207,45,6266.0,0.804230809211731,122,9897.0
6640,0.3015271723270416,0.2136814296245575,12,6266.0,2.3683745861053467,101,9897.0
6650,0.3019092381000519,0.4928862750530243,14,6266.0,0.625011146068573,117,9897.0
6660,0.30467942357063293,-2.791083574295044,-12,6266.0,2.0063838958740234,163,9897.0
6670,0.3050861060619354,-5.715877532958984,-101,6266.0,-3.8473968505859375,19,9897.0
6680,0.3054516315460205,-7.182628631591797,-122,6266.0,-5.818402290344238,20,9897.0
6690,0.30580440163612366,-7.839323043823242,-106,6266.0,-7.594450950622559,22,9897.0
6700,0.30729353427886963,-8.771178245544434,-118,6266.0,-4.477442741394043,53,9897.0
6710,0.3076024651527405,-10.11398696899414,-160,6266.0,-0.6836312413215637,38,9897.0
6720,0.30780264735221863,-11.12050724029541,-132,6266.0,2.808522939682007,96,9897.0
6730,0.30816471576690674,-6.862488269805908,-70,6266.0,-0.39497047662734985,104,9897.0
6740,0.309390664100647,-6.991638660430908,-105,6266.0,0.7750609517097473,75,9897.0
6750,0.3096112310886383,-5.145966529846191,-52,6266.0,5.535609722137451,134,9897.0
6760,0.30984604358673096,-5.161139488220215,-35,6266.0,5.866687774658203,212,9897.0
6770,0.3100571632385254,-5.119194030761719,-42,6266.0,5.030893802642822,155,9897.0
6780,0.3102404475212097,-2.5510413646698,-6,6266.0,4.730475425720215,62,9897.0
6790,0.31398773193359375,-1.7704030275344849,4,6266.0,4.440303802490234,101,9897.0
6800,0.31433483958244324,-2.28529953956604,-20,6266.0,3.1979002952575684,166,9897.0
6810,0.3146570920944214,-4.666284561157227,-40,6266.0,-3.2929375171661377,19,9897.0
6820,0.31496700644493103,-4.92775821685791,-60,6266.0,-1.6271934509277344,-66,9897.0
6830,0.3152245581150055,-4.556652069091797,-31,6266.0,-6.450428009033203,-21,9897.0
6840,0.31550222635269165,-5.293176174163818,-73,6266.0,-10.127168655395508,-43,9897.0
6850,0.31549277901649475,-5.745865821838379,-91,6266.0,-8.400343894958496,4,9897.0
6860,0.31597375869750977,-6.44269323348999,-115,6266.0,-6.671889305114746,-4,9897.0
6870,0.31617963314056396,-5.7222418785095215,-159,6266.0,-3.2621707916259766,-12,9897.0
6880,0.3170749843120575,-5.730691432952881,-91,6266.0,-0.3128138482570648,128,9897.0
6890,0.317243754863739,-2.218759059906006,-98,6266.0,2.297872543334961,162,9897.0
6900,0.3174303472042084,-1.8023837804794312,-73,6266.0,3.716520309448242,27,9897.0
6910,0.31752973794937134,-1.2088994979858398,-93,6266.0,2.2777507305145264,-106,9897.0
6920,0.3189873993396759,-1.8731801509857178,-30,6266.0,0.9899703860282898,-41,9897.0
6930,0.31908613443374634,-0.6900063753128052,6,6266.0,0.7766344547271729,-56,9897.0
6940,0.31920120120048523,0.7177839875221252,17,6266.0,1.0891693830490112,6,9897.0
6950,0.31920239329338074,1.8558388948440552,34,6266.0,-2.526498317718506,3,9897.0
6960,0.31875860691070557,1.083722710609436,58,6266.0,0.5545982718467712,34,9897.0
6970,0.3187406361103058,0.12868432700634003,22,6266.0,-1.5868186950683594,18,9897.0
6980,0.31872597336769104,-0.9188742637634277,6,6266.0,-3.8500852584838867,71,9897.0
6990,0.318674236536026,-0.2783154249191284,-15,6266.0,-3.092902421951294,15,9897.0
7000,0.3186412453651428,-1.6557527780532837,-42,6266.0,-2.99892258644104,-3,9897.0
7010,0.3195672929286957,-3.186570167541504,-58,6266.0,-3.0447115898132324,-16,9897.0
7020,0.31963470578193665,-3.096942901611328,-68,6266.0,0.7282974720001221,-54,9897.0
7030,0.31970542669296265,-4.83921480178833,-95,6266.0,1.1774448156356812,-126,9897.0
7040,0.3197801411151886,-5.94270658493042,-77,6266.0,2.853088855743408,-44,9897.0
7050,0.3206831216812134,-7.307840347290039,-86,6266.0,1.19680655002594,-11,9897.0
7060,0.32077887654304504,-7.2347941398620605,-60,6266.0,2.459610939025879,118,9897.0
7070,0.3208843469619751,-6.563473224639893,-65,6266.0,4.130954742431641,78,9897.0
7080,0.3209976851940155,-3.1884512901306152,-17,6266.0,4.788730144500732,84,9897.0
7090,0.3211314082145691,-2.690242290496826,-3,6266.0,2.8114871978759766,27,9897.0
7100,0.3223598897457123,-3.1698524951934814,-25,6266.0,-0.1815125048160553,77,9897.0
7110,0.3225451409816742,-2.2126660346984863,21,6266.0,-2.786294937133789,45,9897.0
7120,0.32270342111587524,-1.704605221748352,30,6266.0,1.0294071435928345,102,9897.0
7130,0.3228128254413605,0.6049811840057373,-13,6266.0,-2.174067974090576,39,9897.0
7140,0.32371073961257935,-0.9323623180389404,-41,6266.0,-1.8645285367965698,-4,9897.0
7150,0.3238007724285126,-0.43590599298477173,10,6266.0,1.537013292312622,94,9897.0
7160,0.32390183210372925,1.102258324623108,-27,6266.0,0.8622421026229858,-10,9897.0
7170,0.3240697681903839,0.3872985243797302,-60,6266.0,2.1160292625427246,-56,9897.0
7180,0.3233538568019867,-1.5376019477844238,-58,6266.0,2.330216646194458,-82,9897.0
7190,0.32337886095046997,-2.0500757694244385,-64,6266.0,-1.1555660963058472,-84,9897.0
7200,0.3234025537967682,-2.74143385887146,-52,6266.0,-0.576391339302063,-122,9897.0
7210,0.32340818643569946,-1.9283421039581299,-5,6266.0,2.6047160625457764,-53,9897.0
7220,0.3234046399593353,-1.3527779579162598,23,6266.0,0.7764403820037842,-67,9897.0
7230,0.32286402583122253,0.3325271010398865,46,6266.0,-1.068446397781372,-54,9897.0
7240,0.32285523414611816,1.813625454902649,32,6266.0,1.250734806060791,-3,9897.0
7250,0.32280653715133667,0.06399712711572647,89,6266.0,1.0787320137023926,8,9897.0
7260,0.32269802689552307,0.6809439063072205,52,6266.0,0.6860136985778809,133,9897.0
7270,0.32311171293258667,1.1466948986053467,19,6266.0,1.3361533880233765,136,9897.0
7280,0.3229963779449463,-1.7412035465240479,-7,6266.0,0.7309679985046387,125,9897.0
7290,0.3228393793106079,-2.687192916870117,-55,6266.0,2.2403810024261475,46,9897.0
7300,0.32267943024635315,-1.983161211013794,-16,6266.0,-1.7649426460266113,-18,9897.0
7310,0.32251226902008057,-0.8187763690948486,-13,6266.0,-1.0274968147277832,-4,9897.0
7320,0.3237803876399994,-0.05498659238219261,-1,6266.0,-2.5040395259857178,-21,9897.0
7330,0.32359910011291504,1.11349356174469,-13,6266.0,-3.0266244411468506,-1,9897.0
7340,0.32343706488609314,2.4664418697357178,-35,6266.0,-2.7661609649658203,-59,9897.0
7350,0.323329359292984,2.238611936569214,-1,6266.0,-0.7814025282859802,-71,9897.0
7360,0.3235281705856323,2.4846813678741455,9,6266.0,-2.6145637035369873,-111,9897.0
7370,0.3235172927379608,0.5928565859794617,-32,6266.0,2.0090527534484863,-118,9897.0
7380,0.3235238194465637,-0.012664031237363815,-21,6266.0,2.433004856109619,-99,9897.0
7390,0.3235592842102051,-1.3355741500854492,45,6266.0,3.8129661083221436,-69,9897.0
7400,0.325972318649292,-2.535623550415039,20,6266.0,3.1277449131011963,-60,9897.0
7410,0.3261924684047699,-1.5612297058105469,37,6266.0,4.862894535064697,-56,9897.0
7420,0.3264266848564148,1.21690034866333,58,6266.0,2.6152219772338867,-54,9897.0
7430,0.32665225863456726,0.7875075936317444,95,6266.0,7.946303844451904,-13,9897.0
7440,0.3268951177597046,1.196241021156311,116,6266.0,4.349445819854736,-68,9897.0
7450,0.32747411727905273,1.5770437717437744,85,6266.0,5.2295451164245605,23,9897.0
7460,0.32769784331321716,3.0601675510406494,177,6266.0,-1.515068531036377,8,9897.0
7470,0.327888548374176,2.2681922912597656,126,6266.0,-0.41414517164230347,43,9897.0
7480,0.3280559480190277,4.9549384117126465,118,6266.0,-2.997138738632202,-57,9897.0
7490,0.32927021384239197,3.7621219158172607,103,6266.0,-3.7280726432800293,-61,9897.0
7500,0.3294587731361389,1.990314245223999,66,6266.0,-7.417335033416748,-85,9897.0
7510,0.32959073781967163,0.136076882481575,39,6266.0,-1.7657086849212646,40,9897.0
7520,0.32970765233039856,0.03603505715727806,46,6266.0,-4.573394298553467,26,9897.0
7530,0.32977837324142456,1.0591464042663574,56,6266.0,0.8800792694091797,92,9897.0
7540,0.33068397641181946,0.9766786694526672,47,6266.0,1.2284164428710938,75,9897.0
7550,0.33076077699661255,0.8713904023170471,-9,6266.0,0.8730438947677612,51,9897.0
7560,0.33082470297813416,0.2645944654941559,-47,6266.0,3.3007450103759766,87,9897.0
7570,0.3308514654636383,1.3069658279418945,24,6266.0,6.098494529724121,-6,9897.0
7580,0.33016982674598694,0.8222501277923584,-4,6266.0,5.334842205047607,-24,9897.0
7590,0.3300602436065674,-0.14419475197792053,6,6266.0,-1.094750165939331,-79,9897.0
7600,0.3300497829914093,-1.0318101644515991,18,6266.0,0.21933406591415405,-133,9897.0
7610,0.32999157905578613,-1.6728839874267578,35,6266.0,-0.11052118241786957,-121,9897.0
7620,0.32998499274253845,-0.20624902844429016,30,6266.0,-0.5895695090293884,-228,9897.0
7630,0.32998618483543396,0.165047749876976,90,6266.0,-0.6151357293128967,-186,9897.0
7640,0.3299959897994995,3.986361265182495,109,6266.0,-1.9821350574493408,-99,9897.0
7650,0.3299749791622162,4.077431678771973,118,6266.0,-3.3389956951141357,-30,9897.0
7660,0.3299526572227478,2.096961259841919,85,6266.0,0.22191095352172852,-8,9897.0
7670,0.3295186460018158,0.802110493183136,46,6266.0,-0.4810084104537964,-3,9897.0
7680,0.32940101623535156,-0.24534465372562408,-7,6266.0,-3.7867300510406494,46,9897.0
7690,0.329306960105896,-0.1521470993757248,-5,6266.0,0.1110018789768219,61,9897.0
7700,0.3291735351085663,-0.60857754945755,3,6266.0,2.7452759742736816,121,9897.0
7710,0.3301732540130615,-0.3719361424446106,-8,6266.0,0.2833576500415802,80,9897.0
7720,0.3300407826900482,-0.9129560589790344,-31,6266.0,3.4177134037017822,77,9897.0
7730,0.32981669902801514,-1.0417355298995972,-4,6266.0,-2.7248518466949463,41,9897.0
7740,0.32959508895874023,-2.0073184967041016,-71,6266.0,-2.0020997524261475,-31,9897.0
7750,0.3292686343193054,-0.8538863062858582,-74,6266.0,-4.3693928718566895,23,9897.0
7760,0.3302896320819855,-0.3419569432735443,-47,6266.0,-2.575329542160034,12,9897.0
7770,0.33014267683029175,0.46239808201789856,-51,6266.0,-2.51251220703125,-68,9897.0
7780,0.33010217547416687,0.21173763275146484,-3,6266.0,-3.506718635559082,-148,9897.0
7790,0.3299752175807953,0.31958261132240295,-41,6266.0,-4.6118597984313965,-104,9897.0
7800,0.3319142460823059,1.0593034029006958,19,6266.0,-2.0407285690307617,-157,9897.0
7810,0.3320064842700958,0.9480777382850647,-1,6266.0,-5.023147106170654,-119,9897.0
7820,0.3321431875228882,0.027100909501314163,-12,6266.0,-4.363536357879639,-145,9897.0
7830,0.33226099610328674,2.6931378841400146,-9,6266.0,-5.577436447143555,-178,9897.0
7840,0.3333725929260254,2.184701681137085,50,6266.0,-4.21786642074585,-118,9897.0
7850,0.33354079723358154,1.2165229320526123,43,6266.0,1.8876879215240479,-30,9897.0
7860,0.33372658491134644,3.4400556087493896,101,6266.0,2.291151285171509,39,9897.0
7870,0.33392632007598877,2.173107862472534,55,6266.0,6.1883649826049805,212,9897.0
7880,0.33410200476646423,1.729986548423767,16,6266.0,8.535577774047852,225,9897.0
7890,0.3345445990562439,0.6751787066459656,-15,6266.0,5.589771747589111,265,9897.0
7900,0.3346952795982361,-0.8142493963241577,1,6266.0,6.610729694366455,187,9897.0
7910,0.3348258435726166,0.5043386220932007,-58,6266.0,3.254657506942749,158,9897.0
7920,0.33492588996887207,-0.9832726120948792,-72,6266.0,1.902530550956726,100,9897.0
7930,0.3361417055130005,-0.8041381239891052,-40,6266.0,-0.33738917112350464,121,9897.0
7940,0.33622094988822937,1.4355286359786987,7,6266.0,-3.3231892585754395,78,9897.0
7950,0.33626309037208557,1.8678123950958252,34,6266.0,-6.8718719482421875,9,9897.0
7960,0.33624258637428284,2.8635880947113037,-20,6266.0,-3.433140754699707,59,9897.0
7970,0.3361515700817108,0.09315181523561478,1,6266.0,-4.433826923370361,-53,9897.0
7980,0.3372097909450531,-0.6776926517486572,-29,6266.0,-4.131382465362549,-88,9897.0
7990,0.3372279405593872,-0.38495028018951416,-43,6266.0,-1.6162949800491333,-170,9897.0
8000,0.3372451066970825,-0.38963454961776733,-6,6266.0,-2.132338047027588,-129,9897.0
8010,0.3372884690761566,1.1000639200210571,48,6266.0,2.9027223587036133,-34,9897.0
8020,0.33953922986984253,1.2139718532562256,30,6266.0,5.710189342498779,53,9897.0
8030,0.33973315358161926,1.5619196891784668,20,6266.0,4.9461846351623535,77,9897.0
8040,0.3398735225200653,-0.37429651618003845,3,6266.0,5.877318859100342,100,9897.0
8050,0.3400147557258606,-1.0334914922714233,21,6266.0,4.726296901702881,142,9897.0
8060,0.3423648476600647,-1.193505048751831,-16,6266.0,2.777623176574707,155,9897.0
8070,0.34261178970336914,-1.1977894306182861,-22,6266.0,4.7368950843811035,154,9897.0
8080,0.34284815192222595,-0.9176982045173645,17,6266.0,1.5287926197052002,126,9897.0
8090,0.34296971559524536,0.05290220305323601,-19,6266.0,2.5090296268463135,97,9897.0
8100,0.34294643998146057,-0.27052778005599976,-3,6266.0,3.633798122406006,68,9897.0
8110,0.3436967134475708,1.0121371746063232,-26,6266.0,-1.7121412754058838,72,9897.0
8120,0.34358465671539307,-0.45625293254852295,-37,6266.0,-2.0079185962677,-14,9897.0
8130,0.34346821904182434,1.548978567123413,-19,6266.0,-3.1978952884674072,-53,9897.0
8140,0.34336620569229126,1.2727231979370117,-19,6266.0,-7.477025508880615,-240,9897.0
8150,0.34431469440460205,2.0597333908081055,47,6266.0,-1.659899115562439,-130,9897.0
8160,0.3442830443382263,1.7823197841644287,76,6266.0,-1.732273817062378,-161,9897.0
8170,0.3442550599575043,1.9954218864440918,83,6266.0,2.368396282196045,-66,9897.0
8180,0.34418392181396484,1.7988899946212769,87,6266.0,2.62825870513916,86,9897.0
8190,0.34410953521728516,2.4329283237457275,59,6266.0,3.4079432487487793,152,9897.0
8200,0.34599167108535767,-1.557462215423584,-16,6266.0,9.605058670043945,246,9897.0
8210,0.34598618745803833,-1.4211801290512085,-3,6266.0,7.8135552406311035,175,9897.0
8220,0.3460078835487366,-3.1831722259521484,-40,6266.0,4.711540222167969,120,9897.0
8230,0.34600529074668884,-3.2524755001068115,-77,6266.0,0.48186391592025757,51,9897.0
8240,0.3463847041130066,-5.23911714553833,-122,6266.0,-2.2730917930603027,31,9897.0
8250,0.3462623655796051,-3.621061086654663,-109,6266.0,-2.4036173820495605,-40,9897.0
8260,0.3461185097694397,-2.75811767578125,-74,6266.0,-3.7825706005096436,-108,9897.0
8270,0.34615790843963623,-3.8938615322113037,-28,6266.0,-1.671878457069397,-93,9897.0
8280,0.34875261783599854,-5.336104393005371,-22,6266.0,-0.34017425775527954,-131,9897.0
8290,0.34873655438423157,-3.399259090423584,-22,6266.0,0.4556921422481537,-132,9897.0
8300,0.34885740280151367,-3.1575381755828857,-9,6266.0,-0.20683197677135468,-145,9897.0
8310,0.3490041196346283,-3.4894087314605713,1,6266.0,2.652343273162842,-85,9897.0
8320,0.34912610054016113,-1.2616268396377563,31,6266.0,0.07041536271572113,-64,9897.0
8330,0.3503264784812927,-0.6517123579978943,75,6266.0,-1.0667037963867188,-64,9897.0
8340,0.35044363141059875,0.6393849849700928,62,6266.0,-1.729598879814148,-11,9897.0
8350,0.35048139095306396,2.892533779144287,80,6266.0,-3.2636778354644775,44,9897.0
8360,0.3505571484565735,2.210660696029663,76,6266.0,-5.474890232086182,44,9897.0
8370,0.35038289427757263,2.760627508163452,12,6266.0,-3.264232635498047,-10,9897.0
8380,0.3503554165363312,0.07334806025028229,-14,6266.0,2.2779457569122314,18,9897.0
8390,0.35028818249702454,-1.800965428352356,-88,6266.0,0.3824714422225952,-2,9897.0
8400,0.35025304555892944,-2.759406089782715,-79,6266.0,-0.45258474349975586,-51,9897.0
8410,0.350093275308609,-3.9831032752990723,-104,6266.0,1.4271844625473022,-41,9897.0
8420,0.35068169236183167,-5.105168342590332,-98,6266.0,3.9616153240203857,-16,9897.0
8430,0.3505702614784241,-3.4101080894470215,-3,6266.0,4.019840717315674,-53,9897.0
8440,0.350458562374115,-0.9012400507926941,-7,6266.0,0.16551919281482697,-83,9897.0
8450,0.35037994384765625,-1.2095850706100464,-9,6266.0,0.14191539585590363,23,9897.0
8460,0.35056793689727783,-3.4594943523406982,-34,6266.0,1.8567370176315308,59,9897.0
8470,0.3504542112350464,-2.846623182296753,-79,6266.0,0.5719354152679443,47,9897.0
8480,0.3502892553806305,-3.67462420463562,-116,6266.0,0.567451000213623,77,9897.0
8490,0.35008180141448975,-0.14453937113285065,-83,6266.0,2.866436004638672,92,9897.0
8500,0.35023581981658936,-1.0668390989303589,-76,6266.0,3.305509328842163,51,9897.0
8510,0.34990277886390686,-3.4897725582122803,-51,6266.0,1.6034015417099,13,9897.0
8520,0.3495692312717438,-3.2416772842407227,-34,6266.0,1.2681772708892822,-49,9897.0
8530,0.3492280840873718,-2.0871341228485107,3,6266.0,0.4234805107116699,-103,9897.0
8540,0.34888264536857605,-1.418148159980774,-15,6266.0,2.7881596088409424,-130,9897.0
8550,0.34989896416664124,0.6690985560417175,36,6266.0,6.086787700653076,-144,9897.0
8560,0.34962138533592224,2.0416810512542725,39,6266.0,2.1177029609680176,-138,9897.0
8570,0.34935012459754944,0.8421961069107056,57,6266.0,3.858995199203491,-117,9897.0
8580,0.34910038113594055,-0.2564353048801422,42,6266.0,2.8657407760620117,-164,9897.0
8590,0.35045865178108215,0.566003143787384,91,6266.0,2.9027867317199707,-102,9897.0
8600,0.35037991404533386,0.2154129594564438,60,6266.0,3.046053886413574,-59,9897.0
8610,0.350342720746994,2.5881187915802,107,6266.0,2.3456313610076904,-106,9897.0
8620,0.35033294558525085,5.511082172393799,116,6266.0,5.5693559646606445,-99,9897.0
8630,0.3503546416759491,4.324062824249268,74,6266.0,-0.6343104839324951,-220,9897.0
8640,0.351891428232193,5.261436462402344,83,6266.0,0.6738890409469604,-207,9897.0
8650,0.3521331548690796,3.2340002059936523,56,6266.0,3.918895959854126,-89,9897.0
8660,0.3523889482021332,3.1953251361846924,68,6266.0,0.8703463673591614,-146,9897.0
8670,0.35265374183654785,1.477510929107666,84,6266.0,2.5767576694488525,-91,9897.0
8680,0.35294294357299805,-0.08695866167545319,43,6266.0,3.542687177658081,-90,9897.0
8690,0.35324135422706604,-0.3479313254356384,14,6266.0,2.459059715270996,-171,9897.0
8700,0.3535584509372711,-1.6235381364822388,10,6266.0,2.7755637168884277,-108,9897.0
8710,0.35386940836906433,-2.6317198276519775,21,6266.0,1.7993340492248535,-167,9897.0
8720,0.35371071100234985,-2.8321735858917236,4,6266.0,2.5082345008850098,-170,9897.0
8730,0.35397183895111084,-1.3109055757522583,50,6266.0,2.6515915393829346,-194,9897.0
8740,0.35425132513046265,0.10162047296762466,125,6266.0,3.9990575313568115,-42,9897.0
8750,0.35455602407455444,2.4107980728149414,116,6266.0,3.405668020248413,-90,9897.0
8760,0.35487207770347595,3.136247158050537,102,6266.0,3.738800048828125,-17,9897.0
8770,0.3543160855770111,2.939274311065674,115,6266.0,4.4771552085876465,-74,9897.0
8780,0.35452648997306824,3.5040154457092285,108,6266.0,1.8033980131149292,-72,9897.0
8790,0.3547310531139374,2.91035795211792,82,6266.0,5.168327331542969,88,9897.0
8800,0.3549732565879822,2.1796789169311523,116,6266.0,0.28885582089424133,154,9897.0
8810,0.3532298505306244,0.6394620537757874,56,6266.0,2.119835376739502,99,9897.0
8820,0.35332024097442627,1.103662133216858,-10,6266.0,-0.0748857781291008,100,9897.0
8830,0.3533516526222229,1.1729540824890137,-22,6266.0,-0.7087440490722656,55,9897.0
8840,0.3533046841621399,1.528817057609558,-79,6266.0,-2.322981834411621,106,9897.0
8850,0.3531554341316223,-0.30286160111427307,-7,6266.0,-0.5797891020774841,105,9897.0
8860,0.351279616355896,-0.9097341895103455,-72,6266.0,-0.6883998513221741,115,9897.0
8870,0.3509218990802765,-2.4634411334991455,-73,6266.0,-3.4956979751586914,-19,9897.0
8880,0.35053491592407227,-1.5006171464920044,-24,6266.0,-1.001528024673462,-5,9897.0
8890,0.3500867486000061,0.24454933404922485,-18,6266.0,-0.7763349413871765,-80,9897.0
8900,0.3501300513744354,0.696535587310791,-26,6266.0,2.460256576538086,1,9897.0
8910,0.34957343339920044,1.67842435836792,-15,6266.0,2.3639440536499023,7,9897.0
8920,0.34898239374160767,3.1949551105499268,22,6266.0,2.6761159896850586,-32,9897.0
8930,0.3483688235282898,2.9865992069244385,10,6266.0,3.3835439682006836,45,9897.0
8940,0.3466993570327759,1.3956130743026733,-13,6266.0,1.45631742477417,-25,9897.0
8950,0.3460719585418701,1.0453424453735352,-43,6266.0,1.6867016553878784,18,9897.0
8960,0.34541746973991394,-3.054119110107422,-99,6266.0,-2.0342321395874023,-135,9897.0
8970,0.3447425663471222,-4.928874492645264,-108,6266.0,3.099820375442505,-53,9897.0
8980,0.34411171078681946,-5.5929083824157715,-100,6266.0,1.2587765455245972,-12,9897.0
8990,0.34295332431793213,-5.879464149475098,-104,6266.0,2.227694034576416,-13,9897.0
9000,0.342513769865036,-3.637366771697998,-113,6266.0,3.066445827484131,60,9897.0
9010,0.34202226996421814,-0.534555196762085,-76,6266.0,5.006080627441406,127,9897.0
9020,0.34161248803138733,0.21075983345508575,-88,6266.0,5.718814849853516,91,9897.0
9030,0.3407004177570343,0.4146183133125305,-45,6266.0,1.4235447645187378,110,9897.0
9040,0.3402566909790039,1.6079107522964478,-36,6266.0,4.079126358032227,144,9897.0
9050,0.3397665321826935,1.1964609622955322,41,6266.0,0.39071622490882874,114,9897.0
9060,0.3391445279121399,2.1290478706359863,24,6266.0,1.8242391347885132,154,9897.0
9070,0.3386286199092865,0.9550507664680481,33,6266.0,1.5545501708984375,42,9897.0
9080,0.33942657709121704,1.2513877153396606,3,6266.0,2.540255546569824,31,9897.0
9090,0.33894777297973633,0.36449024081230164,120,6266.0,-1.216463565826416,-40,9897.0
9100,0.33857104182243347,0.4928337037563324,95,6266.0,-2.65910005569458,-116,9897.0
9110,0.33814939856529236,-0.4351401925086975,75,6266.0,1.2531898021697998,-160,9897.0
9120,0.34013134241104126,-0.917647123336792,92,6266.0,2.3531625270843506,-103,9897.0
9130,0.33970898389816284,-3.5889980792999268,139,6266.0,1.732439637184143,-96,9897.0
9140,0.3392757475376129,0.2699368894100189,114,6266.0,7.364660263061523,-88,9897.0
9150,0.33882731199264526,1.334088921546936,85,6266.0,4.071919918060303,-84,9897.0
9160,0.3390372395515442,3.4228649139404297,114,6266.0,3.609689474105835,-85,9897.0
9170,0.3386356234550476,4.453663349151611,36,6266.0,2.0883688926696777,-51,9897.0
9180,0.3381531834602356,5.142420768737793,43,6266.0,2.2314672470092773,-27,9897.0
9190,0.3376663625240326,3.6736273765563965,-54,6266.0,0.31890735030174255,82,9897.0
9200,0.33717578649520874,2.226215362548828,-90,6266.0,0.0035240044817328453,63,9897.0
9210,0.3403424024581909,-0.9468297958374023,-47,6266.0,-0.5227751731872559,147,9897.0
9220,0.3400757908821106,-4.223644733428955,-111,6266.0,0.87652987241745,90,9897.0
9230,0.33989840745925903,-4.940489292144775,-111,6266.0,-4.500393867492676,51,9897.0
9240,0.33972349762916565,-4.773330211639404,-105,6266.0,-5.6096367835998535,-12,9897.0
9250,0.34279942512512207,-4.530901908874512,-31,6266.0,-2.848419427871704,-24,9897.0
9260,0.3429000973701477,-3.9676573276519775,2,6266.0,-2.196078062057495,-55,9897.0
9270,0.34298813343048096,-2.2220096588134766,68,6266.0,-3.8671560287475586,-138,9897.0
9280,0.3431180417537689,-0.38452649116516113,68,6266.0,-2.6719906330108643,-82,9897.0
9290,0.3432851731777191,2.447979688644409,106,6266.0,2.13210129737854,-52,9897.0
9300,0.34799352288246155,0.9973479509353638,126,6266.0,4.137643814086914,-129,9897.0
9310,0.34843870997428894,1.8901444673538208,78,6266.0,4.228435039520264,-35,9897.0
9320,0.34880077838897705,0.8303021788597107,38,6266.0,2.3039791584014893,-118,9897.0
9330,0.34909212589263916,-0.13253578543663025,26,6266.0,0.3946376144886017,-105,9897.0
9340,0.35197803378105164,-0.2373669594526291,-13,6266.0,-0.3404751718044281,-121,9897.0
9350,0.3523818254470825,-0.6337882280349731,-24,6266.0,-3.791529417037964,-112,9897.0
9360,0.3527502417564392,0.358294814825058,-53,6266.0,-4.207163333892822,-127,9897.0
9370,0.35306113958358765,-0.1947740912437439,-31,6266.0,-0.9945115447044373,-129,9897.0
9380,0.3558182716369629,0.3739699721336365,25,6266.0,-2.185692548751831,-172,9897.0
9390,0.3561520278453827,2.1506118774414062,37,6266.0,-5.852229595184326,-235,9897.0
9400,0.35642552375793457,4.88679838180542,76,6266.0,-6.320168495178223,-102,9897.0
9410,0.35666441917419434,7.196371078491211,100,6266.0,-2.876702070236206,-156,9897.0
9420,0.3568487763404846,5.054738998413086,111,6266.0,-0.08763124793767929,-19,9897.0
9430,0.3596988320350647,4.700257301330566,108,6266.0,3.5801379680633545,-5,9897.0
9440,0.3598531484603882,3.8744356632232666,89,6266.0,-1.5022075176239014,-32,9897.0
9450,0.35994359850883484,0.9703578948974609,45,6266.0,1.5301752090454102,33,9897.0
9460,0.35998988151550293,-0.012562140822410583,-10,6266.0,-1.9860507249832153,-27,9897.0
9470,0.36274752020835876,-2.389613389968872,-47,6266.0,-2.4472484588623047,-18,9897.0
9480,0.3628137409687042,-1.2632044553756714,-38,6266.0,-5.675954818725586,81,9897.0
9490,0.36282896995544434,-1.3104010820388794,-50,6266.0,-3.754023551940918,63,9897.0
9500,0.3629154562950134,-1.822409987449646,-108,6266.0,-3.927928924560547,115,9897.0
9510,0.3630043864250183,-3.0349714756011963,-76,6266.0,-2.9460015296936035,102,9897.0
9520,0.366617351770401,-4.211207389831543,-122,6266.0,-0.4215000867843628,102,9897.0
9530,0.36673808097839355,-4.681676864624023,-114,6266.0,0.5412523150444031,22,9897.0
9540,0.3668370544910431,-3.3370933532714844,-84,6266.0,4.114582061767578,-67,9897.0
9550,0.36687636375427246,-2.6166579723358154,-70,6266.0,0.1360926628112793,-100,9897.0
9560,0.3697238564491272,-2.4250004291534424,-9,6266.0,1.551459550857544,-49,9897.0
9570,0.3698199689388275,-1.1929912567138672,-5,6266.0,-1.5675395727157593,-32,9897.0
9580,0.3698243796825409,-0.32856810092926025,27,6266.0,-2.864870309829712,-8,9897.0
9590,0.3698132038116455,0.6546019315719604,58,6266.0,-2.0245323181152344,25,9897.0
9600,0.37218859791755676,2.769453525543213,112,6266.0,-4.370059013366699,19,9897.0
9610,0.37221357226371765,4.34351110458374,121,6266.0,-6.79848051071167,6,9897.0
9620,0.3721841871738434,4.464365482330322,115,6266.0,-6.875880718231201,-83,9897.0
9630,0.3721533417701721,5.26554536819458,85,6266.0,-8.44721794128418,-122,9897.0
9640,0.3720574676990509,4.233508110046387,17,6266.0,-6.631330490112305,-130,9897.0
9650,0.373100608587265,2.708860397338867,28,6266.0,-4.853927135467529,-156,9897.0
9660,0.3729969263076782,0.7548573017120361,-32,6266.0,-4.581162929534912,-193,9897.0
9670,0.3728627860546112,-3.6966135501861572,-65,6266.0,-4.766236305236816,-105,9897.0
9680,0.3726906180381775,-3.8159337043762207,-42,6266.0,-3.100503921508789,-73,9897.0
9690,0.37390679121017456,-5.788666248321533,-46,6266.0,-1.7635866403579712,25,9897.0
9700,0.3737541735172272,-5.658905506134033,-116,6266.0,2.225898265838623,115,9897.0
9710,0.37356385588645935,-3.316404104232788,-99,6266.0,3.634709119796753,119,9897.0
9720,0.3733443021774292,-2.5697696208953857,-75,6266.0,7.3484015464782715,248,9897.0
9730,0.37308597564697266,-0.9499092698097229,-62,6266.0,6.803935527801514,239,9897.0
9740,0.37315577268600464,-1.248765468597412,-48,6266.0,5.185763359069824,155,9897.0
9750,0.37282997369766235,-3.0813701152801514,-80,6266.0,3.977827548980713,91,9897.0
9760,0.37246862053871155,-1.5961124897003174,-59,6266.0,1.2919071912765503,-38,9897.0
9770,0.37208279967308044,-1.0564335584640503,35,6266.0,-2.0171632766723633,-106,9897.0
9780,0.371406614780426,-2.251249313354492,50,6266.0,-1.1551405191421509,-132,9897.0
9790,0.3709582984447479,-1.6005703210830688,74,6266.0,-2.9684948921203613,-141,9897.0
9800,0.3704622983932495,0.05905307084321976,43,6266.0,-2.942574977874756,70,9897.0
9810,0.36993393301963806,-0.857780933380127,32,6266.0,-1.8175292015075684,66,9897.0
9820,0.37114670872688293,1.3310155868530273,26,6266.0,-0.6813176870346069,39,9897.0
9830,0.37065690755844116,0.26397308707237244,-7,6266.0,2.4393439292907715,20,9897.0
9840,0.3701457381248474,-1.2798457145690918,-48,6266.0,4.877738952636719,117,9897.0
9850,0.3696500360965729,-1.6386343240737915,-88,6266.0,9.466686248779297,175,9897.0
9860,0.3691600561141968,-3.230402708053589,-94,6266.0,8.00085163116455,99,9897.0
9870,0.37017109990119934,-2.317180633544922,-69,6266.0,4.35767936706543,-48,9897.0
9880,0.369690865278244,-4.101667881011963,-101,6266.0,4.795309066772461,-6,9897.0
9890,0.3691670596599579,-3.2804348468780518,-40,6266.0,2.1341516971588135,1,9897.0
9900,0.36866241693496704,0.04379050433635712,-10,6266.0,4.7191162109375,12,9897.0
9910,0.3680603802204132,0.3256717622280121,-21,6266.0,6.024115085601807,-18,9897.0
9920,0.36744236946105957,1.293819546699524,47,6266.0,2.348252773284912,-133,9897.0
9930,0.3668527603149414,-0.3228437304496765,43,6266.0,2.45872163772583,-124,9897.0
9940,0.3661799728870392,-0.6460889577865601,60,6266.0,2.1598055362701416,-140,9897.0
9950,0.3654014766216278,-0.01197526790201664,30,6266.0,1.4392647743225098,-124,9897.0
9960,0.36480358242988586,-3.0322000980377197,21,6266.0,2.996670961380005,-39,9897.0
9970,0.3639834523200989,-5.6382293701171875,17,6266.0,4.758898735046387,13,9897.0
9980,0.3631311058998108,-4.190672874450684,13,6266.0,5.117675304412842,-7,9897.0
9990,0.36222678422927856,-5.457021236419678,15,6266.0,3.1824965476989746,58,9897.0
10000,0.36192792654037476,-4.029468059539795,-12,6266.0,6.2719573974609375,40,9897.0
10010,0.36094504594802856,-2.2816851139068604,4,6266.0,6.572654724121094,78,9897.0
10020,0.35998818278312683,-2.787987232208252,26,6266.0,7.255965232849121,42,9897.0
10030,0.3590237498283386,-1.0222773551940918,54,6266.0,5.179717540740967,31,9897.0
10040,0.35918480157852173,-0.7073172330856323,56,6266.0,4.0622453689575195,-27,9897.0
10050,0.3582472801208496,1.696156620979309,42,6266.0,0.3641119599342346,-16,9897.0
10060,0.3573659658432007,0.6853341460227966,33,6266.0,1.749286413192749,-72,9897.0
10070,0.3565703332424164,1.7093995809555054,88,6266.0,-0.0666731595993042,-57,9897.0
10080,0.35579559206962585,0.4172705411911011,17,6266.0,-1.4386707544326782,-7,9897.0
10090,0.35621172189712524,0.51278156042099,-3,6266.0,1.9664723873138428,-47,9897.0
10100,0.35534101724624634,-0.25290900468826294,-71,6266.0,4.397706508636475,2,9897.0
10110,0.35443001985549927,-0.264412522315979,-115,6266.0,4.1576972007751465,90,9897.0
10120,0.35354840755462646,0.26584622263908386,-137,6266.0,0.1746128499507904,72,9897.0
10130,0.35600268840789795,1.3570023775100708,-83,6266.0,-0.31573525071144104,54,9897.0
10140,0.355343222618103,1.947176456451416,-138,6266.0,-1.2682921886444092,104,9897.0
10150,0.35477715730667114,-0.24545131623744965,-102,6266.0,-0.27676230669021606,150,9897.0
10160,0.35425370931625366,0.7219963669776917,-73,6266.0,-3.7718288898468018,71,9897.0
10170,0.3538815975189209,1.011533498764038,-54,6266.0,-3.7339091300964355,92,9897.0
10180,0.3564905524253845,0.2739926874637604,1,6266.0,-2.201110601425171,87,9897.0
10190,0.35644295811653137,-0.6521815061569214,-4,6266.0,-0.22060726583003998,112,9897.0
10200,0.3565114438533783,1.673111081123352,35,6266.0,4.290894985198975,173,9897.0
10210,0.3566374182701111,0.9813928008079529,54,6266.0,2.9700374603271484,168,9897.0
10220,0.3584621846675873,1.5279453992843628,42,6266.0,5.330856800079346,244,9897.0
10230,0.3587423264980316,0.5500770807266235,51,6266.0,4.1292524337768555,191,9897.0
10240,0.3589925169944763,2.5737853050231934,34,6266.0,2.636244535446167,185,9897.0
10250,0.3592768907546997,2.0324528217315674,16,6266.0,-1.9779144525527954,68,9897.0
10260,0.36050912737846375,2.4395463466644287,18,6266.0,-5.7197394371032715,25,9897.0
10270,0.36088186502456665,2.105494499206543,6,6266.0,-7.297124862670898,-5,9897.0
10280,0.36127129197120667,2.205637216567993,0,6266.0,-7.920960426330566,-40,9897.0
10290,0.3616088032722473,4.679345607757568,24,6266.0,-8.456844329833984,-54,9897.0
10300,0.36194083094596863,5.600637435913086,61,6266.0,-9.098963737487793,61,9897.0
10310,0.3634832501411438,6.664906024932861,78,6266.0,-6.937537670135498,98,9897.0
10320,0.36381781101226807,6.642887115478516,89,6266.0,-4.045722484588623,146,9897.0
10330,0.36409640312194824,5.728567600250244,7,6266.0,-4.253052234649658,28,9897.0
10340,0.36433860659599304,3.6806490421295166,21,6266.0,0.33352574706077576,27,9897.0
10350,0.3655474781990051,1.957542061805725,-53,6266.0,0.28480708599090576,-56,9897.0
10360,0.3658323287963867,-0.35602277517318726,-74,6266.0,1.7075114250183105,-46,9897.0
10370,0.36606723070144653,-1.3183419704437256,-28,6266.0,-0.009654548019170761,-60,9897.0
10380,0.3662530779838562,-0.7713524103164673,25,6266.0,-0.5734455585479736,-95,9897.0
10390,0.3663592040538788,-0.6453167796134949,7,6266.0,-3.7251205444335938,-47,9897.0
10400,0.36785101890563965,2.864830255508423,50,6266.0,-1.3682376146316528,11,9897.0
10410,0.36784136295318604,1.766819953918457,43,6266.0,0.2988634705543518,18,9897.0
10420,0.36775341629981995,0.9962575435638428,27,6266.0,-1.6661392450332642,63,9897.0
10430,0.3675936460494995,1.6716022491455078,14,6266.0,1.7852853536605835,80,9897.0
10440,0.3692365288734436,0.42005231976509094,17,6266.0,2.8435516357421875,72,9897.0
10450,0.3690776824951172,2.1002073287963867,-7,6266.0,1.6238758563995361,45,9897.0
10460,0.36889132857322693,0.7254326343536377,7,6266.0,1.3253978490829468,25,9897.0
10470,0.3686651289463043,2.480231761932373,-11,6266.0,-0.20237666368484497,-87,9897.0
10480,0.368251234292984,1.5299718379974365,-23,6266.0,-0.3433418571949005,-114,9897.0
10490,0.36796456575393677,1.9445205926895142,46,6266.0,-2.2850019931793213,-107,9897.0
10500,0.36764270067214966,0.9992175698280334,25,6266.0,-1.6310009956359863,17,9897.0
10510,0.36729076504707336,-0.14548636972904205,18,6266.0,-0.44754528999328613,94,9897.0
10520,0.36692455410957336,-0.679955780506134,11,6266.0,2.257925271987915,150,9897.0
10530,0.36499840021133423,-1.0400035381317139,7,6266.0,2.0472335815429688,167,9897.0
10540,0.3644983470439911,-1.5217227935791016,-67,6266.0,0.017110347747802734,156,9897.0
10550,0.36398446559906006,-3.307805061340332,-95,6266.0,5.0445122718811035,144,9897.0
10560,0.3634639382362366,-3.944162607192993,-120,6266.0,0.6766951680183411,53,9897.0
10570,0.36450260877609253,-5.72544527053833,-121,6266.0,2.173168897628784,52,9897.0
10580,0.3640107810497284,-3.4983346462249756,-112,6266.0,0.17732161283493042,-7,9897.0
10590,0.36350104212760925,-3.221609354019165,-108,6266.0,3.796583890914917,40,9897.0
10600,0.363057941198349,-1.1076056957244873,-54,6266.0,2.8510518074035645,75,9897.0
10610,0.36254051327705383,-1.3040944337844849,-71,6266.0,-0.12787115573883057,0,9897.0
10620,0.3618431091308594,-0.14180608093738556,-61,6266.0,0.46661755442619324,-23,9897.0
10630,0.36134421825408936,-2.602781295776367,-62,6266.0,-2.766468048095703,-72,9897.0
10640,0.36090442538261414,-0.8261282444000244,-97,6266.0,-5.0373759269714355,-123,9897.0
10650,0.3604237139225006,-2.031771659851074,-94,6266.0,-3.5159614086151123,-168,9897.0
10660,0.35988470911979675,-5.008081436157227,-94,6266.0,-8.74229621887207,-221,9897.0
10670,0.3594594895839691,-4.170424461364746,-85,6266.0,-6.359532356262207,-177,9897.0
10680,0.35902222990989685,-4.275416374206543,-93,6266.0,-0.3350476026535034,-63,9897.0
10690,0.35860052704811096,-1.834978699684143,-46,6266.0,-0.04925313964486122,-47,9897.0
10700,0.3573547899723053,0.4040531814098358,-61,6266.0,3.946341037750244,52,9897.0
10710,0.35695746541023254,1.7673641443252563,-33,6266.0,3.4416093826293945,76,9897.0
10720,0.3566354513168335,0.8187192678451538,-6,6266.0,4.445333480834961,43,9897.0
10730,0.3564009964466095,3.898240566253662,2,6266.0,3.1074953079223633,95,9897.0
10740,0.35625311732292175,1.8052105903625488,-24,6266.0,1.8414992094039917,50,9897.0
10750,0.3561047911643982,-0.06098305806517601,-59,6266.0,3.459320306777954,41,9897.0
10760,0.356065034866333,-1.6216596364974976,-99,6266.0,0.12908302247524261,-22,9897.0
10770,0.3560188114643097,-1.6514739990234375,-109,6266.0,-1.174139380455017,-65,9897.0
10780,0.35598981380462646,-0.8757892847061157,-97,6266.0,0.38550087809562683,36,9897.0
10790,0.35521772503852844,-1.537611484527588,-74,6266.0,-2.672102212905884,-43,9897.0
10800,0.3553215265274048,0.8269403576850891,-40,6266.0,-0.5869619250297546,62,9897.0
10810,0.35547077655792236,-0.5618711113929749,-15,6266.0,4.0924153327941895,-52,9897.0
10820,0.3555842936038971,0.7344096302986145,-74,6266.0,-6.993304252624512,14,9897.0
10830,0.355833500623703,1.7385170459747314,12,6266.0,-2.01531982421875,64,9897.0
10840,0.3557664453983307,1.144505500793457,-48,6266.0,-1.5323801040649414,65,9897.0
10850,0.3561580181121826,1.0552279949188232,-42,6266.0,-4.179136276245117,24,9897.0
10860,0.3565785884857178,1.558594822883606,-18,6266.0,-1.2666184902191162,-3,9897.0
10870,0.3569953441619873,1.5314730405807495,-31,6266.0,2.951892137527466,11,9897.0
10880,0.35741016268730164,1.1191385984420776,-6,6266.0,-2.3535163402557373,-140,9897.0
10890,0.3578812777996063,1.090976357460022,7,6266.0,1.5051581859588623,-23,9897.0
10900,0.358455091714859,0.5614379048347473,-29,6266.0,0.441475510597229,-20,9897.0
10910,0.3590545654296875,1.2586076259613037,35,6266.0,0.13645823299884796,-20,9897.0
10920,0.3573724627494812,2.955681085586548,52,6266.0,-2.365212917327881,-57,9897.0
10930,0.357807993888855,1.1109617948532104,21,6266.0,-1.1764408349990845,-107,9897.0
10940,0.35828840732574463,1.9788326025009155,22,6266.0,-0.22697462141513824,-130,9897.0
10950,0.35880106687545776,2.964512348175049,-2,6266.0,0.47012463212013245,-90,9897.0
10960,0.3593764305114746,2.6788833141326904,-10,6266.0,-3.0103511810302734,-122,9897.0
10970,0.3572132885456085,2.784881830215454,46,6266.0,-0.3610357642173767,-53,9897.0
10980,0.35740363597869873,0.9118592143058777,5,6266.0,0.719761312007904,-34,9897.0
10990,0.35757264494895935,0.8244322538375854,-21,6266.0,-0.8863455653190613,1,9897.0
11000,0.35763242840766907,-0.670083224773407,10,6266.0,-1.4241409301757812,-36,9897.0
11010,0.3557796776294708,-0.6198350191116333,30,6266.0,-1.3736917972564697,29,9897.0
11020,0.3556804955005646,0.6031970977783203,66,6266.0,-3.030426263809204,32,9897.0
11030,0.35555312037467957,0.9671587944030762,57,6266.0,0.5944891571998596,157,9897.0
11040,0.3553659915924072,0.8633726835250854,65,6266.0,4.316109657287598,122,9897.0
11050,0.3550916016101837,1.920918345451355,62,6266.0,2.325700283050537,153,9897.0
11060,0.3518613874912262,1.9359638690948486,22,6266.0,4.518988609313965,160,9897.0
11070,0.35128551721572876,-0.4899596869945526,-17,6266.0,6.8870344161987305,185,9897.0
11080,0.3506558835506439,-1.2869927883148193,-100,6266.0,5.092588901519775,113,9897.0
11090,0.34998759627342224,-4.244094371795654,-137,6266.0,1.8561195135116577,11,9897.0
11100,0.3477238118648529,-2.766420364379883,-137,6266.0,-2.4386160373687744,45,9897.0
11110,0.3469252288341522,-3.6058225631713867,-138,6266.0,-0.8931424021720886,31,9897.0
11120,0.3460625410079956,-4.068077564239502,-118,6266.0,-1.6106860637664795,55,9897.0
11130,0.34519830346107483,-3.8430774211883545,-103,6266.0,-0.8082616925239563,87,9897.0
11140,0.3450089395046234,-3.147212028503418,-92,6266.0,3.3458564281463623,168,9897.0
11150,0.3442190885543823,-1.792191982269287,-47,6266.0,4.006059169769287,160,9897.0
11160,0.3434949517250061,-1.8888920545578003,34,6266.0,2.352243661880493,247,9897.0
11170,0.34282058477401733,0.629554033279419,109,6266.0,5.217472553253174,56,9897.0
11180,0.34213125705718994,-0.9572640061378479,151,6266.0,2.8206615447998047,2,9897.0
11190,0.34055450558662415,0.40066373348236084,134,6266.0,2.810936689376831,-133,9897.0
11200,0.3397828936576843,0.6966718435287476,78,6266.0,4.438909530639648,-105,9897.0
11210,0.33902090787887573,-0.35226595401763916,9,6266.0,2.9353630542755127,-96,9897.0
11220,0.3383297622203827,-0.7797958254814148,-27,6266.0,2.808831214904785,-54,9897.0
11230,0.3385683000087738,-0.03641334921121597,-102,6266.0,1.2993992567062378,73,9897.0
11240,0.3379545509815216,-1.106806993484497,-67,6266.0,5.355065822601318,151,9897.0
11250,0.33749324083328247,-1.9062771797180176,-27,6266.0,4.181548595428467,196,9897.0
11260,0.33714184165000916,-2.7038612365722656,-25,6266.0,4.684783458709717,66,9897.0
11270,0.33687397837638855,-0.6367641687393188,83,6266.0,-1.0361789464950562,-96,9897.0
11280,0.3362632691860199,-2.8090832233428955,43,6266.0,-0.10669480264186859,-131,9897.0
11290,0.3359902501106262,-0.6569273471832275,50,6266.0,1.3618587255477905,-63,9897.0
11300,0.33564096689224243,1.542896032333374,-76,6266.0,-3.4011342525482178,-46,9897.0
11310,0.33520182967185974,1.045505404472351,-77,6266.0,2.6503772735595703,143,9897.0
11320,0.33676478266716003,2.0349459648132324,-68,6266.0,0.03872032091021538,149,9897.0
11330,0.3365996479988098,3.1120336055755615,21,6266.0,0.27926504611968994,71,9897.0
11340,0.33637648820877075,0.7905144095420837,103,6266.0,-1.288503646850586,1,9897.0
11350,0.3361406922340393,-1.1022686958312988,164,6266.0,1.2090437412261963,-112,9897.0
11360,0.338751882314682,0.05992148816585541,94,6266.0,0.3115255832672119,-220,9897.0
11370,0.33893126249313354,-1.1061166524887085,97,6266.0,0.30574607849121094,-111,9897.0
11380,0.339080810546875,-0.3087785243988037,-10,6266.0,-0.44272708892822266,4,9897.0
11390,0.33938056230545044,2.262979030609131,-8,6266.0,0.7276492118835449,102,9897.0
11400,0.33989328145980835,3.7626004219055176,15,6266.0,1.3259336948394775,124,9897.0
11410,0.34228938817977905,3.8018760681152344,44,6266.0,1.6443634033203125,137,9897.0
11420,0.34273195266723633,1.6901808977127075,100,6266.0,1.9254529476165771,184,9897.0
11430,0.3432301878929138,2.838636875152588,123,6266.0,1.1574898958206177,99,9897.0
11440,0.34366700053215027,3.7149412631988525,161,6266.0,-1.8569960594177246,-75,9897.0
11450,0.34600532054901123,2.8519833087921143,114,6266.0,1.804970622062683,-68,9897.0
11460,0.3464925289154053,4.3263163566589355,85,6266.0,-1.5685760974884033,-97,9897.0
11470,0.34700414538383484,4.3945817947387695,172,6266.0,-2.1427783966064453,-226,9897.0
11480,0.34755924344062805,4.495913505554199,134,6266.0,-9.128061294555664,-226,9897.0
11490,0.3481711745262146,4.435037136077881,77,6266.0,-5.754331588745117,-254,9897.0
11500,0.3515171408653259,3.385505199432373,122,6266.0,-5.464444637298584,-192,9897.0
11510,0.35207656025886536,5.630956172943115,121,6266.0,-6.941994667053223,-240,9897.0
11520,0.35255661606788635,6.946804523468018,207,6266.0,-3.4191555976867676,-158,9897.0
11530,0.35295435786247253,7.602908611297607,181,6266.0,-1.7683314085006714,-150,9897.0
11540,0.35494381189346313,8.663594245910645,129,6266.0,-4.521106243133545,-205,9897.0
11550,0.3554224967956543,6.740194320678711,114,6266.0,-1.1313591003417969,-166,9897.0
11560,0.35582536458969116,5.817692756652832,17,6266.0,-1.8087934255599976,-157,9897.0
11570,0.356171578168869,4.349085807800293,7,6266.0,-1.6190896034240723,-147,9897.0
11580,0.3578626215457916,0.7582723498344421,7,6266.0,-1.296866774559021,-109,9897.0
11590,0.3582156002521515,-2.795050621032715,-71,6266.0,1.6651650667190552,-93,9897.0
11600,0.3585025668144226,-4.7713398933410645,-49,6266.0,0.588763415813446,-67,9897.0
11610,0.35870325565338135,-1.9580219984054565,-1,6266.0,-2.015148162841797,-74,9897.0
11620,0.35886335372924805,-0.47755834460258484,-48,6266.0,-1.454268217086792,-83,9897.0
11630,0.36144566535949707,-0.776374340057373,27,6266.0,-1.2413125038146973,-20,9897.0
11640,0.36159637570381165,0.8392406702041626,37,6266.0,-5.632993698120117,-24,9897.0
11650,0.36169466376304626,-2.0381646156311035,25,6266.0,0.04263557493686676,106,9897.0
11660,0.3617061972618103,-1.3158661127090454,22,6266.0,2.4262306690216064,185,9897.0
11670,0.3642202615737915,1.0216436386108398,33,6266.0,3.73526668548584,177,9897.0
11680,0.3642267882823944,-0.04341396689414978,-11,6266.0,3.4393162727355957,150,9897.0
11690,0.36414647102355957,0.45997267961502075,-33,6266.0,2.217134952545166,97,9897.0
11700,0.36400482058525085,-1.058139443397522,-27,6266.0,-0.46198418736457825,37,9897.0
11710,0.36380380392074585,-1.6092462539672852,-42,6266.0,1.1050885915756226,-66,9897.0
11720,0.36566364765167236,-3.1915535926818848,-78,6266.0,1.4430804252624512,-63,9897.0
11730,0.3654613494873047,-4.40147066116333,-116,6266.0,-2.389400005340576,-87,9897.0
11740,0.36523351073265076,-3.738752841949463,-83,6266.0,-2.8496177196502686,-62,9897.0
11750,0.3649710714817047,-1.7853505611419678,-90,6266.0,-4.2288312911987305,-90,9897.0
11760,0.36465775966644287,-2.6653332710266113,-43,6266.0,-2.02882981300354,-51,9897.0
11770,0.36427491903305054,-0.8971804976463318,35,6266.0,-3.7232937812805176,-115,9897.0
11780,0.36387744545936584,-0.019838232547044754,24,6266.0,1.6943376064300537,-118,9897.0
11790,0.3634586036205292,-0.4295850694179535,33,6266.0,0.3976344168186188,49,9897.0
11800,0.36505094170570374,-1.882191777229309,38,6266.0,6.405704021453857,85,9897.0
11810,0.36481595039367676,-3.7299747467041016,-57,6266.0,8.710413932800293,264,9897.0
11820,0.36457404494285583,-3.680471658706665,15,6266.0,5.924610137939453,232,9897.0
11830,0.36429741978645325,-3.344877004623413,29,6266.0,6.425388813018799,111,9897.0
11840,0.36398282647132874,-3.7492573261260986,-41,6266.0,2.2015817165374756,70,9897.0
11850,0.36611586809158325,-4.28066873550415,-44,6266.0,0.3975718021392822,-27,9897.0
11860,0.3659302592277527,-4.922071933746338,-39,6266.0,-2.6072444915771484,-59,9897.0
11870,0.36573919653892517,-5.698840141296387,-83,6266.0,-1.4732722043991089,17,9897.0
11880,0.36554157733917236,-3.4340336322784424,-59,6266.0,-6.090824127197266,-26,9897.0
11890,0.36745452880859375,-2.819490671157837,-4,6266.0,-4.802639484405518,6,9897.0
11900,0.36736318469047546,-1.967028021812439,-40,6266.0,-2.2506814002990723,-6,9897.0
11910,0.36715149879455566,-1.3572570085525513,-68,6266.0,-2.1686930656433105,-24,9897.0
11920,0.3669157028198242,-1.9901829957962036,-39,6266.0,-3.7836966514587402,-6,9897.0
11930,0.36668315529823303,-3.245053291320801,-128,6266.0,-6.441168308258057,-51,9897.0
11940,0.36524227261543274,-5.621821880340576,-119,6266.0,-4.2321457862854,-59,9897.0
11950,0.3647741973400116,-3.7971465587615967,-153,6266.0,-4.906441688537598,-88,9897.0
11960,0.36423882842063904,-3.7207741737365723,-129,6266.0,-5.001572608947754,-64,9897.0
11970,0.36363542079925537,-2.67607045173645,-87,6266.0,-3.854896306991577,-47,9897.0
11980,0.36432552337646484,-2.966620445251465,-86,6266.0,-2.3151793479919434,-103,9897.0
11990,0.3637421131134033,-2.2343857288360596,-96,6266.0,1.2261545658111572,-42,9897.0
12000,0.3631359040737152,-2.7388689517974854,-43,6266.0,1.6827534437179565,1,9897.0
12010,0.36247554421424866,-2.9232017993927,-51,6266.0,3.668830633163452,-35,9897.0
12020,0.3634410798549652,-2.934256076812744,-81,6266.0,0.24774499237537384,9,9897.0
12030,0.3628288507461548,-3.9026448726654053,-79,6266.0,0.24309782683849335,-93,9897.0
12040,0.3622184991836548,-1.6159799098968506,-64,6266.0,-0.8981439471244812,-57,9897.0
12050,0.3616194427013397,-1.1509344577789307,-57,6266.0,-1.9823306798934937,-130,9897.0
12060,0.36098992824554443,-3.379689931869507,-56,6266.0,2.5475082397460938,-64,9897.0
12070,0.361116498708725,-1.9006035327911377,-58,6266.0,0.10250677913427353,-60,9897.0
12080,0.36050331592559814,-0.9434452056884766,-64,6266.0,1.1915889978408813,-65,9897.0
12090,0.35991808772087097,-0.9689199924468994,-39,6266.0,-0.9733678698539734,-79,9897.0
12100,0.3593505322933197,0.29920345544815063,-58,6266.0,-1.3603732585906982,-7,9897.0
12110,0.3593656122684479,-0.175180584192276,-60,6266.0,1.4524320363998413,8,9897.0
12120,0.35867202281951904,0.29615071415901184,-46,6266.0,3.973769187927246,126,9897.0
12130,0.3579564392566681,1.236273169517517,-94,6266.0,6.639901638031006,247,9897.0
12140,0.3571900725364685,0.46870794892311096,-39,6266.0,4.484461784362793,133,9897.0
12150,0.35633575916290283,-0.8804234266281128,-95,6266.0,4.868957996368408,196,9897.0
12160,0.3562983572483063,-1.848341703414917,-15,6266.0,-5.078936576843262,54,9897.0
12170,0.35562098026275635,-1.443185567855835,-5,6266.0,-1.6494512557983398,129,9897.0
12180,0.35498711466789246,1.3869893550872803,43,6266.0,-7.568288803100586,64,9897.0
12190,0.35434842109680176,2.47762393951416,-7,6266.0,-3.6575114727020264,67,9897.0
12200,0.3551335036754608,1.3017116785049438,-19,6266.0,-0.3915855288505554,83,9897.0
12210,0.3545408248901367,0.45629552006721497,88,6266.0,-0.2272956818342209,11,9897.0
12220,0.35393625497817993,2.3286046981811523,75,6266.0,5.410777568817139,22,9897.0
12230,0.35331499576568604,3.587684154510498,136,6266.0,4.799063205718994,-11,9897.0
12240,0.3553168773651123,2.4358110427856445,174,6266.0,7.54980993270874,-47,9897.0
12250,0.35499826073646545,0.18316149711608887,124,6266.0,12.516069412231445,2,9897.0
12260,0.3546523153781891,-3.0080206394195557,85,6266.0,9.204912185668945,-64,9897.0
12270,0.35435575246810913,-1.9243240356445312,10,6266.0,4.913625717163086,-156,9897.0
12280,0.3541403114795685,-3.516037702560425,-24,6266.0,-1.4695032835006714,-164,9897.0
12290,0.3581048846244812,-0.33700767159461975,-104,6266.0,-1.220581293106079,-124,9897.0
12300,0.35822466015815735,-0.44662579894065857,-120,6266.0,-2.9490256309509277,34,9897.0
12310,0.3583299219608307,1.6968404054641724,-129,6266.0,-2.2367842197418213,10,9897.0
12320,0.3583979308605194,2.908209800720215,-42,6266.0,0.7843963503837585,129,9897.0
12330,0.3602626323699951,5.886975288391113,-6,6266.0,-3.2899320125579834,141,9897.0
12340,0.3602631688117981,7.061172008514404,8,6266.0,2.912019729614258,232,9897.0
12350,0.3602435290813446,7.5494842529296875,38,6266.0,2.791714668273926,183,9897.0
12360,0.3602728247642517,4.479800701141357,35,6266.0,4.680054187774658,154,9897.0
12370,0.36023789644241333,5.413552761077881,49,6266.0,0.4436699450016022,59,9897.0
12380,0.362550288438797,4.940898418426514,66,6266.0,-1.58892822265625,27,9897.0
12390,0.3624989092350006,2.239940643310547,5,6266.0,-4.9528279304504395,-73,9897.0
12400,0.3623485267162323,-1.1098312139511108,-22,6266.0,-4.446857452392578,-61,9897.0
12410,0.362143337726593,1.466342806816101,-24,6266.0,-6.551957130432129,-49,9897.0
12420,0.36338546872138977,1.2004623413085938,-14,6266.0,-8.26335620880127,40,9897.0
12430,0.3630175292491913,2.4081099033355713,-6,6266.0,-5.030694007873535,20,9897.0
12440,0.3625428080558777,3.3818678855895996,5,6266.0,-2.8892054557800293,11,9897.0
12450,0.3620157837867737,5.092522144317627,31,6266.0,0.8184478878974915,-74,9897.0
12460,0.3648781180381775,3.578580856323242,26,6266.0,3.829192638397217,5,9897.0
12470,0.3644740581512451,5.066205978393555,13,6266.0,5.4194722175598145,168,9897.0
12480,0.3639710247516632,2.9417319297790527,-74,6266.0,7.114750385284424,134,9897.0
12490,0.3633688986301422,1.3856372833251953,-83,6266.0,7.593557834625244,122,9897.0
12500,0.3627338111400604,-1.981053113937378,-85,6266.0,3.885122776031494,87,9897.0
12510,0.3654332458972931,-2.8347299098968506,-102,6266.0,0.9844588041305542,33,9897.0
12520,0.3649488389492035,-2.79772686958313,-109,6266.0,-0.14404542744159698,-41,9897.0
12530,0.36435824632644653,-1.7615433931350708,-61,6266.0,-2.372082471847534,-44,9897.0
12540,0.3636607527732849,-1.3639644384384155,-77,6266.0,-3.4082908630371094,-95,9897.0
12550,0.3646557033061981,1.150843858718872,-59,6266.0,-2.9343738555908203,-77,9897.0
12560,0.36406511068344116,3.4346630573272705,-6,6266.0,-3.5098586082458496,-84,9897.0
12570,0.36347660422325134,3.16164231300354,3,6266.0,-5.147491455078125,-179,9897.0
12580,0.3628707528114319,4.1513895988464355,-11,6266.0,-4.296740531921387,-71,9897.0
12590,0.362208753824234,2.1377224922180176,-12,6266.0,-1.3587809801101685,-51,9897.0
12600,0.3663749098777771,4.868836879730225,-14,6266.0,2.2629687786102295,80,9897.0
12610,0.365937739610672,1.6831343173980713,-49,6266.0,5.285681247711182,46,9897.0
12620,0.36550813913345337,0.6951058506965637,-74,6266.0,8.713553428649902,135,9897.0
12630,0.3650501072406769,0.8876511454582214,-66,6266.0,6.167264938354492,134,9897.0
12640,0.37006357312202454,0.10774003714323044,-53,6266.0,5.6612935066223145,66,9897.0
12650,0.369759738445282,1.230234146118164,-72,6266.0,3.3756237030029297,73,9897.0
12660,0.36948853731155396,0.40997743606567383,-52,6266.0,0.8185515403747559,-43,9897.0
12670,0.369282066822052,0.930340051651001,-60,6266.0,-1.6699219942092896,-22,9897.0
12680,0.3709747791290283,0.39860308170318604,-55,6266.0,-1.9441760778427124,-41,9897.0
12690,0.3707112967967987,0.36139851808547974,-52,6266.0,-3.1670403480529785,-56,9897.0
12700,0.3703787922859192,1.3711179494857788,-64,6266.0,-7.218286991119385,-134,9897.0
12710,0.37002795934677124,-1.1803423166275024,-94,6266.0,-5.416141510009766,-102,9897.0
12720,0.3696258068084717,1.0712575912475586,-63,6266.0,-3.0356481075286865,-40,9897.0
12730,0.37214672565460205,0.8169835805892944,-33,6266.0,-5.555222511291504,-119,9897.0
12740,0.3717782199382782,2.779425621032715,25,6266.0,-4.567166805267334,-135,9897.0
12750,0.37135401368141174,1.7759039402008057,-5,6266.0,-4.775085926055908,-86,9897.0
12760,0.37089332938194275,3.20409893989563,20,6266.0,3.4257936477661133,-3,9897.0
12770,0.37282493710517883,0.9336358904838562,-18,6266.0,1.9631092548370361,81,9897.0
12780,0.3724217116832733,-0.7380271553993225,-4,6266.0,6.804251194000244,71,9897.0
12790,0.3719681203365326,-2.254704236984253,-16,6266.0,5.496891498565674,31,9897.0
12800,0.3714795410633087,-2.2530393600463867,-37,6266.0,2.6797916889190674,19,9897.0
12810,0.37079572677612305,-2.8236308097839355,-31,6266.0,1.2354644536972046,-14,9897.0
12820,0.3727169632911682,-1.817291021347046,-56,6266.0,-0.3834904134273529,-20,9897.0
12830,0.37212833762168884,-2.5790882110595703,12,6266.0,-1.0433140993118286,-102,9897.0
12840,0.37154507637023926,-2.684401750564575,47,6266.0,-3.7186388969421387,-51,9897.0
12850,0.370914101600647,-2.691265106201172,7,6266.0,1.2403684854507446,0,9897.0
12860,0.3731277585029602,0.880477249622345,57,6266.0,-4.274864673614502,-47,9897.0
12870,0.3725670874118805,2.570946216583252,117,6266.0,-0.8871797323226929,43,9897.0
12880,0.3719792366027832,5.593914985656738,125,6266.0,0.8061997890472412,127,9897.0
12890,0.3714233636856079,3.1019115447998047,113,6266.0,7.29062557220459,146,9897.0
12900,0.3725358247756958,3.8950865268707275,107,6266.0,2.896407127380371,147,9897.0
12910,0.3720591068267822,0.8700710535049438,16,6266.0,3.0126383304595947,193,9897.0
12920,0.37155529856681824,0.055180490016937256,5,6266.0,5.3518781661987305,178,9897.0
12930,0.3710208535194397,-1.9780853986740112,-97,6266.0,0.2852455973625183,112,9897.0
12940,0.37047237157821655,-3.025876522064209,-103,6266.0,4.199904918670654,82,9897.0
12950,0.3713647127151489,-5.766244411468506,-148,6266.0,-2.078345775604248,-3,9897.0
12960,0.3708235025405884,-5.490896701812744,-144,6266.0,0.11761865764856339,7,9897.0
12970,0.3702283799648285,-4.8877739906311035,-134,6266.0,-6.1536865234375,-66,9897.0
12980,0.3695552349090576,-2.1150970458984375,-84,6266.0,-4.493298053741455,-35,9897.0
12990,0.3710450828075409,-0.617675244808197,-97,6266.0,-7.734734058380127,-35,9897.0
13000,0.3704301714897156,2.013292074203491,-66,6266.0,-6.746305465698242,-10,9897.0
13010,0.36982253193855286,1.3713446855545044,-19,6266.0,-4.317984580993652,1,9897.0
13020,0.3692197799682617,3.7990806102752686,-1,6266.0,-0.343766450881958,23,9897.0
13030,0.3686075210571289,2.1361236572265625,10,6266.0,3.9248452186584473,67,9897.0
13040,0.369797945022583,0.9229922294616699,-5,6266.0,9.10810375213623,13,9897.0
13050,0.36918437480926514,-0.3836916983127594,4,6266.0,10.854454040527344,64,9897.0
13060,0.36853528022766113,-1.9730371236801147,-11,6266.0,9.164287567138672,-40,9897.0
13070,0.3678181767463684,-4.26492166519165,5,6266.0,8.967400550842285,-17,9897.0
13080,0.3707008957862854,-4.95590877532959,59,6266.0,2.9923527240753174,-21,9897.0
13090,0.36997881531715393,-4.502058982849121,17,6266.0,-1.4603976011276245,-149,9897.0
13100,0.3692401051521301,-3.6200475692749023,22,6266.0,-2.6690380573272705,-143,9897.0
13110,0.3684707283973694,-3.8301138877868652,-7,6266.0,-4.5562520027160645,-170,9897.0
13120,0.36764100193977356,-3.405618906021118,7,6266.0,-7.240757465362549,-211,9897.0
13130,0.3710872530937195,-0.64134281873703,10,6266.0,-3.709340810775757,-52,9897.0
13140,0.3702872097492218,-1.5612419843673706,29,6266.0,-1.212200403213501,-64,9897.0
13150,0.36946237087249756,-0.36057019233703613,74,6266.0,1.2366771697998047,-137,9897.0
13160,0.36863502860069275,-0.18595825135707855,80,6266.0,2.7573628425598145,-73,9897.0
13170,0.37032175064086914,1.2125252485275269,139,6266.0,4.109248161315918,-56,9897.0
13180,0.36950674653053284,0.45057380199432373,67,6266.0,6.081056594848633,-35,9897.0
13190,0.3686719834804535,-1.1027519702911377,118,6266.0,2.9678866863250732,-27,9897.0
13200,0.36789989471435547,-1.4592303037643433,90,6266.0,2.5368053913116455,-32,9897.0
13210,0.36991187930107117,-1.7406864166259766,137,6266.0,2.621955156326294,-121,9897.0
13220,0.36924707889556885,-2.4823317527770996,115,6266.0,0.5457539558410645,-97,9897.0
13230,0.36851781606674194,-0.7531449794769287,88,6266.0,-2.9905381202697754,-110,9897.0
13240,0.3677878975868225,-0.912427544593811,101,6266.0,-2.5512278079986572,-63,9897.0
13250,0.36712098121643066,-1.663467288017273,52,6266.0,-1.839986801147461,5,9897.0
13260,0.3684806823730469,0.3408556282520294,57,6266.0,-0.7017764449119568,-32,9897.0
13270,0.3679235279560089,-1.2815848588943481,19,6266.0,2.678692579269409,3,9897.0
13280,0.36731424927711487,1.3375625610351562,51,6266.0,4.492949962615967,25,9897.0
13290,0.3666793704032898,0.31444051861763,46,6266.0,5.528713703155518,19,9897.0
13300,0.3694201707839966,-0.7795476317405701,63,6266.0,4.672623157501221,22,9897.0
13310,0.3690364956855774,0.5340383052825928,14,6266.0,1.0572453737258911,-89,9897.0
13320,0.3686322569847107,-0.21802042424678802,59,6266.0,2.6037395000457764,-57,9897.0
13330,0.3681700825691223,-0.3495270013809204,63,6266.0,-1.5650264024734497,-121,9897.0
13340,0.37031856179237366,-0.5290575623512268,38,6266.0,-5.320098876953125,-143,9897.0
13350,0.3699886202812195,-0.08840985596179962,39,6266.0,-6.898955345153809,-160,9897.0
13360,0.3696727752685547,2.4049313068389893,63,6266.0,-9.751946449279785,-182,9897.0
13370,0.36933234333992004,3.4781975746154785,77,6266.0,-7.633162498474121,-159,9897.0
13380,0.36895158886909485,3.979140520095825,88,6266.0,-3.3464877605438232,-105,9897.0
13390,0.3701360523700714,6.13427209854126,108,6266.0,-0.1738019734621048,25,9897.0
13400,0.36971810460090637,3.6649787425994873,66,6266.0,1.5354515314102173,34,9897.0
13410,0.36926400661468506,2.2510018348693848,45,6266.0,6.073122501373291,88,9897.0
13420,0.3687893748283386,-1.1259409189224243,13,6266.0,4.195890426635742,93,9897.0
13430,0.36993882060050964,-2.280694007873535,16,6266.0,1.1519569158554077,9,9897.0
13440,0.36946478486061096,-0.9244533777236938,-18,6266.0,3.214301824569702,45,9897.0
13450,0.36893224716186523,-2.3223049640655518,7,6266.0,2.0307507514953613,54,9897.0
13460,0.3682631850242615,-1.9587124586105347,62,6266.0,-1.3003250360488892,-2,9897.0
13470,0.3676365613937378,2.0333149433135986,52,6266.0,-6.523139953613281,-60,9897.0
13480,0.36879587173461914,1.2169148921966553,57,6266.0,-4.130000591278076,-60,9897.0
13490,0.36817455291748047,1.8300424814224243,138,6266.0,-4.933383941650391,-37,9897.0
13500,0.3674698770046234,3.1201913356781006,120,6266.0,-1.9848424196243286,81,9897.0
13510,0.3667033016681671,2.2142183780670166,86,6266.0,1.4818620681762695,146,9897.0
13520,0.3684917688369751,2.614131212234497,111,6266.0,-2.2807486057281494,24,9897.0
13530,0.3678244650363922,2.4513463973999023,113,6266.0,0.38868793845176697,65,9897.0
13540,0.36713457107543945,-1.1002779006958008,14,6266.0,2.8533828258514404,90,9897.0
13550,0.3664250373840332,-0.279253751039505,-11,6266.0,1.9832675457000732,170,9897.0
13560,0.3681598901748657,-2.503344774246216,-38,6266.0,-0.7720867395401001,35,9897.0
13570,0.3675062656402588,-5.053519248962402,-46,6266.0,0.5057797431945801,17,9897.0
13580,0.36685776710510254,-2.1577956676483154,-28,6266.0,-2.0149407386779785,11,9897.0
13590,0.3661942780017853,-2.529505968093872,-18,6266.0,-3.944528818130493,47,9897.0
13600,0.36555010080337524,-1.4507708549499512,-12,6266.0,-0.9099375009536743,-27,9897.0
13610,0.36816081404685974,-1.2271606922149658,5,6266.0,-4.9023756980896,17,9897.0
13620,0.3676627576351166,-1.2134108543395996,51,6266.0,-2.9476308822631836,50,9897.0
13630,0.36714598536491394,-0.19288596510887146,7,6266.0,0.09833871573209763,88,9897.0
13640,0.3666273355484009,-1.5149080753326416,36,6266.0,2.984370231628418,146,9897.0
13650,0.37034401297569275,2.608018636703491,88,6266.0,3.035090684890747,147,9897.0
13660,0.37006762623786926,2.3174760341644287,95,6266.0,0.06071661040186882,54,9897.0
13670,0.36986231803894043,2.9070475101470947,141,6266.0,1.4087605476379395,83,9897.0
13680,0.3696487247943878,2.6849560737609863,95,6266.0,2.3232760429382324,15,9897.0
13690,0.36940619349479675,1.8288897275924683,75,6266.0,-1.6305307149887085,43,9897.0
13700,0.369491845369339,1.434511661529541,61,6266.0,-2.554717540740967,4,9897.0
13710,0.3692306876182556,2.181718349456787,61,6266.0,-3.1901371479034424,-24,9897.0
13720,0.3690023720264435,1.8194209337234497,86,6266.0,-3.6082959175109863,-3,9897.0
13730,0.3688371777534485,1.323859453201294,49,6266.0,-5.471641540527344,-26,9897.0
13740,0.3699347972869873,0.019374921917915344,-19,6266.0,-3.4167439937591553,-42,9897.0
13750,0.3697766959667206,-0.8496928215026855,2,6266.0,-2.8708698749542236,82,9897.0
13760,0.36959385871887207,-1.83073091506958,-67,6266.0,2.6094353199005127,117,9897.0
13770,0.3694293797016144,0.34133195877075195,-16,6266.0,0.4179835915565491,-32,9897.0
13780,0.369942843914032,1.486870527267456,-19,6266.0,-0.4826299846172333,48,9897.0
13790,0.3699236810207367,3.0181243419647217,23,6266.0,-1.9172279834747314,-61,9897.0
13800,0.36995458602905273,2.3001978397369385,-28,6266.0,2.5310463905334473,63,9897.0
13810,0.36995434761047363,0.7066609859466553,-35,6266.0,2.620374917984009,31,9897.0
13820,0.36991867423057556,0.7250215411186218,-48,6266.0,3.17718243598938,67,9897.0
13830,0.36954158544540405,-2.3130500316619873,-29,6266.0,-0.35556939244270325,-138,9897.0
13840,0.36956775188446045,-2.6412742137908936,-47,6266.0,2.7736525535583496,-46,9897.0
13850,0.3695923984050751,-0.2029089629650116,-38,6266.0,-0.7092707753181458,-93,9897.0
13860,0.36958134174346924,-2.343698263168335,-5,6266.0,-0.0831744521856308,-130,9897.0
13870,0.3696984350681305,-0.904375433921814,52,6266.0,-0.762830913066864,-117,9897.0
13880,0.3695690631866455,-1.0594978332519531,22,6266.0,3.0834503173828125,-9,9897.0
13890,0.369381308555603,1.131801724433899,119,6266.0,2.0927579402923584,-3,9897.0
13900,0.3691285252571106,1.5829395055770874,87,6266.0,1.247728705406189,66,9897.0
13910,0.3687951862812042,2.96732234954834,37,6266.0,3.4517970085144043,111,9897.0
13920,0.36783623695373535,0.8350351452827454,4,6266.0,1.17995285987854,73,9897.0
13930,0.3673366606235504,-0.863152801990509,-51,6266.0,3.904527187347412,164,9897.0
13940,0.3667495846748352,0.03675730526447296,14,6266.0,1.0277663469314575,50,9897.0
13950,0.36609724164009094,-1.2827404737472534,-70,6266.0,-2.77392578125,54,9897.0
13960,0.365630567073822,-0.587084174156189,-19,6266.0,-0.612341046333313,119,9897.0
13970,0.36493605375289917,-1.8220218420028687,-61,6266.0,-1.3079720735549927,110,9897.0
13980,0.3642502427101135,-1.6761326789855957,-101,6266.0,-1.8802711963653564,60,9897.0
13990,0.3635532855987549,-1.1694880723953247,-62,6266.0,3.5988523960113525,134,9897.0
14000,0.3625483810901642,-1.8693629503250122,-105,6266.0,3.4969096183776855,107,9897.0
14010,0.36183011531829834,-2.999830722808838,-144,6266.0,2.426362991333008,64,9897.0
14020,0.3610987663269043,-2.5241196155548096,-95,6266.0,0.5723609328269958,36,9897.0
14030,0.36036765575408936,-1.822721004486084,-51,6266.0,2.50785493850708,-14,9897.0
14040,0.35968899726867676,-0.3414643704891205,-79,6266.0,-2.0337674617767334,-9,9897.0
14050,0.35982298851013184,1.01383638381958,-69,6266.0,-1.1793878078460693,66,9897.0
14060,0.3592495918273926,2.371922492980957,-28,6266.0,-2.19586443901062,76,9897.0
14070,0.35864269733428955,4.328342437744141,-15,6266.0,-2.2472128868103027,63,9897.0
14080,0.358054518699646,5.175473213195801,6,6266.0,0.17904126644134521,79,9897.0
14090,0.35773953795433044,2.926596164703369,14,6266.0,-2.240118980407715,41,9897.0
14100,0.35738372802734375,-0.3697291612625122,-31,6266.0,-1.9936007261276245,123,9897.0
14110,0.3570173978805542,-2.148569107055664,-64,6266.0,-1.0008199214935303,147,9897.0
14120,0.3567590117454529,-4.948802947998047,-111,6266.0,2.6722428798675537,92,9897.0
14130,0.3565937280654907,-5.315112113952637,-135,6266.0,4.6876959800720215,212,9897.0
14140,0.35627201199531555,-6.216246128082275,-143,6266.0,4.489780902862549,192,9897.0
14150,0.35614117980003357,-3.1440093517303467,-68,6266.0,5.741532802581787,123,9897.0
14160,0.3559977412223816,-1.5799338817596436,-18,6266.0,1.107481598854065,134,9897.0
14170,0.355887234210968,0.03917350992560387,79,6266.0,1.3019156455993652,9,9897.0
14180,0.3543410301208496,1.8750871419906616,111,6266.0,0.47836267948150635,28,9897.0
14190,0.3542482852935791,2.7572600841522217,134,6266.0,-0.6407321095466614,44,9897.0
14200,0.35421180725097656,3.7318384647369385,154,6266.0,-2.3794422149658203,-28,9897.0
