timestamp,kalman.stateZ,gyro.x,gyro.xRaw,gyro.xVariance,gyro.y,gyro.yRaw,gyro.yVariance
0,0.32842081785202026,-2.642549991607666,-40,7489.0,12.968501091003418,190,7565.0
10,0.3279382586479187,-2.732764959335327,-38,7489.0,9.026070594787598,127,7565.0
20,0.32760024070739746,-2.3555119037628174,-37,7489.0,3.7442755699157715,37,7565.0
30,0.32756972312927246,-2.1449553966522217,-31,7489.0,-1.9981805086135864,-52,7565.0
40,0.3278156816959381,-0.07766805589199066,11,7489.0,-6.9710469245910645,-130,7565.0
50,0.32848480343818665,1.1767932176589966,30,7489.0,-10.806413650512695,-194,7565.0
60,0.3291621208190918,2.461641550064087,49,7489.0,-14.83782958984375,-254,7565.0
70,0.32992392778396606,3.234398365020752,45,7489.0,-16.88884735107422,-281,7565.0
80,0.3306751251220703,1.9210156202316284,21,7489.0,-16.76091957092285,-264,7565.0
90,0.3316943645477295,0.616660475730896,6,7489.0,-13.27969741821289,-189,7565.0
100,0.33223235607147217,1.2726285457611084,35,7489.0,-6.338224411010742,-73,7565.0
110,0.33268868923187256,2.7199018001556396,51,7489.0,0.8038808703422546,42,7565.0
120,0.3328200876712799,4.151681900024414,69,7489.0,7.365415573120117,152,7565.0
130,0.33290982246398926,2.9283833503723145,43,7489.0,14.144350051879883,256,7565.0
140,0.3325451910495758,-0.038673777133226395,-26,7489.0,19.935367584228516,355,7565.0
150,0.3319496214389801,-4.32639741897583,-88,7489.0,24.404163360595703,402,7565.0
160,0.3311714828014374,-6.971158504486084,-117,7489.0,25.106216430664062,397,7565.0
170,0.33045339584350586,-6.520734786987305,-83,7489.0,23.620006561279297,375,7565.0
180,0.3287470042705536,-1.8891687393188477,-10,7489.0,19.65433692932129,297,7565.0
190,0.32814472913742065,2.7258315086364746,67,7489.0,12.436375617980957,150,7565.0
200,0.32786646485328674,4.077703475952148,56,7489.0,1.157614827156067,-36,7565.0
210,0.3277466595172882,3.4514000415802,44,7489.0,-14.487807273864746,-324,7565.0
220,0.3275352120399475,0.2656921148300171,-13,7489.0,-32.28801727294922,-597,7565.0
230,0.32820820808410645,1.55805242061615,7,7489.0,-51.034786224365234,-919,7565.0
240,0.32905346155166626,-0.45738792419433594,3,7489.0,-68.49468994140625,-1195,7565.0
250,0.32992124557495117,4.46678352355957,123,7489.0,-86.73033905029297,-1511,7565.0
260,0.33084505796432495,2.518010139465332,49,7489.0,-96.8958740234375,-1679,7565.0
270,0.33184051513671875,-0.8201757073402405,-13,7489.0,-105.4507064819336,-1717,7565.0
280,0.333217978477478,-2.6023571491241455,-49,7489.0,-94.35149383544922,-1468,7565.0
290,0.33327996730804443,-5.585630893707275,-23,7489.0,-69.07012939453125,-1036,7565.0
300,0.33323389291763306,3.2459208965301514,143,7489.0,-39.59293746948242,-466,7565.0
310,0.3358618915081024,8.12078857421875,96,7489.0,-5.807834148406982,76,7565.0
320,0.3361029624938965,5.421957492828369,131,7489.0,16.21067237854004,285,7565.0
330,0.3360750377178192,2.098662853240967,15,7489.0,33.837493896484375,641,7565.0
340,0.33597835898399353,-0.6623102426528931,-12,7489.0,42.00375747680664,696,7565.0
350,0.337520033121109,-1.8015415668487549,-24,7489.0,42.51910400390625,666,7565.0
360,0.3369694650173187,0.6308608055114746,44,7489.0,32.77431106567383,450,7565.0
370,0.3363935351371765,4.125365734100342,44,7489.0,11.082195281982422,66,7565.0
380,0.33600741624832153,0.6911525130271912,59,7489.0,-9.269501686096191,-298,7565.0
390,0.3358250856399536,-2.3875246047973633,-70,7489.0,-40.274391174316406,-781,7565.0
400,0.3342260420322418,-3.6000757217407227,-56,7489.0,-63.963035583496094,-1265,7565.0
410,0.3342137932777405,-4.941512584686279,-81,7489.0,-82.26217651367188,-1363,7565.0
420,0.3345441222190857,-5.3493266105651855,-129,7489.0,-88.00799560546875,-1451,7565.0
430,0.33440080285072327,-6.701672554016113,-109,7489.0,-86.12284088134766,-1240,7565.0
440,0.33890122175216675,-2.389739513397217,75,7489.0,-63.94952392578125,-932,7565.0
450,0.34039002656936646,17.47711181640625,365,7489.0,-31.31757354736328,-344,7565.0
460,0.341397762298584,21.431049346923828,412,7489.0,3.293705701828003,84,7565.0
470,0.34368327260017395,18.41531753540039,245,7489.0,38.01054763793945,735,7565.0
480,0.3449695110321045,7.744306564331055,119,7489.0,70.75578308105469,1238,7565.0
490,0.3498004972934723,-0.020553188398480415,30,7489.0,96.96085357666016,1600,7565.0
500,0.3512530028820038,-6.842819690704346,-46,7489.0,105.86335754394531,1789,7565.0
510,0.3519328534603119,-7.428827285766602,-71,7489.0,102.19683837890625,1646,7565.0
520,0.3519285023212433,-7.557990550994873,-138,7489.0,88.21321868896484,1287,7565.0
530,0.34910568594932556,-7.044812202453613,-57,7489.0,62.14937210083008,757,7565.0
540,0.348589688539505,-4.643679141998291,-29,7489.0,23.010047912597656,127,7565.0
550,0.34868472814559937,-2.0461068153381348,-43,7489.0,-21.030622482299805,-600,7565.0
560,0.3484341502189636,-0.23182643949985504,-3,7489.0,-68.89276885986328,-1237,7565.0
570,0.34400099515914917,4.556039810180664,82,7489.0,-107.66921997070312,-1850,7565.0
580,0.34355443716049194,4.789955139160156,48,7489.0,-135.9180450439453,-2247,7565.0
590,0.343000590801239,-2.847458839416504,-104,7489.0,-142.34571838378906,-2209,7565.0
600,0.3422711491584778,-8.246282577514648,-196,7489.0,-128.7851104736328,-1879,7565.0
610,0.34441763162612915,-6.210547924041748,-81,7489.0,-100.33345794677734,-1477,7565.0
620,0.3450329899787903,3.6053555011749268,177,7489.0,-61.08492660522461,-903,7565.0
630,0.3461499512195587,8.797490119934082,49,7489.0,-19.908233642578125,-9,7565.0
640,0.348052978515625,8.580570220947266,116,7489.0,33.630638122558594,842,7565.0
650,0.3497928977012634,9.29034423828125,153,7489.0,83.55294036865234,1605,7565.0
660,0.35254672169685364,2.010451316833496,-47,7489.0,125.2874984741211,2213,7565.0
670,0.35417264699935913,-2.5478620529174805,-143,7489.0,152.42138671875,2577,7565.0
680,0.35575032234191895,-11.588360786437988,-290,7489.0,161.43551635742188,2626,7565.0
690,0.35719034075737,-16.842870712280273,-130,7489.0,157.96307373046875,2402,7565.0
700,0.35757192969322205,-6.384003162384033,-54,7489.0,127.99215698242188,1806,7565.0
710,0.35136744379997253,8.189379692077637,173,7489.0,78.5874252319336,993,7565.0
720,0.35178425908088684,22.797426223754883,327,7489.0,20.03763771057129,219,7565.0
730,0.3528452217578888,24.541208267211914,270,7489.0,-33.8388786315918,-676,7565.0
740,0.35384806990623474,18.141006469726562,138,7489.0,-81.77042388916016,-1360,7565.0
750,0.3498673141002655,0.49341827630996704,-214,7489.0,-121.24871063232422,-2018,7565.0
760,0.3503650724887848,-23.702106475830078,-581,7489.0,-151.41688537597656,-2517,7565.0
770,0.3504656255245209,-36.63943862915039,-641,7489.0,-170.49301147460938,-2742,7565.0
780,0.35072818398475647,-36.91742706298828,-509,7489.0,-167.37547302246094,-2618,7565.0
790,0.35065552592277527,-14.762019157409668,-118,7489.0,-139.6226043701172,-2101,7565.0
800,0.3511127829551697,19.54024314880371,512,7489.0,-100.5047378540039,-1441,7565.0
810,0.3534632921218872,41.71979522705078,725,7489.0,-52.14606857299805,-652,7565.0
820,0.3550945222377777,37.49269485473633,557,7489.0,1.2852433919906616,278,7565.0
830,0.35635191202163696,12.83716106414795,34,7489.0,53.042911529541016,971,7565.0
840,0.36003032326698303,-18.456892013549805,-368,7489.0,96.4023666381836,1818,7565.0
850,0.36059126257896423,-35.93397903442383,-680,7489.0,126.75448608398438,2155,7565.0
860,0.3619235157966614,-39.015541076660156,-504,7489.0,140.50796508789062,2113,7565.0
870,0.36321407556533813,-16.84897804260254,-79,7489.0,133.95223999023438,2000,7565.0
880,0.3585883677005768,13.09825611114502,374,7489.0,119.02163696289062,1803,7565.0
890,0.35916823148727417,33.063446044921875,553,7489.0,94.44828033447266,1476,7565.0
900,0.3609740734100342,35.72350311279297,439,7489.0,56.50540542602539,827,7565.0
910,0.3616369962692261,15.026533126831055,64,7489.0,10.294736862182617,81,7565.0
920,0.3623725175857544,-5.4692254066467285,-313,7489.0,-33.689483642578125,-617,7565.0
930,0.35529279708862305,-24.9851016998291,-487,7489.0,-70.22213745117188,-1293,7565.0
940,0.3560236096382141,-21.57479476928711,-325,7489.0,-110.53060913085938,-1945,7565.0
950,0.3572472631931305,-10.943855285644531,-67,7489.0,-142.5703582763672,-2378,7565.0
960,0.3581782877445221,9.475276947021484,282,7489.0,-157.204345703125,-2456,7565.0
970,0.35268425941467285,28.531368255615234,496,7489.0,-141.78504943847656,-2091,7565.0
980,0.355908066034317,32.60523223876953,534,7489.0,-101.1537094116211,-1604,7565.0
990,0.3567206561565399,21.49920654296875,195,7489.0,-53.32431411743164,-501,7565.0
1000,0.3581768274307251,0.5620076060295105,-70,7489.0,-1.4288593530654907,118,7565.0
1010,0.3603932857513428,-18.38973617553711,-392,7489.0,47.98366165161133,985,7565.0
1020,0.36106687784194946,-30.187458038330078,-521,7489.0,92.31398010253906,1629,7565.0
1030,0.36209410429000854,-33.890506744384766,-490,7489.0,126.7005615234375,2314,7565.0
1040,0.3627240061759949,-18.541067123413086,-225,7489.0,144.59030151367188,2472,7565.0
1050,0.3625790774822235,5.561167240142822,220,7489.0,139.92198181152344,2221,7565.0
1060,0.3590052127838135,23.917945861816406,411,7489.0,121.31498718261719,1821,7565.0
1070,0.35830482840538025,28.384244918823242,434,7489.0,87.88832092285156,1280,7565.0
1080,0.357258677482605,13.01633071899414,188,7489.0,46.42570495605469,637,7565.0
1090,0.3567943274974823,-9.377243995666504,-275,7489.0,3.6468729972839355,-144,7565.0
1100,0.3501785695552826,-23.965627670288086,-458,7489.0,-40.55672836303711,-897,7565.0
1110,0.3501816987991333,-26.51889419555664,-395,7489.0,-74.800537109375,-1442,7565.0
1120,0.34984010457992554,-15.829475402832031,-206,7489.0,-104.3276138305664,-1788,7565.0
1130,0.3500806391239166,-2.861898422241211,-50,7489.0,-118.66190338134766,-1841,7565.0
1140,0.34981247782707214,8.923242568969727,350,7489.0,-112.57110595703125,-1885,7565.0
1150,0.34861722588539124,25.65096664428711,469,7489.0,-100.87052917480469,-1484,7565.0
1160,0.3484950363636017,22.421703338623047,297,7489.0,-75.21339416503906,-853,7565.0
1170,0.3487015962600708,17.2855281829834,206,7489.0,-41.04881286621094,-325,7565.0
1180,0.34977221488952637,2.1811306476593018,-29,7489.0,9.4568510055542,287,7565.0
1190,0.350889652967453,-8.836098670959473,-282,7489.0,42.70442199707031,1016,7565.0
1200,0.3510056734085083,-24.095598220825195,-424,7489.0,70.95881652832031,1332,7565.0
1210,0.35101908445358276,-24.400392532348633,-324,7489.0,98.40725708007812,1639,7565.0
1220,0.3504846692085266,-11.876049041748047,-37,7489.0,107.07096862792969,1682,7565.0
1230,0.3499707579612732,5.980576038360596,188,7489.0,92.50130462646484,1342,7565.0
1240,0.34908825159072876,24.39137840270996,402,7489.0,67.01868438720703,974,7565.0
1250,0.34799009561538696,25.9523983001709,367,7489.0,38.498321533203125,532,7565.0
1260,0.3481929898262024,12.170849800109863,7,7489.0,4.466312885284424,-37,7565.0
1270,0.34857019782066345,-9.999702453613281,-311,7489.0,-31.902009963989258,-893,7565.0
1280,0.3446206748485565,-21.078338623046875,-339,7489.0,-64.11187744140625,-1440,7565.0
1290,0.3442832827568054,-20.832094192504883,-205,7489.0,-83.8143081665039,-1652,7565.0
1300,0.343935489654541,-1.741491675376892,84,7489.0,-82.41891479492188,-1414,7565.0
1310,0.344040185213089,13.168713569641113,266,7489.0,-77.59963989257812,-1149,7565.0
1320,0.34553849697113037,17.644458770751953,382,7489.0,-53.213905334472656,-769,7565.0
1330,0.3449259102344513,16.694303512573242,175,7489.0,-20.985902786254883,-28,7565.0
1340,0.344887912273407,6.384328365325928,36,7489.0,13.415986061096191,454,7565.0
1350,0.3447229266166687,-2.269233226776123,14,7489.0,49.51530838012695,874,7565.0
1360,0.34434688091278076,-2.869035482406616,-78,7489.0,77.53898620605469,1295,7565.0
1370,0.3471973240375519,-11.197389602661133,-283,7489.0,84.7090072631836,1368,7565.0
1380,0.34669655561447144,-20.62328338623047,-322,7489.0,76.9441146850586,1210,7565.0
1390,0.3462236523628235,-19.65091323852539,-264,7489.0,71.1162338256836,1114,7565.0
1400,0.34566542506217957,-10.295905113220215,-96,7489.0,62.70322799682617,927,7565.0
1410,0.34543919563293457,5.712835788726807,48,7489.0,38.04100799560547,378,7565.0
1420,0.3448229432106018,15.055577278137207,273,7489.0,2.8742308616638184,-330,7565.0
1430,0.3447757065296173,17.66431427001953,425,7489.0,-36.787315368652344,-856,7565.0
1440,0.34487876296043396,18.23665428161621,381,7489.0,-72.00633239746094,-1280,7565.0
1450,0.34371596574783325,20.105899810791016,299,7489.0,-97.16060638427734,-1591,7565.0
1460,0.34381189942359924,11.308141708374023,109,7489.0,-111.50043487548828,-1856,7565.0
1470,0.3442426323890686,-6.995479583740234,-135,7489.0,-101.64696502685547,-1624,7565.0
1480,0.3444543480873108,-24.455968856811523,-525,7489.0,-68.26644134521484,-1027,7565.0
1490,0.34586942195892334,-42.5583610534668,-635,7489.0,-31.24394989013672,-313,7565.0
1500,0.3488478660583496,-37.21483612060547,-581,7489.0,5.885158061981201,429,7565.0
1510,0.3495663106441498,-17.040054321289062,-160,7489.0,48.907772064208984,907,7565.0
1520,0.3505622148513794,3.9918792247772217,172,7489.0,86.70694732666016,1564,7565.0
1530,0.35138723254203796,24.20210838317871,455,7489.0,113.5027847290039,1801,7565.0
1540,0.3523157835006714,35.517398834228516,689,7489.0,117.97891235351562,1625,7565.0
1550,0.3529892861843109,29.263715744018555,444,7489.0,104.74622344970703,1501,7565.0
1560,0.35294556617736816,4.851275444030762,18,7489.0,81.81324005126953,1183,7565.0
1570,0.35244545340538025,-17.769655227661133,-351,7489.0,44.69916915893555,648,7565.0
1580,0.35220828652381897,-24.86559295654297,-475,7489.0,5.598403453826904,70,7565.0
1590,0.3490908145904541,-12.909558296203613,-252,7489.0,-32.184669494628906,-504,7565.0
1600,0.34878382086753845,4.8108906745910645,60,7489.0,-63.29824447631836,-1040,7565.0
1610,0.3485721945762634,19.77628517150879,258,7489.0,-81.82173919677734,-1244,7565.0
1620,0.34844765067100525,20.84774398803711,313,7489.0,-91.1181640625,-1473,7565.0
1630,0.34544700384140015,9.857575416564941,85,7489.0,-102.39608764648438,-1723,7565.0
1640,0.3452546000480652,-8.172630310058594,-236,7489.0,-104.95237731933594,-1648,7565.0
1650,0.34525802731513977,-15.55301570892334,-284,7489.0,-89.95830535888672,-1422,7565.0
1660,0.3447936177253723,-3.9212560653686523,-62,7489.0,-60.623043060302734,-832,7565.0
1670,0.3481740355491638,0.9846874475479126,123,7489.0,-18.213268280029297,-1,7565.0
1680,0.34925973415374756,10.876952171325684,192,7489.0,30.896196365356445,605,7565.0
1690,0.3501904308795929,12.177556037902832,269,7489.0,74.47867584228516,1340,7565.0
1700,0.35100993514060974,8.138440132141113,43,7489.0,104.91664123535156,1989,7565.0
1710,0.35178714990615845,-3.7100882530212402,-184,7489.0,118.99584197998047,2033,7565.0
1720,0.35133588314056396,-20.15673065185547,-337,7489.0,122.74728393554688,1984,7565.0
1730,0.35138726234436035,-30.578664779663086,-428,7489.0,116.2495346069336,1794,7565.0
1740,0.3518264591693878,-29.343477249145508,-405,7489.0,92.4165267944336,1413,7565.0
1750,0.35166022181510925,-9.087583541870117,-53,7489.0,65.08260345458984,895,7565.0
1760,0.34859874844551086,26.267044067382812,588,7489.0,17.682741165161133,-27,7565.0
1770,0.3488914370536804,45.10665512084961,837,7489.0,-29.14564323425293,-873,7565.0
1780,0.3499961495399475,39.88943099975586,679,7489.0,-77.29828643798828,-1423,7565.0
1790,0.3512498438358307,25.07826042175293,269,7489.0,-102.95642852783203,-1746,7565.0
1800,0.3516389727592468,0.3686348795890808,-89,7489.0,-114.84808349609375,-1937,7565.0
1810,0.3485879898071289,-15.146027565002441,-211,7489.0,-115.68708038330078,-2079,7565.0
1820,0.34894561767578125,-22.635398864746094,-349,7489.0,-122.03233337402344,-2075,7565.0
1830,0.3493143618106842,-27.994070053100586,-500,7489.0,-113.27916717529297,-1787,7565.0
1840,0.35143014788627625,-23.57753562927246,-289,7489.0,-86.6755142211914,-1177,7565.0
1850,0.35295000672340393,-4.662654399871826,21,7489.0,-49.03657150268555,-429,7565.0
1860,0.3538491427898407,15.180891036987305,341,7489.0,-6.734254360198975,53,7565.0
1870,0.35498371720314026,24.235708236694336,436,7489.0,32.92665481567383,807,7565.0
1880,0.35599401593208313,17.015111923217773,269,7489.0,74.38230895996094,1442,7565.0
1890,0.3573230803012848,10.716887474060059,174,7489.0,109.17073059082031,1942,7565.0
1900,0.35812321305274963,-2.4235615730285645,-172,7489.0,130.1536102294922,2145,7565.0
1910,0.3584536612033844,-21.257122039794922,-419,7489.0,141.34263610839844,2291,7565.0
1920,0.35899779200553894,-30.090255737304688,-345,7489.0,135.146484375,2022,7565.0
1930,0.3585614860057831,-22.456308364868164,-189,7489.0,107.39576721191406,1474,7565.0
1940,0.3529203534126282,-5.896268367767334,109,7489.0,63.466697692871094,649,7565.0
1950,0.352713018655777,9.673722267150879,300,7489.0,13.27663803100586,-182,7565.0
1960,0.35338059067726135,19.06537628173828,316,7489.0,-38.03093719482422,-934,7565.0
1970,0.35437440872192383,16.49155044555664,156,7489.0,-84.0471420288086,-1562,7565.0
1980,0.34847667813301086,6.304157733917236,-61,7489.0,-123.35213470458984,-2001,7565.0
1990,0.3489837944507599,-2.325038433074951,-125,7489.0,-152.33982849121094,-2484,7565.0
2000,0.349628210067749,-1.3200559616088867,-47,7489.0,-167.23544311523438,-2767,7565.0
2010,0.35014352202415466,7.913877487182617,118,7489.0,-154.44004821777344,-2346,7565.0
2020,0.3504607081413269,14.136362075805664,258,7489.0,-123.9498062133789,-1880,7565.0
2030,0.3502514064311981,11.890469551086426,234,7489.0,-76.09346008300781,-1131,7565.0
2040,0.35129132866859436,3.792900323867798,-39,7489.0,-25.069488525390625,-57,7565.0
2050,0.3551899790763855,-13.527451515197754,-276,7489.0,27.722488403320312,612,7565.0
2060,0.357095330953598,-20.99191665649414,-385,7489.0,78.16281127929688,1527,7565.0
2070,0.3617754578590393,-17.758594512939453,-213,7489.0,124.40583801269531,2212,7565.0
2080,0.36286333203315735,-9.971851348876953,-108,7489.0,151.4018096923828,2654,7565.0
2090,0.3636016547679901,-1.9120328426361084,-23,7489.0,157.27151489257812,2664,7565.0
2100,0.3643764853477478,-0.09569987654685974,-48,7489.0,145.9857635498047,2391,7565.0
2110,0.35812488198280334,-0.05436938628554344,-16,7489.0,126.0504379272461,2026,7565.0
2120,0.35839056968688965,0.4276353716850281,14,7489.0,93.3521499633789,1289,7565.0
2130,0.3605092167854309,6.03983736038208,152,7489.0,50.42458724975586,370,7565.0
2140,0.3608182966709137,5.20360803604126,137,7489.0,-4.492196083068848,-429,7565.0
2150,0.36115336418151855,9.11346435546875,184,7489.0,-62.843475341796875,-1351,7565.0
2160,0.35406816005706787,2.9180243015289307,107,7489.0,-122.13900756835938,-2179,7565.0
2170,0.3540719449520111,1.6100434064865112,-26,7489.0,-160.86537170410156,-2626,7565.0
2180,0.35474905371665955,-0.18752165138721466,-52,7489.0,-167.46572875976562,-2770,7565.0
2190,0.3547073006629944,-4.176310062408447,104,7489.0,-152.81399536132812,-2696,7565.0
2200,0.3523313105106354,4.242805480957031,71,7489.0,-136.86900329589844,-2156,7565.0
2210,0.354294091463089,-1.2086230516433716,-98,7489.0,-107.74140167236328,-1510,7565.0
2220,0.354506254196167,-8.841187477111816,-98,7489.0,-58.04653549194336,-677,7565.0
2230,0.354714572429657,-1.3484363555908203,-34,7489.0,-7.747522354125977,114,7565.0
2240,0.3560709059238434,5.204574108123779,111,7489.0,51.61244583129883,1145,7565.0
2250,0.35960108041763306,7.3490800857543945,134,7489.0,106.36117553710938,2017,7565.0
2260,0.36026620864868164,4.930699348449707,88,7489.0,146.09616088867188,2385,7565.0
2270,0.3610168695449829,-2.0059328079223633,-53,7489.0,165.37489318847656,2712,7565.0
2280,0.36110222339630127,-7.365721702575684,-176,7489.0,167.3292694091797,2613,7565.0
2290,0.35917893052101135,-10.40529727935791,-147,7489.0,148.5265350341797,2121,7565.0
2300,0.3595804274082184,-8.415273666381836,-20,7489.0,103.39871215820312,1324,7565.0
2310,0.3590357005596161,-4.421113967895508,37,7489.0,57.8586311340332,594,7565.0
2320,0.361162394285202,2.82967472076416,98,7489.0,3.135216236114502,-236,7565.0
2330,0.3540406823158264,9.576663970947266,187,7489.0,-59.24909210205078,-1082,7565.0
2340,0.3547155559062958,20.301921844482422,292,7489.0,-109.61662292480469,-1767,7565.0
2350,0.3559052050113678,18.636558532714844,159,7489.0,-136.2904510498047,-2160,7565.0
2360,0.35674795508384705,3.905712127685547,-51,7489.0,-146.60401916503906,-2401,7565.0
2370,0.35866761207580566,-23.55301284790039,-495,7489.0,-138.85740661621094,-2064,7565.0
2380,0.3542211055755615,-35.13811111450195,-535,7489.0,-100.88960266113281,-1490,7565.0
2390,0.3547784388065338,-25.742067337036133,-289,7489.0,-53.681251525878906,-775,7565.0
2400,0.3560681641101837,5.720987319946289,257,7489.0,-3.0520224571228027,156,7565.0
2410,0.35771262645721436,39.87981033325195,770,7489.0,39.16086196899414,928,7565.0
2420,0.3582911193370819,47.431793212890625,750,7489.0,76.79316711425781,1589,7565.0
2430,0.35912296175956726,28.23008155822754,278,7489.0,110.23454284667969,1847,7565.0
2440,0.36021462082862854,-8.8290376663208,-190,7489.0,125.11335754394531,1977,7565.0
2450,0.36066195368766785,-32.661094665527344,-609,7489.0,122.50460815429688,1853,7565.0
2460,0.36206743121147156,-39.24611282348633,-532,7489.0,99.0979232788086,1367,7565.0
2470,0.3572107255458832,-24.93137550354004,-248,7489.0,72.33922576904297,887,7565.0
2480,0.35751527547836304,5.139598369598389,252,7489.0,35.781349182128906,170,7565.0
2490,0.358360230922699,18.259384155273438,437,7489.0,-7.253633975982666,-548,7565.0
2500,0.3589363992214203,21.96472930908203,284,7489.0,-44.971160888671875,-1044,7565.0
2510,0.351404070854187,9.55487060546875,90,7489.0,-75.90333557128906,-1382,7565.0
2520,0.35226261615753174,-10.006083488464355,-333,7489.0,-96.46665954589844,-1607,7565.0
2530,0.3529496192932129,-27.759992599487305,-497,7489.0,-110.45047760009766,-1887,7565.0
2540,0.35363906621932983,-32.9495735168457,-502,7489.0,-98.01676177978516,-1669,7565.0
2550,0.35095736384391785,-23.996156692504883,-279,7489.0,-74.41260528564453,-942,7565.0
2560,0.3514556288719177,2.0250654220581055,144,7489.0,-40.96939468383789,-427,7565.0
2570,0.35229334235191345,28.72993278503418,679,7489.0,-13.235201835632324,-195,7565.0
2580,0.35289672017097473,44.922115325927734,697,7489.0,15.959227561950684,335,7565.0
2590,0.3534320890903473,36.789466857910156,513,7489.0,49.79490661621094,1064,7565.0
2600,0.3550214469432831,19.444671630859375,111,7489.0,78.629150390625,1415,7565.0
2610,0.3555862605571747,-13.510037422180176,-404,7489.0,100.71236419677734,1763,7565.0
2620,0.35598331689834595,-39.441463470458984,-726,7489.0,109.67753601074219,1703,7565.0
2630,0.355938583612442,-39.44913101196289,-644,7489.0,106.62081146240234,1513,7565.0
2640,0.35123753547668457,-16.593976974487305,-48,7489.0,89.78524017333984,1183,7565.0
2650,0.3508369028568268,15.184122085571289,463,7489.0,55.313720703125,605,7565.0
2660,0.3515690267086029,38.14719009399414,794,7489.0,15.649808883666992,-39,7565.0
2670,0.3513110280036926,36.66885757446289,634,7489.0,-29.020524978637695,-753,7565.0
2680,0.3518013060092926,16.882938385009766,41,7489.0,-74.4852294921875,-1402,7565.0
2690,0.3473186492919922,-13.944533348083496,-349,7489.0,-111.40953063964844,-1856,7565.0
2700,0.3471875786781311,-31.417194366455078,-584,7489.0,-132.08729553222656,-2152,7565.0
2710,0.3477332890033722,-33.83039855957031,-443,7489.0,-137.1429901123047,-2364,7565.0
2720,0.34790533781051636,-21.766117095947266,-215,7489.0,-126.52067565917969,-2019,7565.0
2730,0.3470691740512848,-3.9488182067871094,-74,7489.0,-93.5901107788086,-1270,7565.0
2740,0.3477064073085785,16.79037857055664,359,7489.0,-51.081302642822266,-570,7565.0
2750,0.3502945601940155,22.411184310913086,412,7489.0,-6.910612106323242,47,7565.0
2760,0.35121026635169983,20.85493278503418,259,7489.0,30.271944046020508,562,7565.0
2770,0.3546181917190552,9.210174560546875,183,7489.0,64.38607025146484,1301,7565.0
2780,0.35543185472488403,3.3166024684906006,-46,7489.0,101.65255737304688,1829,7565.0
2790,0.3556292951107025,-5.531490325927734,-69,7489.0,127.08006286621094,1971,7565.0
2800,0.35585668683052063,-6.585608959197998,-31,7489.0,135.74008178710938,2105,7565.0
2810,0.35538220405578613,-5.0424418449401855,-69,7489.0,130.1135711669922,2017,7565.0
2820,0.3534983694553375,2.3139233589172363,35,7489.0,103.24336242675781,1551,7565.0
2830,0.3544418513774872,12.198335647583008,182,7489.0,66.44978332519531,966,7565.0
2840,0.35387223958969116,10.011540412902832,117,7489.0,24.797454833984375,254,7565.0
2850,0.3524617850780487,-0.535214364528656,-80,7489.0,-17.14739227294922,-509,7565.0
2860,0.34745022654533386,-11.78231430053711,-207,7489.0,-57.429500579833984,-1239,7565.0
2870,0.34719333052635193,-21.944263458251953,-352,7489.0,-95.79520416259766,-1789,7565.0
2880,0.3466072678565979,-19.360294342041016,-313,7489.0,-128.1602783203125,-2313,7565.0
2890,0.34586581587791443,-17.056711196899414,-142,7489.0,-144.3782501220703,-2542,7565.0
2900,0.34477564692497253,-1.4278825521469116,56,7489.0,-143.2855987548828,-2345,7565.0
2910,0.3448275625705719,19.36469078063965,387,7489.0,-124.18892669677734,-1867,7565.0
2920,0.3441028892993927,30.598413467407227,477,7489.0,-86.79939270019531,-1249,7565.0
2930,0.34313806891441345,23.702455520629883,444,7489.0,-45.2398681640625,-572,7565.0
2940,0.3440989553928375,3.742149591445923,-90,7489.0,4.408710956573486,198,7565.0
2950,0.34986060857772827,-16.536645889282227,-327,7489.0,53.62726974487305,1172,7565.0
2960,0.3494538366794586,-29.184097290039062,-537,7489.0,96.22880554199219,1727,7565.0
2970,0.34937623143196106,-24.203432083129883,-250,7489.0,131.36080932617188,2115,7565.0
2980,0.34885260462760925,-2.4154562950134277,82,7489.0,146.89016723632812,2386,7565.0
2990,0.3505525290966034,19.090923309326172,404,7489.0,141.47506713867188,2268,7565.0
3000,0.3497653603553772,30.121776580810547,465,7489.0,118.1006088256836,1783,7565.0
3010,0.34847304224967957,29.36056137084961,478,7489.0,83.6150894165039,937,7565.0
3020,0.3488090932369232,11.384209632873535,111,7489.0,33.9553337097168,115,7565.0
3030,0.3501306474208832,-15.247681617736816,-275,7489.0,-16.7510929107666,-730,7565.0
3040,0.3462746739387512,-33.13351821899414,-500,7489.0,-66.01665496826172,-1428,7565.0
3050,0.3473608195781708,-30.97345733642578,-427,7489.0,-100.49925994873047,-1750,7565.0
3060,0.34816619753837585,-20.638010025024414,-174,7489.0,-110.49034881591797,-1895,7565.0
3070,0.34897366166114807,1.5857073068618774,127,7489.0,-119.31835174560547,-1969,7565.0
3080,0.3481009304523468,17.17019271850586,311,7489.0,-114.18757629394531,-1848,7565.0
3090,0.34877943992614746,28.652496337890625,523,7489.0,-97.92420959472656,-1567,7565.0
3100,0.34908485412597656,24.56635093688965,340,7489.0,-73.02571105957031,-882,7565.0
3110,0.34995758533477783,8.172215461730957,64,7489.0,-37.580665588378906,-399,7565.0
3120,0.3512178957462311,-5.04780387878418,-176,7489.0,8.63330078125,348,7565.0
3130,0.35530489683151245,-11.174485206604004,-193,7489.0,47.56482696533203,1039,7565.0
3140,0.35646161437034607,-13.328508377075195,-164,7489.0,89.03688049316406,1732,7565.0
3150,0.3571873605251312,-8.79884147644043,-149,7489.0,117.43318939208984,1965,7565.0
3160,0.3574190139770508,1.345603585243225,147,7489.0,128.08755493164062,1908,7565.0
3170,0.3558691143989563,11.910677909851074,272,7489.0,125.09708404541016,1866,7565.0
3180,0.3559131920337677,14.994400024414062,287,7489.0,112.27693176269531,1689,7565.0
3190,0.3554390072822571,10.315095901489258,130,7489.0,88.49468994140625,1210,7565.0
3200,0.3569416403770447,-0.9992402791976929,-160,7489.0,44.44926071166992,542,7565.0
3210,0.350699245929718,-20.53558349609375,-400,7489.0,-3.91562557220459,-305,7565.0
3220,0.3508278727531433,-30.109195709228516,-557,7489.0,-57.26140594482422,-1111,7565.0
3230,0.3521472215652466,-33.2577018737793,-452,7489.0,-99.92359924316406,-1732,7565.0
3240,0.3526327311992645,-10.67812442779541,-142,7489.0,-121.7493896484375,-2086,7565.0
3250,0.3530634641647339,12.524163246154785,380,7489.0,-119.2674331665039,-1924,7565.0
3260,0.3478719890117645,40.09955596923828,806,7489.0,-100.60147857666016,-1496,7565.0
3270,0.3478753864765167,56.405174255371094,888,7489.0,-63.08140563964844,-667,7565.0
3280,0.34992659091949463,37.9562873840332,499,7489.0,-16.795726776123047,-11,7565.0
3290,0.3499869704246521,4.431102752685547,-56,7489.0,26.87827491760254,601,7565.0
3300,0.35164347290992737,-26.39606475830078,-650,7489.0,60.62541198730469,1112,7565.0
3310,0.35157305002212524,-46.93639373779297,-725,7489.0,80.43319702148438,1336,7565.0
3320,0.3510606586933136,-42.00419235229492,-602,7489.0,84.66358184814453,1529,7565.0
3330,0.35031041502952576,-17.296127319335938,-229,7489.0,75.67459106445312,1446,7565.0
3340,0.349571168422699,13.256386756896973,268,7489.0,60.955421447753906,826,7565.0
3350,0.347269207239151,35.866127014160156,644,7489.0,37.63631820678711,540,7565.0
3360,0.34641674160957336,39.407535552978516,526,7489.0,12.444037437438965,18,7565.0
3370,0.3456546664237976,21.260360717773438,229,7489.0,-14.254263877868652,-430,7565.0
3380,0.3451653718948364,-6.337021350860596,-279,7489.0,-45.468509674072266,-934,7565.0
3390,0.3431502878665924,-35.82784652709961,-659,7489.0,-77.23371124267578,-1347,7565.0
3400,0.34270787239074707,-45.771209716796875,-800,7489.0,-104.79267120361328,-1574,7565.0
3410,0.3422118127346039,-34.43910598754883,-527,7489.0,-112.02776336669922,-1779,7565.0
3420,0.34124553203582764,-8.97658920288086,27,7489.0,-105.21913146972656,-1705,7565.0
3430,0.3439748287200928,25.013263702392578,593,7489.0,-83.42214965820312,-1265,7565.0
3440,0.34454184770584106,38.01786422729492,528,7489.0,-50.30839920043945,-665,7565.0
3450,0.34507426619529724,30.3830623626709,451,7489.0,-11.047531127929688,85,7565.0
3460,0.3454507291316986,15.798986434936523,132,7489.0,33.38115692138672,691,7565.0
3470,0.3461091220378876,0.34021785855293274,-40,7489.0,66.06124114990234,1145,7565.0
3480,0.3508398234844208,-9.07827091217041,-229,7489.0,92.95382690429688,1746,7565.0
3490,0.3505840599536896,-15.991865158081055,-277,7489.0,107.05644989013672,1616,7565.0
3500,0.3504538834095001,-22.259414672851562,-240,7489.0,106.65729522705078,1486,7565.0
3510,0.3501400649547577,-24.110536575317383,-259,7489.0,96.25199890136719,1499,7565.0
3520,0.34950098395347595,-18.76371955871582,-233,7489.0,89.34253692626953,1321,7565.0
3530,0.3502611219882965,4.510632038116455,104,7489.0,64.68965148925781,886,7565.0
3540,0.34956875443458557,17.625,462,7489.0,34.176448822021484,264,7565.0
3550,0.35043323040008545,36.29701232910156,721,7489.0,8.765381813049316,-70,7565.0
3560,0.350671648979187,36.206634521484375,497,7489.0,-19.442720413208008,-519,7565.0
3570,0.3469330668449402,20.355913162231445,246,7489.0,-48.8916130065918,-996,7565.0
3580,0.34727752208709717,-13.321990013122559,-330,7489.0,-73.01170349121094,-1358,7565.0
3590,0.3477834463119507,-38.29460525512695,-729,7489.0,-89.94647979736328,-1591,7565.0
3600,0.34797877073287964,-49.50659942626953,-824,7489.0,-93.91709899902344,-1656,7565.0
3610,0.34679466485977173,-35.322669982910156,-336,7489.0,-91.19526672363281,-1565,7565.0
3620,0.34693363308906555,-0.0018443078733980656,124,7489.0,-75.99581909179688,-968,7565.0
3630,0.3472273349761963,38.039432525634766,661,7489.0,-41.0277214050293,-466,7565.0
3640,0.3486134111881256,51.568359375,879,7489.0,2.207510471343994,79,7565.0
3650,0.3509247303009033,39.55824279785156,501,7489.0,32.60942459106445,792,7565.0
3660,0.3513517677783966,10.691444396972656,14,7489.0,61.97049331665039,1153,7565.0
3670,0.35145315527915955,-23.784557342529297,-463,7489.0,87.8131332397461,1477,7565.0
3680,0.3514537215232849,-48.78141403198242,-867,7489.0,100.72723388671875,1653,7565.0
3690,0.3516729176044464,-45.35134506225586,-711,7489.0,91.48887634277344,1438,7565.0
3700,0.3491842448711395,-24.628694534301758,-266,7489.0,73.38347625732422,1063,7565.0
3710,0.348719984292984,3.8481266498565674,227,7489.0,54.20329284667969,567,7565.0
3720,0.3486744463443756,29.192567825317383,608,7489.0,18.086660385131836,-129,7565.0
3730,0.3493799567222595,39.29004669189453,751,7489.0,-20.572120666503906,-731,7565.0
3740,0.344119131565094,32.006431579589844,536,7489.0,-58.236778259277344,-1187,7565.0
3750,0.3445650041103363,9.420594215393066,-54,7489.0,-89.57894897460938,-1614,7565.0
3760,0.3449403643608093,-20.78623390197754,-461,7489.0,-110.7391357421875,-1945,7565.0
3770,0.3453430235385895,-41.06658172607422,-603,7489.0,-116.33588409423828,-1957,7565.0
3780,0.3455011546611786,-31.1798095703125,-370,7489.0,-112.5387954711914,-1734,7565.0
3790,0.3450477719306946,-9.077115058898926,-91,7489.0,-93.9730224609375,-1268,7565.0
3800,0.3455337882041931,11.879012107849121,264,7489.0,-69.09555053710938,-990,7565.0
3810,0.3476768136024475,23.794788360595703,462,7489.0,-32.11558151245117,-292,7565.0
3820,0.34769079089164734,22.65018653869629,320,7489.0,8.718622207641602,421,7565.0
3830,0.352053701877594,8.369792938232422,80,7489.0,49.568199157714844,1039,7565.0
3840,0.3537885844707489,-6.523488998413086,-255,7489.0,83.72809600830078,1620,7565.0
3850,0.3547675609588623,-16.61956214904785,-256,7489.0,110.90816497802734,1931,7565.0
3860,0.3547360599040985,-15.56985855102539,-217,7489.0,125.31459045410156,2044,7565.0
3870,0.3538026511669159,-9.972289085388184,-125,7489.0,131.27296447753906,2083,7565.0
3880,0.3534794747829437,4.904577732086182,174,7489.0,120.09126281738281,1835,7565.0
3890,0.3526378870010376,14.2988920211792,339,7489.0,97.0932388305664,1276,7565.0
3900,0.35344037413597107,17.572711944580078,320,7489.0,57.17447280883789,589,7565.0
3910,0.3524424731731415,14.326608657836914,268,7489.0,15.91484260559082,-150,7565.0
3920,0.3481147587299347,5.7523980140686035,41,7489.0,-15.71452808380127,-536,7565.0
3930,0.34796878695487976,-3.0193707942962646,-173,7489.0,-46.98380661010742,-884,7565.0
3940,0.3478360176086426,-18.340429306030273,-417,7489.0,-71.69996643066406,-1186,7565.0
3950,0.3483160734176636,-22.76705551147461,-380,7489.0,-88.48602294921875,-1372,7565.0
3960,0.34536442160606384,-17.955595016479492,-227,7489.0,-92.48614501953125,-1480,7565.0
3970,0.34523096680641174,9.739227294921875,385,7489.0,-83.23982238769531,-1369,7565.0
3980,0.34548288583755493,29.828462600708008,574,7489.0,-61.62784194946289,-1010,7565.0
3990,0.34533029794692993,24.7335205078125,348,7489.0,-32.6888542175293,-295,7565.0
4000,0.34523749351501465,9.525959014892578,49,7489.0,1.4172437191009521,242,7565.0
4010,0.3462829887866974,-11.99355697631836,-170,7489.0,36.234920501708984,504,7565.0
4020,0.3463607132434845,-19.461742401123047,-338,7489.0,57.011619567871094,997,7565.0
4030,0.3460174798965454,-19.964431762695312,-387,7489.0,72.5549545288086,1269,7565.0
4040,0.34533989429473877,-15.51344108581543,-113,7489.0,80.35649108886719,1343,7565.0
4050,0.34394702315330505,-4.392312526702881,-18,7489.0,76.40654754638672,1200,7565.0
4060,0.34350186586380005,8.90750503540039,231,7489.0,56.201416015625,774,7565.0
4070,0.343304842710495,20.404590606689453,300,7489.0,23.105968475341797,221,7565.0
4080,0.34276342391967773,18.306537628173828,224,7489.0,-15.305754661560059,-277,7565.0
4090,0.34250470995903015,15.630511283874512,202,7489.0,-49.154441833496094,-709,7565.0
4100,0.342520534992218,11.270618438720703,71,7489.0,-81.119140625,-1259,7565.0
4110,0.3430682420730591,-2.779736280441284,-217,7489.0,-102.0302963256836,-1529,7565.0
4120,0.34321069717407227,-19.96756935119629,-370,7489.0,-98.33638000488281,-1538,7565.0
4130,0.3432253301143646,-36.00503921508789,-527,7489.0,-83.58179473876953,-1394,7565.0
4140,0.3452529013156891,-29.43621253967285,-374,7489.0,-60.36693572998047,-822,7565.0
4150,0.34583625197410583,-2.507523775100708,20,7489.0,-31.75533676147461,-294,7565.0
4160,0.34620407223701477,18.705373764038086,416,7489.0,2.8665988445281982,63,7565.0
4170,0.3480205535888672,30.473291397094727,650,7489.0,35.15632247924805,639,7565.0
4180,0.3517515957355499,19.474027633666992,169,7489.0,69.7238998413086,1334,7565.0
4190,0.3522573411464691,9.27155590057373,82,7489.0,95.67536926269531,1719,7565.0
4200,0.35251522064208984,-3.29744291305542,-45,7489.0,112.87538146972656,1884,7565.0
4210,0.3522406816482544,-8.97836685180664,-128,7489.0,117.42527770996094,1896,7565.0
4220,0.3527487516403198,-10.298345565795898,-194,7489.0,108.81641387939453,1772,7565.0
4230,0.3492963910102844,-10.333508491516113,-114,7489.0,86.20569610595703,1330,7565.0
4240,0.3487660884857178,-2.0221822261810303,-62,7489.0,52.83346939086914,714,7565.0
4250,0.34765395522117615,2.8934438228607178,-10,7489.0,5.679321765899658,66,7565.0
4260,0.34708839654922485,8.422284126281738,98,7489.0,-37.037818908691406,-532,7565.0
4270,0.34361234307289124,13.131670951843262,34,7489.0,-71.4166488647461,-1259,7565.0
4280,0.3429982364177704,8.433968544006348,13,7489.0,-97.62518310546875,-1622,7565.0
4290,0.34294405579566956,-4.11042594909668,-109,7489.0,-109.20723724365234,-1892,7565.0
4300,0.3425799608230591,-13.633540153503418,-165,7489.0,-116.39672088623047,-2116,7565.0
4310,0.341101735830307,-11.993034362792969,-138,7489.0,-111.6801528930664,-1829,7565.0
4320,0.3412189185619354,-0.8501006364822388,59,7489.0,-93.18704986572266,-1344,7565.0
4330,0.34106582403182983,4.846124649047852,74,7489.0,-67.88475036621094,-896,7565.0
4340,0.34275397658348083,3.9076459407806396,52,7489.0,-24.031356811523438,-155,7565.0
4350,0.3442944586277008,3.741081714630127,139,7489.0,10.85226821899414,383,7565.0
4360,0.34823620319366455,6.4566545486450195,151,7489.0,57.56666946411133,1249,7565.0
4370,0.34916573762893677,1.5731641054153442,-61,7489.0,95.76380920410156,1679,7565.0
4380,0.3499535024166107,-5.860438346862793,-110,7489.0,121.39057922363281,1907,7565.0
4390,0.35108616948127747,-9.364992141723633,-86,7489.0,130.40013122558594,2062,7565.0
4400,0.3502710461616516,-10.499324798583984,-158,7489.0,122.13414764404297,1897,7565.0
4410,0.3498653173446655,-8.533008575439453,-178,7489.0,94.79212188720703,1447,7565.0
4420,0.3504246771335602,0.25035327672958374,31,7489.0,60.27473831176758,771,7565.0
4430,0.3520069122314453,13.965140342712402,246,7489.0,18.464031219482422,85,7565.0
4440,0.35201695561408997,23.89954376220703,216,7489.0,-29.229106903076172,-560,7565.0
4450,0.3477001488208771,21.005998611450195,150,7489.0,-64.30902862548828,-1108,7565.0
4460,0.34841829538345337,10.844125747680664,-129,7489.0,-102.0701904296875,-1642,7565.0
4470,0.34859052300453186,-7.343169212341309,-205,7489.0,-124.08187866210938,-2189,7565.0
4480,0.3485898971557617,-15.998717308044434,-303,7489.0,-143.83497619628906,-2546,7565.0
4490,0.344428151845932,-12.609146118164062,-30,7489.0,-163.60211181640625,-2700,7565.0
4500,0.3433583378791809,-2.5759060382843018,-32,7489.0,-159.82077026367188,-2502,7565.0
4510,0.3457261919975281,9.930619239807129,279,7489.0,-131.66000366210938,-2035,7565.0
4520,0.34436139464378357,9.442795753479004,90,7489.0,-90.87870025634766,-1264,7565.0
4530,0.35031744837760925,1.1718798875808716,-35,7489.0,-39.043880462646484,-401,7565.0
4540,0.35214999318122864,-10.040451049804688,-257,7489.0,18.173389434814453,624,7565.0
4550,0.3543379306793213,-17.000349044799805,-244,7489.0,72.12874603271484,1378,7565.0
4560,0.3554350435733795,-11.075512886047363,-94,7489.0,125.9693832397461,2198,7565.0
4570,0.3556632995605469,1.8671759366989136,94,7489.0,169.4447479248047,3074,7565.0
4580,0.36076655983924866,15.50063419342041,252,7489.0,192.53065490722656,3176,7565.0
4590,0.36086317896842957,14.286890983581543,284,7489.0,188.7567596435547,2988,7565.0
4600,0.3617585599422455,5.780684471130371,72,7489.0,173.15065002441406,2767,7565.0
4610,0.36100417375564575,-4.610836029052734,-144,7489.0,145.62913513183594,2290,7565.0
4620,0.35216012597084045,-9.604156494140625,-255,7489.0,103.11516571044922,1629,7565.0
4630,0.3503705859184265,-8.411930084228516,-159,7489.0,54.19453048706055,724,7565.0
4640,0.3513255715370178,-3.360684633255005,-70,7489.0,-7.2665486335754395,-380,7565.0
4650,0.35122913122177124,5.480949401855469,103,7489.0,-77.3701400756836,-1421,7565.0
4660,0.3479432463645935,14.895184516906738,234,7489.0,-136.0739288330078,-2226,7565.0
4670,0.3488081097602844,29.393888473510742,368,7489.0,-159.23980712890625,-2452,7565.0
4680,0.3481897711753845,22.834474563598633,252,7489.0,-163.00599670410156,-2536,7565.0
4690,0.3478328287601471,3.824397087097168,-7,7489.0,-148.2423858642578,-2331,7565.0
4700,0.3472364842891693,-17.697206497192383,-410,7489.0,-125.2723388671875,-1962,7565.0
4710,0.3459795117378235,-29.493328094482422,-463,7489.0,-89.95523071289062,-1315,7565.0
4720,0.346650630235672,-24.931129455566406,-388,7489.0,-40.579681396484375,-364,7565.0
4730,0.3463161289691925,-8.455086708068848,-88,7489.0,5.15367317199707,338,7565.0
4740,0.3460237979888916,7.139193534851074,214,7489.0,53.33542251586914,1107,7565.0
4750,0.34854817390441895,16.62835121154785,229,7489.0,90.62696838378906,1521,7565.0
4760,0.3478412926197052,13.138725280761719,213,7489.0,107.37344360351562,1677,7565.0
4770,0.34732702374458313,-3.2788875102996826,-111,7489.0,105.85029602050781,1735,7565.0
4780,0.34664037823677063,-20.329301834106445,-466,7489.0,94.11783599853516,1564,7565.0
4790,0.3463371694087982,-30.776092529296875,-565,7489.0,74.03273010253906,1106,7565.0
4800,0.34664174914360046,-15.042431831359863,-195,7489.0,32.92800521850586,245,7565.0
4810,0.3470965623855591,15.095617294311523,404,7489.0,-15.27698802947998,-701,7565.0
4820,0.3481138050556183,42.34680938720703,830,7489.0,-66.45999908447266,-1445,7565.0
4830,0.3491699695587158,48.89060592651367,829,7489.0,-95.79740142822266,-1706,7565.0
4840,0.3471132814884186,28.818937301635742,341,7489.0,-98.93131256103516,-1605,7565.0
4850,0.34769824147224426,-9.955384254455566,-388,7489.0,-83.13839721679688,-1315,7565.0
4860,0.34828540682792664,-44.59526062011719,-776,7489.0,-58.37825393676758,-631,7565.0
4870,0.3483089208602905,-52.3800048828125,-827,7489.0,-14.354305267333984,86,7565.0
4880,0.3502320945262909,-28.25510025024414,-292,7489.0,28.566320419311523,577,7565.0
4890,0.3513028621673584,0.8594318628311157,166,7489.0,62.2696647644043,1092,7565.0
4900,0.35194793343544006,19.01919174194336,358,7489.0,89.0897216796875,1514,7565.0
4910,0.3524044156074524,26.955814361572266,431,7489.0,106.44827270507812,1660,7565.0
4920,0.35241955518722534,26.602842330932617,405,7489.0,104.83367156982422,1602,7565.0
4930,0.3510797321796417,15.163436889648438,270,7489.0,86.32151794433594,1392,7565.0
4940,0.3507150113582611,-2.060392141342163,-185,7489.0,63.572574615478516,1079,7565.0
4950,0.35015439987182617,-17.150846481323242,-395,7489.0,36.30058670043945,604,7565.0
4960,0.3507741093635559,-22.06109046936035,-349,7489.0,8.990860939025879,-8,7565.0
4970,0.34666043519973755,-6.418907642364502,30,7489.0,-25.967573165893555,-503,7565.0
4980,0.3463474214076996,7.16619873046875,266,7489.0,-62.759681701660156,-1174,7565.0
4990,0.34678253531455994,17.489736557006836,295,7489.0,-93.45494842529297,-1626,7565.0
5000,0.3469458520412445,18.22065544128418,374,7489.0,-106.87198638916016,-1850,7565.0
5010,0.3477356433868408,9.646260261535645,121,7489.0,-105.67132568359375,-1589,7565.0
5020,0.3444788157939911,8.41515064239502,31,7489.0,-86.93830108642578,-1158,7565.0
5030,0.34390461444854736,-17.63177490234375,-274,7489.0,-59.357200622558594,-1105,7565.0
5040,0.3443872928619385,-30.3172664642334,-521,7489.0,-35.67790985107422,-336,7565.0
5050,0.34464484453201294,-21.435739517211914,-230,7489.0,1.7929961681365967,206,7565.0
5060,0.34628692269325256,-2.747663736343384,156,7489.0,29.3217830657959,601,7565.0
5070,0.3462212085723877,21.875459671020508,437,7489.0,60.649620056152344,1185,7565.0
5080,0.345950186252594,24.408607482910156,312,7489.0,90.32576751708984,1523,7565.0
5090,0.34581342339515686,9.408035278320312,178,7489.0,98.33222198486328,1426,7565.0
5100,0.3451384902000427,-7.3057098388671875,-214,7489.0,81.27137756347656,1220,7565.0
5110,0.34430399537086487,-23.999237060546875,-470,7489.0,52.45490646362305,834,7565.0
5120,0.34472864866256714,-24.690404891967773,-428,7489.0,17.1108341217041,177,7565.0
5130,0.34552228450775146,-15.01235580444336,-240,7489.0,-21.550579071044922,-471,7565.0
5140,0.3463054895401001,2.0920379161834717,55,7489.0,-54.31749725341797,-916,7565.0
5150,0.34421420097351074,20.92783546447754,295,7489.0,-80.0126953125,-1351,7565.0
5160,0.3447837233543396,30.247161865234375,445,7489.0,-101.16751861572266,-1789,7565.0
5170,0.34519830346107483,29.28321075439453,373,7489.0,-118.36060333251953,-1894,7565.0
5180,0.34581029415130615,18.900175094604492,334,7489.0,-113.13896942138672,-1891,7565.0
5190,0.34708061814308167,9.081636428833008,-5,7489.0,-87.51754760742188,-1271,7565.0
5200,0.3473440706729889,-10.466833114624023,-266,7489.0,-46.67033386230469,-593,7565.0
5210,0.3488974869251251,-25.04132652282715,-441,7489.0,-6.532171726226807,150,7565.0
5220,0.3495386838912964,-28.255619049072266,-399,7489.0,38.62659454345703,746,7565.0
5230,0.3514147400856018,-23.147153854370117,-304,7489.0,76.34772491455078,1445,7565.0
5240,0.3547973930835724,-4.541024208068848,48,7489.0,102.44941711425781,1898,7565.0
5250,0.35507991909980774,13.861781120300293,258,7489.0,123.94078063964844,2068,7565.0
5260,0.3557043969631195,19.773744583129883,372,7489.0,137.36326599121094,2116,7565.0
5270,0.3556686341762543,17.699981689453125,270,7489.0,136.1797332763672,2138,7565.0
5280,0.35159504413604736,5.8078389167785645,-7,7489.0,117.87210083007812,1904,7565.0
5290,0.35098743438720703,-9.880370140075684,-314,7489.0,88.51116943359375,1412,7565.0
5300,0.35238462686538696,-17.413862228393555,-418,7489.0,42.18256378173828,765,7565.0
5310,0.3513334095478058,-15.983062744140625,-413,7489.0,-0.4768279194831848,2,7565.0
5320,0.34688934683799744,-4.172495365142822,-140,7489.0,-40.265472412109375,-741,7565.0
5330,0.3472817838191986,16.27403450012207,277,7489.0,-78.37434387207031,-1419,7565.0
5340,0.3473019599914551,28.608158111572266,444,7489.0,-109.16606903076172,-1922,7565.0
5350,0.3481449484825134,21.743600845336914,326,7489.0,-132.07835388183594,-2322,7565.0
5360,0.34852486848831177,7.891062259674072,95,7489.0,-140.8821258544922,-2292,7565.0
5370,0.34624823927879333,-10.237125396728516,-338,7489.0,-132.71392822265625,-1906,7565.0
5380,0.34785667061805725,-26.735157012939453,-426,7489.0,-102.30094146728516,-1491,7565.0
5390,0.3486385941505432,-29.665119171142578,-458,7489.0,-64.47012329101562,-887,7565.0
5400,0.34924545884132385,-18.229673385620117,-266,7489.0,-26.65940284729004,-294,7565.0
5410,0.3536382019519806,-1.35514235496521,106,7489.0,15.785618782043457,506,7565.0
5420,0.3540782332420349,14.342220306396484,281,7489.0,60.98387145996094,1245,7565.0
5430,0.35633742809295654,24.973140716552734,454,7489.0,98.53070831298828,1548,7565.0
5440,0.35648441314697266,23.986957550048828,400,7489.0,116.22042846679688,1904,7565.0
5450,0.35776185989379883,10.550949096679688,43,7489.0,118.26191711425781,1855,7565.0
5460,0.3572992980480194,-1.3681323528289795,-242,7489.0,104.28040313720703,1583,7565.0
5470,0.35891151428222656,-21.159896850585938,-461,7489.0,70.62321472167969,1004,7565.0
5480,0.3589627146720886,-21.846914291381836,-288,7489.0,30.209352493286133,243,7565.0
5490,0.35963281989097595,-13.2754545211792,-38,7489.0,-10.812914848327637,-470,7565.0
5500,0.35417935252189636,6.018329620361328,251,7489.0,-50.15624237060547,-1119,7565.0
5510,0.3550035059452057,23.390485763549805,485,7489.0,-83.28416442871094,-1600,7565.0
5520,0.35566020011901855,30.27669334411621,502,7489.0,-105.19316864013672,-1931,7565.0
5530,0.3560054302215576,22.092557907104492,313,7489.0,-126.65044403076172,-2129,7565.0
5540,0.3533390462398529,9.874736785888672,194,7489.0,-128.53182983398438,-2056,7565.0
5550,0.353888601064682,-8.510862350463867,-339,7489.0,-117.08553314208984,-1719,7565.0
5560,0.3550082743167877,-31.740375518798828,-553,7489.0,-84.17855072021484,-1370,7565.0
5570,0.3561271131038666,-45.27372360229492,-758,7489.0,-43.892372131347656,-441,7565.0
5580,0.3601248860359192,-30.40654945373535,-385,7489.0,-4.711698532104492,117,7565.0
5590,0.35940420627593994,-2.451251745223999,101,7489.0,43.12879943847656,917,7565.0
5600,0.3625120520591736,20.004940032958984,357,7489.0,88.61885833740234,1612,7565.0
5610,0.3634291887283325,29.200700759887695,506,7489.0,130.81771850585938,2407,7565.0
5620,0.36439278721809387,23.036705017089844,229,7489.0,161.6241455078125,2738,7565.0
5630,0.36116135120391846,0.06603975594043732,-26,7489.0,176.9269561767578,2707,7565.0
5640,0.36147549748420715,-17.10807228088379,-371,7489.0,168.6000518798828,2530,7565.0
5650,0.3612094223499298,-22.24236488342285,-334,7489.0,140.8094024658203,2131,7565.0
5660,0.3640769124031067,-14.479878425598145,-129,7489.0,107.06813049316406,1548,7565.0
5670,0.3633275330066681,-1.6578776836395264,-28,7489.0,56.42776107788086,852,7565.0
5680,0.35420480370521545,10.74284839630127,81,7489.0,10.746550559997559,-34,7565.0
5690,0.35493940114974976,19.054527282714844,199,7489.0,-45.7409782409668,-952,7565.0
5700,0.35641545057296753,21.412290573120117,264,7489.0,-100.39226531982422,-1957,7565.0
5710,0.35768458247184753,18.762882232666016,421,7489.0,-140.1942138671875,-2615,7565.0
5720,0.3526333272457123,19.967870712280273,418,7489.0,-159.9315948486328,-2768,7565.0
5730,0.35308361053466797,13.7381010055542,171,7489.0,-164.71963500976562,-2674,7565.0
5740,0.35347500443458557,5.113706588745117,11,7489.0,-149.5919647216797,-2357,7565.0
5750,0.35530513525009155,-9.482316017150879,-306,7489.0,-119.22303009033203,-1576,7565.0
5760,0.3542228639125824,-24.877870559692383,-499,7489.0,-78.60466766357422,-1009,7565.0
5770,0.35460466146469116,-27.211626052856445,-438,7489.0,-25.85203742980957,-124,7565.0
5780,0.356455534696579,-25.40412139892578,-348,7489.0,18.704252243041992,564,7565.0
5790,0.35738393664360046,-9.853286743164062,-53,7489.0,62.99542236328125,1426,7565.0
5800,0.3583928644657135,6.473926544189453,127,7489.0,102.64593505859375,1853,7565.0
5810,0.3595244288444519,14.136244773864746,241,7489.0,125.5790786743164,1959,7565.0
5820,0.3596707582473755,10.251577377319336,238,7489.0,123.29420471191406,1800,7565.0
5830,0.36056017875671387,6.695201396942139,80,7489.0,102.20767211914062,1456,7565.0
5840,0.3602290153503418,-4.998878002166748,-186,7489.0,73.35847473144531,926,7565.0
5850,0.3543141186237335,-13.736456871032715,-288,7489.0,30.78605079650879,307,7565.0
5860,0.35445818305015564,-16.339506149291992,-246,7489.0,-13.380805015563965,-323,7565.0
5870,0.3550627529621124,-5.98688268661499,-87,7489.0,-47.622188568115234,-814,7565.0
5880,0.3556310534477234,9.693971633911133,115,7489.0,-80.010986328125,-1339,7565.0
5890,0.3560219705104828,22.267112731933594,438,7489.0,-98.51554870605469,-1661,7565.0
5900,0.34926334023475647,33.13831329345703,650,7489.0,-103.39057922363281,-1793,7565.0
5910,0.3505723476409912,38.47883224487305,532,7489.0,-93.65848541259766,-1488,7565.0
5920,0.35022181272506714,20.351470947265625,236,7489.0,-79.04402160644531,-1233,7565.0
5930,0.3501061499118805,-10.494325637817383,-275,7489.0,-52.48993682861328,-687,7565.0
5940,0.35184839367866516,-40.315101623535156,-722,7489.0,-20.6726016998291,-335,7565.0
5950,0.35234054923057556,-45.9593505859375,-704,7489.0,18.156435012817383,674,7565.0
5960,0.3525358736515045,-29.365039825439453,-417,7489.0,70.43023681640625,1398,7565.0
5970,0.35393226146698,-11.44471263885498,-99,7489.0,115.89547729492188,1982,7565.0
5980,0.35312753915786743,2.4538631439208984,32,7489.0,142.799560546875,2414,7565.0
5990,0.35321518778800964,15.232111930847168,443,7489.0,159.17686462402344,2550,7565.0
6000,0.3524159789085388,24.976585388183594,431,7489.0,158.02503967285156,2427,7565.0
6010,0.3502854108810425,23.749361038208008,404,7489.0,136.0414276123047,2012,7565.0
6020,0.34872689843177795,19.568452835083008,370,7489.0,96.14493560791016,1300,7565.0
6030,0.34272903203964233,18.64410400390625,179,7489.0,39.093101501464844,472,7565.0
6040,0.3404805064201355,10.671366691589355,41,7489.0,-13.408951759338379,-296,7565.0
6050,0.33872413635253906,5.928577899932861,-78,7489.0,-56.73627471923828,-920,7565.0
6060,0.338280588388443,-6.490291595458984,-260,7489.0,-96.39730072021484,-1674,7565.0
6070,0.3325486481189728,-16.692218780517578,-256,7489.0,-130.65155029296875,-2293,7565.0
6080,0.33023664355278015,-23.320955276489258,-380,7489.0,-157.34202575683594,-2593,7565.0
6090,0.3284468352794647,-20.579147338867188,-386,7489.0,-160.02377319335938,-2370,7565.0
6100,0.3265422582626343,-18.99359893798828,-299,7489.0,-138.69078063964844,-2118,7565.0
6110,0.32421478629112244,-14.90295124053955,-148,7489.0,-101.24024963378906,-1346,7565.0
6120,0.326097309589386,4.390141487121582,95,7489.0,-57.63273620605469,-724,7565.0
6130,0.3256933391094208,15.389541625976562,265,7489.0,-0.27403172850608826,300,7565.0
6140,0.3246477544307709,16.461984634399414,257,7489.0,53.200374603271484,1108,7565.0
6150,0.3234393000602722,17.733484268188477,296,7489.0,89.82865142822266,1426,7565.0
6160,0.3258959949016571,18.362598419189453,250,7489.0,109.0685806274414,1803,7565.0
6170,0.3240181803703308,13.585429191589355,193,7489.0,114.16873168945312,1770,7565.0
6180,0.32138076424598694,12.057485580444336,176,7489.0,98.69214630126953,1518,7565.0
6190,0.3186074495315552,7.125816345214844,92,7489.0,69.40545654296875,1086,7565.0
6200,0.3156563937664032,3.907735586166382,-65,7489.0,33.81643295288086,431,7565.0
6210,0.3135014474391937,-6.781179904937744,-259,7489.0,-9.565646171569824,-388,7565.0
6220,0.3118460178375244,-18.489681243896484,-390,7489.0,-56.776554107666016,-1164,7565.0
6230,0.31021785736083984,-29.983707427978516,-490,7489.0,-98.83938598632812,-1779,7565.0
6240,0.3078770935535431,-38.0192985534668,-568,7489.0,-133.418212890625,-2421,7565.0
6250,0.3037083148956299,-39.95021438598633,-634,7489.0,-159.74119567871094,-2524,7565.0
6260,0.30437347292900085,-27.329132080078125,-442,7489.0,-155.8902587890625,-2372,7565.0
6270,0.3004974126815796,-14.381399154663086,-203,7489.0,-120.98204803466797,-1822,7565.0
6280,0.3018780052661896,2.7798805236816406,205,7489.0,-70.92677307128906,-1051,7565.0
6290,0.29952022433280945,12.0485200881958,294,7489.0,-24.88243865966797,-51,7565.0
6300,0.2995374798774719,20.44833755493164,330,7489.0,25.99505043029785,582,7565.0
6310,0.29770371317863464,21.837106704711914,429,7489.0,64.439453125,1291,7565.0
6320,0.29538339376449585,19.68734359741211,260,7489.0,96.43641662597656,1891,7565.0
6330,0.2932133376598358,12.16720199584961,130,7489.0,117.39839172363281,1900,7565.0
6340,0.287853866815567,3.3417792320251465,152,7489.0,120.56668853759766,1888,7565.0
6350,0.28496408462524414,-1.1423735618591309,-86,7489.0,107.13365173339844,1650,7565.0
6360,0.28374049067497253,-8.711954116821289,-184,7489.0,85.24510955810547,1178,7565.0
6370,0.28175225853919983,-8.486578941345215,-173,7489.0,51.40695571899414,645,7565.0
6380,0.2743864953517914,-14.8670072555542,-311,7489.0,14.505520820617676,12,7565.0
6390,0.2725313603878021,-16.04770851135254,-344,7489.0,-18.598854064941406,-379,7565.0
6400,0.27129849791526794,-20.180837631225586,-454,7489.0,-50.67730712890625,-821,7565.0
6410,0.2701001465320587,-20.001543045043945,-372,7489.0,-72.98269653320312,-1275,7565.0
6420,0.2626514732837677,-11.988200187683105,-116,7489.0,-89.95571899414062,-1670,7565.0
6430,0.26013708114624023,-1.7824236154556274,120,7489.0,-101.50686645507812,-1676,7565.0
6440,0.2605339288711548,12.02715015411377,218,7489.0,-101.50765228271484,-1667,7565.0
6450,0.2566344439983368,20.382511138916016,379,7489.0,-86.85794830322266,-1225,7565.0
6460,0.25298425555229187,23.20065689086914,335,7489.0,-50.707008361816406,-509,7565.0
6470,0.2519645392894745,18.403841018676758,221,7489.0,4.91261625289917,430,7565.0
6480,0.2540035843849182,13.008196830749512,176,7489.0,73.76541137695312,1383,7565.0
6490,0.25649961829185486,7.784611225128174,86,7489.0,126.05919647216797,2095,7565.0
6500,0.2561595141887665,0.6148081421852112,-45,7489.0,152.97019958496094,2539,7565.0
6510,0.2522350251674652,-2.0023279190063477,45,7489.0,161.16751098632812,2563,7565.0
6520,0.2531376779079437,1.8824236392974854,-17,7489.0,148.0499267578125,2380,7565.0
6530,0.2537950277328491,7.406198024749756,214,7489.0,119.95213317871094,1721,7565.0
6540,0.25242695212364197,13.076922416687012,241,7489.0,87.34332275390625,1267,7565.0
6550,0.24585279822349548,13.016291618347168,131,7489.0,48.59345245361328,657,7565.0
6560,0.24466882646083832,6.0345330238342285,31,7489.0,9.14026165008545,7,7565.0
6570,0.24311061203479767,-3.742323160171509,-1,7489.0,-21.023405075073242,-464,7565.0
6580,0.24114355444908142,-4.4636454582214355,-101,7489.0,-41.27060317993164,-650,7565.0
6590,0.23947583138942719,-2.6035749912261963,32,7489.0,-46.65880584716797,-900,7565.0
6600,0.23474392294883728,3.181809663772583,76,7489.0,-46.23714828491211,-701,7565.0
6610,0.23399344086647034,12.347061157226562,252,7489.0,-36.668766021728516,-439,7565.0
6620,0.23369890451431274,23.997081756591797,349,7489.0,-21.245500564575195,-240,7565.0
6630,0.2328702062368393,27.78392219543457,411,7489.0,-2.249945640563965,52,7565.0
6640,0.23065274953842163,30.35496711730957,531,7489.0,21.468738555908203,474,7565.0
6650,0.23018600046634674,32.34639358520508,604,7489.0,50.48893737792969,912,7565.0
6660,0.23039983212947845,30.689632415771484,517,7489.0,88.12035369873047,1504,7565.0
6670,0.22991052269935608,20.769203186035156,264,7489.0,106.4908447265625,1807,7565.0
6680,0.22789914906024933,9.035058975219727,134,7489.0,110.5586929321289,1852,7565.0
6690,0.22973482310771942,-0.46300381422042847,-123,7489.0,104.83245849609375,1572,7565.0
6700,0.22896051406860352,-13.592427253723145,-250,7489.0,88.06536865234375,1463,7565.0
6710,0.22791852056980133,-25.749345779418945,-490,7489.0,61.79795455932617,728,7565.0
6720,0.22705207765102386,-30.80557632446289,-502,7489.0,27.753713607788086,227,7565.0
6730,0.22350545227527618,-27.59729766845703,-337,7489.0,-12.232213020324707,-480,7565.0
6740,0.22241367399692535,-16.230871200561523,-293,7489.0,-48.62106704711914,-931,7565.0
6750,0.22171829640865326,-7.175390243530273,21,7489.0,-78.72625732421875,-1241,7565.0
6760,0.22019095718860626,1.5402929782867432,-27,7489.0,-94.70903015136719,-1720,7565.0
6770,0.21927858889102936,2.1717076301574707,82,7489.0,-98.33572387695312,-1556,7565.0
6780,0.21918341517448425,4.7975077629089355,39,7489.0,-87.5425033569336,-1338,7565.0
6790,0.2177509069442749,6.483087062835693,238,7489.0,-62.86254119873047,-845,7565.0
6800,0.21669170260429382,10.414817810058594,167,7489.0,-30.787439346313477,-252,7565.0
6810,0.21803069114685059,11.284974098205566,220,7489.0,-4.838361740112305,36,7565.0
6820,0.21746429800987244,14.344656944274902,330,7489.0,22.671945571899414,513,7565.0
6830,0.21776257455348969,18.18324851989746,225,7489.0,38.753604888916016,840,7565.0
6840,0.2177666574716568,15.749303817749023,313,7489.0,55.86603927612305,856,7565.0
6850,0.21776613593101501,13.285932540893555,201,7489.0,60.38774108886719,1055,7565.0
6860,0.21406644582748413,7.523489475250244,119,7489.0,56.19261932373047,724,7565.0
6870,0.21395809948444366,1.479435920715332,11,7489.0,46.76262283325195,702,7565.0
6880,0.21352440118789673,-4.1560139656066895,-146,7489.0,24.3821964263916,258,7565.0
6890,0.21401499211788177,-7.416560173034668,-110,7489.0,-0.4546154737472534,-45,7565.0
6900,0.21090133488178253,-8.879737854003906,-77,7489.0,-28.037757873535156,-621,7565.0
6910,0.2101973593235016,-12.182745933532715,-238,7489.0,-43.68660354614258,-750,7565.0
6920,0.20909364521503448,-16.735307693481445,-256,7489.0,-49.00251770019531,-865,7565.0
6930,0.2082078754901886,-18.09130096435547,-372,7489.0,-46.32833480834961,-665,7565.0
6940,0.20690171420574188,-18.78463363647461,-250,7489.0,-34.70558166503906,-554,7565.0
6950,0.2045067697763443,-15.839101791381836,-229,7489.0,-23.573274612426758,-146,7565.0
6960,0.20333419740200043,-10.616909980773926,-198,7489.0,-6.143382549285889,-34,7565.0
6970,0.202643483877182,-3.991159200668335,-33,7489.0,7.912138938903809,290,7565.0
6980,0.20238718390464783,0.931433379650116,-30,7489.0,18.008907318115234,315,7565.0
6990,0.20143738389015198,1.9392549991607666,46,7489.0,17.95108413696289,452,7565.0
7000,0.20066796243190765,3.977372407913208,163,7489.0,14.81325626373291,146,7565.0
7010,0.20002219080924988,6.648252010345459,118,7489.0,11.413774490356445,263,7565.0
7020,0.19955109059810638,12.78343391418457,311,7489.0,15.591316223144531,274,7565.0
7030,0.2013925313949585,14.90774154663086,221,7489.0,16.02149200439453,63,7565.0
7040,0.2016380876302719,12.635187149047852,177,7489.0,9.512020111083984,273,7565.0
7050,0.2021285742521286,-2.151702404022217,-89,7489.0,8.789057731628418,31,7565.0
7060,0.20228397846221924,-12.096592903137207,-227,7489.0,6.139975070953369,65,7565.0
7070,0.20312537252902985,-19.67682456970215,-303,7489.0,1.8004852533340454,-151,7565.0
7080,0.20361469686031342,-20.806522369384766,-424,7489.0,-7.418614864349365,-36,7565.0
7090,0.20440052449703217,-16.211294174194336,-145,7489.0,-13.168081283569336,-275,7565.0
7100,0.20489558577537537,-7.131111145019531,-116,7489.0,-17.414915084838867,-216,7565.0
7110,0.2053668051958084,-2.7691638469696045,-23,7489.0,-18.036346435546875,-262,7565.0
7120,0.20617766678333282,2.4601147174835205,93,7489.0,-18.432170867919922,-375,7565.0
7130,0.20661070942878723,4.331573486328125,26,7489.0,-17.602081298828125,-110,7565.0
7140,0.20725660026073456,4.195706844329834,163,7489.0,-9.61619758605957,-144,7565.0
7150,0.20810860395431519,6.092752456665039,72,7489.0,-3.069465160369873,32,7565.0
7160,0.20973989367485046,8.603362083435059,231,7489.0,3.352339267730713,83,7565.0
7170,0.209806427359581,10.65347671508789,112,7489.0,4.769953727722168,227,7565.0
7180,0.21012796461582184,12.828423500061035,282,7489.0,7.795856475830078,150,7565.0
7190,0.21104292571544647,13.139545440673828,147,7489.0,17.631956100463867,433,7565.0
7200,0.21304264664649963,8.806540489196777,188,7489.0,28.119701385498047,461,7565.0
7210,0.21359728276729584,3.0593209266662598,-48,7489.0,39.542686462402344,778,7565.0
7220,0.21413807570934296,-6.2637834548950195,-156,7489.0,40.72016525268555,604,7565.0
7230,0.21527139842510223,-6.464791774749756,-90,7489.0,36.74152374267578,581,7565.0
7240,0.215932235121727,-5.742285251617432,-63,7489.0,21.907522201538086,143,7565.0
7250,0.2185084968805313,-1.0951722860336304,-15,7489.0,2.6681277751922607,-7,7565.0
7260,0.218877375125885,8.862157821655273,273,7489.0,-14.027013778686523,-257,7565.0
7270,0.2193262130022049,15.433241844177246,219,7489.0,-26.572988510131836,-519,7565.0
7280,0.21940834820270538,13.339211463928223,221,7489.0,-32.936798095703125,-545,7565.0
7290,0.219301238656044,7.647281646728516,-14,7489.0,-26.712100982666016,-344,7565.0
7300,0.21734954416751862,-1.0500038862228394,23,7489.0,-11.17933177947998,-55,7565.0
7310,0.21714600920677185,-8.045245170593262,-209,7489.0,5.03882360458374,228,7565.0
7320,0.2172037810087204,-16.53624725341797,-231,7489.0,19.278339385986328,269,7565.0
7330,0.21702536940574646,-16.044414520263672,-318,7489.0,28.309553146362305,505,7565.0
7340,0.21586664021015167,-14.525506019592285,-146,7489.0,29.972660064697266,516,7565.0
7350,0.21608982980251312,-6.399585247039795,-145,7489.0,22.161022186279297,296,7565.0
7360,0.21577732264995575,0.6236801743507385,101,7489.0,11.47075080871582,193,7565.0
7370,0.2154761403799057,8.436875343322754,188,7489.0,-0.009917212650179863,-127,7565.0
7380,0.21912787854671478,16.208484649658203,222,7489.0,-4.188236236572266,-57,7565.0
7390,0.2187935709953308,24.647987365722656,459,7489.0,2.0710034370422363,188,7565.0
7400,0.2189314365386963,27.644691467285156,418,7489.0,17.329238891601562,278,7565.0
7410,0.2203434407711029,28.008451461791992,446,7489.0,34.5224723815918,689,7565.0
7420,0.2208751142024994,30.56215476989746,498,7489.0,45.225154876708984,730,7565.0
7430,0.22382408380508423,17.80027198791504,154,7489.0,48.0560188293457,758,7565.0
7440,0.22445549070835114,-1.5590142011642456,-111,7489.0,48.31756591796875,833,7565.0
7450,0.2247852236032486,-22.771635055541992,-459,7489.0,37.6162223815918,474,7565.0
7460,0.2250794917345047,-37.90537643432617,-726,7489.0,22.280200958251953,271,7565.0
7470,0.2269882708787918,-39.13198471069336,-558,7489.0,6.270632743835449,131,7565.0
7480,0.22734013199806213,-26.94816017150879,-346,7489.0,-4.369664669036865,-276,7565.0
7490,0.22731174528598785,-8.219134330749512,-69,7489.0,-22.8652400970459,-562,7565.0
7500,0.22727659344673157,10.934836387634277,248,7489.0,-35.102657318115234,-573,7565.0
7510,0.22708867490291595,25.228717803955078,431,7489.0,-41.375511169433594,-696,7565.0
7520,0.22556641697883606,27.983383178710938,435,7489.0,-43.41522979736328,-703,7565.0
7530,0.22517098486423492,31.072126388549805,532,7489.0,-36.233089447021484,-508,7565.0
7540,0.22486676275730133,27.112468719482422,377,7489.0,-24.5683650970459,-380,7565.0
7550,0.2259930670261383,14.726948738098145,244,7489.0,-10.329992294311523,-126,7565.0
7560,0.22573979198932648,-0.7437040209770203,-121,7489.0,4.500158786773682,264,7565.0
7570,0.22623032331466675,-16.521093368530273,-313,7489.0,18.199413299560547,276,7565.0
7580,0.22729834914207458,-20.616044998168945,-368,7489.0,30.82952308654785,605,7565.0
7590,0.2278071641921997,-21.32465934753418,-313,7489.0,28.767919540405273,407,7565.0
7600,0.23171713948249817,-18.803070068359375,-417,7489.0,24.650115966796875,452,7565.0
7610,0.23287151753902435,-20.643938064575195,-308,7489.0,18.24433135986328,295,7565.0
7620,0.2341398447751999,-19.491512298583984,-364,7489.0,17.776470184326172,295,7565.0
7630,0.23541374504566193,-10.825496673583984,-84,7489.0,20.81350326538086,414,7565.0
7640,0.23658834397792816,-2.71610164642334,-36,7489.0,18.512479782104492,198,7565.0
7650,0.23370538651943207,-2.794067859649658,-121,7489.0,4.516663551330566,-34,7565.0
7660,0.23471133410930634,-4.678362846374512,-8,7489.0,-14.294644355773926,-341,7565.0
7670,0.2356860488653183,-6.6118483543396,-73,7489.0,-34.845741271972656,-786,7565.0
7680,0.23675084114074707,-9.135956764221191,-151,7489.0,-52.61483383178711,-799,7565.0
7690,0.23649145662784576,-11.950591087341309,-167,7489.0,-56.91862487792969,-993,7565.0
7700,0.23731881380081177,-13.261645317077637,-213,7489.0,-55.23785400390625,-783,7565.0
7710,0.23803921043872833,-11.768688201904297,-187,7489.0,-46.257205963134766,-732,7565.0
7720,0.2404412031173706,-8.434249877929688,-97,7489.0,-35.94401550292969,-420,7565.0
7730,0.23819562792778015,-3.1808059215545654,-7,7489.0,-22.454748153686523,-435,7565.0
7740,0.23908019065856934,3.5726280212402344,138,7489.0,-10.012133598327637,-151,7565.0
7750,0.24020305275917053,11.753910064697266,175,7489.0,14.7034273147583,371,7565.0
7760,0.24159666895866394,9.505010604858398,164,7489.0,33.360172271728516,489,7565.0
7770,0.24282187223434448,0.9719797968864441,-139,7489.0,36.731666564941406,539,7565.0
7780,0.2439373880624771,-11.120274543762207,-217,7489.0,29.079116821289062,375,7565.0
7790,0.24530081450939178,-16.261211395263672,-299,7489.0,22.973535537719727,338,7565.0
7800,0.24672214686870575,-14.388633728027344,-215,7489.0,14.883401870727539,191,7565.0
7810,0.24762754142284393,-6.121225357055664,-6,7489.0,1.6864781379699707,-69,7565.0
7820,0.24332399666309357,6.873936653137207,106,7489.0,-12.762242317199707,-177,7565.0
7830,0.24431855976581573,18.24041175842285,386,7489.0,-27.759679794311523,-570,7565.0
7840,0.2451964169740677,19.142160415649414,208,7489.0,-40.53585433959961,-639,7565.0
7850,0.24550937116146088,8.378067016601562,111,7489.0,-49.35103988647461,-957,7565.0
7860,0.24576814472675323,-3.0578160285949707,-111,7489.0,-55.705726623535156,-823,7565.0
7870,0.24861036241054535,-12.355957984924316,-204,7489.0,-56.61383819580078,-993,7565.0
7880,0.2490449845790863,-19.4329833984375,-285,7489.0,-49.24155044555664,-766,7565.0
7890,0.24937480688095093,-22.710546493530273,-436,7489.0,-33.339630126953125,-421,7565.0
7900,0.2494400590658188,-21.013263702392578,-254,7489.0,-8.425936698913574,-52,7565.0
7910,0.24722015857696533,-21.476036071777344,-394,7489.0,26.908283233642578,656,7565.0
7920,0.24777501821517944,-20.86113929748535,-312,7489.0,49.33757019042969,767,7565.0
7930,0.24810655415058136,-16.41261863708496,-237,7489.0,57.97636413574219,1057,7565.0
7940,0.24851982295513153,-4.856770992279053,69,7489.0,63.75274658203125,1011,7565.0
7950,0.24590635299682617,9.169066429138184,143,7489.0,60.443092346191406,823,7565.0
7960,0.2468627542257309,14.700739860534668,217,7489.0,44.51078414916992,722,7565.0
7970,0.24713505804538727,17.34616470336914,313,7489.0,23.146608352661133,218,7565.0
7980,0.24734896421432495,11.773903846740723,101,7489.0,2.2074360847473145,-97,7565.0
7990,0.2488805055618286,-4.13278865814209,-120,7489.0,-13.175933837890625,-203,7565.0
8000,0.25192609429359436,-18.304821014404297,-287,7489.0,-25.19493865966797,-527,7565.0
8010,0.25243204832077026,-20.966190338134766,-386,7489.0,-36.148460388183594,-625,7565.0
8020,0.25286972522735596,-17.376094818115234,-193,7489.0,-43.890140533447266,-713,7565.0
8030,0.2530103623867035,-9.84498405456543,-163,7489.0,-35.09507369995117,-576,7565.0
8040,0.2509467303752899,-5.191165924072266,-52,7489.0,-18.01435661315918,-127,7565.0
8050,0.2512630522251129,-3.322476863861084,-75,7489.0,-2.6684210300445557,14,7565.0
8060,0.2518692910671234,4.74017858505249,151,7489.0,14.639719009399414,400,7565.0
8070,0.2520695626735687,12.532814979553223,239,7489.0,26.546493530273438,434,7565.0
8080,0.2520546615123749,22.029569625854492,394,7489.0,33.61164474487305,656,7565.0
8090,0.2530275881290436,29.676259994506836,594,7489.0,38.78970718383789,532,7565.0
8100,0.2537026107311249,32.84513473510742,437,7489.0,32.29106140136719,500,7565.0
8110,0.2543999254703522,23.98154640197754,451,7489.0,32.283138275146484,593,7565.0
8120,0.25522610545158386,22.046127319335938,271,7489.0,36.57434844970703,526,7565.0
8130,0.25652143359184265,14.336944580078125,203,7489.0,31.49822998046875,598,7565.0
8140,0.2571053206920624,4.384917736053467,-24,7489.0,26.72544288635254,385,7565.0
8150,0.2575628459453583,-8.431295394897461,-207,7489.0,16.724687576293945,272,7565.0
8160,0.25782546401023865,-23.799863815307617,-412,7489.0,3.118457078933716,-86,7565.0
8170,0.26094934344291687,-29.56166648864746,-544,7489.0,-14.172160148620605,-199,7565.0
8180,0.2614549994468689,-27.78899383544922,-360,7489.0,-20.46622085571289,-343,7565.0
8190,0.26160353422164917,-16.433639526367188,-262,7489.0,-22.766332626342773,-405,7565.0
8200,0.2618638277053833,-4.297940254211426,41,7489.0,-22.801816940307617,-311,7565.0
8210,0.26289230585098267,10.385677337646484,277,7489.0,-15.727295875549316,-282,7565.0
8220,0.2637627422809601,24.81278419494629,525,7489.0,-10.869648933410645,-150,7565.0
8230,0.26432597637176514,35.12276840209961,550,7489.0,-4.588625431060791,-12,7565.0
8240,0.2647755742073059,39.47734451293945,763,7489.0,4.2223734855651855,128,7565.0
8250,0.26578497886657715,41.175270080566406,558,7489.0,17.4556827545166,489,7565.0
8260,0.2661410868167877,31.946500778198242,506,7489.0,41.531742095947266,719,7565.0
8270,0.26672041416168213,11.659904479980469,67,7489.0,57.67512130737305,1115,7565.0
8280,0.2671501934528351,-16.375268936157227,-375,7489.0,65.208984375,950,7565.0
8290,0.2678614854812622,-38.48954391479492,-640,7489.0,59.53821563720703,984,7565.0
8300,0.2703181505203247,-41.5872802734375,-624,7489.0,42.59658432006836,485,7565.0
8310,0.2710901200771332,-33.90229034423828,-538,7489.0,12.850581169128418,21,7565.0
8320,0.27127155661582947,-15.242033004760742,-120,7489.0,-10.918182373046875,-173,7565.0
8330,0.2725774645805359,7.219943523406982,229,7489.0,-21.821186065673828,-508,7565.0
8340,0.27271997928619385,20.251758575439453,363,7489.0,-32.37899398803711,-543,7565.0
8350,0.2758602499961853,22.72962188720703,391,7489.0,-42.344871520996094,-778,7565.0
8360,0.2761891186237335,12.282035827636719,67,7489.0,-46.848915100097656,-737,7565.0
8370,0.2763555347919464,-4.607694625854492,-157,7489.0,-43.69569778442383,-748,7565.0
8380,0.276845246553421,-17.11717414855957,-299,7489.0,-44.64412307739258,-713,7565.0
8390,0.2771678566932678,-20.95595359802246,-428,7489.0,-40.75592803955078,-639,7565.0
8400,0.27724218368530273,-27.474205017089844,-403,7489.0,-34.201324462890625,-493,7565.0
8410,0.27744072675704956,-27.159852981567383,-480,7489.0,-23.38604736328125,-255,7565.0
8420,0.277541846036911,-17.6873722076416,-201,7489.0,-4.926443576812744,15,7565.0
8430,0.2779605984687805,-3.2647502422332764,14,7489.0,21.30225944519043,558,7565.0
8440,0.27897676825523376,8.052051544189453,95,7489.0,42.9791259765625,894,7565.0
8450,0.2791505455970764,10.985937118530273,186,7489.0,47.585262298583984,671,7565.0
8460,0.2793169319629669,2.5063259601593018,-53,7489.0,41.24062728881836,732,7565.0
8470,0.2792065143585205,-1.7516762018203735,51,7489.0,32.77532196044922,437,7565.0
8480,0.2818414568901062,3.581688642501831,28,7489.0,23.850204467773438,372,7565.0
8490,0.2820320427417755,6.223143100738525,128,7489.0,12.47620677947998,11,7565.0
8500,0.28214648365974426,0.9503111839294434,-22,7489.0,-11.683152198791504,-232,7565.0
8510,0.28223758935928345,-9.494797706604004,-178,7489.0,-31.470603942871094,-749,7565.0
8520,0.2841835021972656,-19.005773544311523,-324,7489.0,-49.01688766479492,-770,7565.0
8530,0.28425535559654236,-22.355819702148438,-359,7489.0,-55.61996841430664,-990,7565.0
8540,0.2843018174171448,-18.030317306518555,-217,7489.0,-57.935020446777344,-901,7565.0
8550,0.2841573655605316,-10.631438255310059,-205,7489.0,-51.501983642578125,-765,7565.0
8560,0.2848575711250305,-4.037171363830566,10,7489.0,-35.01764678955078,-577,7565.0
8570,0.28553205728530884,3.7963085174560547,76,7489.0,-16.030622482299805,-84,7565.0
8580,0.28558021783828735,9.15213394165039,140,7489.0,2.7056193351745605,15,7565.0
8590,0.2857271134853363,12.000261306762695,263,7489.0,12.293323516845703,289,7565.0
8600,0.2860449552536011,9.089016914367676,50,7489.0,25.084470748901367,468,7565.0
8610,0.2871292233467102,-4.391055107116699,-141,7489.0,26.905399322509766,355,7565.0
8620,0.28747233748435974,-12.695611953735352,-247,7489.0,29.626243591308594,585,7565.0
8630,0.2878115773200989,-10.014445304870605,-121,7489.0,39.05718231201172,671,7565.0
8640,0.2881183922290802,0.07521720975637436,7,7489.0,51.974098205566406,968,7565.0
8650,0.2880738079547882,7.312142372131348,181,7489.0,58.07289505004883,864,7565.0
8660,0.2903729975223541,0.9105046391487122,-70,7489.0,34.63898468017578,391,7565.0
8670,0.29048559069633484,-8.825247764587402,-150,7489.0,-4.2241010665893555,-189,7565.0
8680,0.2908174693584442,-12.998788833618164,-201,7489.0,-43.9319953918457,-893,7565.0
8690,0.29135560989379883,-16.545242309570312,-363,7489.0,-74.37532043457031,-1383,7565.0
8700,0.29395681619644165,-7.849484443664551,-88,7489.0,-91.57363891601562,-1489,7565.0
8710,0.2940797805786133,8.799283981323242,276,7489.0,-95.52325439453125,-1559,7565.0
8720,0.29407012462615967,27.258832931518555,445,7489.0,-83.65804290771484,-1197,7565.0
8730,0.2946079969406128,37.50288391113281,751,7489.0,-57.521644592285156,-794,7565.0
8740,0.29523545503616333,37.86973190307617,500,7489.0,-19.594877243041992,-103,7565.0
8750,0.2955741882324219,29.218456268310547,491,7489.0,16.380090713500977,357,7565.0
8760,0.29679006338119507,16.30253791809082,188,7489.0,36.632965087890625,667,7565.0
8770,0.29772233963012695,0.2904064953327179,-150,7489.0,39.472999572753906,575,7565.0
8780,0.29870498180389404,-28.12944984436035,-587,7489.0,45.13371658325195,855,7565.0
8790,0.2999490797519684,-55.87092590332031,-993,7489.0,48.5745964050293,600,7565.0
8800,0.3008827269077301,-60.47208023071289,-945,7489.0,34.248870849609375,619,7565.0
8810,0.3017845153808594,-42.83328628540039,-514,7489.0,30.471805572509766,460,7565.0
8820,0.3028390407562256,-6.082108497619629,40,7489.0,27.444416046142578,294,7565.0
8830,0.30363452434539795,30.816381454467773,737,7489.0,16.02964973449707,288,7565.0
8840,0.3041357696056366,63.240726470947266,1150,7489.0,0.20054860413074493,-123,7565.0
8850,0.30472901463508606,67.38163757324219,978,7489.0,-9.127168655395508,-111,7565.0
8860,0.30594339966773987,47.4959716796875,699,7489.0,-14.036683082580566,-317,7565.0
8870,0.30594879388809204,16.649978637695312,86,7489.0,-28.863677978515625,-429,7565.0
8880,0.30866411328315735,-6.76699686050415,-185,7489.0,-34.9498291015625,-652,7565.0
8890,0.30910009145736694,-21.124588012695312,-346,7489.0,-35.70046615600586,-539,7565.0
8900,0.3094627559185028,-20.18267822265625,-347,7489.0,-27.60684585571289,-330,7565.0
8910,0.30997005105018616,-13.112318992614746,-136,7489.0,-14.199775695800781,-194,7565.0
8920,0.30973657965660095,-11.845318794250488,-277,7489.0,5.638533115386963,247,7565.0
8930,0.310142457485199,-14.548028945922852,-334,7489.0,26.184452056884766,558,7565.0
8940,0.31084737181663513,-15.843029022216797,-181,7489.0,36.12294006347656,582,7565.0
8950,0.3114319145679474,-16.9064884185791,-313,7489.0,38.55723190307617,651,7565.0
8960,0.3116495907306671,-21.34042739868164,-294,7489.0,40.39243698120117,663,7565.0
8970,0.3121184706687927,-14.540801048278809,-171,7489.0,42.83668899536133,711,7565.0
8980,0.3127676844596863,-12.396622657775879,-279,7489.0,36.045249938964844,449,7565.0
8990,0.3132736086845398,-6.924589157104492,24,7489.0,22.716175079345703,271,7565.0
9000,0.31345677375793457,7.754757404327393,204,7489.0,14.647661209106445,231,7565.0
9010,0.31475934386253357,26.567745208740234,546,7489.0,12.558511734008789,100,7565.0
9020,0.3149856626987457,35.21229553222656,593,7489.0,-6.286935329437256,-264,7565.0
9030,0.3151262402534485,35.700618743896484,524,7489.0,-31.85223388671875,-679,7565.0
9040,0.31518229842185974,26.78343391418457,439,7489.0,-43.71015930175781,-813,7565.0
9050,0.3146120309829712,15.990228652954102,204,7489.0,-47.133453369140625,-690,7565.0
9060,0.31440383195877075,5.011202335357666,-15,7489.0,-38.53034210205078,-526,7565.0
9070,0.3144376575946808,-5.671842098236084,-201,7489.0,-18.832008361816406,-169,7565.0
9080,0.3140261471271515,-12.409249305725098,-174,7489.0,4.101939678192139,243,7565.0
9090,0.31399619579315186,-9.883402824401855,-25,7489.0,25.976585388183594,481,7565.0
9100,0.3139182925224304,-6.182399272918701,-27,7489.0,38.56904602050781,584,7565.0
9110,0.31357094645500183,-9.004117012023926,-217,7489.0,39.1198616027832,582,7565.0
9120,0.31328442692756653,-13.971107482910156,-301,7489.0,33.70585632324219,587,7565.0
9130,0.31309857964515686,-20.321950912475586,-339,7489.0,22.55723762512207,198,7565.0
9140,0.31022754311561584,-26.611108779907227,-384,7489.0,8.176875114440918,23,7565.0
9150,0.30980002880096436,-26.200820922851562,-441,7489.0,-4.012375831604004,35,7565.0
9160,0.30922797322273254,-17.516990661621094,-204,7489.0,0.1833447962999344,-22,7565.0
9170,0.30866897106170654,0.8125203847885132,158,7489.0,10.356632232666016,274,7565.0
9180,0.30805855989456177,18.232572555541992,307,7489.0,11.354782104492188,179,7565.0
9190,0.3075215518474579,19.421674728393555,313,7489.0,1.5596847534179688,-42,7565.0
9200,0.30679354071617126,8.593395233154297,67,7489.0,-2.769801378250122,58,7565.0
9210,0.30615779757499695,-0.8983566164970398,-77,7489.0,2.241861343383789,-27,7565.0
9220,0.3053682744503021,-5.0942535400390625,-34,7489.0,0.07904531806707382,-31,7565.0
9230,0.3032311797142029,-7.349989414215088,-136,7489.0,-6.814536094665527,-140,7565.0
9240,0.3023710250854492,-5.692255973815918,-53,7489.0,-16.237525939941406,-390,7565.0
9250,0.30154263973236084,4.478202819824219,121,7489.0,-23.421175003051758,-336,7565.0
9260,0.3007696866989136,26.788984298706055,546,7489.0,-9.431007385253906,-118,7565.0
9270,0.3008238673210144,49.31450653076172,927,7489.0,10.924208641052246,228,7565.0
9280,0.3001658320426941,47.9674186706543,663,7489.0,24.716472625732422,495,7565.0
9290,0.2995959520339966,21.816347122192383,184,7489.0,28.753658294677734,379,7565.0
9300,0.2990993559360504,-11.170424461364746,-261,7489.0,18.044599533081055,188,7565.0
9310,0.29956966638565063,-43.935546875,-865,7489.0,4.188319683074951,84,7565.0
9320,0.2991761565208435,-64.69343566894531,-1123,7489.0,-10.345974922180176,-306,7565.0
9330,0.2991800904273987,-75.55992126464844,-1314,7489.0,-18.299274444580078,-187,7565.0
9340,0.29908493161201477,-78.68251037597656,-1222,7489.0,-10.713129997253418,-176,7565.0
9350,0.30008578300476074,-59.85660171508789,-946,7489.0,2.9225962162017822,136,7565.0
9360,0.2996273636817932,-28.26994514465332,-219,7489.0,17.339466094970703,394,7565.0
9370,0.3000492751598358,13.97016716003418,341,7489.0,13.78324031829834,125,7565.0
9380,0.30095386505126953,35.825809478759766,574,7489.0,-4.146169185638428,-232,7565.0
9390,0.30124279856681824,40.42512893676758,620,7489.0,-27.430253982543945,-409,7565.0
9400,0.30066174268722534,30.957351684570312,480,7489.0,-35.856109619140625,-642,7565.0
9410,0.3010830879211426,20.75128173828125,266,7489.0,-32.76136016845703,-411,7565.0
9420,0.30154645442962646,19.98250389099121,403,7489.0,-25.65696907043457,-417,7565.0
9430,0.3020284175872803,27.0574951171875,529,7489.0,-3.810945749282837,120,7565.0
9440,0.30284374952316284,45.769493103027344,877,7489.0,24.09763526916504,449,7565.0
9450,0.30338960886001587,60.003570556640625,977,7489.0,44.4314079284668,817,7565.0
9460,0.30404743552207947,56.960777282714844,857,7489.0,47.7272834777832,726,7565.0
9470,0.3048158884048462,42.07265090942383,636,7489.0,35.60428237915039,516,7565.0
9480,0.3064533770084381,26.53256607055664,340,7489.0,17.158708572387695,108,7565.0
9490,0.3066667318344116,5.844497203826904,11,7489.0,-3.4467670917510986,-35,7565.0
9500,0.3079003691673279,-17.0556583404541,-445,7489.0,-13.83743667602539,-292,7565.0
9510,0.30933257937431335,-36.79825210571289,-697,7489.0,-13.407736778259277,-165,7565.0
9520,0.310514360666275,-48.40275573730469,-873,7489.0,-6.178806304931641,-74,7565.0
9530,0.3116881251335144,-54.37318801879883,-872,7489.0,-6.988326549530029,-139,7565.0
9540,0.3132494390010834,-48.60223388671875,-763,7489.0,-7.945012092590332,-90,7565.0
9550,0.3143179416656494,-36.465972900390625,-461,7489.0,-8.423081398010254,-180,7565.0
9560,0.31546521186828613,-22.95793914794922,-358,7489.0,-12.533217430114746,-240,7565.0
9570,0.31625649333000183,-8.228739738464355,37,7489.0,-18.105867385864258,-335,7565.0
9580,0.3176904022693634,21.40789794921875,514,7489.0,-26.549081802368164,-470,7565.0
9590,0.31916138529777527,47.3272705078125,926,7489.0,-34.57196807861328,-559,7565.0
9600,0.3203287124633789,67.6553955078125,1126,7489.0,-27.975982666015625,-356,7565.0
9610,0.32143568992614746,79.21713256835938,1291,7489.0,-24.427669525146484,-494,7565.0
9620,0.3219357132911682,76.79459381103516,1263,7489.0,-22.734378814697266,-347,7565.0
9630,0.3229328691959381,64.65606689453125,947,7489.0,-7.106119632720947,44,7565.0
9640,0.32501333951950073,42.85319519042969,458,7489.0,19.47142219543457,480,7565.0
9650,0.325938880443573,9.730574607849121,-127,7489.0,34.766719818115234,613,7565.0
9660,0.3274706304073334,-29.854028701782227,-700,7489.0,40.11750030517578,573,7565.0
9670,0.32829344272613525,-63.312007904052734,-1066,7489.0,42.68052673339844,649,7565.0
9680,0.3290306627750397,-72.55229949951172,-1205,7489.0,36.619510650634766,594,7565.0
9690,0.3295469880104065,-61.08351135253906,-904,7489.0,22.60248565673828,138,7565.0
9700,0.330317884683609,-39.63955307006836,-423,7489.0,1.141685128211975,-146,7565.0
9710,0.33173543214797974,-5.45799446105957,50,7489.0,-20.762344360351562,-351,7565.0
9720,0.3323921263217926,22.75214195251465,474,7489.0,-41.285221099853516,-782,7565.0
9730,0.3328288495540619,26.447044372558594,388,7489.0,-53.17503356933594,-859,7565.0
9740,0.3333952724933624,22.066526412963867,293,7489.0,-57.34474563598633,-901,7565.0
9750,0.333601713180542,8.709256172180176,107,7489.0,-50.36615753173828,-724,7565.0
9760,0.33083999156951904,-1.5686397552490234,-19,7489.0,-31.20123863220215,-413,7565.0
9770,0.3309752345085144,0.7708167433738708,-19,7489.0,-13.300683975219727,-176,7565.0
9780,0.3310634195804596,5.703518390655518,78,7489.0,2.4138906002044678,140,7565.0
9790,0.33107373118400574,20.057693481445312,378,7489.0,7.605868816375732,168,7565.0
9800,0.32903215289115906,33.2362174987793,577,7489.0,18.038990020751953,305,7565.0
9810,0.32889893651008606,31.338075637817383,495,7489.0,23.07687759399414,324,7565.0
9820,0.32873648405075073,20.029470443725586,311,7489.0,22.1269474029541,349,7565.0
9830,0.32846102118492126,2.7794594764709473,-50,7489.0,23.019256591796875,391,7565.0
9840,0.3258943557739258,-26.535497665405273,-603,7489.0,25.567733764648438,500,7565.0
9850,0.32559913396835327,-54.44533157348633,-1030,7489.0,32.0041389465332,534,7565.0
9860,0.3248162567615509,-70.44232940673828,-1140,7489.0,32.582969665527344,361,7565.0
9870,0.32384246587753296,-67.44943237304688,-963,7489.0,22.56699562072754,355,7565.0
9880,0.32220497727394104,-53.55907440185547,-820,7489.0,8.569930076599121,-61,7565.0
9890,0.320313960313797,-37.02210235595703,-511,7489.0,-15.91416072845459,-280,7565.0
9900,0.31928741931915283,-20.601673126220703,-254,7489.0,-34.31996154785156,-822,7565.0
9910,0.31809332966804504,5.238954544067383,227,7489.0,-53.68577575683594,-874,7565.0
9920,0.31715264916419983,35.024009704589844,674,7489.0,-60.74932861328125,-1108,7565.0
9930,0.31258878111839294,50.09508514404297,880,7489.0,-56.5074348449707,-885,7565.0
9940,0.31143200397491455,49.361656188964844,734,7489.0,-54.25503921508789,-866,7565.0
9950,0.3103052079677582,38.411495208740234,588,7489.0,-51.678035736083984,-880,7565.0
9960,0.309493750333786,24.599058151245117,363,7489.0,-43.49989318847656,-596,7565.0
9970,0.30971860885620117,9.496566772460938,68,7489.0,-17.077533721923828,-105,7565.0
9980,0.3067614734172821,-3.9245059490203857,-151,7489.0,11.831851959228516,362,7565.0
9990,0.30617794394493103,-20.592424392700195,-375,7489.0,39.072879791259766,723,7565.0
10000,0.3057766556739807,-41.35552978515625,-712,7489.0,68.32109832763672,1241,7565.0
10010,0.3049758970737457,-53.39688491821289,-1014,7489.0,82.74530029296875,1354,7565.0
10020,0.3045479357242584,-55.66188430786133,-819,7489.0,75.51085662841797,1238,7565.0
10030,0.3035694658756256,-40.70382308959961,-605,7489.0,59.62249755859375,750,7565.0
10040,0.3026227056980133,-20.623048782348633,-287,7489.0,37.49501419067383,461,7565.0
10050,0.30312982201576233,-6.850128173828125,30,7489.0,9.860871315002441,28,7565.0
10060,0.30284950137138367,8.981740951538086,236,7489.0,-19.045578002929688,-363,7565.0
10070,0.3028649389743805,13.270852088928223,250,7489.0,-45.130794525146484,-851,7565.0
10080,0.3029155135154724,13.598421096801758,162,7489.0,-61.815364837646484,-1051,7565.0
10090,0.30279767513275146,12.115423202514648,194,7489.0,-66.40483856201172,-983,7565.0
10100,0.30281463265419006,8.336766242980957,102,7489.0,-66.18952941894531,-1201,7565.0
10110,0.3017708361148834,9.870064735412598,164,7489.0,-64.91510772705078,-943,7565.0
10120,0.301861047744751,5.495635509490967,41,7489.0,-46.35606002807617,-693,7565.0
10130,0.3030284345149994,-7.142874240875244,-129,7489.0,-15.158514022827148,-41,7565.0
10140,0.3038683831691742,-16.77984619140625,-361,7489.0,21.91822624206543,560,7565.0
10150,0.3044772148132324,-11.025914192199707,-68,7489.0,50.45719909667969,985,7565.0
10160,0.30597788095474243,8.471658706665039,210,7489.0,81.61614227294922,1548,7565.0
10170,0.30729058384895325,26.46036148071289,496,7489.0,94.05848693847656,1600,7565.0
10180,0.30855125188827515,23.706327438354492,333,7489.0,94.25914001464844,1326,7565.0
10190,0.30959200859069824,17.434581756591797,210,7489.0,76.7369613647461,1221,7565.0
10200,0.3114003837108612,13.182113647460938,312,7489.0,55.2379264831543,666,7565.0
10210,0.3135543763637543,15.728073120117188,238,7489.0,17.97113609313965,-34,7565.0
10220,0.3152114748954773,15.888137817382812,148,7489.0,-15.705431938171387,-329,7565.0
10230,0.3170096278190613,5.505674839019775,71,7489.0,-35.382442474365234,-691,7565.0
10240,0.31908905506134033,-0.802436351776123,-132,7489.0,-52.41923522949219,-1006,7565.0
10250,0.32062584161758423,-12.979652404785156,-240,7489.0,-66.99044799804688,-1039,7565.0
10260,0.3221968412399292,-23.152267456054688,-427,7489.0,-65.97086334228516,-1023,7565.0
10270,0.3235901892185211,-25.371673583984375,-338,7489.0,-48.59025573730469,-673,7565.0
10280,0.3234389126300812,-20.958847045898438,-366,7489.0,-22.194652557373047,-99,7565.0
10290,0.3250446617603302,-13.996116638183594,-167,7489.0,1.6980836391448975,84,7565.0
10300,0.32710036635398865,-5.74599552154541,-23,7489.0,12.059708595275879,257,7565.0
10310,0.3285835385322571,2.6658244132995605,-69,7489.0,17.622833251953125,440,7565.0
10320,0.33009788393974304,-4.056112766265869,-84,7489.0,33.048744201660156,497,7565.0
10330,0.32973212003707886,-4.672313213348389,-50,7489.0,48.576961517333984,897,7565.0
10340,0.33076196908950806,-1.9167439937591553,-9,7489.0,52.99789810180664,824,7565.0
10350,0.33159199357032776,3.8825910091400146,81,7489.0,44.529937744140625,808,7565.0
10360,0.33233797550201416,5.746051788330078,106,7489.0,42.5538330078125,694,7565.0
10370,0.33374229073524475,12.293824195861816,238,7489.0,35.27870559692383,505,7565.0
10380,0.3341815173625946,20.54510498046875,422,7489.0,19.53501319885254,201,7565.0
10390,0.33474740386009216,24.039350509643555,373,7489.0,-5.081720352172852,-149,7565.0
10400,0.33520743250846863,19.948001861572266,282,7489.0,-23.440797805786133,-510,7565.0
10410,0.3354506492614746,8.552170753479004,128,7489.0,-37.03541946411133,-621,7565.0
10420,0.33812516927719116,-1.7351826429367065,-174,7489.0,-43.31172561645508,-645,7565.0
10430,0.3381463885307312,-16.098487854003906,-313,7489.0,-41.75277328491211,-804,7565.0
10440,0.33811745047569275,-23.618892669677734,-387,7489.0,-35.04240036010742,-517,7565.0
10450,0.3379635512828827,-22.647197723388672,-404,7489.0,-24.819950103759766,-309,7565.0
10460,0.33890828490257263,-13.497668266296387,-168,7489.0,-19.349611282348633,-326,7565.0
10470,0.3388464152812958,-3.6842288970947266,9,7489.0,-15.089540481567383,-199,7565.0
10480,0.3389052152633667,1.3317108154296875,9,7489.0,-3.7619094848632812,102,7565.0
10490,0.33907419443130493,5.121179103851318,77,7489.0,12.408390045166016,158,7565.0
10500,0.33977437019348145,2.5041086673736572,125,7489.0,21.631637573242188,424,7565.0
10510,0.3398970663547516,10.187453269958496,138,7489.0,24.913084030151367,447,7565.0
10520,0.33990997076034546,17.61968994140625,444,7489.0,27.78396224975586,409,7565.0
10530,0.33997073769569397,25.285301208496094,395,7489.0,29.831167221069336,564,7565.0
10540,0.3398355543613434,23.805429458618164,342,7489.0,25.981185913085938,369,7565.0
10550,0.3406902551651001,22.156015396118164,382,7489.0,17.080398559570312,267,7565.0
10560,0.3406278192996979,12.699110984802246,126,7489.0,0.3011036515235901,-91,7565.0
10570,0.34060436487197876,-2.2943906784057617,-83,7489.0,-23.29775619506836,-533,7565.0
10580,0.3403215706348419,-14.055865287780762,-289,7489.0,-46.93517303466797,-768,7565.0
10590,0.34169766306877136,-22.115663528442383,-406,7489.0,-60.465789794921875,-1110,7565.0
10600,0.34156614542007446,-21.97623634338379,-282,7489.0,-65.9277572631836,-1043,7565.0
10610,0.34132257103919983,-10.769468307495117,-139,7489.0,-52.8301887512207,-689,7565.0
10620,0.3421921133995056,7.5429863929748535,157,7489.0,-27.210485458374023,-338,7565.0
10630,0.34227052330970764,15.907666206359863,363,7489.0,-4.869105815887451,-65,7565.0
10640,0.33985254168510437,19.109973907470703,292,7489.0,8.13582706451416,207,7565.0
10650,0.3398546576499939,3.065598726272583,-72,7489.0,24.086994171142578,569,7565.0
10660,0.3399111330509186,-7.6347174644470215,-163,7489.0,47.709068298339844,781,7565.0
10670,0.33982062339782715,-10.980650901794434,-118,7489.0,56.19606399536133,857,7565.0
10680,0.3368767499923706,-8.416106224060059,-179,7489.0,49.6279182434082,848,7565.0
10690,0.3365621268749237,2.451629400253296,156,7489.0,36.06341552734375,502,7565.0
10700,0.3361717760562897,18.103435516357422,305,7489.0,19.152069091796875,254,7565.0
10710,0.3360823690891266,26.746118545532227,556,7489.0,-0.9519752860069275,-158,7565.0
10720,0.3365369439125061,23.45875358581543,306,7489.0,-23.791297912597656,-450,7565.0
10730,0.33603012561798096,12.336053848266602,203,7489.0,-41.586273193359375,-806,7565.0
10740,0.335477739572525,1.497011661529541,-48,7489.0,-46.726383209228516,-655,7565.0
10750,0.3348928987979889,-10.56063461303711,-247,7489.0,-37.20789337158203,-597,7565.0
10760,0.33404460549354553,-18.894760131835938,-220,7489.0,-22.406200408935547,-304,7565.0
10770,0.3300511837005615,-12.754131317138672,-243,7489.0,-7.583776950836182,-24,7565.0
10780,0.329302579164505,-2.1840617656707764,101,7489.0,2.9547312259674072,20,7565.0
10790,0.3284865617752075,12.261114120483398,190,7489.0,9.259883880615234,244,7565.0
10800,0.3276882469654083,11.215597152709961,162,7489.0,11.110129356384277,147,7565.0
10810,0.3260219693183899,5.820850372314453,43,7489.0,6.56415319442749,142,7565.0
10820,0.3255167007446289,-8.542779922485352,-167,7489.0,2.121180295944214,-47,7565.0
10830,0.3251664936542511,-30.663999557495117,-623,7489.0,4.054849624633789,115,7565.0
10840,0.3248317241668701,-40.58732223510742,-627,7489.0,-7.370095729827881,-176,7565.0
10850,0.3243548572063446,-39.35593032836914,-569,7489.0,-7.4683709144592285,-133,7565.0
10860,0.3239539563655853,-13.923047065734863,-167,7489.0,-0.8847118616104126,143,7565.0
10870,0.324100524187088,10.388737678527832,355,7489.0,11.459131240844727,148,7565.0
10880,0.3237797021865845,36.63607406616211,752,7489.0,21.414794921875,444,7565.0
10890,0.3237380087375641,55.818050384521484,890,7489.0,30.734580993652344,552,7565.0
10900,0.3224903345108032,57.04574966430664,896,7489.0,27.045669555664062,324,7565.0
10910,0.32264843583106995,30.019906997680664,161,7489.0,19.259153366088867,303,7565.0
10920,0.3223218321800232,-13.60619831085205,-416,7489.0,10.486686706542969,100,7565.0
10930,0.3223499655723572,-36.48994064331055,-696,7489.0,-2.591127395629883,-218,7565.0
10940,0.32202428579330444,-36.1763801574707,-532,7489.0,-19.922508239746094,-348,7565.0
10950,0.32218486070632935,-24.9262752532959,-268,7489.0,-29.414770126342773,-564,7565.0
10960,0.32237493991851807,-10.152624130249023,-123,7489.0,-35.53859329223633,-627,7565.0
10970,0.32273590564727783,-2.956566333770752,-35,7489.0,-41.439334869384766,-585,7565.0
10980,0.32296279072761536,-1.3434629440307617,32,7489.0,-40.00162887573242,-690,7565.0
10990,0.3227514922618866,-0.19755251705646515,-29,7489.0,-25.665651321411133,-187,7565.0
11000,0.32331591844558716,0.5141401290893555,-20,7489.0,5.241614818572998,184,7565.0
11010,0.32438355684280396,-7.977509021759033,-209,7489.0,36.35824966430664,757,7565.0
11020,0.32536110281944275,-18.42193603515625,-285,7489.0,57.18361282348633,971,7565.0
11030,0.32523953914642334,-16.144620895385742,-196,7489.0,71.74810028076172,1181,7565.0
11040,0.3260354995727539,1.1248887777328491,80,7489.0,78.85118865966797,1349,7565.0
11050,0.32672119140625,18.22477912902832,418,7489.0,74.62044525146484,1219,7565.0
11060,0.327230304479599,28.350465774536133,534,7489.0,58.26232147216797,915,7565.0
11070,0.3277938961982727,34.16922378540039,508,7489.0,29.591638565063477,246,7565.0
11080,0.3300420045852661,25.800846099853516,280,7489.0,-8.739809036254883,-314,7565.0
11090,0.3309231102466583,4.80055046081543,-1,7489.0,-42.63304901123047,-709,7565.0
11100,0.33165863156318665,-19.052722930908203,-290,7489.0,-66.73673248291016,-1265,7565.0
11110,0.3323899805545807,-28.303577423095703,-492,7489.0,-83.14923858642578,-1428,7565.0
11120,0.33249911665916443,-27.505077362060547,-356,7489.0,-90.30847930908203,-1397,7565.0
11130,0.332943320274353,-14.326268196105957,-210,7489.0,-75.40999603271484,-1182,7565.0
11140,0.333479106426239,-2.6526126861572266,88,7489.0,-47.14657211303711,-587,7565.0
11150,0.3344670832157135,5.715515613555908,65,7489.0,-12.912402153015137,-88,7565.0
11160,0.33344539999961853,2.014432668685913,51,7489.0,21.32420539855957,518,7565.0
11170,0.3348551392555237,-7.9044928550720215,-254,7489.0,54.991355895996094,1015,7565.0
11180,0.3362814784049988,-20.966354370117188,-384,7489.0,80.91507720947266,1482,7565.0
11190,0.33762770891189575,-37.301856994628906,-724,7489.0,92.31314086914062,1406,7565.0
11200,0.3389933407306671,-43.78036880493164,-727,7489.0,80.82418060302734,1250,7565.0
11210,0.3400653004646301,-33.759986877441406,-391,7489.0,58.714351654052734,884,7565.0
11220,0.3412463366985321,-5.120538234710693,123,7489.0,36.542667388916016,545,7565.0
11230,0.34269949793815613,35.2333984375,777,7489.0,16.875619888305664,104,7565.0
11240,0.34376585483551025,71.73361206054688,1266,7489.0,-0.27602487802505493,-161,7565.0
11250,0.3446420431137085,88.1987533569336,1395,7489.0,-15.903095245361328,-270,7565.0
11260,0.3452838659286499,71.11581420898438,1094,7489.0,-33.95145797729492,-667,7565.0
11270,0.34624183177948,44.4188232421875,504,7489.0,-46.23992156982422,-738,7565.0
11280,0.3470652997493744,9.531830787658691,66,7489.0,-48.997257232666016,-853,7565.0
11290,0.347249299287796,-19.609508514404297,-445,7489.0,-41.947357177734375,-534,7565.0
11300,0.3477937877178192,-41.22106170654297,-784,7489.0,-23.474864959716797,-319,7565.0
11310,0.3480653166770935,-49.96051788330078,-797,7489.0,1.9290462732315063,111,7565.0
11320,0.3483445644378662,-46.223106384277344,-735,7489.0,21.456148147583008,463,7565.0
11330,0.34831780195236206,-34.09197998046875,-498,7489.0,32.4053955078125,469,7565.0
11340,0.3460693061351776,-16.302257537841797,-220,7489.0,29.225942611694336,525,7565.0
11350,0.3458142578601837,-4.076764106750488,-13,7489.0,17.486553192138672,149,7565.0
11360,0.3455260097980499,5.564481735229492,58,7489.0,-3.418118953704834,-116,7565.0
11370,0.3453752398490906,7.80953311920166,214,7489.0,-11.847153663635254,-194,7565.0
11380,0.3453294336795807,8.227020263671875,123,7489.0,-7.952298164367676,-171,7565.0
11390,0.34495434165000916,12.701339721679688,306,7489.0,-6.5294880867004395,-114,7565.0
11400,0.34454402327537537,16.018390655517578,195,7489.0,-2.1939876079559326,8,7565.0
11410,0.34393149614334106,20.836380004882812,459,7489.0,13.925065994262695,287,7565.0
11420,0.3431668281555176,33.43605422973633,591,7489.0,34.732852935791016,596,7565.0
11430,0.3436986804008484,32.979244232177734,497,7489.0,37.09575653076172,462,7565.0
11440,0.342536985874176,18.035966873168945,244,7489.0,27.1383056640625,443,7565.0
11450,0.3426022231578827,-3.507434368133545,-122,7489.0,12.232239723205566,7,7565.0
11460,0.34150099754333496,-28.690874099731445,-565,7489.0,-21.331966400146484,-428,7565.0
11470,0.34308090806007385,-44.028568267822266,-792,7489.0,-58.7603645324707,-1098,7565.0
11480,0.3421207666397095,-51.13783645629883,-841,7489.0,-76.82730102539062,-1243,7565.0
11490,0.3413705825805664,-33.76354217529297,-468,7489.0,-84.07166290283203,-1443,7565.0
11500,0.34039562940597534,-9.119948387145996,20,7489.0,-70.85647583007812,-941,7565.0
11510,0.33982473611831665,10.878377914428711,195,7489.0,-47.555728912353516,-702,7565.0
11520,0.33920612931251526,21.801597595214844,426,7489.0,-29.209728240966797,-331,7565.0
11530,0.3397182524204254,15.540960311889648,153,7489.0,1.5650246143341064,365,7565.0
11540,0.33959710597991943,1.9630476236343384,-48,7489.0,34.61599349975586,573,7565.0
11550,0.33957114815711975,-10.48832893371582,-317,7489.0,52.944114685058594,1020,7565.0
11560,0.33874037861824036,-18.74449920654297,-358,7489.0,60.715091705322266,930,7565.0
11570,0.3385186493396759,-19.820737838745117,-319,7489.0,59.82868957519531,1053,7565.0
11580,0.3382566571235657,-9.74259090423584,-38,7489.0,54.32786560058594,733,7565.0
11590,0.3377690315246582,8.547262191772461,233,7489.0,34.41526412963867,343,7565.0
11600,0.33823463320732117,21.583110809326172,344,7489.0,12.521477699279785,103,7565.0
11610,0.3380157947540283,20.9566650390625,315,7489.0,-7.205589771270752,-227,7565.0
11620,0.3377342224121094,4.636383056640625,-86,7489.0,-26.694299697875977,-634,7565.0
11630,0.3374180197715759,-13.034570693969727,-304,7489.0,-46.8770637512207,-764,7565.0
11640,0.3372574746608734,-28.591297149658203,-516,7489.0,-56.304176330566406,-1093,7565.0
11650,0.33849358558654785,-36.007450103759766,-563,7489.0,-56.76057052612305,-826,7565.0
11660,0.3381834924221039,-27.15746307373047,-313,7489.0,-45.458335876464844,-664,7565.0
11670,0.33836472034454346,-4.4965081214904785,33,7489.0,-25.587160110473633,-260,7565.0
11680,0.3382970988750458,17.19670295715332,403,7489.0,-1.4624894857406616,27,7565.0
11690,0.3376210927963257,26.865880966186523,410,7489.0,17.178884506225586,438,7565.0
11700,0.3378855884075165,25.088563919067383,398,7489.0,30.481027603149414,504,7565.0
11710,0.338303804397583,14.65544319152832,152,7489.0,34.81755828857422,632,7565.0
11720,0.33870729804039,0.3357987105846405,-90,7489.0,31.26056480407715,350,7565.0
11730,0.33966171741485596,-12.270538330078125,-202,7489.0,19.05690574645996,349,7565.0
11740,0.33823147416114807,-14.524547576904297,-159,7489.0,14.753159523010254,177,7565.0
11750,0.3386843204498291,-6.916862964630127,-103,7489.0,5.512121677398682,31,7565.0
11760,0.3390893042087555,15.483729362487793,470,7489.0,0.8744811415672302,60,7565.0
11770,0.33962538838386536,40.170982360839844,739,7489.0,0.40506595373153687,-64,7565.0
11780,0.34250155091285706,50.57093048095703,800,7489.0,-3.0705103874206543,21,7565.0
11790,0.34280598163604736,41.19585418701172,639,7489.0,2.08892560005188,-1,7565.0
11800,0.34306687116622925,16.024126052856445,35,7489.0,2.187810182571411,49,7565.0
11810,0.3433511555194855,-9.802681922912598,-171,7489.0,-5.437966346740723,-181,7565.0
11820,0.3431609272956848,-29.345962524414062,-637,7489.0,-17.405933380126953,-273,7565.0
11830,0.34328731894493103,-38.40745544433594,-595,7489.0,-24.591020584106445,-387,7565.0
11840,0.3434082269668579,-39.71233367919922,-628,7489.0,-22.99768829345703,-324,7565.0
11850,0.34352707862854004,-31.943832397460938,-457,7489.0,-22.147762298583984,-382,7565.0
11860,0.3437148332595825,-24.432477951049805,-410,7489.0,-19.810752868652344,-377,7565.0
11870,0.34159761667251587,-21.558094024658203,-343,7489.0,-13.05582046508789,-83,7565.0
11880,0.34174299240112305,-24.76618766784668,-396,7489.0,4.250636100769043,76,7565.0
11890,0.3416723906993866,-24.70509147644043,-413,7489.0,19.90180778503418,405,7565.0
11900,0.3422784209251404,-25.694555282592773,-363,7489.0,22.17928695678711,385,7565.0
11910,0.3426421582698822,-22.783817291259766,-367,7489.0,26.1676025390625,330,7565.0
11920,0.3430195450782776,-7.3998703956604,-98,7489.0,24.71070098876953,438,7565.0
11930,0.3430219888687134,18.332490921020508,479,7489.0,23.081029891967773,436,7565.0
11940,0.3435940444469452,49.68928146362305,896,7489.0,20.06549644470215,286,7565.0
11950,0.34593909978866577,64.38569641113281,1031,7489.0,11.922444343566895,149,7565.0
11960,0.3461298942565918,72.44509887695312,1218,7489.0,3.6996612548828125,102,7565.0
11970,0.3465452790260315,71.36557006835938,1127,7489.0,-6.404445171356201,-133,7565.0
11980,0.3469206392765045,51.11330795288086,652,7489.0,-12.381132125854492,-147,7565.0
11990,0.3467612862586975,21.4129638671875,277,7489.0,-19.323551177978516,-384,7565.0
12000,0.34789788722991943,-4.35982084274292,-161,7489.0,-27.816686630249023,-542,7565.0
12010,0.34780818223953247,-18.65532112121582,-284,7489.0,-29.656639099121094,-520,7565.0
12020,0.3477131426334381,-26.62854766845703,-567,7489.0,-39.73097610473633,-613,7565.0
12030,0.347345232963562,-35.07545471191406,-534,7489.0,-39.94878005981445,-718,7565.0
12040,0.34948158264160156,-39.49430465698242,-658,7489.0,-28.89101219177246,-351,7565.0
12050,0.3493556082248688,-33.79236602783203,-514,7489.0,-25.139930725097656,-495,7565.0
12060,0.34960702061653137,-28.247602462768555,-375,7489.0,-24.90511131286621,-276,7565.0
12070,0.34992390871047974,-12.77323055267334,-77,7489.0,-10.241094589233398,-141,7565.0
12080,0.34991660714149475,11.663643836975098,271,7489.0,10.561615943908691,276,7565.0
12090,0.3508228063583374,33.697914123535156,670,7489.0,37.28855514526367,690,7565.0
12100,0.3508720099925995,44.785404205322266,741,7489.0,57.446617126464844,1024,7565.0
12110,0.35117849707603455,39.15564727783203,651,7489.0,65.41395568847656,1011,7565.0
12120,0.35119131207466125,24.226085662841797,261,7489.0,62.62519836425781,973,7565.0
12130,0.352289080619812,9.761698722839355,186,7489.0,45.34166717529297,551,7565.0
12140,0.353046715259552,2.9798808097839355,-63,7489.0,20.530506134033203,197,7565.0
12150,0.3531368672847748,-8.004590034484863,-135,7489.0,-1.558424949645996,-77,7565.0
12160,0.35314998030662537,-17.15120506286621,-360,7489.0,-28.12856101989746,-668,7565.0
12170,0.3534432649612427,-24.433385848999023,-453,7489.0,-58.32517623901367,-936,7565.0
12180,0.35359278321266174,-24.51113510131836,-429,7489.0,-71.16566467285156,-1215,7565.0
12190,0.35344597697257996,-25.975156784057617,-438,7489.0,-64.60139465332031,-909,7565.0
12200,0.35321295261383057,-31.600427627563477,-473,7489.0,-52.252967834472656,-863,7565.0
12210,0.3530592620372772,-32.6519775390625,-519,7489.0,-39.25642776489258,-510,7565.0
12220,0.35251328349113464,-38.9569206237793,-694,7489.0,-11.368366241455078,85,7565.0
12230,0.352895587682724,-34.64398193359375,-458,7489.0,14.799845695495605,230,7565.0
12240,0.3528822362422943,-8.569184303283691,38,7489.0,27.990646362304688,666,7565.0
12250,0.3528701961040497,21.790477752685547,512,7489.0,40.568077087402344,597,7565.0
12260,0.35328209400177,46.1436767578125,741,7489.0,32.556854248046875,526,7565.0
12270,0.35357916355133057,48.92456817626953,805,7489.0,25.285051345825195,325,7565.0
12280,0.3537711203098297,42.46565628051758,655,7489.0,22.614765167236328,388,7565.0
12290,0.35407644510269165,30.3936710357666,436,7489.0,25.31643295288086,325,7565.0
12300,0.35411909222602844,18.61781883239746,223,7489.0,22.724557876586914,355,7565.0
12310,0.3536350727081299,7.311910629272461,-40,7489.0,21.016460418701172,405,7565.0
12320,0.3534690737724304,-7.739503383636475,-151,7489.0,16.079492568969727,96,7565.0
12330,0.35325518250465393,-19.352670669555664,-460,7489.0,1.4510481357574463,94,7565.0
12340,0.35296952724456787,-27.7032470703125,-469,7489.0,-19.295764923095703,-435,7565.0
12350,0.35271650552749634,-38.081111907958984,-688,7489.0,-36.521610260009766,-574,7565.0
12360,0.3521270453929901,-44.48967361450195,-723,7489.0,-29.217958450317383,-498,7565.0
12370,0.35147640109062195,-42.60026550292969,-601,7489.0,-13.63255500793457,-112,7565.0
12380,0.3507840037345886,-29.4929141998291,-375,7489.0,-7.711680889129639,-133,7565.0
12390,0.3506331145763397,-14.780049324035645,-146,7489.0,-13.508087158203125,-188,7565.0
12400,0.34932729601860046,-4.8752946853637695,12,7489.0,-21.114015579223633,-373,7565.0
12410,0.348945677280426,0.6471505761146545,44,7489.0,-21.112979888916016,-309,7565.0
12420,0.3486475944519043,18.86907958984375,400,7489.0,-12.322295188903809,-207,7565.0
12430,0.3486492335796356,45.12005615234375,849,7489.0,-0.9040873050689697,49,7565.0
12440,0.34869804978370667,50.70326232910156,715,7489.0,17.750858306884766,456,7565.0
12450,0.34873244166374207,40.580604553222656,660,7489.0,43.25893020629883,748,7565.0
12460,0.3485449552536011,24.896039962768555,270,7489.0,52.251976013183594,977,7565.0
12470,0.3483334183692932,14.367974281311035,181,7489.0,51.669315338134766,683,7565.0
12480,0.34889236092567444,2.7494473457336426,-32,7489.0,32.59532165527344,472,7565.0
12490,0.34843331575393677,-7.246259689331055,-172,7489.0,12.793416023254395,85,7565.0
12500,0.347970187664032,-20.242746353149414,-408,7489.0,-5.675673484802246,-55,7565.0
12510,0.34722664952278137,-25.803119659423828,-482,7489.0,-18.352680206298828,-331,7565.0
12520,0.3466174900531769,-29.331432342529297,-533,7489.0,-21.22458267211914,-254,7565.0
12530,0.34637048840522766,-37.56414031982422,-717,7489.0,-14.185270309448242,-242,7565.0
12540,0.34581026434898376,-38.79682159423828,-598,7489.0,-9.304825782775879,-102,7565.0
12550,0.34532755613327026,-25.61302947998047,-409,7489.0,-11.822759628295898,-239,7565.0
12560,0.34543025493621826,-7.8591437339782715,-105,7489.0,-14.839415550231934,-148,7565.0
12570,0.3447097837924957,6.751371383666992,166,7489.0,-11.847342491149902,-280,7565.0
12580,0.3447318971157074,25.797809600830078,502,7489.0,-5.53621768951416,84,7565.0
12590,0.34484222531318665,36.91117858886719,582,7489.0,13.01176643371582,108,7565.0
12600,0.3450373709201813,31.041112899780273,399,7489.0,24.72630500793457,491,7565.0
12610,0.34587588906288147,18.06505584716797,159,7489.0,36.75338363647461,646,7565.0
12620,0.3459888696670532,2.245729684829712,-26,7489.0,37.91374588012695,610,7565.0
12630,0.34658461809158325,-7.294848442077637,-197,7489.0,31.76949691772461,419,7565.0
12640,0.3468504548072815,-5.312535762786865,-91,7489.0,23.349790573120117,418,7565.0
12650,0.346832811832428,-0.7566747665405273,-12,7489.0,18.49134635925293,154,7565.0
12660,0.3464551270008087,0.15600088238716125,50,7489.0,5.775932788848877,168,7565.0
12670,0.3463834226131439,2.1558425426483154,42,7489.0,-10.487939834594727,-297,7565.0
12680,0.3462614417076111,6.446924686431885,70,7489.0,-28.622806549072266,-495,7565.0
12690,0.3461058437824249,2.319775104522705,40,7489.0,-39.93534469604492,-785,7565.0
12700,0.34487029910087585,-4.962974548339844,-137,7489.0,-38.1313591003418,-457,7565.0
12710,0.3446962237358093,-14.192480087280273,-285,7489.0,-21.093412399291992,-342,7565.0
12720,0.3449458181858063,-19.007465362548828,-315,7489.0,-10.247345924377441,-122,7565.0
12730,0.34509873390197754,-25.60514259338379,-456,7489.0,-3.9775073528289795,-70,7565.0
12740,0.34518489241600037,-22.27469825744629,-232,7489.0,0.2584514319896698,112,7565.0
12750,0.3460347056388855,-4.845114707946777,-100,7489.0,3.8547513484954834,82,7565.0
12760,0.34655511379241943,-10.38907241821289,-152,7489.0,13.464056968688965,283,7565.0
12770,0.34706249833106995,-21.66978645324707,-476,7489.0,17.997377395629883,318,7565.0
12780,0.3474352955818176,-23.11396026611328,-265,7489.0,23.445772171020508,515,7565.0
12790,0.34815171360969543,-10.646985054016113,-159,7489.0,30.748573303222656,495,7565.0
12800,0.3486475348472595,9.856117248535156,331,7489.0,31.772676467895508,543,7565.0
12810,0.3491615056991577,37.80950164794922,799,7489.0,32.42780685424805,540,7565.0
12820,0.3493509590625763,54.69758987426758,897,7489.0,27.272314071655273,319,7565.0
12830,0.34997645020484924,59.77958297729492,987,7489.0,16.19033432006836,258,7565.0
12840,0.3494281470775604,53.87339401245117,829,7489.0,2.983006238937378,-102,7565.0
12850,0.34929320216178894,41.26556396484375,526,7489.0,-11.166223526000977,-151,7565.0
12860,0.34962376952171326,23.825830459594727,289,7489.0,-22.51205825805664,-474,7565.0
12870,0.34947219491004944,3.2753050327301025,-60,7489.0,-33.26633834838867,-529,7565.0
12880,0.34827256202697754,-15.195209503173828,-333,7489.0,-39.22874069213867,-760,7565.0
12890,0.34795254468917847,-30.4365177154541,-499,7489.0,-43.61662292480469,-607,7565.0
12900,0.34756430983543396,-38.58245849609375,-668,7489.0,-41.76032257080078,-748,7565.0
12910,0.34708186984062195,-33.505332946777344,-429,7489.0,-35.402034759521484,-472,7565.0
12920,0.3474425673484802,-15.38664436340332,-184,7489.0,-31.223365783691406,-505,7565.0
12930,0.3471575081348419,-0.23773367702960968,120,7489.0,-27.25247573852539,-511,7565.0
12940,0.3469510078430176,10.161144256591797,163,7489.0,-22.716350555419922,-252,7565.0
12950,0.3468628525733948,18.931150436401367,375,7489.0,-7.342141151428223,-86,7565.0
12960,0.34684231877326965,26.48552131652832,366,7489.0,17.349233627319336,512,7565.0
12970,0.346860408782959,24.29146957397461,422,7489.0,44.17775344848633,692,7565.0
12980,0.34668001532554626,16.762256622314453,198,7489.0,53.776092529296875,992,7565.0
12990,0.346363365650177,1.993857502937317,91,7489.0,52.57808303833008,744,7565.0
13000,0.3457968533039093,2.6216533184051514,-37,7489.0,40.8955192565918,621,7565.0
13010,0.34739819169044495,0.20454207062721252,-39,7489.0,18.01466178894043,108,7565.0
13020,0.34727728366851807,-4.69707727432251,-144,7489.0,3.940310001373291,-30,7565.0
13030,0.3469066321849823,-12.174211502075195,-173,7489.0,-9.44813060760498,-181,7565.0
13040,0.3466220498085022,-24.85049819946289,-469,7489.0,-27.82678985595703,-635,7565.0
13050,0.34726986289024353,-34.415008544921875,-542,7489.0,-46.60175323486328,-700,7565.0
13060,0.34687334299087524,-36.27338790893555,-497,7489.0,-48.22311019897461,-867,7565.0
13070,0.34643301367759705,-32.856834411621094,-536,7489.0,-33.69725036621094,-427,7565.0
13080,0.3463253676891327,-27.690271377563477,-411,7489.0,-16.189632415771484,-266,7565.0
13090,0.34640252590179443,-18.19760513305664,-318,7489.0,-12.465537071228027,-146,7565.0
13100,0.3474471867084503,-3.2549519538879395,68,7489.0,-17.373865127563477,-272,7565.0
13110,0.3478810489177704,2.897087574005127,-47,7489.0,-10.94959545135498,-113,7565.0
13120,0.3483010232448578,3.6205928325653076,167,7489.0,-17.458763122558594,-257,7565.0
13130,0.34879258275032043,19.678709030151367,385,7489.0,-11.323888778686523,-184,7565.0
13140,0.35040873289108276,34.39301300048828,620,7489.0,10.7261962890625,367,7565.0
13150,0.3514021337032318,34.813350677490234,486,7489.0,25.246261596679688,403,7565.0
13160,0.35220617055892944,28.50627899169922,513,7489.0,33.09713363647461,682,7565.0
13170,0.35302454233169556,21.184406280517578,222,7489.0,42.221099853515625,638,7565.0
13180,0.3536914885044098,9.42686653137207,164,7489.0,46.19068908691406,768,7565.0
13190,0.3543979525566101,1.770982027053833,-27,7489.0,41.806522369384766,638,7565.0
13200,0.35481682419776917,-5.263404846191406,-8,7489.0,25.001081466674805,327,7565.0
13210,0.3556084632873535,-7.655155181884766,-235,7489.0,-1.3867573738098145,-273,7565.0
13220,0.3558420240879059,-14.077693939208984,-193,7489.0,-25.92302131652832,-547,7565.0
13230,0.35606783628463745,-11.181535720825195,-242,7489.0,-42.51128005981445,-757,7565.0
13240,0.3562779426574707,-8.982754707336426,-101,7489.0,-54.30222702026367,-903,7565.0
13250,0.35656818747520447,-12.732285499572754,-291,7489.0,-58.37503433227539,-858,7565.0
13260,0.35684236884117126,-18.276758193969727,-284,7489.0,-55.5200309753418,-950,7565.0
13270,0.3570235073566437,-18.29029655456543,-244,7489.0,-43.68695831298828,-630,7565.0
13280,0.3575666546821594,-14.391793251037598,-206,7489.0,-26.306577682495117,-228,7565.0
13290,0.3584108352661133,-3.123063325881958,-28,7489.0,-2.0465049743652344,-56,7565.0
13300,0.35927966237068176,0.7797019481658936,72,7489.0,15.593414306640625,418,7565.0
13310,0.36029252409935,-0.6357546448707581,-105,7489.0,44.3687629699707,885,7565.0
13320,0.35946789383888245,-5.974118709564209,-87,7489.0,55.72642135620117,902,7565.0
13330,0.36018332839012146,0.5516626834869385,75,7489.0,60.708866119384766,1070,7565.0
13340,0.36089396476745605,13.603672981262207,245,7489.0,58.6639404296875,882,7565.0
13350,0.36136969923973083,17.976198196411133,333,7489.0,55.29458999633789,949,7565.0
13360,0.3598746955394745,19.9420166015625,324,7489.0,46.88058090209961,531,7565.0
13370,0.36006471514701843,22.344480514526367,401,7489.0,27.240236282348633,414,7565.0
13380,0.360626220703125,29.574031829833984,521,7489.0,5.9738993644714355,-152,7565.0
13390,0.36061033606529236,40.07447814941406,717,7489.0,-18.818096160888672,-348,7565.0
13400,0.3604985475540161,38.54423141479492,532,7489.0,-38.12025833129883,-748,7565.0
13410,0.35880669951438904,22.79790687561035,308,7489.0,-48.819759368896484,-806,7565.0
13420,0.3585085868835449,-10.041430473327637,-349,7489.0,-49.77946472167969,-702,7565.0
13430,0.3582146465778351,-41.20962905883789,-808,7489.0,-38.59447479248047,-556,7565.0
13440,0.35776087641716003,-56.98828125,-942,7489.0,-26.42402458190918,-418,7565.0
13450,0.3555670380592346,-51.64083480834961,-732,7489.0,-12.731328964233398,-59,7565.0
13460,0.35509103536605835,-27.056896209716797,-368,7489.0,4.282353401184082,218,7565.0
13470,0.3544405996799469,0.23864834010601044,158,7489.0,23.858428955078125,443,7565.0
13480,0.3542659282684326,17.724315643310547,313,7489.0,33.58739471435547,654,7565.0
13490,0.35275503993034363,24.4101505279541,442,7489.0,37.40615463256836,534,7565.0
13500,0.35216954350471497,19.807462692260742,276,7489.0,35.02553176879883,620,7565.0
13510,0.35150638222694397,9.457688331604004,119,7489.0,29.92508888244629,340,7565.0
13520,0.3507227301597595,-4.529933929443359,-179,7489.0,14.073436737060547,234,7565.0
13530,0.3498580753803253,-13.425835609436035,-202,7489.0,-1.2757585048675537,-183,7565.0
13540,0.3494987189769745,-16.452743530273438,-414,7489.0,-25.147375106811523,-429,7565.0
13550,0.3485753834247589,-18.338211059570312,-232,7489.0,-33.97848892211914,-579,7565.0
13560,0.3475857377052307,-13.568023681640625,-162,7489.0,-32.211944580078125,-366,7565.0
13570,0.3466884195804596,6.347675323486328,337,7489.0,-15.551447868347168,-338,7565.0
13580,0.3448105752468109,23.207103729248047,338,7489.0,-6.988696098327637,-76,7565.0
13590,0.34398114681243896,17.68444061279297,264,7489.0,-6.170356750488281,-146,7565.0
13600,0.34320375323295593,1.0410850048065186,-154,7489.0,-9.898611068725586,-99,7565.0
13610,0.34252089262008667,-22.249774932861328,-462,7489.0,-6.575405597686768,-109,7565.0
13620,0.3417906165122986,-37.76447296142578,-683,7489.0,4.527247428894043,266,7565.0
13630,0.3392782509326935,-41.28752517700195,-619,7489.0,19.970287322998047,349,7565.0
13640,0.3385649025440216,-28.53264617919922,-344,7489.0,28.73824119567871,540,7565.0
13650,0.3380597233772278,-1.7757762670516968,110,7489.0,23.386699676513672,289,7565.0
13660,0.33770307898521423,21.457937240600586,509,7489.0,10.670938491821289,20,7565.0
13670,0.3362889885902405,42.10702133178711,741,7489.0,-0.10628762096166611,45,7565.0
13680,0.33592066168785095,48.14939498901367,861,7489.0,-5.893510341644287,-130,7565.0
13690,0.33551785349845886,39.92277145385742,568,7489.0,-9.099027633666992,-241,7565.0
13700,0.3351874351501465,22.124845504760742,274,7489.0,-11.277956008911133,-93,7565.0
13710,0.33526161313056946,-1.2479478120803833,-70,7489.0,-11.3102445602417,-223,7565.0
13720,0.3349060118198395,-18.670150756835938,-342,7489.0,-5.052644729614258,-74,7565.0
13730,0.33459311723709106,-20.768470764160156,-279,7489.0,-1.134484887123108,89,7565.0
13740,0.3344128131866455,-13.433076858520508,-199,7489.0,8.829989433288574,134,7565.0
13750,0.3343263268470764,4.075703144073486,26,7489.0,18.559961318969727,409,7565.0
13760,0.3342025578022003,9.2897310256958,224,7489.0,23.80620574951172,401,7565.0
13770,0.3343810737133026,3.5804855823516846,-74,7489.0,28.574491500854492,425,7565.0
13780,0.3348066806793213,-1.5042729377746582,-187,7489.0,29.001100540161133,551,7565.0
13790,0.3354211747646332,-14.262672424316406,-252,7489.0,31.417938232421875,450,7565.0
13800,0.3387322425842285,-29.045761108398438,-584,7489.0,16.792766571044922,113,7565.0
13810,0.33978271484375,-34.40253448486328,-517,7489.0,-8.676828384399414,-136,7565.0
13820,0.3407416045665741,-24.714536666870117,-303,7489.0,-17.445350646972656,-228,7565.0
13830,0.3416915535926819,-3.651763677597046,57,7489.0,-15.863485336303711,-275,7565.0
13840,0.34264886379241943,28.35238265991211,542,7489.0,-1.5610525608062744,54,7565.0
13850,0.34510716795921326,54.717918395996094,1033,7489.0,7.07411527633667,203,7565.0
13860,0.34619399905204773,57.514095306396484,841,7489.0,12.71139907836914,146,7565.0
13870,0.347260981798172,40.50757598876953,622,7489.0,19.900365829467773,380,7565.0
13880,0.3481072783470154,19.473922729492188,180,7489.0,24.204469680786133,376,7565.0
13890,0.34970760345458984,3.965968132019043,66,7489.0,16.857973098754883,203,7565.0
13900,0.35066765546798706,-3.4237616062164307,-104,7489.0,-4.0804123878479,-212,7565.0
13910,0.35156798362731934,-3.780665159225464,-11,7489.0,-17.318246841430664,-351,7565.0
13920,0.35240107774734497,-7.66682767868042,-158,7489.0,-24.170757293701172,-330,7565.0
13930,0.35385024547576904,-14.088920593261719,-321,7489.0,-23.877023696899414,-496,7565.0
13940,0.3547060787677765,-28.67857551574707,-475,7489.0,-19.88651466369629,-260,7565.0
13950,0.35564950108528137,-38.07261657714844,-736,7489.0,-7.024195671081543,-7,7565.0
13960,0.35655900835990906,-39.6321907043457,-609,7489.0,2.7151641845703125,-39,7565.0
13970,0.3573678135871887,-34.08294677734375,-503,7489.0,5.256529808044434,214,7565.0
13980,0.3595072329044342,-21.827091217041016,-316,7489.0,13.686175346374512,177,7565.0
13990,0.36120176315307617,-6.087252616882324,45,7489.0,29.22228240966797,620,7565.0
14000,0.3622649610042572,10.706883430480957,216,7489.0,41.427303314208984,671,7565.0
14010,0.36323878169059753,32.99761962890625,739,7489.0,39.403663635253906,554,7565.0
14020,0.36424383521080017,58.687171936035156,969,7489.0,19.029687881469727,291,7565.0
