timestamp,kalman.stateZ,gyro.x,gyro.xRaw,gyro.xVariance,gyro.y,gyro.yRaw,gyro,yVariance
0,0.0,1.3050504922866821,26,7807.0,1.4587241411209106,38,9888.0
10,6.5267086029052734e-06,1.7013853788375854,24,7807.0,3.375009059906006,66,9888.0
20,1.862645149230957e-05,1.6247884035110474,17,7807.0,5.013610363006592,89,9888.0
30,-0.000509113073348999,0.06053701043128967,-4,7807.0,5.88675594329834,105,9888.0
40,-0.0005262792110443115,-1.1700043678283691,-21,7807.0,5.957808971405029,96,9888.0
50,-0.0005567967891693115,-1.2820831537246704,-24,7807.0,5.018510818481445,77,9888.0
60,-0.0005671977996826172,-1.7513033151626587,-27,7807.0,4.745296955108643,83,9888.0
70,-0.0004374384880065918,-2.2583985328674316,-37,7807.0,4.5062456130981445,74,9888.0
80,-0.00045502185821533203,-2.1914713382720947,-37,7807.0,3.827798366546631,66,9888.0
90,-0.00047397613525390625,-2.8959648609161377,-48,7807.0,2.6299633979797363,45,9888.0
100,-0.0004731118679046631,-2.7544875144958496,-33,7807.0,1.5113297700881958,28,9888.0
110,-0.0004985630512237549,-2.0292370319366455,-28,7807.0,0.8670552968978882,14,9888.0
120,-0.0016152262687683105,-0.8667080998420715,-13,7807.0,0.2662915587425232,-5,9888.0
130,-0.0016904771327972412,-0.14475545287132263,10,7807.0,-0.6110168099403381,-20,9888.0
140,-0.0017578303813934326,0.8736948370933533,25,7807.0,-1.4307774305343628,-32,9888.0
150,-0.0018246471881866455,2.1769464015960693,45,7807.0,-2.504953145980835,-46,9888.0
160,-0.0008596181869506836,2.657167911529541,51,7807.0,-3.3490982055664062,-57,9888.0
170,-0.000881195068359375,2.85973858833313,46,7807.0,-4.512988567352295,-75,9888.0
180,-0.0009039938449859619,2.528748035430908,36,7807.0,-5.3229570388793945,-92,9888.0
190,-0.0009141266345977783,1.59718656539917,18,7807.0,-6.40973424911499,-105,9888.0
200,-0.00029671192169189453,0.12970539927482605,5,7807.0,-7.185385704040527,-114,9888.0
210,-0.0002905726432800293,-1.0513794422149658,-25,7807.0,-6.86279296875,-94,9888.0
220,-0.0002887845039367676,-3.0572686195373535,-58,7807.0,-2.9291136264801025,-2,9888.0
230,-0.0002682209014892578,-3.4587976932525635,-55,7807.0,0.15522600710391998,24,9888.0
240,-0.00018066167831420898,-1.771690845489502,-40,7807.0,2.2587027549743652,58,9888.0
250,0.0006090998649597168,-0.8944408893585205,-8,7807.0,3.7507784366607666,34,9888.0
260,0.0006750822067260742,-1.5062508583068848,13,7807.0,2.62530255317688,55,9888.0
270,0.0007801353931427002,-0.030604450032114983,-36,7807.0,1.3280178308486938,50,9888.0
280,0.0008881986141204834,1.4070022106170654,-36,7807.0,0.02046256512403488,31,9888.0
290,-0.0006242692470550537,1.515034794807434,-2,7807.0,-1.5723601579666138,-15,9888.0
300,-0.0006303787231445312,4.334619998931885,34,7807.0,-5.216943740844727,-59,9888.0
310,-0.0006443560123443604,5.479610919952393,69,7807.0,-6.255242347717285,-87,9888.0
320,-0.000651240348815918,4.567085266113281,112,7807.0,-5.978994369506836,-131,9888.0
330,-0.000650942325592041,4.963584899902344,95,7807.0,-6.822361469268799,-143,9888.0
340,-0.0012988150119781494,3.908869981765747,-8,7807.0,-9.166096687316895,-108,9888.0
350,-0.0012019574642181396,-1.5864604711532593,44,7807.0,-12.059393882751465,-172,9888.0
360,-0.0012011528015136719,-3.790377140045166,-23,7807.0,-3.4576663970947266,-46,9888.0
370,-0.0012070536613464355,-6.372673034667969,-59,7807.0,-7.864366054534912,-183,9888.0
380,-0.00048550963401794434,-6.866347312927246,-130,7807.0,-7.066807270050049,-142,9888.0
390,-0.00042933225631713867,-7.506186008453369,-119,7807.0,-6.960460186004639,-5,9888.0
400,-0.0003724098205566406,-7.937177658081055,-125,7807.0,-6.4631218910217285,-167,9888.0
410,-0.0002497732639312744,-6.480189323425293,-89,7807.0,-10.227684020996094,-223,9888.0
420,-0.0005741715431213379,-1.9764363765716553,-13,7807.0,-16.2860164642334,-246,9888.0
430,-0.0006093084812164307,2.2540135383605957,64,7807.0,-20.604686737060547,-321,9888.0
440,-0.0006095468997955322,5.818597316741943,130,7807.0,-23.417343139648438,-375,9888.0
450,-0.000507652759552002,8.205705642700195,107,7807.0,-19.864564895629883,-335,9888.0
460,-0.00044858455657958984,6.67255973815918,150,7807.0,-14.051239967346191,-298,9888.0
470,-0.00011977553367614746,7.812063217163086,146,7807.0,-6.002371788024902,-136,9888.0
480,-3.454089164733887e-05,6.232882499694824,133,7807.0,9.383780479431152,75,9888.0
490,0.000296175479888916,5.251888751983643,53,7807.0,28.184144973754883,510,9888.0
500,0.0002377927303314209,2.2891063690185547,26,7807.0,40.7653694152832,721,9888.0
510,0.001225113868713379,0.8325764536857605,73,7807.0,47.81680679321289,844,9888.0
520,0.0014646947383880615,-2.536487340927124,-151,7807.0,56.11098098754883,1072,9888.0
530,0.0016921758651733398,-5.819324970245361,-160,7807.0,55.514122009277344,1030,9888.0
540,0.0019795894622802734,-9.27867603302002,-198,7807.0,56.507266998291016,1010,9888.0
550,0.0026654303073883057,-7.368244647979736,-117,7807.0,45.25718688964844,904,9888.0
560,0.0030646920204162598,-2.936521291732788,-87,7807.0,32.018253326416016,597,9888.0
570,0.0034758448600769043,0.9990969896316528,-24,7807.0,17.038393020629883,288,9888.0
580,0.003915667533874512,3.143209457397461,25,7807.0,-1.428450584411621,66,9888.0
590,0.00481453537940979,5.290257453918457,73,7807.0,-15.533509254455566,-225,9888.0
600,0.00633808970451355,5.942775249481201,60,7807.0,-26.957294464111328,-418,9888.0
610,0.006921291351318359,5.859129428863525,42,7807.0,-32.76449203491211,-409,9888.0
620,0.007574170827865601,4.390151023864746,48,7807.0,-33.20743179321289,-495,9888.0
630,0.008178532123565674,0.8360167145729065,7,7807.0,-27.379613876342773,-509,9888.0
640,0.008451789617538452,-3.2483456134796143,19,7807.0,-19.928956985473633,-473,9888.0
650,0.009007662534713745,-8.657488822937012,-21,7807.0,-11.053160667419434,-279,9888.0
660,0.010097622871398926,-8.877574920654297,-100,7807.0,-1.7173722982406616,41,9888.0
670,0.010912656784057617,-9.748642921447754,-149,7807.0,2.987797260284424,205,9888.0
680,0.011601507663726807,-8.466875076293945,-183,7807.0,6.896218776702881,121,9888.0
690,0.011700242757797241,-6.31701135635376,-88,7807.0,10.082767486572266,134,9888.0
700,0.012494951486587524,-3.074645757675171,72,7807.0,11.981684684753418,121,9888.0
710,0.013312995433807373,3.183060646057129,127,7807.0,17.044635772705078,224,9888.0
720,0.01401624083518982,10.034555435180664,112,7807.0,20.70867156982422,533,9888.0
730,0.012043923139572144,14.942182540893555,181,7807.0,20.417238235473633,556,9888.0
740,0.012660592794418335,12.862357139587402,67,7807.0,24.36474609375,494,9888.0
750,0.013405859470367432,7.6803297996521,151,7807.0,30.5025577545166,375,9888.0
760,0.01414787769317627,0.8351281881332397,190,7807.0,31.853294372558594,410,9888.0
770,0.012956351041793823,0.4435897469520569,79,7807.0,28.578929901123047,431,9888.0
780,0.013550817966461182,-3.016542434692383,-115,7807.0,25.1579647064209,483,9888.0
790,0.014290153980255127,-5.637207984924316,-139,7807.0,20.892541885375977,428,9888.0
800,0.014875054359436035,-7.278955459594727,-142,7807.0,16.698139190673828,246,9888.0
810,0.015270799398422241,-5.5661725997924805,-178,7807.0,7.774787425994873,84,9888.0
820,0.013965338468551636,-5.437654495239258,-38,7807.0,0.1866384893655777,-242,9888.0
830,0.014344334602355957,-2.3545169830322266,47,7807.0,-9.693525314331055,-378,9888.0
840,0.014768511056900024,-1.007979393005371,123,7807.0,-21.43963050842285,-508,9888.0
850,0.015250563621520996,4.696195602416992,143,7807.0,-33.43788528442383,-583,9888.0
860,0.014143675565719604,5.639439105987549,90,7807.0,-42.86726379394531,-745,9888.0
870,0.014613986015319824,6.097674369812012,16,7807.0,-48.29278564453125,-743,9888.0
880,0.014955371618270874,5.685511112213135,107,7807.0,-49.739013671875,-809,9888.0
890,0.015274494886398315,3.3775393962860107,130,7807.0,-45.50900650024414,-884,9888.0
900,0.01555401086807251,1.6482123136520386,122,7807.0,-44.08700942993164,-683,9888.0
910,0.014169633388519287,-0.5058755874633789,-3,7807.0,-40.97575759887695,-485,9888.0
920,0.014918327331542969,-4.515807151794434,-129,7807.0,-34.28741455078125,-551,9888.0
930,0.015124112367630005,-7.743907928466797,-37,7807.0,-30.188812255859375,-579,9888.0
940,0.01508408784866333,-9.764039039611816,-97,7807.0,-24.351398468017578,-229,9888.0
950,0.010391414165496826,-9.769686698913574,-124,7807.0,-8.043384552001953,-235,9888.0
960,0.010217219591140747,-0.9594042301177979,71,7807.0,1.5790328979492188,60,9888.0
970,0.00975656509399414,7.497518539428711,136,7807.0,15.39087200164795,396,9888.0
980,0.009308695793151855,12.61137866973877,232,7807.0,33.116878509521484,516,9888.0
990,0.008053094148635864,10.86138916015625,161,7807.0,46.96027374267578,800,9888.0
1000,0.007738292217254639,4.119325637817383,29,7807.0,50.817935943603516,868,9888.0
1010,0.0073049068450927734,-0.9194700121879578,0,7807.0,47.253883361816406,740,9888.0
1020,0.007104039192199707,-4.03312349319458,-108,7807.0,36.33783721923828,666,9888.0
1030,0.006824314594268799,-5.679202079772949,-124,7807.0,18.21072006225586,223,9888.0
1040,0.006441861391067505,-11.08208179473877,-54,7807.0,-0.09167685359716415,-256,9888.0
1050,0.006459057331085205,-11.194610595703125,-167,7807.0,-21.608793258666992,-485,9888.0
1060,0.006692260503768921,-9.729723930358887,-207,7807.0,-39.67851638793945,-824,9888.0
1070,0.006933391094207764,-6.839532375335693,-187,7807.0,-52.456783294677734,-848,9888.0
1080,0.0077297985553741455,-6.922513008117676,-142,7807.0,-60.325496673583984,-905,9888.0
1090,0.007783561944961548,-4.817707538604736,-46,7807.0,-59.913272857666016,-971,9888.0
1100,0.007747471332550049,-2.1371238231658936,12,7807.0,-52.41253662109375,-704,9888.0
1110,0.00777357816696167,2.3855884075164795,29,7807.0,-39.69345474243164,-605,9888.0
1120,0.006475657224655151,4.3116936683654785,72,7807.0,-20.22638702392578,-305,9888.0
1130,0.0063714683055877686,5.2662353515625,77,7807.0,-2.624898672103882,-10,9888.0
1140,0.006335228681564331,4.741074085235596,35,7807.0,10.783686637878418,351,9888.0
1150,0.006490170955657959,2.3908116817474365,43,7807.0,18.488075256347656,327,9888.0
1160,0.006601393222808838,-0.673488199710846,-52,7807.0,24.273799896240234,463,9888.0
1170,0.005395621061325073,-1.392426609992981,26,7807.0,28.967361450195312,451,9888.0
1180,0.0053736865520477295,1.9434549808502197,31,7807.0,32.536041259765625,459,9888.0
1190,0.005285054445266724,9.713726043701172,249,7807.0,32.10398864746094,478,9888.0
1200,0.00520208477973938,16.97405242919922,255,7807.0,31.699644088745117,495,9888.0
1210,0.003919124603271484,20.550617218017578,367,7807.0,32.671897888183594,611,9888.0
1220,0.0038971006870269775,25.275672912597656,409,7807.0,30.354883193969727,580,9888.0
1230,0.003979116678237915,24.514415740966797,359,7807.0,33.48914337158203,703,9888.0
1240,0.003947705030441284,13.420944213867188,162,7807.0,38.654048919677734,588,9888.0
1250,0.004609823226928711,-3.491746664047241,-149,7807.0,33.209228515625,632,9888.0
1260,0.004702776670455933,-21.131406784057617,-383,7807.0,23.960548400878906,353,9888.0
1270,0.004672050476074219,-33.03805923461914,-604,7807.0,12.514724731445312,212,9888.0
1280,0.004650145769119263,-36.07345199584961,-563,7807.0,-2.2845675945281982,-22,9888.0
1290,0.004669815301895142,-32.29804229736328,-484,7807.0,-14.153244018554688,-209,9888.0
1300,0.0066175758838653564,-24.71613311767578,-356,7807.0,-22.542383193969727,-338,9888.0
1310,0.006707727909088135,-14.86463737487793,-256,7807.0,-27.939420700073242,-317,9888.0
1320,0.0070740580558776855,-6.660562515258789,-33,7807.0,-26.919618606567383,-329,9888.0
1330,0.00769418478012085,2.630037546157837,46,7807.0,-20.916244506835938,-259,9888.0
1340,0.009059399366378784,9.848712921142578,206,7807.0,-7.502853870391846,57,9888.0
1350,0.009571462869644165,15.696734428405762,262,7807.0,10.572295188903809,251,9888.0
1360,0.010198056697845459,18.30571174621582,283,7807.0,28.484153747558594,648,9888.0
1370,0.01062801480293274,16.85430908203125,293,7807.0,44.01043701171875,854,9888.0
1380,0.011186212301254272,14.532074928283691,163,7807.0,50.68649673461914,844,9888.0
1390,0.012472957372665405,5.926044940948486,12,7807.0,49.35682678222656,962,9888.0
1400,0.012920886278152466,-0.7731298208236694,-41,7807.0,42.914146423339844,650,9888.0
1410,0.01386803388595581,-5.009554386138916,-166,7807.0,29.484331130981445,389,9888.0
1420,0.014293253421783447,-7.519145488739014,-64,7807.0,11.892892837524414,108,9888.0
1430,0.014616638422012329,-5.397084712982178,-86,7807.0,-6.655841827392578,-336,9888.0
1440,0.014968186616897583,-1.4726405143737793,44,7807.0,-24.32238006591797,-556,9888.0
1450,0.01533171534538269,5.807984828948975,254,7807.0,-33.69121170043945,-644,9888.0
1460,0.015604227781295776,18.710474014282227,396,7807.0,-33.25959014892578,-489,9888.0
1470,0.016022026538848877,25.895002365112305,510,7807.0,-19.97411346435547,-235,9888.0
1480,0.018466711044311523,31.838186264038086,562,7807.0,-4.737604141235352,-70,9888.0
1490,0.018957197666168213,33.15165710449219,487,7807.0,8.863703727722168,151,9888.0
1500,0.019593536853790283,19.13979721069336,181,7807.0,19.42374610900879,355,9888.0
1510,0.020116031169891357,-1.6149786710739136,-144,7807.0,32.484493255615234,626,9888.0
1520,0.02237001061439514,-28.974693298339844,-585,7807.0,40.28710174560547,584,9888.0
1530,0.022969037294387817,-44.7176513671875,-771,7807.0,49.45305252075195,790,9888.0
1540,0.023678094148635864,-47.1594123840332,-711,7807.0,55.051239013671875,1057,9888.0
1550,0.0241205096244812,-39.88054656982422,-661,7807.0,47.48565673828125,622,9888.0
1560,0.024377137422561646,-24.482378005981445,-327,7807.0,31.91141128540039,516,9888.0
1570,0.02536928653717041,-3.6701996326446533,53,7807.0,9.557690620422363,-58,9888.0
1580,0.02654409408569336,17.535375595092773,391,7807.0,-15.839255332946777,-373,9888.0
1590,0.02739444375038147,30.489763259887695,513,7807.0,-39.86750411987305,-711,9888.0
1600,0.028111308813095093,37.80810546875,587,7807.0,-59.0180778503418,-956,9888.0
1610,0.0269925594329834,35.450408935546875,587,7807.0,-70.46186065673828,-1226,9888.0
1620,0.02764180302619934,24.189523696899414,348,7807.0,-73.6366195678711,-1377,9888.0
1630,0.027885019779205322,12.914948463439941,146,7807.0,-69.24154663085938,-1139,9888.0
1640,0.028145641088485718,1.156785488128662,-27,7807.0,-55.95423126220703,-892,9888.0
1650,0.027024447917938232,-9.12671184539795,-134,7807.0,-36.51603698730469,-558,9888.0
1660,0.027647823095321655,-18.446914672851562,-304,7807.0,-16.66398048400879,-337,9888.0
1670,0.027830690145492554,-24.88588523864746,-400,7807.0,-3.0613763332366943,-106,9888.0
1680,0.0281294584274292,-26.172651290893555,-447,7807.0,5.109745979309082,38,9888.0
1690,0.02836531400680542,-25.098005294799805,-359,7807.0,8.293855667114258,152,9888.0
1700,0.025522828102111816,-18.57266616821289,-188,7807.0,12.178483963012695,262,9888.0
1710,0.025609910488128662,-7.729365825653076,-94,7807.0,10.589425086975098,185,9888.0
1720,0.02575969696044922,7.640382289886475,88,7807.0,11.027917861938477,204,9888.0
1730,0.025992006063461304,15.086028099060059,293,7807.0,9.337646484375,22,9888.0
1740,0.02416166663169861,20.55240249633789,420,7807.0,1.0052986145019531,2,9888.0
1750,0.02420094609260559,23.25877571105957,459,7807.0,-0.65296471118927,13,9888.0
1760,0.024116188287734985,17.7520809173584,197,7807.0,5.790018081665039,147,9888.0
1770,0.024045467376708984,7.506948947906494,25,7807.0,11.233787536621094,249,9888.0
1780,0.022177785634994507,-1.7529281377792358,-129,7807.0,15.432963371276855,196,9888.0
1790,0.022119998931884766,-9.693425178527832,-138,7807.0,14.225472450256348,247,9888.0
1800,0.022089064121246338,-18.465707778930664,-277,7807.0,13.795992851257324,247,9888.0
1810,0.022019684314727783,-20.1269588470459,-293,7807.0,12.91171646118164,308,9888.0
1820,0.022080719470977783,-20.25605583190918,-396,7807.0,11.516656875610352,94,9888.0
1830,0.02139940857887268,-17.181427001953125,-260,7807.0,4.9733357429504395,-39,9888.0
1840,0.021740645170211792,-10.556869506835938,-115,7807.0,-6.979576110839844,22,9888.0
1850,0.022033214569091797,-1.4081554412841797,3,7807.0,-17.60558319091797,-324,9888.0
1860,0.022156625986099243,6.198846340179443,135,7807.0,-21.954795837402344,-487,9888.0
1870,0.022424429655075073,10.425312995910645,180,7807.0,-27.683195114135742,-491,9888.0
1880,0.02236717939376831,12.39634895324707,177,7807.0,-31.812362670898438,-348,9888.0
1890,0.022304147481918335,13.081381797790527,239,7807.0,-30.929853439331055,-504,9888.0
1900,0.022289782762527466,16.351533889770508,346,7807.0,-31.283559799194336,-520,9888.0
1910,0.022459298372268677,10.728007316589355,226,7807.0,-24.710304260253906,-516,9888.0
1920,0.020387381315231323,3.7003509998321533,47,7807.0,-23.087158203125,-275,9888.0
1930,0.0202275812625885,-1.394189715385437,-77,7807.0,-13.52397632598877,-200,9888.0
1940,0.020255833864212036,-4.5920796394348145,-122,7807.0,-5.398805141448975,-16,9888.0
1950,0.02031460404396057,-4.885583877563477,-141,7807.0,6.996490478515625,186,9888.0
1960,0.019373804330825806,-1.070626974105835,-73,7807.0,16.52373695373535,298,9888.0
1970,0.01941847801208496,0.42390871047973633,-21,7807.0,31.08350372314453,542,9888.0
1980,0.01935926079750061,-0.7902729511260986,-43,7807.0,41.44795227050781,802,9888.0
1990,0.019277483224868774,-1.9794598817825317,-28,7807.0,53.706581115722656,1006,9888.0
2000,0.019059479236602783,-6.003726005554199,-122,7807.0,54.14181137084961,1019,9888.0
2010,0.01896989345550537,-5.056473731994629,20,7807.0,53.6824836730957,804,9888.0
2020,0.018856674432754517,-0.3872426450252533,39,7807.0,44.789939880371094,708,9888.0
2030,0.01972341537475586,2.2066574096679688,-30,7807.0,21.663541793823242,190,9888.0
2040,0.019737154245376587,4.625500202178955,29,7807.0,-3.3695805072784424,-234,9888.0
2050,0.02145850658416748,2.9088640213012695,29,7807.0,-22.37216567993164,-312,9888.0
2060,0.02170616388320923,3.6076619625091553,69,7807.0,-31.872543334960938,-540,9888.0
2070,0.02195677161216736,6.682842254638672,114,7807.0,-35.73174285888672,-655,9888.0
2080,0.022283047437667847,4.791559219360352,94,7807.0,-35.239227294921875,-563,9888.0
2090,0.024217873811721802,3.6190216541290283,28,7807.0,-28.541736602783203,-379,9888.0
2100,0.024645209312438965,5.44068717956543,-69,7807.0,-17.562082290649414,-142,9888.0
2110,0.025007575750350952,5.555286407470703,-39,7807.0,-7.32620906829834,-141,9888.0
2120,0.025299519300460815,1.5030059814453125,8,7807.0,3.570814609527588,129,9888.0
2130,0.02564355731010437,-0.8533251881599426,21,7807.0,10.518725395202637,187,9888.0
2140,0.026848971843719482,-5.733285903930664,-84,7807.0,21.184022903442383,445,9888.0
2150,0.027243077754974365,-7.699492454528809,-106,7807.0,21.699583053588867,421,9888.0
2160,0.02756863832473755,-8.765375137329102,-172,7807.0,17.532621383666992,240,9888.0
2170,0.027902811765670776,-8.385489463806152,-217,7807.0,10.686863899230957,168,9888.0
2180,0.028931647539138794,-5.120713233947754,-73,7807.0,0.7260946035385132,6,9888.0
2190,0.02957308292388916,-3.554046630859375,33,7807.0,-0.24081158638000488,-107,9888.0
2200,0.03020647168159485,8.567489624023438,345,7807.0,-0.9082721471786499,-33,9888.0
2210,0.030788064002990723,25.047855377197266,436,7807.0,3.043534994125366,53,9888.0
2220,0.03120344877243042,34.00176239013672,498,7807.0,3.305229902267456,119,9888.0
2230,0.03186732530593872,32.487876892089844,504,7807.0,5.855785369873047,44,9888.0
2240,0.03267583250999451,21.73759651184082,251,7807.0,7.907334327697754,224,9888.0
2250,0.033256977796554565,4.805713653564453,27,7807.0,10.032123565673828,271,9888.0
2260,0.03398522734642029,-11.557222366333008,-189,7807.0,23.858686447143555,434,9888.0
2270,0.03546157479286194,-23.945871353149414,-359,7807.0,30.637895584106445,504,9888.0
2280,0.03595903515815735,-31.516443252563477,-460,7807.0,34.8995361328125,423,9888.0
2290,0.03636777400970459,-36.679290771484375,-675,7807.0,36.74177169799805,687,9888.0
2300,0.03673890233039856,-32.729007720947266,-552,7807.0,34.6767692565918,618,9888.0
2310,0.03661760687828064,-28.682464599609375,-401,7807.0,34.22514724731445,542,9888.0
2320,0.03691723942756653,-13.48709774017334,-63,7807.0,25.37715721130371,245,9888.0
2330,0.03722429275512695,0.8421009182929993,2,7807.0,10.07355785369873,133,9888.0
2340,0.037525683641433716,8.681378364562988,111,7807.0,-9.926619529724121,-237,9888.0
2350,0.03797444701194763,9.572576522827148,266,7807.0,-26.195697784423828,-511,9888.0
2360,0.03646746277809143,10.826033592224121,155,7807.0,-39.97124481201172,-665,9888.0
2370,0.036772727966308594,10.169113159179688,92,7807.0,-43.409912109375,-823,9888.0
2380,0.03708425164222717,10.140091896057129,209,7807.0,-39.42951583862305,-622,9888.0
2390,0.03739926218986511,7.080983638763428,119,7807.0,-31.49129295349121,-470,9888.0
2400,0.03710940480232239,7.0365309715271,9,7807.0,-28.862119674682617,-225,9888.0
2410,0.03743657469749451,-2.424922466278076,-60,7807.0,-20.159807205200195,-243,9888.0
2420,0.03777575492858887,-9.86194896697998,-128,7807.0,-16.988935470581055,-353,9888.0
2430,0.038040369749069214,-9.898159980773926,-56,7807.0,-19.099605560302734,-379,9888.0
2440,0.035840630531311035,-2.410067081451416,3,7807.0,-15.668861389160156,-250,9888.0
2450,0.0361274778842926,3.3581812381744385,77,7807.0,-5.189752578735352,-54,9888.0
2460,0.03629586100578308,14.057622909545898,186,7807.0,7.865583419799805,154,9888.0
2470,0.03638759255409241,14.879727363586426,173,7807.0,18.435033798217773,313,9888.0
2480,0.03645685315132141,12.591775894165039,186,7807.0,21.92925453186035,201,9888.0
2490,0.03399980068206787,4.600396633148193,128,7807.0,20.764198303222656,337,9888.0
2500,0.03393983840942383,-6.174271106719971,-123,7807.0,26.2995662689209,488,9888.0
2510,0.03380376100540161,-12.30776596069336,-266,7807.0,23.2958927154541,527,9888.0
2520,0.033666372299194336,-15.171276092529297,-258,7807.0,21.47235679626465,296,9888.0
2530,0.0322413444519043,-19.85446548461914,-271,7807.0,18.620779037475586,271,9888.0
2540,0.03229019045829773,-15.387520790100098,-310,7807.0,15.00167179107666,298,9888.0
2550,0.03235572576522827,-13.99740219116211,-230,7807.0,10.408025741577148,76,9888.0
2560,0.0324898362159729,-13.125444412231445,-254,7807.0,-1.3482896089553833,46,9888.0
2570,0.0327436625957489,-11.541536331176758,-176,7807.0,-17.583330154418945,-361,9888.0
2580,0.03161206841468811,-6.271916389465332,-58,7807.0,-30.895414352416992,-557,9888.0
2590,0.03160136938095093,-2.237067699432373,-59,7807.0,-33.959964752197266,-528,9888.0
2600,0.03156360983848572,3.7775068283081055,57,7807.0,-32.98204803466797,-524,9888.0
2610,0.031484395265579224,11.23127555847168,267,7807.0,-32.54616928100586,-545,9888.0
2620,0.029110431671142578,16.280052185058594,271,7807.0,-34.251808166503906,-457,9888.0
2630,0.028680920600891113,19.7540340423584,284,7807.0,-28.262296676635742,-489,9888.0
2640,0.02823302149772644,18.401628494262695,361,7807.0,-18.34989356994629,-383,9888.0
2650,0.027709901332855225,21.792512893676758,379,7807.0,-14.763899803161621,-244,9888.0
2660,0.02741307020187378,18.399738311767578,266,7807.0,-14.30164909362793,-220,9888.0
2670,0.026930779218673706,13.293947219848633,84,7807.0,-12.376007080078125,-186,9888.0
2680,0.0265045166015625,2.877150058746338,-6,7807.0,-1.2945061922073364,-2,9888.0
2690,0.026285320520401,-3.949897050857544,-144,7807.0,1.1527044773101807,75,9888.0
2700,0.026225656270980835,0.3167792558670044,-12,7807.0,4.616140365600586,77,9888.0
2710,0.02549263834953308,-1.5944803953170776,-105,7807.0,6.471010208129883,33,9888.0
2720,0.025284647941589355,-10.428380966186523,-168,7807.0,9.247689247131348,23,9888.0
2730,0.02501732110977173,-9.942057609558105,-245,7807.0,2.4683079719543457,132,9888.0
2740,0.024797111749649048,-8.54884147644043,-110,7807.0,2.8059585094451904,-61,9888.0
2750,0.02552008628845215,-2.2340104579925537,31,7807.0,0.3433966040611267,-22,9888.0
2760,0.0255565345287323,5.081223011016846,48,7807.0,-1.2250972986221313,77,9888.0
2770,0.025669008493423462,12.15088939666748,192,7807.0,5.722632884979248,30,9888.0
2780,0.02587449550628662,16.29789161682129,334,7807.0,9.248294830322266,245,9888.0
2790,0.02616634964942932,22.43894386291504,365,7807.0,15.014351844787598,263,9888.0
2800,0.028411000967025757,22.08589744567871,290,7807.0,20.242992401123047,298,9888.0
2810,0.028915852308273315,19.5886287689209,254,7807.0,20.596555709838867,304,9888.0
2820,0.02955549955368042,7.685336589813232,30,7807.0,16.721546173095703,156,9888.0
2830,0.029987186193466187,-3.5840234756469727,-212,7807.0,5.185031890869141,66,9888.0
2840,0.030175089836120605,-16.7554988861084,-402,7807.0,-1.361099123954773,-128,9888.0
2850,0.030618995428085327,-26.61557388305664,-410,7807.0,-4.854501247406006,-297,9888.0
2860,0.031085342168807983,-29.22705078125,-395,7807.0,-5.1735358238220215,-149,9888.0
2870,0.03150781989097595,-27.323801040649414,-277,7807.0,-7.338135242462158,-155,9888.0
2880,0.03295797109603882,-18.531635284423828,-305,7807.0,-11.120165824890137,-123,9888.0
2890,0.03319618105888367,-10.349244117736816,-230,7807.0,-8.745018005371094,-100,9888.0
2900,0.0336112380027771,-8.923470497131348,-200,7807.0,-0.08552016317844391,-76,9888.0
2910,0.034214526414871216,-8.065896034240723,-151,7807.0,14.150691986083984,218,9888.0
2920,0.03477659821510315,-10.151494026184082,-163,7807.0,20.40375518798828,366,9888.0
2930,0.035943686962127686,-15.558414459228516,-270,7807.0,27.731172561645508,686,9888.0
2940,0.036251842975616455,-16.003253936767578,-217,7807.0,38.5741081237793,658,9888.0
2950,0.036747366189956665,-9.598163604736328,-13,7807.0,50.47445297241211,852,9888.0
2960,0.0372142493724823,-0.5276409387588501,74,7807.0,48.86161422729492,735,9888.0
2970,0.038130879402160645,9.620542526245117,169,7807.0,40.384193420410156,495,9888.0
2980,0.03878223896026611,16.967391967773438,298,7807.0,27.724380493164062,450,9888.0
2990,0.039494991302490234,21.795984268188477,354,7807.0,17.328014373779297,278,9888.0
3000,0.040207743644714355,16.936866760253906,341,7807.0,8.026764869689941,73,9888.0
3010,0.0409758985042572,15.061208724975586,248,7807.0,-5.633029937744141,-91,9888.0
3020,0.04183194041252136,7.19371223449707,92,7807.0,-11.112106323242188,-326,9888.0
3030,0.042815208435058594,-1.4360358715057373,-26,7807.0,-17.304895401000977,-329,9888.0
3040,0.0438346266746521,-2.0014374256134033,-122,7807.0,-22.148088455200195,-324,9888.0
3050,0.0448479950428009,-4.2576751708984375,-107,7807.0,-16.99814224243164,-374,9888.0
3060,0.04579108953475952,-8.17232894897461,-164,7807.0,-12.85824203491211,-155,9888.0
3070,0.04681682586669922,0.6919736266136169,-57,7807.0,-4.422347545623779,-7,9888.0
3080,0.04776027798652649,-3.0190820693969727,-84,7807.0,8.485437393188477,47,9888.0
3090,0.048709720373153687,1.0306793451309204,92,7807.0,12.204063415527344,203,9888.0
3100,0.0473271906375885,4.321788311004639,71,7807.0,12.610740661621094,325,9888.0
3110,0.047946929931640625,3.5390491485595703,44,7807.0,11.080001831054688,221,9888.0
3120,0.04850047826766968,3.117722749710083,72,7807.0,2.7059638500213623,-139,9888.0
3130,0.04908075928688049,3.7259817123413086,112,7807.0,-4.221151828765869,-93,9888.0
3140,0.04976266622543335,19.231658935546875,327,7807.0,-9.339783668518066,-61,9888.0
3150,0.04847559332847595,31.483022689819336,526,7807.0,-4.649258136749268,-127,9888.0
3160,0.04915526509284973,44.510398864746094,866,7807.0,-4.244653701782227,-85,9888.0
3170,0.04963156580924988,52.78532409667969,846,7807.0,-17.778518676757812,-262,9888.0
3180,0.050040364265441895,43.647647857666016,743,7807.0,-19.004154205322266,-230,9888.0
3190,0.04845386743545532,28.034631729125977,378,7807.0,-8.311236381530762,65,9888.0
3200,0.04881754517555237,13.577930450439453,39,7807.0,11.089702606201172,395,9888.0
3210,0.04869458079338074,-3.3251471519470215,-197,7807.0,30.576810836791992,773,9888.0
3220,0.048531293869018555,-24.61745834350586,-530,7807.0,46.82819366455078,983,9888.0
3230,0.04891088604927063,-42.081092834472656,-721,7807.0,47.0871696472168,748,9888.0
3240,0.04889515042304993,-55.23440170288086,-824,7807.0,46.756099700927734,704,9888.0
3250,0.04866194725036621,-65.02307891845703,-999,7807.0,27.38235092163086,415,9888.0
3260,0.04902833700180054,-54.462196350097656,-810,7807.0,0.2988317608833313,-332,9888.0
3270,0.04967457056045532,-34.379981994628906,-453,7807.0,-35.25602340698242,-652,9888.0
3280,0.04714089632034302,-7.9086809158325195,-68,7807.0,-64.06763458251953,-1122,9888.0
3290,0.04767519235610962,10.251104354858398,270,7807.0,-82.86549377441406,-1332,9888.0
3300,0.04770466685295105,19.08411407470703,377,7807.0,-79.75989532470703,-1239,9888.0
3310,0.04806366562843323,26.15468978881836,447,7807.0,-68.50141906738281,-1183,9888.0
3320,0.046693265438079834,24.01050567626953,431,7807.0,-50.65092849731445,-799,9888.0
3330,0.046537309885025024,18.502670288085938,211,7807.0,-32.856056213378906,-453,9888.0
3340,0.04633978009223938,7.4113850593566895,82,7807.0,-20.138898849487305,-241,9888.0
3350,0.04621690511703491,0.5006904006004333,-19,7807.0,-6.471844673156738,-64,9888.0
3360,0.0460667610168457,-5.4416823387146,-46,7807.0,2.4424281120300293,-2,9888.0
3370,0.043143242597579956,-6.143557548522949,18,7807.0,10.550981521606445,185,9888.0
3380,0.04259946942329407,-2.1906161308288574,-25,7807.0,11.549579620361328,277,9888.0
3390,0.042109906673431396,0.856927216053009,32,7807.0,15.59897232055664,399,9888.0
3400,0.041707754135131836,10.438704490661621,141,7807.0,24.95673942565918,504,9888.0
3410,0.040316224098205566,8.904121398925781,200,7807.0,33.20145797729492,650,9888.0
3420,0.0396403968334198,7.956484317779541,92,7807.0,36.2259521484375,682,9888.0
3430,0.03880396485328674,2.585902690887451,-69,7807.0,29.747474670410156,446,9888.0
3440,0.03801685571670532,-4.2864460945129395,-41,7807.0,18.44420623779297,265,9888.0
3450,0.038865119218826294,-12.302186012268066,-221,7807.0,0.40769121050834656,6,9888.0
3460,0.03784558176994324,-15.86266803741455,-254,7807.0,-4.086038589477539,-50,9888.0
3470,0.0367753803730011,-15.513042449951172,-261,7807.0,-0.7533730864524841,-7,9888.0
3480,0.035606443881988525,-10.306917190551758,-106,7807.0,-6.350478649139404,-158,9888.0
3490,0.0344262421131134,-7.037569046020508,-153,7807.0,-16.051620483398438,-325,9888.0
3500,0.03513053059577942,-5.605190277099609,-68,7807.0,-23.273447036743164,-495,9888.0
3510,0.03429979085922241,1.9479376077651978,69,7807.0,-25.648466110229492,-390,9888.0
3520,0.03364533185958862,6.994693279266357,178,7807.0,-23.410703659057617,-418,9888.0
3530,0.03331482410430908,7.985448360443115,145,7807.0,-8.262672424316406,-8,9888.0
3540,0.0353257954120636,6.031729221343994,61,7807.0,-2.5838375091552734,20,9888.0
3550,0.035388559103012085,4.658720016479492,155,7807.0,1.2990678548812866,-65,9888.0
3560,0.03562372922897339,3.0201332569122314,-4,7807.0,2.7613720893859863,102,9888.0
3570,0.03600728511810303,0.16463832557201385,-37,7807.0,4.365521430969238,91,9888.0
3580,0.03653410077095032,-7.109990119934082,-137,7807.0,6.153554439544678,116,9888.0
3590,0.03849530220031738,-7.8900322914123535,-162,7807.0,-3.6958119869232178,-167,9888.0
3600,0.039338648319244385,-8.351598739624023,-71,7807.0,-10.937226295471191,-248,9888.0
3610,0.04031535983085632,-6.371409893035889,-155,7807.0,-15.183138847351074,-192,9888.0
3620,0.04137718677520752,1.8548455238342285,101,7807.0,-11.915090560913086,-317,9888.0
3630,0.041898250579833984,19.63866424560547,421,7807.0,-9.326544761657715,-44,9888.0
3640,0.043158918619155884,35.471351623535156,615,7807.0,4.622615337371826,197,9888.0
3650,0.04449394345283508,43.75138854980469,761,7807.0,16.410057067871094,270,9888.0
3660,0.04573965072631836,43.88587188720703,719,7807.0,27.851316452026367,454,9888.0
3670,0.04634678363800049,25.277193069458008,316,7807.0,34.831695556640625,582,9888.0
3680,0.04755169153213501,0.49703550338745117,-134,7807.0,37.30372619628906,644,9888.0
3690,0.04850885272026062,-19.286666870117188,-423,7807.0,36.82744598388672,553,9888.0
3700,0.049219876527786255,-30.980253219604492,-527,7807.0,29.392765045166016,372,9888.0
3710,0.049855172634124756,-34.6606559753418,-610,7807.0,23.744760513305664,378,9888.0
3720,0.04837694764137268,-33.23530960083008,-528,7807.0,15.947065353393555,307,9888.0
3730,0.04870840907096863,-27.938392639160156,-449,7807.0,4.595744609832764,89,9888.0
3740,0.04880243539810181,-22.67491912841797,-239,7807.0,-4.967067241668701,-100,9888.0
3750,0.04875439405441284,-11.86644458770752,-106,7807.0,-16.062923431396484,-238,9888.0
3760,0.04902330040931702,-1.6282882690429688,-10,7807.0,-23.382360458374023,-282,9888.0
3770,0.04879167675971985,8.537308692932129,146,7807.0,-17.218402862548828,-297,9888.0
3780,0.04862123727798462,11.992793083190918,234,7807.0,-11.94786548614502,-67,9888.0
3790,0.048593223094940186,13.89091682434082,207,7807.0,4.790887832641602,187,9888.0
3800,0.04954099655151367,15.854424476623535,245,7807.0,16.886096954345703,265,9888.0
3810,0.049594998359680176,7.750895977020264,153,7807.0,23.42466926574707,206,9888.0
3820,0.04989743232727051,2.0130748748779297,29,7807.0,20.105579376220703,348,9888.0
3830,0.050261080265045166,-0.7421924471855164,-32,7807.0,15.948508262634277,257,9888.0
3840,0.05069756507873535,1.1108205318450928,-16,7807.0,19.631505966186523,297,9888.0
3850,0.050833314657211304,1.7428665161132812,56,7807.0,21.27777862548828,338,9888.0
3860,0.051501959562301636,-1.6581017971038818,-137,7807.0,24.64917755126953,409,9888.0
3870,0.052265018224716187,0.2783462405204773,-76,7807.0,21.573097229003906,326,9888.0
3880,0.05304795503616333,2.8082571029663086,31,7807.0,14.61810302734375,157,9888.0
3890,0.053387582302093506,3.0165188312530518,77,7807.0,8.790446281433105,218,9888.0
3900,0.05395779013633728,3.0454723834991455,6,7807.0,10.080536842346191,80,9888.0
3910,0.05441120266914368,2.5114026069641113,125,7807.0,-0.1383056491613388,-64,9888.0
3920,0.05469256639480591,1.6739749908447266,2,7807.0,-4.220913410186768,19,9888.0
3930,0.05485370755195618,-2.512112617492676,-27,7807.0,-8.289497375488281,-179,9888.0
3940,0.05441325902938843,-2.71024227142334,53,7807.0,-8.22846508026123,-147,9888.0
3950,0.054340481758117676,0.4144015312194824,-20,7807.0,-6.730116844177246,-35,9888.0
3960,0.05421683192253113,0.7416887879371643,-8,7807.0,-8.600790023803711,-176,9888.0
3970,0.05408823490142822,1.074714183807373,16,7807.0,-16.84246826171875,-280,9888.0
3980,0.05506983399391174,-3.357086658477783,-102,7807.0,-22.99420166015625,-330,9888.0
3990,0.05499917268753052,-10.43078899383545,-214,7807.0,-24.869163513183594,-384,9888.0
4000,0.05497691035270691,-16.92118263244629,-334,7807.0,-20.311397552490234,-279,9888.0
4010,0.05488729476928711,-24.15580177307129,-365,7807.0,-10.433981895446777,-91,9888.0
4020,0.05494716763496399,-22.050981521606445,-436,7807.0,-0.6856855154037476,59,9888.0
4030,0.056814879179000854,-22.776992797851562,-364,7807.0,8.142619132995605,62,9888.0
4040,0.05683460831642151,-17.41274070739746,-216,7807.0,5.455305576324463,97,9888.0
4050,0.056814223527908325,-5.4573187828063965,-60,7807.0,3.074781894683838,40,9888.0
4060,0.05692458152770996,8.016761779785156,304,7807.0,0.8372622132301331,30,9888.0
4070,0.057294100522994995,27.85317039489746,495,7807.0,-3.982795476913452,-27,9888.0
4080,0.05732446908950806,38.07746505737305,636,7807.0,-3.807457685470581,-107,9888.0
4090,0.05718564987182617,37.55255126953125,564,7807.0,-5.156383991241455,-65,9888.0
4100,0.05697736144065857,28.15938377380371,344,7807.0,-7.232301235198975,-105,9888.0
4110,0.05832338333129883,9.788673400878906,-14,7807.0,-9.808361053466797,-174,9888.0
4120,0.057909101247787476,-14.752141952514648,-296,7807.0,-8.98046588897705,-179,9888.0
4130,0.0574604868888855,-22.019886016845703,-394,7807.0,-9.64376449584961,-92,9888.0
4140,0.05688130855560303,-17.607757568359375,-254,7807.0,1.111627221107483,-45,9888.0
4150,0.056293874979019165,-10.35686206817627,-42,7807.0,9.131535530090332,231,9888.0
4160,0.05751913785934448,2.420761823654175,23,7807.0,16.567153930664062,320,9888.0
4170,0.05704668164253235,8.769197463989258,143,7807.0,20.611602783203125,290,9888.0
4180,0.056685030460357666,7.388604164123535,136,7807.0,17.67243194580078,283,9888.0
4190,0.056278377771377563,4.340572357177734,36,7807.0,8.023025512695312,76,9888.0
4200,0.05551430583000183,1.8879424333572388,52,7807.0,-3.798024892807007,-89,9888.0
4210,0.05524834990501404,-2.081228733062744,-72,7807.0,-11.142003059387207,-134,9888.0
4220,0.055100440979003906,-6.790501117706299,-91,7807.0,-18.191762924194336,-369,9888.0
4230,0.05513334274291992,-9.089500427246094,-191,7807.0,-21.97830581665039,-307,9888.0
4240,0.05531352758407593,-10.93677043914795,-226,7807.0,-23.098106384277344,-377,9888.0
4250,0.05466055870056152,-11.943581581115723,-179,7807.0,-21.34402084350586,-258,9888.0
4260,0.05506390333175659,-12.745978355407715,-194,7807.0,-18.101308822631836,-369,9888.0
4270,0.055652618408203125,-10.553832054138184,-118,7807.0,-16.748794555664062,-335,9888.0
4280,0.05631077289581299,-1.6362793445587158,-39,7807.0,-14.659357070922852,-94,9888.0
4290,0.05660393834114075,1.5559366941452026,35,7807.0,-4.345507621765137,-103,9888.0
4300,0.057585716247558594,8.859658241271973,216,7807.0,11.13134765625,322,9888.0
4310,0.05871352553367615,18.610017776489258,295,7807.0,35.059913635253906,731,9888.0
4320,0.05987626314163208,27.222091674804688,462,7807.0,50.483280181884766,770,9888.0
4330,0.058932363986968994,25.006778717041016,415,7807.0,51.65804672241211,948,9888.0
4340,0.0598568320274353,13.97913646697998,158,7807.0,40.56958770751953,720,9888.0
4350,0.06120738387107849,4.709548473358154,106,7807.0,26.03415298461914,332,9888.0
4360,0.06194397807121277,-8.015095710754395,-174,7807.0,6.431751728057861,67,9888.0
4370,0.06311643123626709,-17.104360580444336,-264,7807.0,-12.269006729125977,-269,9888.0
4380,0.0623985230922699,-19.686054229736328,-331,7807.0,-20.87155532836914,-324,9888.0
4390,0.06279593706130981,-19.371383666992188,-323,7807.0,-25.230239868164062,-516,9888.0
4400,0.06318914890289307,-16.799259185791016,-255,7807.0,-27.45250129699707,-338,9888.0
4410,0.063548743724823,-13.613645553588867,-234,7807.0,-29.927188873291016,-434,9888.0
4420,0.060887694358825684,-9.793035507202148,-19,7807.0,-34.724666595458984,-522,9888.0
4430,0.06114545464515686,-2.320826292037964,-40,7807.0,-29.32567024230957,-382,9888.0
4440,0.06146088242530823,0.33318448066711426,41,7807.0,-16.969518661499023,-285,9888.0
4450,0.06170251965522766,2.8817248344421387,58,7807.0,-3.23225474357605,113,9888.0
4460,0.06082984805107117,3.142963171005249,16,7807.0,6.524428844451904,73,9888.0
4470,0.061193883419036865,-1.5190744400024414,6,7807.0,9.693219184875488,175,9888.0
4480,0.06161949038505554,-5.031117916107178,-155,7807.0,10.962303161621094,176,9888.0
4490,0.06209173798561096,-9.757375717163086,-186,7807.0,8.161770820617676,56,9888.0
4500,0.06266677379608154,-6.646510601043701,-85,7807.0,1.7213425636291504,-7,9888.0
4510,0.059770673513412476,-1.3316434621810913,-7,7807.0,-4.2083940505981445,-185,9888.0
4520,0.06038719415664673,10.003449440002441,238,7807.0,-10.401995658874512,-144,9888.0
4530,0.06119197607040405,21.836376190185547,376,7807.0,-4.750781536102295,-14,9888.0
4540,0.062126994132995605,32.283180236816406,568,7807.0,11.094603538513184,154,9888.0
4550,0.058667898178100586,37.25874710083008,586,7807.0,29.55707550048828,571,9888.0
4560,0.05966642498970032,28.42717933654785,348,7807.0,37.8173828125,621,9888.0
4570,0.06049802899360657,14.51061725616455,129,7807.0,29.790224075317383,251,9888.0
4580,0.06148073077201843,-1.0863924026489258,-38,7807.0,3.3312110900878906,-29,9888.0
4590,0.062410831451416016,-8.540205001831055,-227,7807.0,-17.605527877807617,-321,9888.0
4600,0.05876407027244568,-10.46997356414795,-174,7807.0,-22.48206329345703,-508,9888.0
4610,0.05895733833312988,-6.878753185272217,-31,7807.0,-27.614360809326172,-384,9888.0
4620,0.059020668268203735,-7.565662860870361,-129,7807.0,-13.11388874053955,-53,9888.0
4630,0.059049129486083984,-5.230213642120361,-48,7807.0,-1.8394328355789185,-27,9888.0
4640,0.05451163649559021,-2.8557517528533936,-21,7807.0,14.255317687988281,303,9888.0
4650,0.05427098274230957,-5.105650424957275,-116,7807.0,19.527259826660156,390,9888.0
4660,0.054082900285720825,-8.710808753967285,-183,7807.0,12.40392017364502,152,9888.0
4670,0.05391612648963928,-15.306215286254883,-275,7807.0,6.348499774932861,121,9888.0
4680,0.05266594886779785,-17.51297950744629,-262,7807.0,-2.362711191177368,-97,9888.0
4690,0.052842020988464355,-13.649205207824707,-228,7807.0,-13.248818397521973,-148,9888.0
4700,0.052885472774505615,-12.887974739074707,-160,7807.0,-16.529277801513672,-398,9888.0
4710,0.052973031997680664,-3.234194040298462,37,7807.0,-19.575130462646484,-295,9888.0
4720,0.05307114124298096,1.6852566003799438,31,7807.0,-20.255281448364258,-364,9888.0
4730,0.05082938075065613,4.847191333770752,109,7807.0,-23.413524627685547,-428,9888.0
4740,0.05096006393432617,6.877392292022705,110,7807.0,-25.323198318481445,-401,9888.0
4750,0.051158130168914795,8.321488380432129,158,7807.0,-23.625967025756836,-410,9888.0
4760,0.05144608020782471,9.463062286376953,153,7807.0,-24.1857852935791,-335,9888.0
4770,0.04973432421684265,9.977852821350098,137,7807.0,-19.271684646606445,-247,9888.0
4780,0.04992341995239258,11.29111385345459,236,7807.0,-6.381323337554932,-62,9888.0
4790,0.05013951659202576,18.88111686706543,413,7807.0,6.430479049682617,264,9888.0
4800,0.05044287443161011,31.76930046081543,535,7807.0,23.3521671295166,395,9888.0
4810,0.0507645308971405,36.5545768737793,583,7807.0,29.191736221313477,403,9888.0
4820,0.049449145793914795,29.96800994873047,433,7807.0,22.439191818237305,411,9888.0
4830,0.04968544840812683,8.382065773010254,-81,7807.0,22.573711395263672,436,9888.0
4840,0.050131410360336304,-22.136127471923828,-476,7807.0,21.74899673461914,260,9888.0
4850,0.050721436738967896,-43.59737777709961,-734,7807.0,16.487506866455078,239,9888.0
4860,0.05265501141548157,-51.650970458984375,-865,7807.0,7.3278422355651855,75,9888.0
4870,0.053137511014938354,-47.35171890258789,-651,7807.0,-3.2248048782348633,-72,9888.0
4880,0.05363863706588745,-34.50452423095703,-495,7807.0,-16.854597091674805,-299,9888.0
4890,0.054604411125183105,-20.942855834960938,-251,7807.0,-29.050310134887695,-482,9888.0
4900,0.05422008037567139,-6.833372592926025,-100,7807.0,-25.666908264160156,-296,9888.0
4910,0.05494111776351929,9.06386661529541,241,7807.0,-23.51215171813965,-365,9888.0
4920,0.05572575330734253,21.829483032226562,447,7807.0,-10.816947937011719,-15,9888.0
4930,0.056783199310302734,30.781278610229492,462,7807.0,-0.4397925138473511,128,9888.0
4940,0.05800190567970276,27.162260055541992,470,7807.0,12.039878845214844,139,9888.0
4950,0.058077603578567505,21.81034278869629,305,7807.0,17.624361038208008,292,9888.0
4960,0.05931496620178223,8.016867637634277,29,7807.0,20.87207794189453,415,9888.0
4970,0.060574859380722046,-2.2309048175811768,-144,7807.0,28.883390426635742,433,9888.0
4980,0.06177029013633728,-5.620799541473389,-84,7807.0,28.19333267211914,437,9888.0
4990,0.06184592843055725,-11.304153442382812,-264,7807.0,23.246429443359375,357,9888.0
5000,0.06295964121818542,-18.092721939086914,-356,7807.0,12.843031883239746,105,9888.0
5010,0.0640651285648346,-12.659660339355469,-111,7807.0,8.485854148864746,25,9888.0
5020,0.06523263454437256,4.300310134887695,125,7807.0,1.185923457145691,138,9888.0
5030,0.06465977430343628,23.846393585205078,436,7807.0,5.070969104766846,191,9888.0
5040,0.0658922791481018,32.989219665527344,572,7807.0,15.350290298461914,289,9888.0
5050,0.06714841723442078,34.705753326416016,539,7807.0,20.139453887939453,301,9888.0
5060,0.06838682293891907,22.272899627685547,282,7807.0,17.844900131225586,372,9888.0
5070,0.0695008635520935,2.6430325508117676,-79,7807.0,9.656941413879395,248,9888.0
5080,0.06815105676651001,-19.59951400756836,-346,7807.0,6.908463478088379,105,9888.0
5090,0.06890228390693665,-32.09375,-477,7807.0,5.732894420623779,130,9888.0
5100,0.06948313117027283,-31.966150283813477,-451,7807.0,6.861119747161865,176,9888.0
5110,0.07005375623703003,-23.719139099121094,-348,7807.0,5.2872161865234375,124,9888.0
5120,0.07019612193107605,-9.291666030883789,-47,7807.0,9.594744682312012,191,9888.0
5130,0.07063227891921997,6.984500408172607,142,7807.0,17.071382522583008,281,9888.0
5140,0.0710817277431488,22.64781379699707,457,7807.0,21.830652236938477,301,9888.0
5150,0.07155200839042664,27.10987663269043,426,7807.0,28.141857147216797,538,9888.0
5160,0.07191082835197449,24.30010414123535,271,7807.0,26.416637420654297,542,9888.0
5170,0.0685252845287323,14.296189308166504,229,7807.0,20.682777404785156,172,9888.0
5180,0.06879153847694397,2.4580233097076416,30,7807.0,8.093099594116211,136,9888.0
5190,0.06898915767669678,-6.743703365325928,-163,7807.0,-4.001804828643799,-128,9888.0
5200,0.06939372420310974,-11.383013725280762,-171,7807.0,-20.02345085144043,-326,9888.0
5210,0.06661617755889893,-17.731754302978516,-346,7807.0,-32.537166595458984,-529,9888.0
5220,0.06674063205718994,-23.02210235595703,-293,7807.0,-42.36091232299805,-767,9888.0
5230,0.06687703728675842,-16.344755172729492,-250,7807.0,-49.3585090637207,-727,9888.0
5240,0.06705361604690552,-11.62014102935791,-206,7807.0,-48.4506950378418,-735,9888.0
5250,0.0654221773147583,-3.3759424686431885,58,7807.0,-36.10651397705078,-566,9888.0
5260,0.06598272919654846,11.897299766540527,231,7807.0,-13.698156356811523,-39,9888.0
5270,0.06611278653144836,20.588571548461914,366,7807.0,8.529325485229492,198,9888.0
5280,0.06620100140571594,31.53563690185547,588,7807.0,29.24007797241211,498,9888.0
5290,0.06625831127166748,32.289100646972656,520,7807.0,37.09375,682,9888.0
5300,0.06499472260475159,21.482620239257812,316,7807.0,28.172805786132812,369,9888.0
5310,0.06485244631767273,6.623047828674316,37,7807.0,13.657918930053711,214,9888.0
5320,0.06502196192741394,-6.844515323638916,-211,7807.0,2.178697109222412,-10,9888.0
5330,0.06498584151268005,-16.22038459777832,-350,7807.0,-9.739429473876953,-189,9888.0
5340,0.06507295370101929,-26.73107147216797,-466,7807.0,-20.73583221435547,-367,9888.0
5350,0.06486088037490845,-27.76365852355957,-326,7807.0,-27.766948699951172,-587,9888.0
5360,0.0644090473651886,-18.98784637451172,-295,7807.0,-35.634090423583984,-605,9888.0
5370,0.06398904323577881,-11.076003074645996,-45,7807.0,-32.12418746948242,-461,9888.0
5380,0.06341713666915894,-5.6746506690979,-77,7807.0,-21.880586624145508,-228,9888.0
5390,0.06438460946083069,2.9493958950042725,102,7807.0,-12.292545318603516,-215,9888.0
5400,0.06386607885360718,9.343697547912598,202,7807.0,-8.58459758758545,-69,9888.0
5410,0.06341502070426941,14.964202880859375,226,7807.0,-1.8697775602340698,-90,9888.0
5420,0.06298956274986267,8.80942153930664,101,7807.0,3.056684970855713,66,9888.0
5430,0.06416836380958557,1.9064288139343262,-90,7807.0,0.45600658655166626,85,9888.0
5440,0.06393653154373169,-9.32381820678711,-234,7807.0,2.2152440547943115,24,9888.0
5450,0.06382721662521362,-22.776992797851562,-470,7807.0,-6.260925769805908,-113,9888.0
5460,0.06390190124511719,-29.37773323059082,-462,7807.0,-15.559128761291504,-402,9888.0
5470,0.06439104676246643,-29.711139678955078,-445,7807.0,-18.149248123168945,-268,9888.0
5480,0.06473100185394287,-25.35082244873047,-406,7807.0,-18.875917434692383,-338,9888.0
5490,0.06517970561981201,-15.302698135375977,-189,7807.0,-14.188405990600586,-124,9888.0
5500,0.065833181142807,7.805866718292236,178,7807.0,-5.706448078155518,-57,9888.0
5510,0.06674996018409729,30.000905990600586,630,7807.0,8.535473823547363,209,9888.0
5520,0.06690549850463867,44.022422790527344,718,7807.0,16.771329879760742,256,9888.0
5530,0.06786337494850159,52.09427261352539,889,7807.0,28.398101806640625,477,9888.0
5540,0.06872779130935669,47.72090148925781,717,7807.0,33.99320602416992,646,9888.0
5550,0.06998777389526367,31.9688663482666,396,7807.0,33.753700256347656,487,9888.0
5560,0.07122138142585754,9.747047424316406,137,7807.0,25.35142707824707,349,9888.0
5570,0.07207587361335754,-10.380537033081055,-280,7807.0,17.1968936920166,330,9888.0
5580,0.07305526733398438,-32.027793884277344,-611,7807.0,8.919332504272461,54,9888.0
5590,0.07396543025970459,-46.76335906982422,-793,7807.0,1.0424295663833618,5,9888.0
5600,0.07488149404525757,-48.001651763916016,-794,7807.0,-5.664263725280762,-92,9888.0
5610,0.07565054297447205,-41.22224807739258,-669,7807.0,-9.270111083984375,-195,9888.0
5620,0.076417475938797,-25.6258602142334,-442,7807.0,-12.634682655334473,-157,9888.0
5630,0.07728329300880432,-7.48442268371582,-113,7807.0,-20.31429672241211,-454,9888.0
5640,0.07819437980651855,5.094686031341553,132,7807.0,-30.24440574645996,-468,9888.0
5650,0.07721662521362305,10.99903392791748,172,7807.0,-33.987464904785156,-561,9888.0
5660,0.07798105478286743,13.737109184265137,238,7807.0,-28.22960662841797,-360,9888.0
5670,0.07882475852966309,15.6836519241333,218,7807.0,-12.813679695129395,-106,9888.0
5680,0.08001422882080078,10.896927833557129,174,7807.0,6.1226630210876465,143,9888.0
5690,0.07857859134674072,5.519093036651611,72,7807.0,25.6475830078125,472,9888.0
5700,0.07975819706916809,-5.358087062835693,-153,7807.0,35.6973991394043,685,9888.0
5710,0.08086299896240234,-15.842477798461914,-307,7807.0,39.74924850463867,682,9888.0
5720,0.0817820131778717,-21.89279556274414,-248,7807.0,36.52128219604492,524,9888.0
5730,0.08265551924705505,-18.97366714477539,-227,7807.0,27.388999938964844,488,9888.0
5740,0.08375924825668335,-7.632390022277832,-65,7807.0,16.749271392822266,133,9888.0
5750,0.08473756909370422,9.690403938293457,242,7807.0,15.068345069885254,291,9888.0
5760,0.0856056809425354,22.06643295288086,390,7807.0,13.270971298217773,271,9888.0
5770,0.0865519642829895,29.835487365722656,583,7807.0,9.774115562438965,150,9888.0
5780,0.08661678433418274,40.43510818481445,650,7807.0,-1.9903627634048462,-38,9888.0
5790,0.08717307448387146,41.8401985168457,748,7807.0,-8.411092758178711,-194,9888.0
5800,0.08771997690200806,43.88181686401367,733,7807.0,-6.9517717361450195,-27,9888.0
5810,0.08810421824455261,31.918439865112305,359,7807.0,-0.4901964068412781,105,9888.0
5820,0.08768907189369202,5.002712726593018,8,7807.0,10.870400428771973,170,9888.0
5830,0.08776167035102844,-15.535770416259766,-282,7807.0,20.13544464111328,371,9888.0
5840,0.08769860863685608,-27.58911895751953,-525,7807.0,23.58306884765625,466,9888.0
5850,0.08750104904174805,-29.202760696411133,-429,7807.0,25.670448303222656,286,9888.0
5860,0.08734247088432312,-21.69432258605957,-298,7807.0,22.711170196533203,413,9888.0
5870,0.0844883918762207,-7.659857273101807,-65,7807.0,15.647713661193848,213,9888.0
5880,0.08426249027252197,9.44715690612793,247,7807.0,7.968084812164307,212,9888.0
5890,0.08400839567184448,23.924320220947266,464,7807.0,5.698924541473389,-9,9888.0
5900,0.08376526832580566,28.414859771728516,422,7807.0,1.0216445922851562,95,9888.0
5910,0.0839710533618927,8.062556266784668,3,7807.0,-1.347883701324463,-91,9888.0
5920,0.08388754725456238,-15.061399459838867,-342,7807.0,-5.284389972686768,-69,9888.0
5930,0.0838957130908966,-27.9381160736084,-510,7807.0,-9.04179573059082,-234,9888.0
5940,0.08392542600631714,-33.4175910949707,-531,7807.0,-18.621173858642578,-246,9888.0
5950,0.08406227827072144,-32.50213623046875,-522,7807.0,-25.736486434936523,-489,9888.0
5960,0.08549895882606506,-23.623046875,-379,7807.0,-30.655685424804688,-484,9888.0
5970,0.08588507771492004,-18.93639373779297,-316,7807.0,-24.70364761352539,-283,9888.0
5980,0.08628401160240173,-14.991547584533691,-110,7807.0,-7.028886318206787,1,9888.0
5990,0.0870867669582367,-5.115389823913574,-19,7807.0,12.07893180847168,334,9888.0
6000,0.08797517418861389,10.546594619750977,329,7807.0,22.74734878540039,382,9888.0
6010,0.0887356698513031,26.395748138427734,528,7807.0,26.582170486450195,445,9888.0
6020,0.08949118852615356,38.58892059326172,701,7807.0,24.960023880004883,348,9888.0
6030,0.09017491340637207,35.926143646240234,471,7807.0,11.631093978881836,98,9888.0
6040,0.09062007069587708,26.134098052978516,392,7807.0,-5.029621124267578,-129,9888.0
6050,0.09082749485969543,11.39530086517334,4,7807.0,-20.039554595947266,-306,9888.0
6060,0.09121003746986389,-8.793439865112305,-181,7807.0,-27.323280334472656,-498,9888.0
6070,0.09155914187431335,-27.30946922302246,-610,7807.0,-35.1840934753418,-528,9888.0
6080,0.091793954372406,-42.98561096191406,-747,7807.0,-32.25817108154297,-505,9888.0
6090,0.0935850739479065,-49.732643127441406,-825,7807.0,-25.92991828918457,-324,9888.0
6100,0.0938519537448883,-43.42268371582031,-544,7807.0,-20.636367797851562,-317,9888.0
6110,0.09421908855438232,-23.579505920410156,-212,7807.0,-19.20436668395996,-285,9888.0
6120,0.09456872940063477,1.5304206609725952,192,7807.0,-15.455223083496094,-279,9888.0
6130,0.0965149998664856,15.083356857299805,243,7807.0,-15.256121635437012,-191,9888.0
6140,0.09692448377609253,17.80576515197754,357,7807.0,-10.733344078063965,-207,9888.0
6150,0.09731367230415344,14.511247634887695,163,7807.0,-10.458046913146973,-205,9888.0
6160,0.09772375226020813,9.715561866760254,181,7807.0,-12.772056579589844,-215,9888.0
6170,0.09823128581047058,7.996891975402832,83,7807.0,-11.549689292907715,-160,9888.0
6180,0.0981956422328949,6.816214084625244,147,7807.0,-7.905646800994873,-101,9888.0
6190,0.09881269931793213,5.293706893920898,61,7807.0,-5.3618669509887695,-117,9888.0
6200,0.09950432181358337,2.4309821128845215,63,7807.0,-1.6107467412948608,-61,9888.0
6210,0.10021886229515076,0.43525782227516174,-67,7807.0,-1.59877610206604,31,9888.0
6220,0.09998700022697449,1.3715790510177612,102,7807.0,4.730309963226318,50,9888.0
6230,0.10066843032836914,7.559626579284668,141,7807.0,17.68324851989746,455,9888.0
6240,0.10127106308937073,14.59825611114502,267,7807.0,29.678762435913086,525,9888.0
6250,0.1017661988735199,22.163728713989258,395,7807.0,41.16072463989258,788,9888.0
6260,0.10220488905906677,25.483823776245117,414,7807.0,44.05039978027344,644,9888.0
6270,0.10186025500297546,27.737611770629883,404,7807.0,28.68276596069336,488,9888.0
6280,0.102149099111557,24.141111373901367,330,7807.0,15.57075023651123,92,9888.0
6290,0.10221374034881592,11.077986717224121,122,7807.0,-1.0915457010269165,-227,9888.0
6300,0.10230010747909546,-8.59212875366211,-208,7807.0,-26.910099029541016,-686,9888.0
6310,0.10235658288002014,-26.027589797973633,-418,7807.0,-48.638336181640625,-792,9888.0
6320,0.10193461179733276,-27.950084686279297,-489,7807.0,-48.16594696044922,-697,9888.0
6330,0.10136082768440247,-24.949878692626953,-324,7807.0,-41.42505645751953,-575,9888.0
6340,0.1008845865726471,-17.589946746826172,-279,7807.0,-26.77325439453125,-391,9888.0
6350,0.09907633066177368,-9.199217796325684,-95,7807.0,-13.475896835327148,-121,9888.0
6360,0.09858900308609009,-3.048043966293335,-34,7807.0,3.5297176837921143,182,9888.0
6370,0.09810227155685425,6.382165431976318,211,7807.0,18.473970413208008,285,9888.0
6380,0.09770625829696655,15.092131614685059,248,7807.0,25.572914123535156,526,9888.0
6390,0.09733614325523376,14.942017555236816,231,7807.0,25.497028350830078,367,9888.0
6400,0.09672841429710388,6.497347831726074,62,7807.0,18.133852005004883,266,9888.0
6410,0.0963430106639862,-5.216769695281982,-89,7807.0,6.784878253936768,-19,9888.0
6420,0.0959693193435669,-14.152385711669922,-288,7807.0,-3.7845640182495117,-110,9888.0
6430,0.09559908509254456,-17.664913177490234,-267,7807.0,-10.333534240722656,-253,9888.0
6440,0.09496134519577026,-18.195920944213867,-327,7807.0,-17.082651138305664,-269,9888.0
6450,0.09473368525505066,-12.751298904418945,-159,7807.0,-19.436296463012695,-314,9888.0
6460,0.09474164247512817,-4.651328086853027,-61,7807.0,-14.086225509643555,-168,9888.0
6470,0.09475809335708618,3.9623897075653076,173,7807.0,-3.9671630859375,1,9888.0
6480,0.0949370265007019,11.805978775024414,166,7807.0,15.419599533081055,423,9888.0
6490,0.09476375579833984,17.452714920043945,316,7807.0,40.01803970336914,675,9888.0
6500,0.09495699405670166,15.133589744567871,199,7807.0,46.518890380859375,782,9888.0
6510,0.09513938426971436,17.542503356933594,379,7807.0,43.34718704223633,679,9888.0
6520,0.09529292583465576,26.6447811126709,390,7807.0,30.704008102416992,432,9888.0
6530,0.09634849429130554,23.598840713500977,384,7807.0,15.55642032623291,201,9888.0
6540,0.0966896116733551,14.752197265625,116,7807.0,3.9818713665008545,30,9888.0
6550,0.096721351146698,-0.04704694077372551,-17,7807.0,-1.8687944412231445,24,9888.0
6560,0.09691521525382996,-11.068461418151855,-258,7807.0,-4.850606441497803,-37,9888.0
6570,0.09690815210342407,-20.534982681274414,-258,7807.0,-0.4192538857460022,-56,9888.0
6580,0.09690406918525696,-20.262903213500977,-395,7807.0,2.9403767585754395,36,9888.0
6590,0.09690925478935242,-21.549530029296875,-322,7807.0,3.168060541152954,101,9888.0
6600,0.09684637188911438,-20.95867347717285,-371,7807.0,4.053958892822266,78,9888.0
6610,0.09677648544311523,-15.273311614990234,-184,7807.0,-0.4272235035896301,22,9888.0
6620,0.09634226560592651,-8.955848693847656,-80,7807.0,-3.5075137615203857,-162,9888.0
6630,0.0962185263633728,4.277308940887451,158,7807.0,-3.84236478805542,-34,9888.0
6640,0.09619385004043579,10.75693416595459,153,7807.0,-0.45039522647857666,-110,9888.0
6650,0.0962924063205719,11.437180519104004,143,7807.0,1.2590150833129883,69,9888.0
6660,0.09349381923675537,6.022848606109619,78,7807.0,4.677789211273193,40,9888.0
6670,0.09362471103668213,-1.5025265216827393,-35,7807.0,4.963521480560303,129,9888.0
6680,0.09383031725883484,-4.421867847442627,-50,7807.0,-2.0205578804016113,-105,9888.0
6690,0.09410792589187622,-1.855326771736145,-18,7807.0,-10.341169357299805,-146,9888.0
6700,0.09438362717628479,0.032351069152355194,28,7807.0,-15.209916114807129,-326,9888.0
6710,0.0956079363822937,1.3080347776412964,6,7807.0,-13.758271217346191,-24,9888.0
6720,0.09604611992835999,-2.142512321472168,-1,7807.0,-7.5463666915893555,-110,9888.0
6730,0.09656867384910583,5.8967509269714355,91,7807.0,-1.6926313638687134,47,9888.0
6740,0.09722891449928284,5.307770252227783,81,7807.0,11.6543607711792,267,9888.0
6750,0.09756764769554138,6.0514607429504395,122,7807.0,19.526901245117188,343,9888.0
6760,0.0984005331993103,2.3014559745788574,19,7807.0,19.5166072845459,293,9888.0
6770,0.09927517175674438,-2.5280277729034424,-108,7807.0,15.496840476989746,175,9888.0
6780,0.10015615820884705,-11.049757957458496,-274,7807.0,9.305120468139648,191,9888.0
6790,0.10136967897415161,-15.845145225524902,-228,7807.0,4.8089470863342285,8,9888.0
6800,0.10217085480690002,-11.250523567199707,-205,7807.0,-0.039689935743808746,35,9888.0
6810,0.10285294055938721,-4.898505210876465,-1,7807.0,-1.0744456052780151,133,9888.0
6820,0.10341355204582214,0.5610984563827515,-34,7807.0,5.570050239562988,92,9888.0
6830,0.10391345620155334,3.226269483566284,113,7807.0,7.126652240753174,162,9888.0
6840,0.10290741920471191,2.8280816078186035,18,7807.0,3.274198293685913,31,9888.0
6850,0.10328716039657593,7.2258219718933105,137,7807.0,-2.5880541801452637,-55,9888.0
6860,0.10355359315872192,9.976581573486328,162,7807.0,-3.561563014984131,-176,9888.0
6870,0.10373720526695251,7.9064412117004395,85,7807.0,-8.22544002532959,-97,9888.0
6880,0.10269239544868469,5.0803046226501465,88,7807.0,-18.71825408935547,-468,9888.0
6890,0.10281601548194885,7.030723571777344,105,7807.0,-27.360273361206055,-397,9888.0
6900,0.10285317897796631,6.275603771209717,87,7807.0,-27.415428161621094,-443,9888.0
6910,0.10293614864349365,0.7966001033782959,-25,7807.0,-22.00587272644043,-274,9888.0
6920,0.10194891691207886,-1.2563107013702393,-40,7807.0,-9.96414566040039,-247,9888.0
6930,0.10214349627494812,-7.3758544921875,-90,7807.0,-7.639542102813721,-31,9888.0
6940,0.10240864753723145,-6.550134181976318,-148,7807.0,-5.118262767791748,-28,9888.0
6950,0.10274374485015869,-8.820087432861328,-63,7807.0,-2.763787269592285,-97,9888.0
6960,0.10317537188529968,-4.946581840515137,-131,7807.0,-2.2766380310058594,35,9888.0
6970,0.10257112979888916,-6.469860553741455,-101,7807.0,6.071000099182129,83,9888.0
6980,0.10314714908599854,-4.7255859375,-72,7807.0,6.029224395751953,126,9888.0
6990,0.10379213094711304,-1.190251111984253,9,7807.0,6.288081169128418,-6,9888.0
7000,0.10452443361282349,7.644663333892822,162,7807.0,8.211526870727539,246,9888.0
7010,0.10433498024940491,9.71690845489502,108,7807.0,11.146092414855957,181,9888.0
7020,0.10501906275749207,5.661410331726074,103,7807.0,2.2866740226745605,21,9888.0
7030,0.10568439960479736,1.63810133934021,-18,7807.0,-5.63103723526001,-165,9888.0
7040,0.10625168681144714,-3.0033864974975586,46,7807.0,-9.025999069213867,-164,9888.0
7050,0.10665968060493469,2.069641351699829,-32,7807.0,-3.0324995517730713,-42,9888.0
7060,0.10567185282707214,5.439338207244873,124,7807.0,-2.129443645477295,-74,9888.0
7070,0.10571381449699402,5.336403846740723,51,7807.0,1.2286272048950195,31,9888.0
7080,0.10561612248420715,3.017526149749756,97,7807.0,4.436461448669434,120,9888.0
7090,0.10546833276748657,3.946614980697632,11,7807.0,1.148249864578247,118,9888.0
7100,0.10507002472877502,3.1774561405181885,122,7807.0,2.393881320953369,-122,9888.0
7110,0.1047748327255249,-0.2952773869037628,-21,7807.0,-3.19142746925354,-53,9888.0
7120,0.10448712110519409,-1.4172801971435547,-26,7807.0,-9.652796745300293,-205,9888.0
7130,0.10424241423606873,0.14603197574615479,-28,7807.0,-14.497631072998047,-270,9888.0
7140,0.10360029339790344,0.48730242252349854,60,7807.0,-12.995214462280273,-171,9888.0
7150,0.10342389345169067,-1.9566274881362915,-63,7807.0,-4.688304901123047,-32,9888.0
7160,0.10329824686050415,-4.53684663772583,-51,7807.0,3.9639124870300293,132,9888.0
7170,0.10321852564811707,-5.326460361480713,-143,7807.0,5.3971333503723145,52,9888.0
7180,0.10324898362159729,-3.8872451782226562,-45,7807.0,2.9188642501831055,28,9888.0
7190,0.10314464569091797,-7.921449661254883,-131,7807.0,-1.7848169803619385,-154,9888.0
7200,0.10336732864379883,-8.822779655456543,-145,7807.0,-10.903308868408203,-151,9888.0
7210,0.10367292165756226,-7.68713903427124,-91,7807.0,-6.127065181732178,-94,9888.0
7220,0.10414290428161621,1.0780620574951172,40,7807.0,0.6428393125534058,80,9888.0
7230,0.10355958342552185,6.844897747039795,193,7807.0,10.630664825439453,166,9888.0
7240,0.1040438711643219,14.158166885375977,259,7807.0,18.99965476989746,350,9888.0
7250,0.10454884171485901,19.205862045288086,388,7807.0,15.640584945678711,146,9888.0
7260,0.10494759678840637,27.51006317138672,388,7807.0,-5.772284030914307,-162,9888.0
7270,0.10535863041877747,26.9666690826416,443,7807.0,-26.375770568847656,-462,9888.0
7280,0.10527727007865906,19.066341400146484,213,7807.0,-33.958065032958984,-469,9888.0
7290,0.10558173060417175,6.275980472564697,108,7807.0,-29.02293586730957,-528,9888.0
7300,0.10574191808700562,-6.200366973876953,-175,7807.0,-27.61882209777832,-287,9888.0
7310,0.10588377714157104,-14.97847843170166,-331,7807.0,-15.289978981018066,-156,9888.0
7320,0.10598373413085938,-17.103286743164062,-254,7807.0,7.6917805671691895,257,9888.0
7330,0.10603132843971252,-12.398221969604492,-179,7807.0,22.563356399536133,376,9888.0
7340,0.10606160759925842,-7.221736907958984,-53,7807.0,29.45857810974121,496,9888.0
7350,0.10607486963272095,0.05521225184202194,12,7807.0,25.50863265991211,263,9888.0
7360,0.10609608888626099,5.354452610015869,148,7807.0,12.335391998291016,142,9888.0
7370,0.10440444946289062,12.497187614440918,196,7807.0,-0.7904372811317444,-148,9888.0
7380,0.10430732369422913,6.713998794555664,76,7807.0,-7.238922119140625,-37,9888.0
7390,0.10425925254821777,-3.073383092880249,-123,7807.0,-3.785611152648926,-62,9888.0
7400,0.10426971316337585,-12.59228801727295,-248,7807.0,3.502241373062134,194,9888.0
7410,0.10453423857688904,-20.838367462158203,-386,7807.0,10.88598918914795,123,9888.0
7420,0.10478857159614563,-26.092567443847656,-440,7807.0,12.504638671875,234,9888.0
7430,0.10517165064811707,-32.681854248046875,-597,7807.0,4.667230129241943,71,9888.0
7440,0.10562750697135925,-26.45935821533203,-409,7807.0,-1.8208949565887451,32,9888.0
7450,0.10537838935852051,-17.23618507385254,-281,7807.0,-3.188816547393799,-85,9888.0
7460,0.10592609643936157,-10.172266960144043,-160,7807.0,0.4996519088745117,65,9888.0
7470,0.10663917660713196,-1.2203805446624756,73,7807.0,13.222517967224121,318,9888.0
7480,0.10756778717041016,15.88226318359375,367,7807.0,16.434791564941406,120,9888.0
7490,0.10845640301704407,34.29850769042969,596,7807.0,9.131216049194336,153,9888.0
7500,0.109453946352005,36.47446823120117,626,7807.0,-2.6710894107818604,-81,9888.0
7510,0.11016613245010376,27.341432571411133,354,7807.0,-2.549334764480591,34,9888.0
7520,0.1108020544052124,21.309078216552734,363,7807.0,-0.4858195185661316,2,9888.0
7530,0.111416757106781,15.829984664916992,214,7807.0,1.0774873495101929,113,9888.0
7540,0.1099763810634613,11.072437286376953,240,7807.0,8.031841278076172,111,9888.0
7550,0.11036580801010132,0.7190257906913757,-65,7807.0,9.121878623962402,253,9888.0
7560,0.11067277193069458,-13.325318336486816,-195,7807.0,15.35848331451416,200,9888.0
7570,0.11092516779899597,-17.62295913696289,-318,7807.0,19.081802368164062,318,9888.0
7580,0.11113011837005615,-21.88848876953125,-285,7807.0,11.6582670211792,116,9888.0
7590,0.10990729928016663,-21.326040267944336,-384,7807.0,-1.5516059398651123,-121,9888.0
7600,0.10995805263519287,-16.232385635375977,-241,7807.0,-19.25712013244629,-375,9888.0
7610,0.10986635088920593,-7.82304048538208,-79,7807.0,-28.31351089477539,-554,9888.0
7620,0.10985067486763,0.23875348269939423,30,7807.0,-24.458099365234375,-303,9888.0
7630,0.10949474573135376,6.2301506996154785,72,7807.0,-16.471481323242188,-324,9888.0
7640,0.10950538516044617,4.738093852996826,101,7807.0,-3.56319522857666,90,9888.0
7650,0.10966730117797852,-1.4676566123962402,-55,7807.0,12.577706336975098,248,9888.0
7660,0.10985717177391052,-7.642693996429443,-108,7807.0,28.364051818847656,491,9888.0
7670,0.1092039942741394,-7.0501179695129395,-94,7807.0,29.136770248413086,388,9888.0
7680,0.10938635468482971,-10.533137321472168,-201,7807.0,20.386449813842773,344,9888.0
7690,0.10969170928001404,-6.410164833068848,-36,7807.0,13.059041023254395,220,9888.0
7700,0.11008653044700623,-3.920652389526367,-28,7807.0,16.602516174316406,229,9888.0
7710,0.11055126786231995,-3.200122356414795,57,7807.0,16.709630966186523,332,9888.0
7720,0.1113012433052063,3.9882051944732666,84,7807.0,11.54893684387207,36,9888.0
7730,0.11172384023666382,10.7559232711792,184,7807.0,-1.079388976097107,-42,9888.0
7740,0.112078458070755,18.785661697387695,376,7807.0,-9.159807205200195,-186,9888.0
7750,0.11240556836128235,26.618030548095703,433,7807.0,-6.952798843383789,-55,9888.0
7760,0.11269506812095642,31.225980758666992,526,7807.0,-5.333682537078857,-56,9888.0
7770,0.11285388469696045,22.38910675048828,237,7807.0,-3.3827333450317383,-89,9888.0
7780,0.11302217841148376,5.040463924407959,38,7807.0,-3.857861042022705,-79,9888.0
7790,0.1129051148891449,-10.69375228881836,-241,7807.0,0.7370516657829285,24,9888.0
7800,0.11421975493431091,-18.73204803466797,-275,7807.0,9.19033432006836,212,9888.0
7810,0.1139197051525116,-21.56307601928711,-394,7807.0,16.461233139038086,280,9888.0
7820,0.11355426907539368,-20.427705764770508,-271,7807.0,17.657733917236328,302,9888.0
7830,0.11325329542160034,-7.913301467895508,-66,7807.0,6.159327507019043,-60,9888.0
7840,0.11296859383583069,7.003022193908691,181,7807.0,-10.768670082092285,-194,9888.0
7850,0.11270835995674133,24.987224578857422,469,7807.0,-21.207979202270508,-276,9888.0
7860,0.11240684986114502,34.43179702758789,519,7807.0,-22.9821720123291,-396,9888.0
7870,0.11224761605262756,27.509309768676758,401,7807.0,-19.54706573486328,-235,9888.0
7880,0.11220666766166687,12.365341186523438,107,7807.0,-12.524450302124023,-266,9888.0
7890,0.11279177665710449,-7.691400527954102,-208,7807.0,-10.210018157958984,-59,9888.0
7900,0.11302563548088074,-24.544939041137695,-454,7807.0,-1.5485678911209106,-59,9888.0
7910,0.11333215236663818,-33.34731674194336,-604,7807.0,0.3847780227661133,71,9888.0
7920,0.11364525556564331,-37.45728302001953,-557,7807.0,-0.9123797416687012,-77,9888.0
7930,0.11401200294494629,-29.357078552246094,-428,7807.0,-8.889923095703125,-259,9888.0
7940,0.11538124084472656,-17.93282699584961,-172,7807.0,-12.714269638061523,-229,9888.0
7950,0.11622974276542664,-4.873836994171143,-52,7807.0,-12.282100677490234,-277,9888.0
7960,0.11704474687576294,6.983124732971191,194,7807.0,-7.8455491065979,-64,9888.0
7970,0.11801648139953613,23.6378173828125,547,7807.0,-1.26616632938385,-89,9888.0
7980,0.11963212490081787,42.716651916503906,729,7807.0,-1.3655059337615967,-24,9888.0
7990,0.12049949169158936,47.60393524169922,780,7807.0,-1.8291473388671875,-46,9888.0
8000,0.12130773067474365,39.757137298583984,473,7807.0,2.147120952606201,106,9888.0
8010,0.12204068899154663,11.723594665527344,39,7807.0,3.052300453186035,-61,9888.0
8020,0.12267833948135376,-10.06350040435791,-260,7807.0,2.958972215652466,161,9888.0
8030,0.1249186098575592,-24.46438980102539,-492,7807.0,10.332757949829102,158,9888.0
8040,0.12553757429122925,-31.30112075805664,-505,7807.0,15.824017524719238,318,9888.0
8050,0.12605878710746765,-29.830724716186523,-511,7807.0,16.380212783813477,180,9888.0
8060,0.1264953315258026,-26.21063232421875,-375,7807.0,13.618368148803711,201,9888.0
8070,0.12564828991889954,-19.837434768676758,-257,7807.0,0.48680394887924194,-129,9888.0
8080,0.1259288489818573,-1.3355613946914673,29,7807.0,-17.838668823242188,-340,9888.0
8090,0.12619146704673767,8.879352569580078,126,7807.0,-36.692787170410156,-712,9888.0
8100,0.12632668018341064,15.471502304077148,285,7807.0,-38.8199577331543,-524,9888.0
8110,0.12547841668128967,14.022229194641113,197,7807.0,-31.59535789489746,-477,9888.0
8120,0.1256098747253418,13.08736515045166,209,7807.0,-21.48102378845215,-240,9888.0
8130,0.1257525086402893,6.1579718589782715,41,7807.0,-9.665928840637207,-156,9888.0
8140,0.12595143914222717,-7.695706844329834,-112,7807.0,-0.5482645630836487,28,9888.0
8150,0.126223623752594,-19.206096649169922,-401,7807.0,5.03632116317749,113,9888.0
8160,0.12500831484794617,-19.482393264770508,-296,7807.0,4.632833480834961,16,9888.0
8170,0.1252172589302063,-18.015892028808594,-326,7807.0,6.906495571136475,135,9888.0
8180,0.12544581294059753,-18.95966911315918,-283,7807.0,8.138017654418945,132,9888.0
8190,0.12569552659988403,-11.387774467468262,-178,7807.0,8.729155540466309,203,9888.0
8200,0.12629640102386475,-0.3154859244823456,119,7807.0,10.950096130371094,125,9888.0
8210,0.1266310214996338,18.19863510131836,348,7807.0,16.48456573486328,409,9888.0
8220,0.12696951627731323,34.47266387939453,664,7807.0,15.964662551879883,285,9888.0
8230,0.1271592378616333,41.372711181640625,630,7807.0,11.92349910736084,235,9888.0
8240,0.12731993198394775,34.16679000854492,447,7807.0,1.8332781791687012,-102,9888.0
8250,0.1275479793548584,4.89927339553833,-31,7807.0,-12.339680671691895,-229,9888.0
8260,0.12768128514289856,-15.571219444274902,-312,7807.0,-22.792362213134766,-473,9888.0
8270,0.12776386737823486,-25.45606803894043,-445,7807.0,-31.297733306884766,-438,9888.0
8280,0.1277642846107483,-32.42469024658203,-568,7807.0,-28.126869201660156,-397,9888.0
8290,0.12766927480697632,-30.41217613220215,-404,7807.0,-16.983638763427734,-204,9888.0
8300,0.12757503986358643,-17.58670997619629,-304,7807.0,6.598875999450684,178,9888.0
8310,0.12749448418617249,-7.56458854675293,-31,7807.0,22.94930648803711,434,9888.0
8320,0.12745988368988037,3.483546018600464,13,7807.0,28.5283203125,495,9888.0
8330,0.12481638789176941,8.541426658630371,222,7807.0,29.77652359008789,483,9888.0
8340,0.12448856234550476,9.420543670654297,134,7807.0,23.655548095703125,313,9888.0
8350,0.12412673234939575,3.8664259910583496,48,7807.0,9.89888858795166,246,9888.0
8360,0.1237863302230835,-4.115723133087158,-103,7807.0,-2.8639025688171387,-137,9888.0
8370,0.1233348548412323,-10.687257766723633,-215,7807.0,-15.437629699707031,-253,9888.0
8380,0.12268340587615967,-13.607604026794434,-124,7807.0,-18.752647399902344,-356,9888.0
8390,0.12227591872215271,-4.534847259521484,-49,7807.0,-19.08080291748047,-284,9888.0
8400,0.12199702858924866,7.450345993041992,161,7807.0,-16.989919662475586,-117,9888.0
8410,0.12178441882133484,15.948629379272461,253,7807.0,-7.271490573883057,-128,9888.0
8420,0.11969473958015442,18.389638900756836,226,7807.0,0.7443753480911255,93,9888.0
8430,0.11953714489936829,19.810224533081055,329,7807.0,4.983994483947754,56,9888.0
8440,0.11948350071907043,18.98851203918457,215,7807.0,9.072608947753906,217,9888.0
8450,0.11953538656234741,16.42830467224121,284,7807.0,11.948894500732422,124,9888.0
8460,0.11899378895759583,14.712685585021973,243,7807.0,15.64520263671875,324,9888.0
8470,0.11914503574371338,14.107747077941895,250,7807.0,30.100492477416992,569,9888.0
8480,0.11925315856933594,10.708017349243164,118,7807.0,42.56409454345703,797,9888.0
8490,0.11951789259910583,8.460262298583984,164,7807.0,39.987674713134766,620,9888.0
8500,0.11952808499336243,4.77726936340332,41,7807.0,27.84989356994629,355,9888.0
8510,0.12037688493728638,3.5067012310028076,118,7807.0,11.041954040527344,108,9888.0
8520,0.1205417811870575,-1.6766505241394043,-38,7807.0,-8.131294250488281,-313,9888.0
8530,0.12063997983932495,-14.75724983215332,-325,7807.0,-29.484081268310547,-526,9888.0
8540,0.12060543894767761,-26.720989227294922,-354,7807.0,-41.46476364135742,-717,9888.0
8550,0.12016549706459045,-22.45226287841797,-382,7807.0,-39.78865051269531,-620,9888.0
8560,0.11980107426643372,-15.362686157226562,-199,7807.0,-26.22976303100586,-286,9888.0
8570,0.11973807215690613,-5.580543041229248,-118,7807.0,-6.942281723022461,-11,9888.0
8580,0.11944994330406189,-2.0615663528442383,7,7807.0,10.601202011108398,319,9888.0
8590,0.11923691630363464,2.574392080307007,38,7807.0,27.41917610168457,491,9888.0
8600,0.11880362033843994,1.9958288669586182,81,7807.0,39.58935546875,663,9888.0
8610,0.11850038170814514,-1.1221781969070435,-91,7807.0,35.02280044555664,475,9888.0
8620,0.11819100379943848,-9.849971771240234,-276,7807.0,18.42266082763672,125,9888.0
8630,0.11795240640640259,-13.242576599121094,-185,7807.0,-4.213682651519775,-122,9888.0
8640,0.11733070015907288,-11.116068840026855,-165,7807.0,-18.060462951660156,-391,9888.0
8650,0.11720409989356995,-9.477785110473633,-157,7807.0,-26.379133224487305,-393,9888.0
8660,0.11712196469306946,-0.3708901107311249,107,7807.0,-28.013221740722656,-415,9888.0
8670,0.11715391278266907,12.207160949707031,223,7807.0,-30.779773712158203,-482,9888.0
8680,0.11724618077278137,19.855302810668945,360,7807.0,-21.490446090698242,-215,9888.0
8690,0.11679533123970032,22.802505493164062,370,7807.0,-14.845368385314941,-220,9888.0
8700,0.11719018220901489,13.72926139831543,105,7807.0,-9.77971363067627,-36,9888.0
8710,0.11766466498374939,4.068357467651367,6,7807.0,5.389180660247803,100,9888.0
8720,0.11817386746406555,-6.836458206176758,-149,7807.0,21.872055053710938,560,9888.0
8730,0.11796897649765015,-17.776580810546875,-282,7807.0,35.24561309814453,656,9888.0
8740,0.11845368146896362,-22.272552490234375,-386,7807.0,40.6854133605957,686,9888.0
8750,0.11893337965011597,-25.016788482666016,-386,7807.0,30.88268280029297,403,9888.0
8760,0.1193045973777771,-15.93714714050293,-277,7807.0,15.929987907409668,204,9888.0
8770,0.11938956379890442,-5.691051483154297,88,7807.0,3.3338868618011475,111,9888.0
8780,0.11988314986228943,14.250091552734375,314,7807.0,-5.649228572845459,-229,9888.0
8790,0.12018564343452454,27.529083251953125,434,7807.0,-17.26129722595215,-282,9888.0
8800,0.12043371796607971,27.089237213134766,492,7807.0,-21.716815948486328,-357,9888.0
8810,0.12053674459457397,21.884037017822266,293,7807.0,-21.28522491455078,-430,9888.0
8820,0.12040412425994873,13.46132755279541,180,7807.0,-14.977621078491211,-171,9888.0
8830,0.12032768130302429,4.5123748779296875,39,7807.0,-1.9471622705459595,-31,9888.0
8840,0.12023970484733582,-2.07584810256958,-45,7807.0,10.118722915649414,280,9888.0
8850,0.1202532947063446,-9.991907119750977,-102,7807.0,20.23362159729004,266,9888.0
8860,0.12000727653503418,-7.480303764343262,-180,7807.0,21.414817810058594,470,9888.0
8870,0.11988234519958496,-8.822721481323242,-112,7807.0,29.53557777404785,518,9888.0
8880,0.11975416541099548,-11.56685733795166,-226,7807.0,35.09931945800781,470,9888.0
8890,0.11969760060310364,-10.371521949768066,-165,7807.0,33.008811950683594,554,9888.0
8900,0.12131285667419434,-9.468573570251465,-129,7807.0,25.670368194580078,421,9888.0
8910,0.12165912985801697,-5.5492987632751465,-103,7807.0,8.953518867492676,70,9888.0
8920,0.12205526232719421,-3.812304973602295,-82,7807.0,-10.603907585144043,-303,9888.0
8930,0.12270024418830872,2.291139841079712,71,7807.0,-30.366668701171875,-520,9888.0
8940,0.12350299954414368,4.520884990692139,124,7807.0,-47.28972625732422,-816,9888.0
8950,0.12452799081802368,12.067327499389648,153,7807.0,-48.72149658203125,-797,9888.0
8960,0.12551584839820862,9.855729103088379,180,7807.0,-41.01189041137695,-577,9888.0
8970,0.1265830397605896,0.5303882956504822,-40,7807.0,-26.34901237487793,-454,9888.0
8980,0.12774980068206787,-8.873865127563477,-181,7807.0,-9.158984184265137,33,9888.0
8990,0.12890508770942688,-12.61080551147461,-240,7807.0,7.714062690734863,169,9888.0
9000,0.1299847960472107,-9.573346138000488,-154,7807.0,21.540220260620117,468,9888.0
9010,0.1309625208377838,-4.959053993225098,-34,7807.0,29.04009437561035,495,9888.0
9020,0.13175499439239502,2.6675405502319336,45,7807.0,36.53776550292969,619,9888.0
9030,0.13254785537719727,10.606729507446289,250,7807.0,32.69356155395508,439,9888.0
9040,0.133998304605484,17.053848266601562,238,7807.0,22.583328247070312,277,9888.0
9050,0.13460993766784668,19.020017623901367,306,7807.0,5.630945682525635,76,9888.0
9060,0.1350976824760437,19.110855102539062,311,7807.0,-17.785810470581055,-445,9888.0
9070,0.135506272315979,14.022080421447754,233,7807.0,-36.91622543334961,-636,9888.0
9080,0.1357472538948059,5.72706413269043,78,7807.0,-56.904598236083984,-984,9888.0
9090,0.13591229915618896,-9.072749137878418,-244,7807.0,-63.547462463378906,-1029,9888.0
9100,0.13602280616760254,-17.010650634765625,-316,7807.0,-63.29428482055664,-1060,9888.0
9110,0.1363195776939392,-22.71213150024414,-357,7807.0,-46.69476318359375,-585,9888.0
9120,0.13638833165168762,-19.815767288208008,-373,7807.0,-17.879589080810547,-225,9888.0
9130,0.13340646028518677,-19.880754470825195,-310,7807.0,10.67529010772705,351,9888.0
9140,0.1335025429725647,-20.432762145996094,-322,7807.0,32.8106575012207,588,9888.0
9150,0.13347509503364563,-12.894501686096191,-174,7807.0,46.01301193237305,784,9888.0
9160,0.13348481059074402,-1.9031386375427246,31,7807.0,45.14810562133789,619,9888.0
9170,0.13322865962982178,6.226599216461182,150,7807.0,30.462413787841797,473,9888.0
9180,0.1334841549396515,11.125118255615234,260,7807.0,6.057760238647461,42,9888.0
9190,0.1338474452495575,11.105389595031738,119,7807.0,-23.189865112304688,-564,9888.0
9200,0.13415926694869995,7.7995991706848145,128,7807.0,-46.35814666748047,-747,9888.0
9210,0.13416913151741028,4.874012470245361,75,7807.0,-55.3076171875,-883,9888.0
9220,0.13440096378326416,4.336418151855469,61,7807.0,-45.55094528198242,-626,9888.0
9230,0.13467013835906982,1.875004768371582,10,7807.0,-27.195175170898438,-400,9888.0
9240,0.13510861992835999,-1.8134183883666992,-31,7807.0,-2.6781375408172607,187,9888.0
9250,0.13546839356422424,-0.9673332571983337,-85,7807.0,20.486021041870117,415,9888.0
9260,0.13463908433914185,-1.291739583015442,-27,7807.0,38.90754699707031,814,9888.0
9270,0.1348787248134613,-1.621252179145813,-21,7807.0,49.07236862182617,700,9888.0
9280,0.13514041900634766,3.2744534015655518,38,7807.0,51.32849884033203,825,9888.0
9290,0.13529649376869202,4.064207553863525,177,7807.0,45.05376434326172,688,9888.0
9300,0.13427820801734924,7.7452616691589355,144,7807.0,35.25595474243164,458,9888.0
9310,0.13416439294815063,13.680305480957031,261,7807.0,13.308700561523438,172,9888.0
9320,0.13417500257492065,20.24591636657715,380,7807.0,-11.379709243774414,-383,9888.0
9330,0.13395515084266663,22.559982299804688,354,7807.0,-35.436241149902344,-728,9888.0
9340,0.1336866319179535,24.725942611694336,449,7807.0,-46.803199768066406,-788,9888.0
9350,0.13295286893844604,27.31096839904785,395,7807.0,-51.88651657104492,-701,9888.0
9360,0.1328239142894745,21.671894073486328,350,7807.0,-38.785255432128906,-578,9888.0
9370,0.13236624002456665,9.798273086547852,121,7807.0,-14.127120971679688,-62,9888.0
9380,0.13220620155334473,-10.425294876098633,-268,7807.0,15.809439659118652,429,9888.0
9390,0.13112452626228333,-24.344511032104492,-385,7807.0,34.95784378051758,567,9888.0
9400,0.1308232843875885,-28.654399871826172,-490,7807.0,41.99445724487305,715,9888.0
9410,0.13052880764007568,-29.790660858154297,-479,7807.0,38.78865432739258,588,9888.0
9420,0.13027334213256836,-25.928672790527344,-410,7807.0,27.17220687866211,422,9888.0
9430,0.13075417280197144,-21.665143966674805,-306,7807.0,11.233281135559082,182,9888.0
9440,0.1308305263519287,-10.410738945007324,-80,7807.0,0.3992798328399658,-112,9888.0
9450,0.13089561462402344,2.771925687789917,92,7807.0,7.377068519592285,209,9888.0
9460,0.13103193044662476,17.13928985595703,393,7807.0,10.644532203674316,135,9888.0
9470,0.13112083077430725,20.270709991455078,250,7807.0,4.330835819244385,11,9888.0
9480,0.13272225856781006,12.365669250488281,247,7807.0,-5.369011878967285,-132,9888.0
9490,0.13290318846702576,5.525784492492676,79,7807.0,-16.381383895874023,-369,9888.0
9500,0.13296425342559814,-3.8309757709503174,-108,7807.0,-12.070019721984863,-55,9888.0
9510,0.13293516635894775,-9.571316719055176,-203,7807.0,-3.1283602714538574,8,9888.0
9520,0.13321959972381592,-10.987377166748047,-163,7807.0,3.5011308193206787,164,9888.0
9530,0.13301461935043335,-6.344882011413574,-35,7807.0,11.782661437988281,188,9888.0
9540,0.13268950581550598,-1.1873143911361694,-41,7807.0,21.6679744720459,414,9888.0
9550,0.1323126256465912,2.1417224407196045,80,7807.0,27.17486000061035,479,9888.0
9560,0.1318577229976654,9.840147972106934,210,7807.0,25.30610466003418,289,9888.0
9570,0.13144570589065552,18.193143844604492,311,7807.0,18.0799503326416,280,9888.0
9580,0.1309581696987152,21.533756256103516,383,7807.0,-0.7238582372665405,-87,9888.0
9590,0.1305614411830902,14.118156433105469,90,7807.0,-14.67301082611084,-304,9888.0
9600,0.13017606735229492,4.818532943725586,28,7807.0,-24.392597198486328,-310,9888.0
9610,0.1285034418106079,-7.66583251953125,-135,7807.0,-21.929759979248047,-329,9888.0
9620,0.12817049026489258,-24.17576789855957,-371,7807.0,-11.009283065795898,-92,9888.0
9630,0.12789317965507507,-29.995914459228516,-533,7807.0,0.6631259918212891,28,9888.0
9640,0.12770524621009827,-29.591827392578125,-482,7807.0,13.293391227722168,319,9888.0
9650,0.12810936570167542,-28.591529846191406,-462,7807.0,18.154075622558594,271,9888.0
9660,0.12802192568778992,-21.91001319885254,-363,7807.0,21.340774536132812,358,9888.0
9670,0.12814000248908997,-18.621625900268555,-215,7807.0,15.940237045288086,241,9888.0
9680,0.12830418348312378,-8.35480785369873,-105,7807.0,10.168041229248047,39,9888.0
9690,0.12874317169189453,4.287510871887207,166,7807.0,10.17556095123291,177,9888.0
9700,0.1275407075881958,17.557634353637695,362,7807.0,11.184582710266113,162,9888.0
9710,0.12791022658348083,28.226633071899414,550,7807.0,11.522320747375488,141,9888.0
9720,0.1283416450023651,35.666812896728516,661,7807.0,-3.7154595851898193,-81,9888.0
9730,0.1290404200553894,37.10207748413086,584,7807.0,-14.687161445617676,-304,9888.0
9740,0.12918177247047424,35.003639221191406,547,7807.0,-20.131505966186523,-330,9888.0
9750,0.12940916419029236,23.183618545532227,290,7807.0,-18.536943435668945,-393,9888.0
9760,0.12969884276390076,12.221826553344727,185,7807.0,-23.74369239807129,-402,9888.0
9770,0.1298380196094513,2.864311933517456,-18,7807.0,-22.539709091186523,-285,9888.0
9780,0.13052070140838623,-8.21113109588623,-119,7807.0,-11.683174133300781,-178,9888.0
9790,0.1305319368839264,-13.855338096618652,-260,7807.0,0.4064996540546417,131,9888.0
9800,0.13049966096878052,-12.52193832397461,-158,7807.0,10.913315773010254,126,9888.0
9810,0.13040781021118164,-10.192481994628906,-124,7807.0,14.416007995605469,234,9888.0
9820,0.1302669644355774,-1.7345805168151855,2,7807.0,6.291941165924072,27,9888.0
9830,0.12838393449783325,4.579396724700928,63,7807.0,0.7714962363243103,22,9888.0
9840,0.12820857763290405,10.690980911254883,242,7807.0,1.0153770446777344,-46,9888.0
9850,0.12801778316497803,5.465743541717529,15,7807.0,-3.052262783050537,-54,9888.0
9860,0.12791132926940918,-2.8716320991516113,-57,7807.0,-6.538915634155273,-76,9888.0
9870,0.12903490662574768,-16.672204971313477,-385,7807.0,-10.625605583190918,-173,9888.0
9880,0.1291263997554779,-26.434364318847656,-450,7807.0,-9.770617485046387,-200,9888.0
9890,0.1292673945426941,-31.381235122680664,-539,7807.0,-10.705727577209473,-173,9888.0
9900,0.12956532835960388,-27.268281936645508,-380,7807.0,-11.608743667602539,-189,9888.0
9910,0.12995752692222595,-19.734317779541016,-332,7807.0,-19.647401809692383,-297,9888.0
9920,0.13117554783821106,-5.898632049560547,41,7807.0,-14.830333709716797,-118,9888.0
9930,0.13185515999794006,8.886889457702637,200,7807.0,-8.760525703430176,-228,9888.0
9940,0.13249659538269043,21.486400604248047,356,7807.0,-8.628527641296387,55,9888.0
9950,0.13319814205169678,25.247920989990234,382,7807.0,-2.30820369720459,-94,9888.0
9960,0.13419702649116516,25.905433654785156,365,7807.0,3.2864503860473633,127,9888.0
9970,0.13472789525985718,17.30324363708496,205,7807.0,11.730356216430664,206,9888.0
9980,0.13528206944465637,9.803707122802734,179,7807.0,20.850727081298828,420,9888.0
9990,0.13576239347457886,6.174567222595215,36,7807.0,26.733535766601562,353,9888.0
10000,0.1362118422985077,-2.8529720306396484,-64,7807.0,21.90430450439453,351,9888.0
10010,0.13681340217590332,-12.18875503540039,-270,7807.0,14.657570838928223,163,9888.0
10020,0.13718312978744507,-17.415925979614258,-229,7807.0,6.469639778137207,28,9888.0
10030,0.13748618960380554,-19.551122665405273,-374,7807.0,-7.3623785972595215,-236,9888.0
10040,0.13776227831840515,-20.50665855407715,-315,7807.0,-22.57752799987793,-370,9888.0
10050,0.13597354292869568,-18.514577865600586,-350,7807.0,-36.08776092529297,-654,9888.0
10060,0.13589262962341309,-20.146129608154297,-271,7807.0,-38.804420471191406,-639,9888.0
10070,0.1357966661453247,-19.912965774536133,-283,7807.0,-40.18265151977539,-741,9888.0
10080,0.13563507795333862,-15.218194961547852,-269,7807.0,-30.75223159790039,-381,9888.0
10090,0.13485872745513916,-13.6519193649292,-159,7807.0,-10.81231689453125,-104,9888.0
10100,0.1347668468952179,-10.110827445983887,-204,7807.0,17.168184280395508,443,9888.0
10110,0.13484004139900208,-5.005871772766113,-17,7807.0,30.4036808013916,519,9888.0
10120,0.13501504063606262,6.684600353240967,197,7807.0,31.849803924560547,427,9888.0
10130,0.13510605692863464,17.264087677001953,299,7807.0,24.178926467895508,406,9888.0
10140,0.13306015729904175,23.548362731933594,400,7807.0,5.442964553833008,-53,9888.0
10150,0.13318508863449097,20.699220657348633,337,7807.0,-15.50378704071045,-348,9888.0
10160,0.13324639201164246,20.8411865234375,346,7807.0,-32.83967208862305,-448,9888.0
10170,0.13324230909347534,21.306509017944336,368,7807.0,-30.493391036987305,-557,9888.0
10180,0.13106757402420044,29.345623016357422,527,7807.0,-20.19610595703125,-276,9888.0
10190,0.1310313642024994,37.61844253540039,646,7807.0,-7.996950626373291,-105,9888.0
10200,0.13091513514518738,46.56551742553711,817,7807.0,2.2739391326904297,171,9888.0
10210,0.13090181350708008,41.77781677246094,541,7807.0,18.5693302154541,347,9888.0
10220,0.12997767329216003,24.387977600097656,411,7807.0,33.16508865356445,522,9888.0
10230,0.12994977831840515,3.5209767818450928,-25,7807.0,43.760276794433594,791,9888.0
10240,0.1298099160194397,-16.250905990600586,-318,7807.0,44.609378814697266,644,9888.0
10250,0.12982532382011414,-28.704341888427734,-532,7807.0,34.60308074951172,558,9888.0
10260,0.12973719835281372,-35.13270568847656,-475,7807.0,21.303308486938477,292,9888.0
10270,0.12913531064987183,-34.03029251098633,-615,7807.0,11.168007850646973,135,9888.0
10280,0.12882527709007263,-29.287033081054688,-465,7807.0,-3.4186811447143555,-22,9888.0
10290,0.12849777936935425,-21.264310836791992,-285,7807.0,-15.835100173950195,-402,9888.0
10300,0.12826195359230042,-9.35521411895752,-159,7807.0,-29.1132755279541,-527,9888.0
10310,0.1287004053592682,0.9806953072547913,51,7807.0,-35.35942840576172,-703,9888.0
10320,0.1284979283809662,8.530099868774414,140,7807.0,-40.85165786743164,-654,9888.0
10330,0.12826430797576904,8.503827095031738,141,7807.0,-36.88945007324219,-436,9888.0
10340,0.1282237470149994,4.208898544311523,41,7807.0,-18.237625122070312,-353,9888.0
10350,0.12829899787902832,-6.475998878479004,-150,7807.0,3.061457633972168,203,9888.0
10360,0.12667158246040344,-18.544790267944336,-389,7807.0,23.273536682128906,418,9888.0
10370,0.12699651718139648,-29.989032745361328,-555,7807.0,41.576698303222656,852,9888.0
10380,0.12733808159828186,-34.3848876953125,-546,7807.0,49.04716110229492,684,9888.0
10390,0.12773722410202026,-30.681316375732422,-459,7807.0,39.05680465698242,549,9888.0
10400,0.12616071105003357,-18.21959114074707,-107,7807.0,19.961111068725586,280,9888.0
10410,0.12666839361190796,5.813349723815918,196,7807.0,3.3844616413116455,-33,9888.0
10420,0.1273767650127411,23.37318229675293,514,7807.0,-1.5972952842712402,-62,9888.0
10430,0.12809547781944275,41.18623733520508,818,7807.0,0.16785088181495667,-11,9888.0
10440,0.12872904539108276,46.07699966430664,799,7807.0,-1.1174832582473755,-74,9888.0
10450,0.12929978966712952,52.23384094238281,865,7807.0,1.9170172214508057,66,9888.0
10460,0.12974554300308228,50.625492095947266,734,7807.0,4.612431049346924,74,9888.0
10470,0.1301739513874054,32.98960494995117,463,7807.0,0.867591142654419,45,9888.0
10480,0.1311309039592743,8.957908630371094,-35,7807.0,-7.896610260009766,-48,9888.0
10490,0.13210800290107727,-16.100370407104492,-314,7807.0,-11.169979095458984,-214,9888.0
10500,0.1326080858707428,-27.409912109375,-506,7807.0,-13.55307388305664,-194,9888.0
10510,0.13293993473052979,-32.170719146728516,-464,7807.0,-12.174860000610352,-350,9888.0
10520,0.1331624686717987,-26.656288146972656,-397,7807.0,-13.41928768157959,-201,9888.0
10530,0.13148179650306702,-19.89516830444336,-307,7807.0,-14.769242286682129,-255,9888.0
10540,0.1313788890838623,-16.06981086730957,-303,7807.0,-20.548603057861328,-243,9888.0
10550,0.13127362728118896,-12.64127254486084,-98,7807.0,-13.800318717956543,-232,9888.0
10560,0.13119980692863464,-5.880418300628662,-72,7807.0,-1.6833879947662354,18,9888.0
10570,0.13126122951507568,-0.9386699795722961,64,7807.0,4.600570201873779,134,9888.0
10580,0.12821561098098755,5.595609664916992,73,7807.0,15.2684326171875,229,9888.0
10590,0.1281374990940094,-5.832913875579834,-141,7807.0,19.992097854614258,411,9888.0
10600,0.1281203031539917,-31.079051971435547,-663,7807.0,21.80902671813965,251,9888.0
10610,0.12809696793556213,-34.49222183227539,-448,7807.0,13.98656940460205,135,9888.0
10620,0.1271374523639679,-18.612598419189453,-190,7807.0,-3.9964187145233154,-96,9888.0
10630,0.12720105051994324,-6.272990703582764,-140,7807.0,-11.838397026062012,-239,9888.0
10640,0.12736976146697998,7.157957553863525,531,7807.0,1.0312395095825195,211,9888.0
10650,0.12753301858901978,84.21581268310547,2105,7807.0,25.195903778076172,465,9888.0
10660,0.1288149654865265,148.132080078125,2145,7807.0,38.228843688964844,636,9888.0
10670,0.12927761673927307,123.14889526367188,1875,7807.0,37.9462890625,603,9888.0
10680,0.12939172983169556,93.49718475341797,1362,7807.0,21.850494384765625,273,9888.0
10690,0.13075491786003113,54.60499954223633,636,7807.0,-10.35450267791748,-354,9888.0
10700,0.1313270628452301,6.0196943283081055,-70,7807.0,-34.76968002319336,-577,9888.0
10710,0.13074272871017456,-25.460487365722656,-593,7807.0,-39.39091110229492,-582,9888.0
10720,0.13143590092658997,-54.50905227661133,-1007,7807.0,-38.39944076538086,-678,9888.0
10730,0.13042894005775452,-79.58360290527344,-1357,7807.0,-38.015743255615234,-606,9888.0
10740,0.13099268078804016,-83.6202392578125,-1410,7807.0,-30.97711944580078,-427,9888.0
10750,0.13057300448417664,-77.2308120727539,-1194,7807.0,-20.66215705871582,-443,9888.0
10760,0.13073918223381042,-73.96946716308594,-1217,7807.0,-23.785764694213867,-358,9888.0
10770,0.130336195230484,-72.58876037597656,-1085,7807.0,-28.568389892578125,-538,9888.0
10780,0.13055968284606934,-57.146053314208984,-909,7807.0,-35.7833137512207,-577,9888.0
10790,0.13074654340744019,-48.228214263916016,-699,7807.0,-39.87974548339844,-679,9888.0
10800,0.12822434306144714,-42.896793365478516,-701,7807.0,-29.094038009643555,-471,9888.0
10810,0.128239244222641,-39.83884811401367,-558,7807.0,-17.52836799621582,-235,9888.0
10820,0.1284475028514862,-37.83104705810547,-679,7807.0,-2.949065685272217,-23,9888.0
10830,0.12858444452285767,-33.94428634643555,-502,7807.0,3.615528106689453,120,9888.0
10840,0.12520062923431396,-24.99880599975586,-353,7807.0,6.046423435211182,4,9888.0
10850,0.12511402368545532,-8.065552711486816,-136,7807.0,4.612117767333984,127,9888.0
10860,0.12520962953567505,2.6834890842437744,122,7807.0,-0.9211084246635437,-106,9888.0
10870,0.1253373622894287,17.479650497436523,295,7807.0,-12.317984580993652,-173,9888.0
10880,0.12395647168159485,28.29142951965332,503,7807.0,-25.912385940551758,-457,9888.0
10890,0.12425503134727478,26.019418716430664,405,7807.0,-31.31778907775879,-416,9888.0
10900,0.12446209788322449,22.40375518798828,311,7807.0,-23.066207885742188,-416,9888.0
10910,0.12468519806861877,10.724753379821777,39,7807.0,-20.522634506225586,-262,9888.0
10920,0.12518522143363953,-8.687108993530273,-240,7807.0,-9.070120811462402,-114,9888.0
10930,0.12336325645446777,-23.405712127685547,-438,7807.0,0.8717702627182007,41,9888.0
10940,0.12333852052688599,-50.85685348510742,-975,7807.0,9.27289867401123,267,9888.0
10950,0.12362417578697205,-69.75602722167969,-1170,7807.0,12.314165115356445,100,9888.0
10960,0.12322112917900085,-71.1949691772461,-1151,7807.0,3.8699893951416016,98,9888.0
10970,0.12320742011070251,-63.93967819213867,-999,7807.0,0.3009866178035736,-93,9888.0
10980,0.12283748388290405,-61.53953552246094,-1045,7807.0,-8.64745044708252,-170,9888.0
10990,0.12230038642883301,-55.720699310302734,-790,7807.0,-11.537191390991211,-143,9888.0
11000,0.12176883220672607,-37.750919342041016,-509,7807.0,-17.49334716796875,-321,9888.0
11010,0.12110552191734314,-18.63884735107422,-282,7807.0,-13.55072021484375,-212,9888.0
11020,0.11963996291160583,-2.959317684173584,17,7807.0,-12.402520179748535,-75,9888.0
11030,0.11886253952980042,7.8029608726501465,169,7807.0,-1.8251047134399414,-41,9888.0
11040,0.11810365319252014,10.778257369995117,94,7807.0,3.617736577987671,220,9888.0
11050,0.11745661497116089,6.337470531463623,78,7807.0,21.64872169494629,423,9888.0
11060,0.11639571189880371,6.908436298370361,186,7807.0,27.441436767578125,441,9888.0
11070,0.1158621609210968,16.294729232788086,344,7807.0,32.945472717285156,472,9888.0
11080,0.11536914110183716,30.483966827392578,625,7807.0,32.58650588989258,567,9888.0
11090,0.11507749557495117,46.288185119628906,775,7807.0,24.056678771972656,417,9888.0
11100,0.11587914824485779,54.00058364868164,959,7807.0,9.456009864807129,31,9888.0
11110,0.1158771812915802,61.62246322631836,953,7807.0,-11.577688217163086,-307,9888.0
11120,0.11599010229110718,62.00007629394531,992,7807.0,-17.289260864257812,-262,9888.0
11130,0.11628779768943787,58.330322265625,1015,7807.0,-13.527023315429688,-202,9888.0
11140,0.11700335144996643,53.06733703613281,793,7807.0,-1.3736023902893066,94,9888.0
11150,0.11786425113677979,37.74020767211914,489,7807.0,15.260022163391113,324,9888.0
11160,0.11838257312774658,15.630350112915039,129,7807.0,27.65142059326172,566,9888.0
11170,0.11889174580574036,-3.318772315979004,-171,7807.0,40.47584533691406,722,9888.0
11180,0.11921367049217224,-22.78797149658203,-497,7807.0,47.96449279785156,858,9888.0
11190,0.11799243092536926,-28.51332664489746,-447,7807.0,55.06058883666992,974,9888.0
11200,0.11814096570014954,-25.128070831298828,-400,7807.0,60.87880325317383,966,9888.0
11210,0.11822327971458435,-21.599491119384766,-309,7807.0,60.1815299987793,892,9888.0
11220,0.1182817816734314,-8.363409042358398,-20,7807.0,49.2266731262207,741,9888.0
11230,0.11921688914299011,1.7857333421707153,149,7807.0,32.35097122192383,459,9888.0
11240,0.1205785870552063,9.655220031738281,226,7807.0,14.812561988830566,95,9888.0
11250,0.12073484063148499,17.399028778076172,225,7807.0,-4.759270191192627,-244,9888.0
11260,0.12081250548362732,18.339937210083008,267,7807.0,-24.63093376159668,-463,9888.0
11270,0.12080219388008118,14.90902328491211,249,7807.0,-40.46742630004883,-693,9888.0
11280,0.11976861953735352,8.51761531829834,99,7807.0,-46.90737533569336,-816,9888.0
11290,0.11958876252174377,0.6600365042686462,-103,7807.0,-46.58238983154297,-672,9888.0
11300,0.119343101978302,-9.565542221069336,-170,7807.0,-37.47636032104492,-484,9888.0
11310,0.11927294731140137,-17.1760196685791,-308,7807.0,-16.183744430541992,-194,9888.0
11320,0.11684572696685791,-17.65743637084961,-151,7807.0,8.717384338378906,379,9888.0
11330,0.11688831448554993,0.5215664505958557,86,7807.0,26.064252853393555,515,9888.0
11340,0.1171518862247467,20.01999282836914,439,7807.0,43.46213150024414,897,9888.0
11350,0.11661061644554138,39.803688049316406,820,7807.0,57.3873176574707,971,9888.0
11360,0.11716172099113464,62.506736755371094,1065,7807.0,60.45838928222656,941,9888.0
11370,0.11698755621910095,75.10174560546875,1250,7807.0,49.926326751708984,799,9888.0
11380,0.11745569109916687,78.12218475341797,1343,7807.0,34.87369155883789,491,9888.0
11390,0.11797377467155457,81.26323699951172,1352,7807.0,23.27752685546875,197,9888.0
11400,0.11862030625343323,79.9307632446289,1312,7807.0,15.84045124053955,329,9888.0
11410,0.1196008026599884,71.81179809570312,1147,7807.0,12.135595321655273,116,9888.0
11420,0.12035179138183594,60.390777587890625,877,7807.0,6.23402738571167,131,9888.0
11430,0.1216413676738739,39.50239944458008,551,7807.0,-0.7341830134391785,-72,9888.0
11440,0.12235522270202637,12.135000228881836,76,7807.0,-0.9524027109146118,86,9888.0
11450,0.12329596281051636,-12.061330795288086,-363,7807.0,5.821432590484619,169,9888.0
11460,0.12395969033241272,-36.918304443359375,-659,7807.0,20.739225387573242,372,9888.0
11470,0.12474003434181213,-49.53559112548828,-863,7807.0,33.78508377075195,698,9888.0
11480,0.12544715404510498,-47.46324157714844,-737,7807.0,39.9140739440918,608,9888.0
11490,0.12611642479896545,-32.76154327392578,-498,7807.0,37.57528305053711,676,9888.0
11500,0.1287204921245575,-13.873236656188965,-146,7807.0,27.631860733032227,337,9888.0
11510,0.12957608699798584,3.7521181106567383,130,7807.0,17.419368743896484,258,9888.0
11520,0.13023635745048523,20.567459106445312,496,7807.0,-1.5638558864593506,-247,9888.0
11530,0.13096117973327637,27.82803726196289,454,7807.0,-22.833250045776367,-453,9888.0
11540,0.13197803497314453,13.61001205444336,196,7807.0,-36.72843551635742,-810,9888.0
11550,0.13241782784461975,-11.85239028930664,-307,7807.0,-49.66968536376953,-725,9888.0
11560,0.132970929145813,-39.66700744628906,-778,7807.0,-51.15081024169922,-801,9888.0
11570,0.13326218724250793,-56.41877365112305,-908,7807.0,-38.19718933105469,-608,9888.0
11580,0.13348302245140076,-56.9647216796875,-937,7807.0,-23.50187873840332,-275,9888.0
11590,0.13350269198417664,-55.24092102050781,-900,7807.0,-5.028552055358887,-60,9888.0
11600,0.1342127025127411,-45.1784553527832,-674,7807.0,7.471959114074707,253,9888.0
11610,0.13476330041885376,-32.37028121948242,-440,7807.0,19.92774200439453,324,9888.0
11620,0.13562250137329102,-12.72262191772461,-117,7807.0,21.418405532836914,502,9888.0
11630,0.13296109437942505,7.984321594238281,312,7807.0,19.12851333618164,291,9888.0
11640,0.13354921340942383,30.004398345947266,546,7807.0,17.45040512084961,288,9888.0
11650,0.13407951593399048,39.00236892700195,605,7807.0,16.26358413696289,306,9888.0
11660,0.13469374179840088,42.26996994018555,712,7807.0,5.944537162780762,-45,9888.0
11670,0.13545691967010498,41.993499755859375,712,7807.0,-0.9205151796340942,16,9888.0
11680,0.13406354188919067,42.19296646118164,696,7807.0,-8.658154487609863,-204,9888.0
11690,0.13479259610176086,40.643192291259766,646,7807.0,-10.734415054321289,-158,9888.0
11700,0.13545328378677368,37.860595703125,664,7807.0,-9.413182258605957,-197,9888.0
11710,0.13612598180770874,36.82532501220703,552,7807.0,-9.476113319396973,-52,9888.0
11720,0.13595440983772278,30.463552474975586,427,7807.0,-11.968835830688477,-270,9888.0
11730,0.13624513149261475,18.97229766845703,281,7807.0,-17.05258560180664,-268,9888.0
11740,0.1364709436893463,5.436731338500977,-30,7807.0,-18.766695022583008,-260,9888.0
11750,0.13668197393417358,-16.326065063476562,-344,7807.0,-17.341474533081055,-281,9888.0
11760,0.13412773609161377,-36.335872650146484,-624,7807.0,-4.421435356140137,-50,9888.0
11770,0.1339121162891388,-46.42844772338867,-811,7807.0,5.389957904815674,142,9888.0
11780,0.13355976343154907,-54.50565719604492,-842,7807.0,12.426076889038086,174,9888.0
11790,0.13316276669502258,-49.307395935058594,-819,7807.0,16.364208221435547,349,9888.0
11800,0.13266736268997192,-35.7086181640625,-497,7807.0,18.241287231445312,186,9888.0
11810,0.1318783164024353,-17.36988067626953,-196,7807.0,9.961495399475098,201,9888.0
11820,0.131354421377182,-6.806545734405518,-82,7807.0,6.779828071594238,11,9888.0
11830,0.13062745332717896,-6.525206565856934,-201,7807.0,-9.825882911682129,-203,9888.0
11840,0.1298448145389557,-16.102413177490234,-262,7807.0,-21.9429988861084,-394,9888.0
11850,0.12782353162765503,-31.039947509765625,-585,7807.0,-29.127592086791992,-521,9888.0
11860,0.12686896324157715,-39.725650787353516,-706,7807.0,-27.436176300048828,-340,9888.0
11870,0.12605243921279907,-43.1376953125,-685,7807.0,-18.301593780517578,-333,9888.0
11880,0.12519755959510803,-38.48659133911133,-536,7807.0,-5.542918682098389,103,9888.0
11890,0.12468042969703674,-16.162899017333984,-34,7807.0,9.984264373779297,194,9888.0
11900,0.12429705262184143,15.970569610595703,440,7807.0,16.594951629638672,206,9888.0
11910,0.1239570677280426,47.94035339355469,988,7807.0,12.88182544708252,328,9888.0
11920,0.12390297651290894,71.53599548339844,1156,7807.0,8.0405912399292,56,9888.0
11930,0.12376517057418823,69.47916412353516,1035,7807.0,-0.23467661440372467,-44,9888.0
11940,0.12361708283424377,55.229007720947266,855,7807.0,-14.764955520629883,-390,9888.0
11950,0.12356764078140259,37.60391616821289,500,7807.0,-23.420244216918945,-405,9888.0
11960,0.12370073795318604,17.380834579467773,181,7807.0,-23.749353408813477,-360,9888.0
11970,0.12391629815101624,-1.8613907098770142,-90,7807.0,-19.166526794433594,-222,9888.0
11980,0.12510275840759277,-17.362655639648438,-377,7807.0,-3.2892119884490967,62,9888.0
11990,0.1253977119922638,-35.577049255371094,-622,7807.0,6.459549903869629,33,9888.0
12000,0.1256803274154663,-45.15205764770508,-777,7807.0,7.056447505950928,192,9888.0
12010,0.1258634328842163,-53.23002243041992,-895,7807.0,10.053016662597656,127,9888.0
12020,0.1260329782962799,-54.06011199951172,-827,7807.0,7.389774322509766,176,9888.0
12030,0.12524881958961487,-43.44992446899414,-622,7807.0,7.005109786987305,136,9888.0
12040,0.12537065148353577,-18.402347564697266,-267,7807.0,5.824087619781494,57,9888.0
12050,0.12549680471420288,-2.740405797958374,41,7807.0,2.8552286624908447,101,9888.0
12060,0.12557446956634521,8.265803337097168,173,7807.0,2.037480354309082,-16,9888.0
12070,0.12653350830078125,12.817633628845215,187,7807.0,-0.14772441983222961,-57,9888.0
12080,0.1266101896762848,12.739740371704102,232,7807.0,-10.241772651672363,-193,9888.0
12090,0.12659874558448792,10.240874290466309,184,7807.0,-23.166149139404297,-467,9888.0
12100,0.12659236788749695,8.49912166595459,32,7807.0,-30.102378845214844,-477,9888.0
12110,0.12657231092453003,-2.0599849224090576,-50,7807.0,-28.877866744995117,-442,9888.0
12120,0.12661057710647583,-13.22697925567627,-273,7807.0,-21.601909637451172,-362,9888.0
12130,0.12664148211479187,-13.131119728088379,-169,7807.0,-12.482650756835938,-75,9888.0
12140,0.12673261761665344,-3.646177053451538,47,7807.0,5.68375301361084,161,9888.0
12150,0.12700936198234558,11.447196960449219,234,7807.0,23.9029598236084,451,9888.0
12160,0.12611719965934753,22.76047706604004,466,7807.0,34.549625396728516,597,9888.0
12170,0.12654554843902588,29.74836540222168,421,7807.0,31.79169273376465,467,9888.0
12180,0.12710878252983093,25.14354705810547,399,7807.0,18.777862548828125,238,9888.0
12190,0.12766683101654053,18.109909057617188,292,7807.0,0.050094593316316605,-75,9888.0
12200,0.12884047627449036,7.5157976150512695,98,7807.0,-6.44748067855835,-70,9888.0
12210,0.12951290607452393,3.4668166637420654,65,7807.0,-3.25890851020813,-54,9888.0
12220,0.13019713759422302,-2.23406982421875,-63,7807.0,-0.9010850787162781,-91,9888.0
12230,0.1308562457561493,-1.3428391218185425,-11,7807.0,-2.6524457931518555,32,9888.0
12240,0.13142505288124084,2.270676851272583,33,7807.0,-4.127551555633545,-144,9888.0
12250,0.13239118456840515,1.9401733875274658,90,7807.0,-7.743687629699707,-25,9888.0
12260,0.13273772597312927,-1.8964046239852905,-52,7807.0,-9.204961776733398,-209,9888.0
12270,0.13300684094429016,-6.843332767486572,-102,7807.0,-4.118215560913086,48,9888.0
12280,0.13319557905197144,-7.193181991577148,-91,7807.0,5.3964152336120605,87,9888.0
12290,0.1335238218307495,-6.906436920166016,-112,7807.0,18.969263076782227,413,9888.0
12300,0.1335359811782837,-3.0383081436157227,-13,7807.0,26.928329467773438,393,9888.0
12310,0.1334199607372284,-0.8394821882247925,-88,7807.0,23.528711318969727,393,9888.0
12320,0.1331959068775177,-0.18402786552906036,29,7807.0,12.07228946685791,106,9888.0
12330,0.13288861513137817,1.135292649269104,-5,7807.0,0.27949896454811096,-84,9888.0
12340,0.13291600346565247,3.2922258377075195,85,7807.0,-7.518466949462891,-84,9888.0
12350,0.1326378583908081,9.6506986618042,221,7807.0,-14.616557121276855,-341,9888.0
12360,0.13239893317222595,17.50043296813965,286,7807.0,-13.535383224487305,-117,9888.0
12370,0.1321755349636078,20.473590850830078,337,7807.0,-4.426998615264893,-40,9888.0
12380,0.1318477988243103,16.76296043395996,185,7807.0,-3.7902963161468506,-98,9888.0
12390,0.1317700743675232,3.7587027549743652,13,7807.0,-7.350304126739502,-59,9888.0
12400,0.13176509737968445,-2.082160472869873,-4,7807.0,-9.973639488220215,-290,9888.0
12410,0.13185051083564758,-4.160595417022705,-46,7807.0,-11.09541130065918,-124,9888.0
12420,0.13109728693962097,-8.494855880737305,-172,7807.0,-12.91134262084961,-220,9888.0
12430,0.1312207579612732,-12.919344902038574,-238,7807.0,-6.497567653656006,-6,9888.0
12440,0.13136819005012512,-18.045194625854492,-330,7807.0,9.8748140335083,207,9888.0
12450,0.13142508268356323,-25.317340850830078,-471,7807.0,23.98520278930664,373,9888.0
12460,0.1314554512500763,-26.392765045166016,-381,7807.0,15.60447883605957,240,9888.0
12470,0.13083088397979736,-18.78888511657715,-237,7807.0,5.23444128036499,2,9888.0
12480,0.13075891137123108,-3.5374209880828857,26,7807.0,-4.653616905212402,-207,9888.0
12490,0.13072469830513,15.15563678741455,301,7807.0,-15.653847694396973,-215,9888.0
12500,0.13069802522659302,18.514711380004883,332,7807.0,-20.699691772460938,-393,9888.0
12510,0.13053745031356812,20.329574584960938,259,7807.0,-20.437000274658203,-238,9888.0
12520,0.13027912378311157,15.593708992004395,311,7807.0,-8.729039192199707,-51,9888.0
12530,0.1299433708190918,15.872889518737793,261,7807.0,4.531351089477539,48,9888.0
12540,0.12950313091278076,14.7427978515625,236,7807.0,17.20897102355957,488,9888.0
12550,0.1290377378463745,12.474385261535645,163,7807.0,27.601356506347656,449,9888.0
12560,0.1276414394378662,2.237443685531616,-8,7807.0,26.178028106689453,405,9888.0
12570,0.127173513174057,-5.924811363220215,-121,7807.0,15.890398025512695,136,9888.0
12580,0.1266859471797943,-13.838244438171387,-248,7807.0,-0.8885685801506042,-234,9888.0
12590,0.12623518705368042,-12.373186111450195,-242,7807.0,-17.52349281311035,-354,9888.0
12600,0.12641003727912903,-10.793832778930664,-112,7807.0,-23.049945831298828,-400,9888.0
12610,0.1260351538658142,-9.93883991241455,-158,7807.0,-20.077016830444336,-356,9888.0
12620,0.12575554847717285,-0.8986581563949585,66,7807.0,-12.04849624633789,-111,9888.0
12630,0.12555459141731262,8.682572364807129,138,7807.0,1.948685646057129,89,9888.0
12640,0.12549975514411926,19.77204704284668,368,7807.0,12.157565116882324,244,9888.0
12650,0.12487438321113586,20.833192825317383,324,7807.0,7.666090965270996,60,9888.0
12660,0.12501445412635803,24.078838348388672,367,7807.0,10.69913387298584,254,9888.0
12670,0.12518975138664246,25.06393051147461,409,7807.0,19.097692489624023,307,9888.0
12680,0.12561967968940735,19.879411697387695,294,7807.0,13.661356925964355,123,9888.0
12690,0.12348213791847229,16.31273651123047,277,7807.0,-7.110286235809326,-118,9888.0
12700,0.12365931272506714,3.278225898742676,-69,7807.0,-17.449766159057617,-344,9888.0
12710,0.12387615442276001,-12.649351119995117,-229,7807.0,-26.580904006958008,-452,9888.0
12720,0.12398752570152283,-26.52754020690918,-509,7807.0,-31.534446716308594,-537,9888.0
12730,0.12431856989860535,-38.33258819580078,-607,7807.0,-30.265775680541992,-453,9888.0
12740,0.12421327829360962,-40.56925964355469,-682,7807.0,-20.767356872558594,-254,9888.0
12750,0.1240382194519043,-33.940223693847656,-474,7807.0,-7.40544319152832,-28,9888.0
12760,0.12393328547477722,-22.863399505615234,-356,7807.0,11.911646842956543,250,9888.0
12770,0.1235680878162384,-11.02420711517334,-49,7807.0,27.535913467407227,572,9888.0
12780,0.12160688638687134,-0.5988459587097168,-13,7807.0,35.50264358520508,534,9888.0
12790,0.12110215425491333,2.7515037059783936,89,7807.0,32.30293273925781,449,9888.0
12800,0.12080946564674377,2.8961057662963867,69,7807.0,15.153948783874512,89,9888.0
12810,0.12035548686981201,3.3103067874908447,31,7807.0,-6.594008922576904,-224,9888.0
12820,0.11893737316131592,3.9326012134552,60,7807.0,-22.3815975189209,-326,9888.0
12830,0.11854740977287292,3.419135093688965,50,7807.0,-24.215097427368164,-404,9888.0
12840,0.11820340156555176,6.416492462158203,60,7807.0,-12.330727577209473,-86,9888.0
12850,0.118033766746521,1.2960270643234253,39,7807.0,1.9728859663009644,43,9888.0
12860,0.11707508563995361,-6.128016471862793,-132,7807.0,7.4361701011657715,145,9888.0
12870,0.11703184247016907,-5.521487712860107,-57,7807.0,3.282827854156494,112,9888.0
12880,0.11706453561782837,-1.358455777168274,-14,7807.0,0.4311181902885437,-105,9888.0
12890,0.11722210049629211,9.179600715637207,189,7807.0,-10.20237922668457,-93,9888.0
12900,0.11752107739448547,17.514232635498047,378,7807.0,-12.335772514343262,-292,9888.0
12910,0.11889278888702393,25.48554801940918,431,7807.0,-13.89488410949707,-145,9888.0
12920,0.11949199438095093,28.086347579956055,427,7807.0,-3.4536406993865967,5,9888.0
12930,0.12014737725257874,20.212581634521484,256,7807.0,11.181950569152832,298,9888.0
12940,0.12093231081962585,0.5322856903076172,-93,7807.0,20.651107788085938,243,9888.0
12950,0.12264209985733032,-20.20916748046875,-446,7807.0,20.075210571289062,417,9888.0
12960,0.12324371933937073,-40.941741943359375,-750,7807.0,13.98342514038086,197,9888.0
12970,0.12362170219421387,-47.50850296020508,-799,7807.0,10.51435375213623,242,9888.0
12980,0.12399464845657349,-45.85873031616211,-736,7807.0,11.024140357971191,101,9888.0
12990,0.12420463562011719,-34.420345306396484,-507,7807.0,4.032296180725098,90,9888.0
13000,0.12422853708267212,-21.872844696044922,-212,7807.0,-1.450506329536438,-29,9888.0
13010,0.12425756454467773,-4.967813968658447,-78,7807.0,1.3703458309173584,-19,9888.0
13020,0.12444943189620972,8.415963172912598,199,7807.0,0.44682174921035767,15,9888.0
13030,0.12449577450752258,16.31561279296875,325,7807.0,-7.497761249542236,-245,9888.0
13040,0.12461972236633301,24.908512115478516,409,7807.0,-21.684730529785156,-338,9888.0
13050,0.1246020495891571,25.746824264526367,451,7807.0,-30.42197608947754,-556,9888.0
13060,0.12460076808929443,18.34292984008789,267,7807.0,-29.201574325561523,-499,9888.0
13070,0.12453615665435791,14.926400184631348,273,7807.0,-19.2877140045166,-211,9888.0
13080,0.1238427460193634,9.845288276672363,74,7807.0,2.568422555923462,214,9888.0
13090,0.12387821078300476,2.469517946243286,42,7807.0,22.899574279785156,365,9888.0
13100,0.1239209771156311,-5.749561786651611,-161,7807.0,30.9486026763916,568,9888.0
13110,0.123969167470932,-11.005725860595703,-161,7807.0,28.77159881591797,445,9888.0
13120,0.1239825189113617,-7.622941493988037,-104,7807.0,15.678877830505371,145,9888.0
13130,0.12496352195739746,1.7749680280685425,110,7807.0,-1.4817136526107788,-53,9888.0
13140,0.12497726082801819,11.76036548614502,252,7807.0,-3.587904214859009,-153,9888.0
13150,0.1252748966217041,16.06383514404297,213,7807.0,-5.958704471588135,-94,9888.0
13160,0.1256159245967865,8.716485977172852,107,7807.0,-14.340798377990723,-371,9888.0
13170,0.1271311640739441,3.3441264629364014,120,7807.0,-20.131528854370117,-285,9888.0
13180,0.12758523225784302,4.459460258483887,39,7807.0,-15.956799507141113,-253,9888.0
13190,0.12798544764518738,-0.49237245321273804,-43,7807.0,-5.309164524078369,108,9888.0
13200,0.12837740778923035,-3.9938769340515137,-82,7807.0,9.311758041381836,263,9888.0
13210,0.12875786423683167,-1.20176362991333,58,7807.0,15.981310844421387,252,9888.0
13220,0.12894687056541443,3.9886178970336914,10,7807.0,9.146729469299316,112,9888.0
13230,0.12916728854179382,2.278369903564453,31,7807.0,3.9987850189208984,73,9888.0
13240,0.1293024718761444,-3.381298780441284,-94,7807.0,-0.5270506739616394,-83,9888.0
13250,0.12937065958976746,-3.569988489151001,-22,7807.0,-0.279735803604126,20,9888.0
13260,0.13263320922851562,-0.4342457354068756,10,7807.0,-0.5861807465553284,-119,9888.0
13270,0.13274350762367249,2.6494557857513428,124,7807.0,-4.743844985961914,-22,9888.0
13280,0.1327683925628662,4.655596733093262,90,7807.0,-9.202091217041016,-220,9888.0
13290,0.13270303606987,12.009871482849121,233,7807.0,-18.33558464050293,-283,9888.0
13300,0.1326271891593933,17.609622955322266,290,7807.0,-14.099326133728027,-201,9888.0
13310,0.1310354471206665,18.042634963989258,308,7807.0,3.5696661472320557,175,9888.0
13320,0.13097330927848816,9.416095733642578,72,7807.0,24.41075325012207,486,9888.0
13330,0.13106516003608704,-3.4180116653442383,-71,7807.0,35.9267578125,663,9888.0
13340,0.13118982315063477,-17.469284057617188,-387,7807.0,35.59871292114258,537,9888.0
13350,0.13196414709091187,-28.212583541870117,-490,7807.0,25.501745223999023,383,9888.0
13360,0.13225260376930237,-33.73795700073242,-583,7807.0,6.366549968719482,-65,9888.0
13370,0.13268405199050903,-30.252132415771484,-511,7807.0,-14.148630142211914,-274,9888.0
13380,0.13322633504867554,-25.716703414916992,-285,7807.0,-31.377643585205078,-542,9888.0
13390,0.1337212324142456,-15.646919250488281,-286,7807.0,-34.70269012451172,-544,9888.0
13400,0.13432270288467407,-6.662822246551514,-10,7807.0,-21.04714584350586,-218,9888.0
13410,0.13501781225204468,4.773059368133545,124,7807.0,2.962541341781616,63,9888.0
13420,0.13566657900810242,10.376612663269043,210,7807.0,15.57892894744873,291,9888.0
13430,0.13631710410118103,16.865215301513672,347,7807.0,16.024682998657227,238,9888.0
13440,0.13566216826438904,31.451488494873047,537,7807.0,17.226116180419922,322,9888.0
13450,0.13595205545425415,40.41374588012695,715,7807.0,16.848373413085938,260,9888.0
13460,0.1361740231513977,37.049129486083984,571,7807.0,15.577446937561035,343,9888.0
13470,0.13629040122032166,27.306835174560547,468,7807.0,17.645864486694336,206,9888.0
13480,0.13571083545684814,14.952553749084473,158,7807.0,21.916242599487305,394,9888.0
13490,0.13554918766021729,2.810399055480957,41,7807.0,19.647478103637695,309,9888.0
13500,0.13530129194259644,-6.910280704498291,-217,7807.0,11.479912757873535,170,9888.0
13510,0.13499808311462402,-13.482431411743164,-177,7807.0,-2.6553831100463867,-149,9888.0
13520,0.13380035758018494,-17.264081954956055,-326,7807.0,-18.796010971069336,-434,9888.0
13530,0.13313522934913635,-13.072023391723633,-211,7807.0,-27.277450561523438,-356,9888.0
13540,0.13242477178573608,-4.807409763336182,-64,7807.0,-28.761812210083008,-548,9888.0
13550,0.1317080855369568,1.9407538175582886,13,7807.0,-19.202226638793945,-195,9888.0
13560,0.13103705644607544,5.679281234741211,116,7807.0,-10.089481353759766,-130,9888.0
13570,0.13054507970809937,4.1513190269470215,12,7807.0,3.874091863632202,71,9888.0
13580,0.12992626428604126,-1.4183273315429688,-16,7807.0,13.978743553161621,279,9888.0
13590,0.12941527366638184,-10.577499389648438,-322,7807.0,19.647140502929688,349,9888.0
13600,0.12900999188423157,-23.25946617126465,-374,7807.0,19.378950119018555,325,9888.0
13610,0.12871062755584717,-25.731740951538086,-411,7807.0,6.8647003173828125,40,9888.0
13620,0.12853455543518066,-29.881826400756836,-612,7807.0,0.19904431700706482,21,9888.0
13630,0.12845000624656677,-40.1413459777832,-562,7807.0,-1.9954440593719482,-106,9888.0
13640,0.12825918197631836,-29.30294418334961,-346,7807.0,-16.934513092041016,-335,9888.0
13650,0.12816545367240906,-11.1382417678833,-86,7807.0,-24.672786712646484,-435,9888.0
13660,0.12818565964698792,14.206460952758789,338,7807.0,-24.69223976135254,-381,9888.0
13670,0.1282190978527069,32.09357833862305,626,7807.0,-21.765111923217773,-299,9888.0
13680,0.12829047441482544,39.573997497558594,614,7807.0,-12.65877914428711,-138,9888.0
13690,0.12835627794265747,37.476661682128906,606,7807.0,-0.19205401837825775,121,9888.0
13700,0.1274130642414093,26.82935905456543,361,7807.0,4.468786239624023,41,9888.0
13710,0.12748399376869202,13.66879653930664,151,7807.0,7.742812156677246,180,9888.0
13720,0.12741845846176147,5.211472034454346,75,7807.0,12.43212604522705,143,9888.0
13730,0.1272791028022766,1.9636484384536743,0,7807.0,10.81225872039795,275,9888.0
13740,0.1265977919101715,1.1101394891738892,49,7807.0,11.314614295959473,198,9888.0
13750,0.1264106035232544,1.1568329334259033,60,7807.0,7.706377983093262,-30,9888.0
13760,0.12615233659744263,8.616863250732422,240,7807.0,-4.545414447784424,-93,9888.0
13770,0.12589940428733826,21.15968894958496,400,7807.0,-21.59565544128418,-410,9888.0
13780,0.12558650970458984,23.39385986328125,368,7807.0,-28.296689987182617,-475,9888.0
13790,0.12389203906059265,15.274089813232422,205,7807.0,-30.357458114624023,-544,9888.0
13800,0.12370458245277405,-6.265084266662598,-292,7807.0,-30.220611572265625,-379,9888.0
13810,0.12363138794898987,-28.177288055419922,-601,7807.0,-21.240657806396484,-272,9888.0
13820,0.12355926632881165,-40.39619827270508,-756,7807.0,-13.698175430297852,-105,9888.0
13830,0.12207785248756409,-44.701927185058594,-678,7807.0,-2.6141653060913086,8,9888.0
13840,0.122036874294281,-45.68872833251953,-805,7807.0,9.160469055175781,213,9888.0
13850,0.12194305658340454,-45.0208854675293,-654,7807.0,18.670259475708008,379,9888.0
13860,0.12194457650184631,-36.52730941772461,-493,7807.0,18.318815231323242,253,9888.0
13870,0.12206599116325378,-16.418445587158203,-187,7807.0,16.828140258789062,238,9888.0
13880,0.12061658501625061,5.880797863006592,241,7807.0,11.393478393554688,249,9888.0
13890,0.12080249190330505,31.966796875,720,7807.0,10.803727149963379,187,9888.0
13900,0.12107852101325989,50.5760383605957,858,7807.0,4.085602760314941,-136,9888.0
13910,0.12118056416511536,53.5611686706543,832,7807.0,-3.4555773735046387,-99,9888.0
13920,0.12075304985046387,46.14305114746094,790,7807.0,-11.36390209197998,-138,9888.0
13930,0.12077698111534119,36.542572021484375,516,7807.0,-11.696663856506348,-264,9888.0
13940,0.1207064688205719,21.821247100830078,288,7807.0,-11.64669418334961,-153,9888.0
13950,0.1206304132938385,7.496275901794434,41,7807.0,-7.574329376220703,-5,9888.0
13960,0.12057778239250183,-5.131490230560303,-50,7807.0,3.3796937465667725,65,9888.0
13970,0.12034392356872559,-8.156115531921387,-187,7807.0,8.602529525756836,131,9888.0
13980,0.12005749344825745,0.11530740559101105,143,7807.0,4.1777238845825195,51,9888.0
13990,0.11974191665649414,17.605573654174805,291,7807.0,-0.80010986328125,-58,9888.0
14000,0.11945691704750061,22.180526733398438,338,7807.0,-1.0953809022903442,62,9888.0
