timestamp,kalman.stateZ,gyro.x,gyro.xRaw,gyro.xVariance,gyro.y,gyro.yRaw,gyro,yVariance
0,0.0,1.3630119562149048,21,7807.0,-3.5892081260681152,-66,9888.0
10,-3.281235694885254e-05,1.1718363761901855,24,7807.0,-4.409456253051758,-72,9888.0
20,-5.078315734863281e-05,1.3541864156723022,33,7807.0,-5.800991058349609,-90,9888.0
30,-7.05420970916748e-05,1.4038852453231812,25,7807.0,-6.330731391906738,-98,9888.0
40,-0.00020682811737060547,0.48414698243141174,9,7807.0,-6.916549205780029,-109,9888.0
50,-0.0002263784408569336,-0.3006986975669861,-7,7807.0,-6.654282569885254,-99,9888.0
60,-0.00026741623878479004,-0.5323837399482727,-8,7807.0,-5.729180812835693,-90,9888.0
70,-0.00032258033752441406,-0.6240208745002747,-6,7807.0,-4.819162368774414,-68,9888.0
80,-0.0007579922676086426,-0.47064152359962463,-4,7807.0,-2.938194751739502,-40,9888.0
90,-0.0008197426795959473,-0.309491902589798,-4,7807.0,-0.6714888215065002,11,9888.0
100,-0.0008631348609924316,0.023890985175967216,7,7807.0,1.8492954969406128,45,9888.0
110,-0.0009021162986755371,-0.044415973126888275,-8,7807.0,3.985076665878296,73,9888.0
120,-0.0009424090385437012,-0.6914500594139099,-11,7807.0,5.210949420928955,97,9888.0
130,-0.00040969252586364746,-1.4007115364074707,-20,7807.0,5.594949722290039,93,9888.0
140,-0.0003921091556549072,-1.1551835536956787,-12,7807.0,5.219480514526367,82,9888.0
150,-0.00040537118911743164,-0.07660430669784546,-5,7807.0,4.146539211273193,64,9888.0
160,-0.0004138648509979248,0.3888196349143982,13,7807.0,2.641433000564575,34,9888.0
170,0.0003815293312072754,0.6918495893478394,4,7807.0,1.2182904481887817,25,9888.0
180,0.00041490793228149414,0.8837496042251587,16,7807.0,0.002896466525271535,-5,9888.0
190,0.0004477500915527344,1.6001728773117065,31,7807.0,-1.6129993200302124,-30,9888.0
200,0.0004813671112060547,1.8819504976272583,31,7807.0,-2.754619836807251,-52,9888.0
210,0.00017765164375305176,1.629055380821228,25,7807.0,-3.7401304244995117,-60,9888.0
220,0.0001983642578125,0.9891677498817444,14,7807.0,-4.963212966918945,-78,9888.0
230,0.00021511316299438477,0.4119172692298889,12,7807.0,-5.889848232269287,-97,9888.0
240,0.00021913647651672363,-0.27605292201042175,-11,7807.0,-6.754509925842285,-115,9888.0
250,0.00020420551300048828,-1.480965495109558,-31,7807.0,-5.850374221801758,-90,9888.0
260,0.0007308423519134521,0.06169937923550606,9,7807.0,-6.77921199798584,-114,9888.0
270,0.0007541477680206299,-3.26027512550354,-23,7807.0,-5.253287315368652,-97,9888.0
280,0.0007966756820678711,-1.7390620708465576,-47,7807.0,-7.449828624725342,-88,9888.0
290,0.0008561015129089355,-2.1747608184814453,-52,7807.0,-9.076460838317871,-128,9888.0
300,0.0011783242225646973,-1.9289371967315674,-84,7807.0,-11.368935585021973,-160,9888.0
310,0.00120466947555542,-1.9805415868759155,-56,7807.0,-12.90165901184082,-152,9888.0
320,0.001412510871887207,-2.877084970474243,-47,7807.0,-8.244524002075195,-99,9888.0
330,0.00164109468460083,-1.4431638717651367,20,7807.0,0.6533557772636414,10,9888.0
340,0.0012670159339904785,2.2238047122955322,55,7807.0,8.805257797241211,241,9888.0
350,0.0013484954833984375,-0.4093555212020874,-22,7807.0,23.962032318115234,482,9888.0
360,0.0014159679412841797,6.599766731262207,121,7807.0,41.397891998291016,755,9888.0
370,0.0015313029289245605,8.805292129516602,150,7807.0,53.036537170410156,861,9888.0
380,0.0019445419311523438,9.856226921081543,187,7807.0,59.84382629394531,1006,9888.0
390,0.0011149048805236816,4.735314846038818,5,7807.0,61.367923736572266,977,9888.0
400,0.0009522736072540283,2.3679006099700928,42,7807.0,51.393211364746094,827,9888.0
410,0.001385509967803955,-0.9161806702613831,-27,7807.0,37.78682327270508,431,9888.0
420,0.0018421709537506104,-3.053835391998291,-76,7807.0,15.469024658203125,191,9888.0
430,0.0006545782089233398,-4.864360332489014,-66,7807.0,-4.361065864562988,-247,9888.0
440,0.0007496178150177002,-4.572509765625,-109,7807.0,-25.008644104003906,-466,9888.0
450,0.0009065568447113037,-3.090409278869629,0,7807.0,-41.25117874145508,-793,9888.0
460,0.0009028911590576172,-0.169015571475029,36,7807.0,-55.62592315673828,-923,9888.0
470,0.001323103904724121,2.771717071533203,67,7807.0,-60.46233367919922,-1084,9888.0
480,0.0010099709033966064,3.7328734397888184,57,7807.0,-58.466819763183594,-1006,9888.0
490,0.0011861920356750488,3.1982007026672363,95,7807.0,-50.0262336730957,-774,9888.0
500,0.001542121171951294,3.2534468173980713,58,7807.0,-36.712345123291016,-514,9888.0
510,0.002040296792984009,-2.0758936405181885,-20,7807.0,-20.503332138061523,-375,9888.0
520,0.001475691795349121,-2.161888599395752,-83,7807.0,-5.329732418060303,-158,9888.0
530,0.001771092414855957,-7.835647106170654,-103,7807.0,7.542952537536621,38,9888.0
540,0.0022565126419067383,-7.814770698547363,-57,7807.0,11.810162544250488,139,9888.0
550,0.002654433250427246,-9.118390083312988,-180,7807.0,14.458072662353516,374,9888.0
560,0.002949267625808716,-4.505709171295166,-98,7807.0,16.73886489868164,437,9888.0
570,0.0031839311122894287,-3.6239490509033203,-74,7807.0,18.89130973815918,298,9888.0
580,0.003638148307800293,2.4298386573791504,13,7807.0,19.02128791809082,372,9888.0
590,0.004017621278762817,1.3650015592575073,73,7807.0,27.121644973754883,358,9888.0
600,0.00468793511390686,3.276254415512085,83,7807.0,34.859031677246094,508,9888.0
610,0.004159510135650635,4.4264936447143555,-46,7807.0,40.91887283325195,653,9888.0
620,0.004572689533233643,3.7671945095062256,71,7807.0,41.6838493347168,827,9888.0
630,0.0049408674240112305,5.2651262283325195,83,7807.0,46.4286994934082,853,9888.0
640,0.00526699423789978,2.9077064990997314,-38,7807.0,50.82632827758789,926,9888.0
650,0.004539221525192261,1.2603986263275146,4,7807.0,46.45951461791992,834,9888.0
660,0.004789561033248901,3.6847996711730957,3,7807.0,35.49870681762695,471,9888.0
670,0.005520910024642944,0.580207347869873,8,7807.0,25.059524536132812,215,9888.0
680,0.005956590175628662,2.5972042083740234,117,7807.0,8.579883575439453,-64,9888.0
690,0.006365418434143066,3.2633564472198486,125,7807.0,-7.877487659454346,-296,9888.0
700,0.007514864206314087,4.463588714599609,101,7807.0,-22.05594253540039,-564,9888.0
710,0.00796326994895935,3.5414044857025146,78,7807.0,-29.293365478515625,-515,9888.0
720,0.008400768041610718,5.504587173461914,93,7807.0,-35.764705657958984,-384,9888.0
730,0.008772194385528564,4.261309623718262,45,7807.0,-32.05265426635742,-427,9888.0
740,0.010937899351119995,2.7271695137023926,-17,7807.0,-27.36043930053711,-292,9888.0
750,0.011434882879257202,-2.4766080379486084,-56,7807.0,-19.216434478759766,-339,9888.0
760,0.012012302875518799,-7.289767742156982,-218,7807.0,-9.581522941589355,-43,9888.0
770,0.012659966945648193,-7.899359226226807,-148,7807.0,-7.783769607543945,63,9888.0
780,0.012197643518447876,-11.814106941223145,-237,7807.0,-2.778538703918457,-11,9888.0
790,0.012500464916229248,-9.830410957336426,-157,7807.0,-2.6128811836242676,-150,9888.0
800,0.012888729572296143,-9.697602272033691,-115,7807.0,-0.42206040024757385,51,9888.0
810,0.013320773839950562,-5.115453243255615,-50,7807.0,1.9384211301803589,145,9888.0
820,0.013635009527206421,0.26621711254119873,-43,7807.0,8.527366638183594,259,9888.0
830,0.01148313283920288,7.6051836013793945,180,7807.0,14.766972541809082,151,9888.0
840,0.011465251445770264,15.181004524230957,344,7807.0,22.733522415161133,273,9888.0
850,0.01144099235534668,24.56102180480957,510,7807.0,26.950389862060547,387,9888.0
860,0.011586368083953857,22.89071273803711,301,7807.0,26.611879348754883,556,9888.0
870,0.010636478662490845,16.704917907714844,194,7807.0,22.495927810668945,455,9888.0
880,0.01075679063796997,6.357332229614258,57,7807.0,19.887601852416992,210,9888.0
890,0.010766059160232544,-2.3015010356903076,-45,7807.0,15.48969841003418,169,9888.0
900,0.01062709093093872,-7.705153942108154,-187,7807.0,7.8583221435546875,227,9888.0
910,0.01056697964668274,-10.567461013793945,-225,7807.0,0.3982199728488922,35,9888.0
920,0.01016804575920105,-14.351144790649414,-207,7807.0,-11.35362434387207,-412,9888.0
930,0.010189056396484375,-15.161628723144531,-214,7807.0,-21.99013328552246,-576,9888.0
940,0.010141819715499878,-15.04201889038086,-276,7807.0,-33.14067077636719,-535,9888.0
950,0.009968072175979614,-15.571404457092285,-301,7807.0,-42.831607818603516,-618,9888.0
960,0.009154945611953735,-8.436399459838867,-213,7807.0,-49.228309631347656,-763,9888.0
970,0.009011775255203247,-5.815679550170898,-5,7807.0,-46.625953674316406,-885,9888.0
980,0.00915837287902832,1.0208642482757568,3,7807.0,-42.684818267822266,-658,9888.0
990,0.009149372577667236,5.385251522064209,91,7807.0,-34.72732162475586,-505,9888.0
1000,0.008981823921203613,10.080924034118652,203,7807.0,-24.23042106628418,-295,9888.0
1010,0.00885242223739624,11.197412490844727,125,7807.0,-13.890144348144531,-204,9888.0
1020,0.00883173942565918,6.3607177734375,74,7807.0,-9.141032218933105,-250,9888.0
1030,0.008662968873977661,3.578507900238037,-29,7807.0,-7.268804550170898,-31,9888.0
1040,0.008406788110733032,2.496307611465454,104,7807.0,-6.064133644104004,-81,9888.0
1050,0.008324414491653442,6.794908046722412,94,7807.0,-1.7288334369659424,-16,9888.0
1060,0.007959693670272827,5.227637767791748,55,7807.0,1.6872930526733398,5,9888.0
1070,0.00750616192817688,4.417254447937012,50,7807.0,10.250076293945312,286,9888.0
1080,0.0070168375968933105,2.560027599334717,20,7807.0,18.118663787841797,371,9888.0
1090,0.006222277879714966,-0.3610381782054901,-20,7807.0,22.938629150390625,482,9888.0
1100,0.005771070718765259,-5.351746082305908,-135,7807.0,24.969390869140625,388,9888.0
1110,0.005351126194000244,-11.188698768615723,-186,7807.0,25.232078552246094,298,9888.0
1120,0.004891782999038696,-15.05910587310791,-279,7807.0,19.289058685302734,138,9888.0
1130,0.004501819610595703,-15.43972110748291,-223,7807.0,9.005823135375977,-3,9888.0
1140,0.003975182771682739,-15.596112251281738,-262,7807.0,-1.6583186388015747,-134,9888.0
1150,0.003726452589035034,-11.869751930236816,-102,7807.0,-14.053633689880371,-404,9888.0
1160,0.003589242696762085,-4.174466133117676,-28,7807.0,-24.917095184326172,-426,9888.0
1170,0.0034864842891693115,3.1386969089508057,8,7807.0,-26.761301040649414,-396,9888.0
1180,0.004720330238342285,3.1015470027923584,88,7807.0,-25.653228759765625,-393,9888.0
1190,0.004801362752914429,1.1060179471969604,-43,7807.0,-20.293594360351562,-245,9888.0
1200,0.00508725643157959,-0.04660491645336151,9,7807.0,-9.676210403442383,22,9888.0
1210,0.005392521619796753,0.8758848905563354,-16,7807.0,3.7228262424468994,207,9888.0
1220,0.006707191467285156,4.585841178894043,118,7807.0,18.147565841674805,455,9888.0
1230,0.0070060789585113525,9.02460765838623,148,7807.0,28.310840606689453,489,9888.0
1240,0.007224589586257935,8.263691902160645,163,7807.0,32.425018310546875,509,9888.0
1250,0.007400035858154297,4.447449684143066,92,7807.0,27.972984313964844,293,9888.0
1260,0.0076014697551727295,0.8406767249107361,-15,7807.0,14.807779312133789,244,9888.0
1270,0.008246898651123047,-2.2023231983184814,52,7807.0,1.9241608381271362,-169,9888.0
1280,0.008584052324295044,-0.5136887431144714,5,7807.0,-10.37578010559082,-238,9888.0
1290,0.008897572755813599,0.29802367091178894,65,7807.0,-15.9710111618042,-385,9888.0
1300,0.009229570627212524,7.851154804229736,123,7807.0,-14.46082878112793,-252,9888.0
1310,0.00965040922164917,15.594626426696777,342,7807.0,-2.6293885707855225,-30,9888.0
1320,0.010132461786270142,19.924869537353516,322,7807.0,17.7696475982666,304,9888.0
1330,0.010470867156982422,14.772457122802734,198,7807.0,37.81106185913086,702,9888.0
1340,0.010902971029281616,6.642028331756592,82,7807.0,53.23203659057617,811,9888.0
1350,0.011340498924255371,-7.966137409210205,-261,7807.0,58.20539093017578,1023,9888.0
1360,0.011234551668167114,-21.39391326904297,-340,7807.0,51.45365905761719,820,9888.0
1370,0.011939048767089844,-24.696046829223633,-411,7807.0,38.45265579223633,409,9888.0
1380,0.012517064809799194,-20.291709899902344,-270,7807.0,20.16855812072754,305,9888.0
1390,0.013098359107971191,-16.900543212890625,-213,7807.0,9.311237335205078,-65,9888.0
1400,0.015309333801269531,-8.639092445373535,-69,7807.0,-7.508693695068359,-195,9888.0
1410,0.016056090593338013,-5.796380996704102,-97,7807.0,-20.447368621826172,-375,9888.0
1420,0.016696423292160034,-1.9251710176467896,27,7807.0,-33.47633743286133,-404,9888.0
1430,0.017198950052261353,5.393470764160156,57,7807.0,-40.53799819946289,-664,9888.0
1440,0.01680535078048706,6.394643783569336,92,7807.0,-40.20218276977539,-565,9888.0
1450,0.017196863889694214,8.341492652893066,128,7807.0,-36.2986946105957,-505,9888.0
1460,0.017971843481063843,8.919536590576172,122,7807.0,-26.604196548461914,-278,9888.0
1470,0.01835179328918457,9.096879005432129,141,7807.0,-12.990620613098145,-82,9888.0
1480,0.018805116415023804,10.18907356262207,186,7807.0,1.2731263637542725,-24,9888.0
1490,0.01849326491355896,9.983495712280273,116,7807.0,14.955245018005371,241,9888.0
1500,0.01895025372505188,8.387866973876953,131,7807.0,23.76161766052246,425,9888.0
1510,0.019303709268569946,3.193559408187866,47,7807.0,27.223072052001953,370,9888.0
1520,0.019699186086654663,-0.4629001319408417,-67,7807.0,26.244327545166016,358,9888.0
1530,0.01876339316368103,-2.275956153869629,-29,7807.0,21.36983871459961,315,9888.0
1540,0.019078314304351807,-2.4939277172088623,32,7807.0,13.86673355102539,167,9888.0
1550,0.019284158945083618,4.435835361480713,114,7807.0,2.05570912361145,24,9888.0
1560,0.019533812999725342,11.285569190979004,252,7807.0,-4.67332649230957,-48,9888.0
1570,0.01994207501411438,17.592195510864258,237,7807.0,-3.8535804748535156,-13,9888.0
1580,0.019066423177719116,14.180778503417969,183,7807.0,5.775779724121094,215,9888.0
1590,0.019424259662628174,3.7329893112182617,-21,7807.0,14.555392265319824,392,9888.0
1600,0.019778043031692505,-7.493281364440918,-190,7807.0,21.921669006347656,394,9888.0
1610,0.020205140113830566,-20.280563354492188,-437,7807.0,21.38945770263672,302,9888.0
1620,0.02053210139274597,-29.20097541809082,-477,7807.0,8.763606071472168,46,9888.0
1630,0.02083665132522583,-32.47106170654297,-455,7807.0,0.288288950920105,-101,9888.0
1640,0.020940393209457397,-24.575239181518555,-398,7807.0,-13.85278034210205,-247,9888.0
1650,0.021004706621170044,-14.31671142578125,-181,7807.0,-22.65511131286621,-334,9888.0
1660,0.020700663328170776,-2.7160727977752686,7,7807.0,-31.997270584106445,-551,9888.0
1670,0.020855247974395752,6.8061676025390625,88,7807.0,-33.760780334472656,-648,9888.0
1680,0.020827412605285645,16.80884552001953,321,7807.0,-33.934207916259766,-492,9888.0
1690,0.02112942934036255,17.008411407470703,341,7807.0,-23.746461868286133,-337,9888.0
1700,0.02143356204032898,16.087617874145508,258,7807.0,-10.86645221710205,-168,9888.0
1710,0.021355926990509033,12.63102912902832,150,7807.0,1.4227304458618164,137,9888.0
1720,0.021564006805419922,10.834367752075195,139,7807.0,7.816806316375732,292,9888.0
1730,0.021747231483459473,7.7869553565979,80,7807.0,12.300176620483398,264,9888.0
1740,0.021928489208221436,1.1728030443191528,-65,7807.0,9.695822715759277,133,9888.0
1750,0.021191447973251343,-2.9488070011138916,-191,7807.0,2.493028163909912,19,9888.0
1760,0.021322041749954224,-8.141931533813477,-114,7807.0,-6.9962053298950195,-131,9888.0
1770,0.02142670750617981,-11.1771879196167,-113,7807.0,-12.882725715637207,-416,9888.0
1780,0.021501541137695312,-6.280142784118652,46,7807.0,-19.88157844543457,-433,9888.0
1790,0.021560311317443848,10.29055404663086,214,7807.0,-17.316190719604492,-344,9888.0
1800,0.021744519472122192,23.437416076660156,415,7807.0,-8.234454154968262,106,9888.0
1810,0.021994203329086304,32.04768753051758,491,7807.0,6.766822338104248,313,9888.0
1820,0.022174596786499023,27.624114990234375,374,7807.0,24.937313079833984,559,9888.0
1830,0.02225479483604431,6.4789276123046875,-50,7807.0,39.57146072387695,768,9888.0
1840,0.022512614727020264,-15.039298057556152,-414,7807.0,46.127262115478516,830,9888.0
1850,0.02247607707977295,-29.48271942138672,-513,7807.0,44.96298599243164,680,9888.0
1860,0.022374838590621948,-37.08796310424805,-545,7807.0,31.778318405151367,396,9888.0
1870,0.02277219295501709,-39.145389556884766,-631,7807.0,13.444145202636719,142,9888.0
1880,0.02356278896331787,-33.08058166503906,-627,7807.0,-6.271687984466553,-161,9888.0
1890,0.02384224534034729,-24.734621047973633,-298,7807.0,-21.997591018676758,-425,9888.0
1900,0.024372965097427368,-12.565319061279297,-106,7807.0,-31.915451049804688,-521,9888.0
1910,0.024652421474456787,1.8844116926193237,-4,7807.0,-38.14822769165039,-621,9888.0
1920,0.0248299241065979,11.895649909973145,218,7807.0,-37.52598190307617,-587,9888.0
1930,0.02509334683418274,17.01912498474121,425,7807.0,-37.39457702636719,-630,9888.0
1940,0.02525186538696289,20.26980972290039,363,7807.0,-35.91926956176758,-550,9888.0
1950,0.0256902277469635,19.525320053100586,274,7807.0,-26.546899795532227,-394,9888.0
1960,0.025744497776031494,17.940465927124023,199,7807.0,-15.177255630493164,-222,9888.0
1970,0.02532830834388733,13.528860092163086,121,7807.0,-2.7727432250976562,-4,9888.0
1980,0.02529686689376831,7.291820526123047,79,7807.0,8.515403747558594,87,9888.0
1990,0.025347530841827393,-0.5690563321113586,5,7807.0,16.443130493164062,251,9888.0
2000,0.025402039289474487,-2.4862003326416016,-10,7807.0,21.26827049255371,398,9888.0
2010,0.024541527032852173,-2.1498448848724365,28,7807.0,29.53367805480957,526,9888.0
2020,0.024584174156188965,2.31003475189209,73,7807.0,39.352012634277344,766,9888.0
2030,0.024663716554641724,8.51662540435791,224,7807.0,47.738258361816406,700,9888.0
2040,0.024743467569351196,16.035633087158203,290,7807.0,42.64512252807617,529,9888.0
2050,0.024719297885894775,20.01741600036621,311,7807.0,38.216976165771484,574,9888.0
2060,0.026074200868606567,13.945707321166992,155,7807.0,25.81616973876953,471,9888.0
2070,0.026074111461639404,5.720578193664551,-47,7807.0,17.899065017700195,278,9888.0
2080,0.026316940784454346,-14.072437286376953,-249,7807.0,1.8576946258544922,67,9888.0
2090,0.026254117488861084,-28.86309051513672,-469,7807.0,-6.237375259399414,-84,9888.0
2100,0.029842883348464966,-34.91328430175781,-599,7807.0,-8.789057731628418,-94,9888.0
2110,0.029797405004501343,-30.412635803222656,-500,7807.0,-3.694329023361206,-208,9888.0
2120,0.029778718948364258,-21.738685607910156,-322,7807.0,1.0509984493255615,59,9888.0
2130,0.02967706322669983,-11.272225379943848,-220,7807.0,4.112929821014404,209,9888.0
2140,0.029511719942092896,-2.6476056575775146,26,7807.0,-0.014975718222558498,4,9888.0
2150,0.03140231966972351,3.6580002307891846,169,7807.0,-5.253229141235352,-202,9888.0
2160,0.03132656216621399,6.8995561599731445,84,7807.0,-14.086724281311035,-237,9888.0
2170,0.03122115135192871,7.507283687591553,67,7807.0,-23.834861755371094,-366,9888.0
2180,0.031050384044647217,6.7177815437316895,182,7807.0,-29.078445434570312,-490,9888.0
2190,0.032758891582489014,9.10683822631836,302,7807.0,-31.739744186401367,-525,9888.0
2200,0.03248262405395508,15.40657901763916,218,7807.0,-28.808765411376953,-348,9888.0
2210,0.03216904401779175,16.2321834564209,279,7807.0,-20.838136672973633,-297,9888.0
2220,0.031723976135253906,19.800643920898438,247,7807.0,-11.863044738769531,-186,9888.0
2230,0.032241106033325195,14.735766410827637,213,7807.0,-4.162278652191162,-162,9888.0
2240,0.03190195560455322,11.624809265136719,196,7807.0,-1.5233529806137085,-38,9888.0
2250,0.031585633754730225,6.754666805267334,42,7807.0,2.5753304958343506,68,9888.0
2260,0.03121587634086609,2.3156850337982178,23,7807.0,12.617773056030273,371,9888.0
2270,0.030899763107299805,6.12261962890625,29,7807.0,15.03041934967041,426,9888.0
2280,0.03063368797302246,10.134519577026367,236,7807.0,16.568532943725586,248,9888.0
2290,0.030305325984954834,16.5815372467041,253,7807.0,21.753259658813477,364,9888.0
2300,0.029937952756881714,5.852786540985107,109,7807.0,22.424617767333984,424,9888.0
2310,0.029396146535873413,-0.47924748063087463,-77,7807.0,18.122072219848633,381,9888.0
2320,0.030612945556640625,-9.159173965454102,-222,7807.0,20.051681518554688,212,9888.0
2330,0.030150920152664185,-23.365018844604492,-364,7807.0,14.31725025177002,111,9888.0
2340,0.029638290405273438,-30.1492919921875,-490,7807.0,7.712599754333496,85,9888.0
2350,0.02937859296798706,-28.55765724182129,-512,7807.0,3.6209068298339844,-98,9888.0
2360,0.028943806886672974,-23.93876075744629,-299,7807.0,-3.2730941772460938,-19,9888.0
2370,0.030337154865264893,-14.909221649169922,-171,7807.0,-6.7638397216796875,-106,9888.0
2380,0.02989479899406433,-0.24350851774215698,148,7807.0,-12.0933256149292,-336,9888.0
2390,0.02949577569961548,14.173346519470215,296,7807.0,-16.433837890625,-303,9888.0
2400,0.02904212474822998,22.31649398803711,320,7807.0,-21.17660140991211,-461,9888.0
2410,0.030234694480895996,29.351041793823242,457,7807.0,-28.008684158325195,-463,9888.0
2420,0.029755353927612305,25.49761390686035,355,7807.0,-29.770166397094727,-430,9888.0
2430,0.029323101043701172,20.72955322265625,247,7807.0,-33.33660888671875,-425,9888.0
2440,0.029113799333572388,8.844776153564453,149,7807.0,-31.610429763793945,-498,9888.0
2450,0.029338181018829346,0.13782930374145508,-28,7807.0,-24.48391342163086,-357,9888.0
2460,0.029146134853363037,-11.7944974899292,-183,7807.0,-16.743759155273438,-261,9888.0
2470,0.028946638107299805,-18.645069122314453,-370,7807.0,-9.331514358520508,-2,9888.0
2480,0.028895080089569092,-18.632848739624023,-418,7807.0,-8.512747764587402,62,9888.0
2490,0.028913557529449463,-21.613332748413086,-218,7807.0,-0.3353637754917145,-6,9888.0
2500,0.029178708791732788,-17.08192253112793,-246,7807.0,1.8944252729415894,-59,9888.0
2510,0.029156476259231567,-7.716516971588135,-25,7807.0,5.892344951629639,19,9888.0
2520,0.02917182445526123,3.1003785133361816,114,7807.0,13.766522407531738,254,9888.0
2530,0.029201388359069824,13.159733772277832,239,7807.0,22.18782615661621,430,9888.0
2540,0.029110342264175415,31.94107437133789,544,7807.0,22.689817428588867,223,9888.0
2550,0.029208749532699585,41.878028869628906,731,7807.0,17.22439956665039,238,9888.0
2560,0.029428750276565552,40.96943283081055,521,7807.0,21.278636932373047,406,9888.0
2570,0.029723316431045532,17.881778717041016,123,7807.0,39.450565338134766,667,9888.0
2580,0.029872357845306396,-6.899089336395264,-249,7807.0,46.80835723876953,691,9888.0
2590,0.030680984258651733,-29.277616500854492,-565,7807.0,45.37846374511719,712,9888.0
2600,0.03063100576400757,-47.011695861816406,-802,7807.0,40.613006591796875,577,9888.0
2610,0.03159967064857483,-57.03358840942383,-999,7807.0,18.038742065429688,286,9888.0
2620,0.03196996450424194,-56.07401657104492,-792,7807.0,-2.992292642593384,-119,9888.0
2630,0.033810168504714966,-47.72563934326172,-727,7807.0,-19.131359100341797,-424,9888.0
2640,0.034445345401763916,-35.252685546875,-550,7807.0,-28.82358169555664,-538,9888.0
2650,0.03565898537635803,-18.705251693725586,-217,7807.0,-31.49141502380371,-358,9888.0
2660,0.036683231592178345,4.947806358337402,220,7807.0,-29.787952423095703,-419,9888.0
2670,0.037223607301712036,25.602163314819336,510,7807.0,-25.056285858154297,-477,9888.0
2680,0.038121163845062256,32.43632888793945,509,7807.0,-17.429561614990234,-251,9888.0
2690,0.03910553455352783,32.01893615722656,499,7807.0,-10.134139060974121,-218,9888.0
2700,0.03982597589492798,30.392179489135742,512,7807.0,-6.8783793449401855,-78,9888.0
2710,0.040548890829086304,25.107425689697266,415,7807.0,-2.462188959121704,-62,9888.0
2720,0.0407731831073761,19.31723976135254,380,7807.0,1.5993950366973877,126,9888.0
2730,0.04123833775520325,16.84205436706543,153,7807.0,3.548452138900757,108,9888.0
2740,0.0418742299079895,6.407839775085449,57,7807.0,4.300958633422852,29,9888.0
2750,0.04241684079170227,-0.6950886249542236,-138,7807.0,0.48732829093933105,-68,9888.0
2760,0.04091078042984009,-7.70717191696167,-144,7807.0,-0.5558546185493469,-69,9888.0
2770,0.04132944345474243,-2.8846170902252197,13,7807.0,1.32328462600708,97,9888.0
2780,0.041885703802108765,7.266117572784424,188,7807.0,9.3341646194458,358,9888.0
2790,0.04227948188781738,18.801904678344727,308,7807.0,22.917621612548828,545,9888.0
2800,0.04251787066459656,21.366533279418945,364,7807.0,28.052732467651367,519,9888.0
2810,0.040677815675735474,21.569889068603516,306,7807.0,32.83793258666992,429,9888.0
2820,0.041160762310028076,6.608016014099121,81,7807.0,36.75818634033203,393,9888.0
2830,0.04172733426094055,-9.103440284729004,-279,7807.0,33.432716369628906,567,9888.0
2840,0.04211506247520447,-22.714550018310547,-542,7807.0,32.926029205322266,653,9888.0
2850,0.04275989532470703,-32.802452087402344,-591,7807.0,29.19390296936035,467,9888.0
2860,0.04337418079376221,-36.72943115234375,-524,7807.0,22.207090377807617,328,9888.0
2870,0.04386240243911743,-29.67640495300293,-412,7807.0,9.506269454956055,117,9888.0
2880,0.044491589069366455,-16.608081817626953,-172,7807.0,-2.0421981811523438,-295,9888.0
2890,0.04279959201812744,-3.550675868988037,-41,7807.0,-19.08686637878418,-356,9888.0
2900,0.043343544006347656,7.489106178283691,128,7807.0,-32.69046401977539,-504,9888.0
2910,0.04383593797683716,14.615921974182129,415,7807.0,-38.588401794433594,-702,9888.0
2920,0.04432287812232971,20.343677520751953,328,7807.0,-41.22651290893555,-621,9888.0
2930,0.04470932483673096,24.157594680786133,383,7807.0,-36.821128845214844,-600,9888.0
2940,0.04306259751319885,27.067626953125,380,7807.0,-28.030614852905273,-516,9888.0
2950,0.04307934641838074,25.891986846923828,408,7807.0,-16.438814163208008,-298,9888.0
2960,0.04314836859703064,21.82494354248047,311,7807.0,-6.966139316558838,-86,9888.0
2970,0.0430503785610199,12.952640533447266,179,7807.0,-2.37943172454834,42,9888.0
2980,0.041863054037094116,9.356608390808105,87,7807.0,-2.7044155597686768,62,9888.0
2990,0.04192724823951721,-1.3155707120895386,-70,7807.0,-9.034096717834473,-227,9888.0
3000,0.04207524657249451,-8.035820960998535,-94,7807.0,-16.07706642150879,-213,9888.0
3010,0.04225975275039673,-12.501042366027832,-189,7807.0,-18.592912673950195,-313,9888.0
3020,0.04252621531486511,-17.61468505859375,-335,7807.0,-18.248798370361328,-96,9888.0
3030,0.04044714570045471,-16.06136703491211,-267,7807.0,-16.04473114013672,-87,9888.0
3040,0.04064232110977173,-13.733772277832031,-190,7807.0,-4.921807765960693,29,9888.0
3050,0.04082965850830078,-14.035618782043457,-141,7807.0,3.845641613006592,63,9888.0
3060,0.04122999310493469,-11.823408126831055,-84,7807.0,9.874349594116211,235,9888.0
3070,0.03950315713882446,-9.521214485168457,-245,7807.0,16.54037094116211,349,9888.0
3080,0.039974749088287354,-5.975006580352783,-112,7807.0,15.91219711303711,116,9888.0
3090,0.04042968153953552,-5.383106231689453,-33,7807.0,10.247937202453613,92,9888.0
3100,0.04092523455619812,0.6820151805877686,-18,7807.0,1.0147597789764404,58,9888.0
3110,0.03836306929588318,2.966358184814453,80,7807.0,-1.8126217126846313,-95,9888.0
3120,0.03862068057060242,11.256537437438965,246,7807.0,-5.35788106918335,-90,9888.0
3130,0.03882873058319092,13.770453453063965,305,7807.0,-10.736096382141113,-27,9888.0
3140,0.039047569036483765,12.387835502624512,106,7807.0,-9.669454574584961,-74,9888.0
3150,0.03930705785751343,7.146859645843506,83,7807.0,-1.6308890581130981,-101,9888.0
3160,0.03702995181083679,0.4809921681880951,56,7807.0,3.921135902404785,-116,9888.0
3170,0.037280499935150146,5.930665016174316,-15,7807.0,0.7583029866218567,51,9888.0
3180,0.037470102310180664,2.027269124984741,-55,7807.0,1.1811316013336182,48,9888.0
3190,0.03751268982887268,-1.5491960048675537,-87,7807.0,-3.014692544937134,-52,9888.0
3200,0.034456998109817505,-3.0900228023529053,-84,7807.0,-9.816008567810059,-181,9888.0
3210,0.03439709544181824,-8.667046546936035,-115,7807.0,-16.959978103637695,-311,9888.0
3220,0.03440690040588379,-8.621711730957031,-109,7807.0,-24.18731117248535,-326,9888.0
3230,0.03449508547782898,-4.158648490905762,-21,7807.0,-26.792278289794922,-410,9888.0
3240,0.034529149532318115,-2.9914662837982178,-22,7807.0,-14.967838287353516,-189,9888.0
3250,0.032307714223861694,1.2589139938354492,67,7807.0,4.903000354766846,54,9888.0
3260,0.03239244222640991,1.0393997430801392,28,7807.0,18.190649032592773,457,9888.0
3270,0.03252419829368591,-2.056006669998169,-100,7807.0,36.11766052246094,661,9888.0
3280,0.032617658376693726,-7.509120941162109,-136,7807.0,44.5052375793457,718,9888.0
3290,0.031475335359573364,-9.834099769592285,-162,7807.0,56.23516845703125,763,9888.0
3300,0.03140440583229065,-9.34055233001709,-149,7807.0,52.25025939941406,823,9888.0
3310,0.03149256110191345,-6.0848517417907715,-83,7807.0,44.984458923339844,579,9888.0
3320,0.031508803367614746,-1.1507545709609985,9,7807.0,27.365379333496094,439,9888.0
3330,0.03317469358444214,0.29719820618629456,43,7807.0,9.903414726257324,116,9888.0
3340,0.0335143506526947,-1.1498817205429077,45,7807.0,0.12998001277446747,56,9888.0
3350,0.03387647867202759,0.22194664180278778,-34,7807.0,-12.314962387084961,-275,9888.0
3360,0.034280627965927124,-3.2901015281677246,-14,7807.0,-21.359323501586914,-310,9888.0
3370,0.03463339805603027,-3.986100912094116,-167,7807.0,-22.545333862304688,-367,9888.0
3380,0.03495270013809204,-4.301574230194092,-63,7807.0,-22.37534523010254,-435,9888.0
3390,0.035199373960494995,1.2318456172943115,26,7807.0,-23.325027465820312,-237,9888.0
3400,0.035388052463531494,11.417579650878906,229,7807.0,-23.660417556762695,-488,9888.0
3410,0.03550136089324951,15.210820198059082,292,7807.0,-23.593395233154297,-371,9888.0
3420,0.03644907474517822,18.35573959350586,254,7807.0,-22.59531593322754,-384,9888.0
3430,0.03640604019165039,18.231731414794922,276,7807.0,-17.599945068359375,-343,9888.0
3440,0.03653460741043091,14.79343032836914,254,7807.0,-14.568339347839355,-177,9888.0
3450,0.036559492349624634,9.64990520477295,36,7807.0,-6.244712829589844,-33,9888.0
3460,0.03657662868499756,0.14728784561157227,-57,7807.0,-4.428503513336182,-60,9888.0
3470,0.03880557417869568,0.08241435140371323,43,7807.0,1.8629082441329956,49,9888.0
3480,0.0390470027923584,5.4341583251953125,141,7807.0,11.406401634216309,339,9888.0
3490,0.039279043674468994,17.470691680908203,290,7807.0,15.899567604064941,322,9888.0
3500,0.039492636919021606,27.2218074798584,443,7807.0,15.423785209655762,244,9888.0
3510,0.03923991322517395,30.06836700439453,525,7807.0,17.09825325012207,294,9888.0
3520,0.0392720103263855,26.673667907714844,373,7807.0,23.225788116455078,464,9888.0
3530,0.039176881313323975,15.366961479187012,173,7807.0,33.197452545166016,650,9888.0
3540,0.03934475779533386,2.5807693004608154,-25,7807.0,37.57527160644531,576,9888.0
3550,0.04083797335624695,-7.415385723114014,-109,7807.0,34.945613861083984,493,9888.0
3560,0.041155993938446045,-13.978785514831543,-299,7807.0,25.971023559570312,401,9888.0
3570,0.0414196252822876,-14.133800506591797,-247,7807.0,17.077478408813477,165,9888.0
3580,0.04165580868721008,-12.516644477844238,-165,7807.0,7.455953121185303,-9,9888.0
3590,0.042005568742752075,-10.096489906311035,-211,7807.0,-1.9026645421981812,-98,9888.0
3600,0.04225897789001465,-11.124884605407715,-264,7807.0,-14.827032089233398,-212,9888.0
3610,0.04278111457824707,-16.496925354003906,-325,7807.0,-19.338491439819336,-416,9888.0
3620,0.04332435131072998,-17.345760345458984,-254,7807.0,-24.086881637573242,-441,9888.0
3630,0.04392936825752258,-11.868358612060547,-254,7807.0,-20.112472534179688,-271,9888.0
3640,0.04424005746841431,-15.902201652526855,-314,7807.0,-13.304471015930176,-104,9888.0
3650,0.044680267572402954,-19.419668197631836,-318,7807.0,-1.2418855428695679,162,9888.0
3660,0.045190662145614624,-19.8657283782959,-311,7807.0,4.1156229972839355,143,9888.0
3670,0.04569980502128601,-18.23237419128418,-164,7807.0,7.801373481750488,54,9888.0
3680,0.046371251344680786,-14.22510051727295,-92,7807.0,9.886592864990234,76,9888.0
3690,0.04524078965187073,-7.799466133117676,-203,7807.0,4.085652828216553,-26,9888.0
3700,0.045503824949264526,-4.501847743988037,-167,7807.0,-7.999296188354492,-168,9888.0
3710,0.04578477144241333,-4.370584011077881,-40,7807.0,-13.939369201660156,-280,9888.0
3720,0.046094298362731934,2.940065383911133,99,7807.0,-11.013758659362793,-73,9888.0
3730,0.04578673839569092,10.870401382446289,325,7807.0,9.309746742248535,218,9888.0
3740,0.04591795802116394,20.74689292907715,350,7807.0,19.735965728759766,490,9888.0
3750,0.045796483755111694,25.53243064880371,361,7807.0,21.238140106201172,353,9888.0
3760,0.0455421507358551,23.78226089477539,403,7807.0,20.476062774658203,228,9888.0
3770,0.046278297901153564,18.62571144104004,207,7807.0,14.528463363647461,190,9888.0
3780,0.04583778977394104,1.3992786407470703,-161,7807.0,3.6518185138702393,106,9888.0
3790,0.04529726505279541,-16.65427589416504,-388,7807.0,4.259518146514893,44,9888.0
3800,0.04472857713699341,-24.8913631439209,-478,7807.0,-0.11407854408025742,-19,9888.0
3810,0.04405161738395691,-30.037874221801758,-566,7807.0,-3.356374740600586,13,9888.0
3820,0.04524356126785278,-29.606006622314453,-445,7807.0,-7.477011680603027,-157,9888.0
3830,0.04469311237335205,-22.921676635742188,-305,7807.0,-10.291731834411621,-95,9888.0
3840,0.044343531131744385,-14.5205659866333,-199,7807.0,-8.608681678771973,-178,9888.0
3850,0.044153064489364624,-3.123807668685913,79,7807.0,-12.024829864501953,-183,9888.0
3860,0.04426977038383484,12.02563190460205,202,7807.0,-11.554908752441406,-169,9888.0
3870,0.044200241565704346,17.78411865234375,387,7807.0,-7.1004133224487305,-140,9888.0
3880,0.04417431354522705,22.148698806762695,308,7807.0,-2.83526873588562,69,9888.0
3890,0.0440862774848938,17.54690170288086,265,7807.0,1.4591716527938843,-79,9888.0
3900,0.04403695464134216,11.59647274017334,152,7807.0,2.1319949626922607,111,9888.0
3910,0.045762211084365845,-1.2870886325836182,-137,7807.0,3.5676681995391846,69,9888.0
3920,0.04567831754684448,-7.136912822723389,-104,7807.0,-0.8340094685554504,-102,9888.0
3930,0.04554527997970581,-8.287331581115723,-107,7807.0,-6.507396697998047,-107,9888.0
3940,0.045383185148239136,-5.700936317443848,-50,7807.0,-10.219231605529785,-298,9888.0
3950,0.04806238412857056,4.674465179443359,161,7807.0,-14.29034423828125,-199,9888.0
3960,0.04801395535469055,14.67952823638916,246,7807.0,-5.964179992675781,59,9888.0
3970,0.04792594909667969,26.454341888427734,540,7807.0,4.8741841316223145,4,9888.0
3980,0.04777729511260986,39.051536560058594,690,7807.0,19.733173370361328,440,9888.0
3990,0.050301045179367065,42.3424186706543,654,7807.0,34.66012191772461,686,9888.0
4000,0.050059348344802856,39.51621627807617,635,7807.0,37.40515899658203,546,9888.0
4010,0.05029892921447754,26.642654418945312,356,7807.0,29.59018898010254,477,9888.0
4020,0.0502762496471405,11.484532356262207,109,7807.0,17.761075973510742,187,9888.0
4030,0.05000340938568115,0.8652089834213257,15,7807.0,-2.704083204269409,-250,9888.0
4040,0.0523470938205719,-12.871173858642578,-217,7807.0,-15.31229019165039,-331,9888.0
4050,0.05231201648712158,-35.36191940307617,-685,7807.0,-21.820816040039062,-365,9888.0
4060,0.05207577347755432,-46.915672302246094,-755,7807.0,-25.455881118774414,-530,9888.0
4070,0.051627665758132935,-42.0098762512207,-632,7807.0,-25.781526565551758,-362,9888.0
4080,0.05266290903091431,-34.52224349975586,-588,7807.0,-20.49448585510254,-254,9888.0
4090,0.05210214853286743,-20.961959838867188,-297,7807.0,-12.496715545654297,-250,9888.0
4100,0.05160382390022278,-6.536351680755615,-46,7807.0,-8.12520980834961,-261,9888.0
4110,0.05104750394821167,5.410911560058594,85,7807.0,-4.998189449310303,-51,9888.0
4120,0.050640255212783813,7.290706634521484,84,7807.0,-2.0792593955993652,3,9888.0
4130,0.050405532121658325,5.704188346862793,36,7807.0,4.053432941436768,-30,9888.0
4140,0.050144851207733154,-2.964437961578369,-10,7807.0,7.313574314117432,78,9888.0
4150,0.04991629719734192,-7.160890102386475,-181,7807.0,8.521989822387695,229,9888.0
4160,0.04971244931221008,-8.888684272766113,-187,7807.0,6.9971394538879395,132,9888.0
4170,0.05130311846733093,-11.563169479370117,-174,7807.0,10.409941673278809,-43,9888.0
4180,0.05151820182800293,-10.96047306060791,-153,7807.0,8.92209243774414,106,9888.0
4190,0.05186527967453003,-5.974344730377197,-109,7807.0,0.8846560716629028,12,9888.0
4200,0.05238509178161621,3.7307887077331543,131,7807.0,7.222758769989014,62,9888.0
4210,0.054104238748550415,20.08348274230957,471,7807.0,12.091643333435059,184,9888.0
4220,0.054873496294021606,45.0971565246582,817,7807.0,14.353752136230469,267,9888.0
4230,0.05563053488731384,62.601539611816406,1021,7807.0,17.295684814453125,263,9888.0
4240,0.05617430806159973,62.17816162109375,928,7807.0,22.026695251464844,317,9888.0
4250,0.05650636553764343,39.87889099121094,508,7807.0,25.279705047607422,398,9888.0
4260,0.057714492082595825,11.528223991394043,-7,7807.0,20.521392822265625,322,9888.0
4270,0.05832761526107788,-22.918550491333008,-512,7807.0,14.516416549682617,184,9888.0
4280,0.05899631977081299,-47.16627883911133,-838,7807.0,7.496349334716797,-73,9888.0
4290,0.059405356645584106,-63.10230255126953,-1039,7807.0,3.858308792114258,70,9888.0
4300,0.06016606092453003,-63.90290069580078,-1066,7807.0,4.031991481781006,112,9888.0
4310,0.060149550437927246,-60.15011978149414,-895,7807.0,-3.4741365909576416,-188,9888.0
4320,0.06017163395881653,-44.45832443237305,-608,7807.0,-17.08322525024414,-292,9888.0
4330,0.06006401777267456,-23.277427673339844,-244,7807.0,-16.823543548583984,-386,9888.0
4340,0.06023266911506653,4.163394927978516,170,7807.0,-18.674057006835938,-235,9888.0
4350,0.05985754728317261,23.646041870117188,379,7807.0,-15.174433708190918,-272,9888.0
4360,0.05972623825073242,32.524784088134766,602,7807.0,-13.778556823730469,-223,9888.0
4370,0.05953115224838257,36.891876220703125,547,7807.0,-9.368974685668945,-69,9888.0
4380,0.05925515294075012,29.286996841430664,374,7807.0,-4.989406585693359,-87,9888.0
4390,0.05801305174827576,17.103342056274414,220,7807.0,2.4665114879608154,7,9888.0
4400,0.05773371458053589,0.20430126786231995,-140,7807.0,8.990882873535156,221,9888.0
4410,0.05758008360862732,-18.034509658813477,-427,7807.0,12.816398620605469,268,9888.0
4420,0.057510703802108765,-27.887104034423828,-432,7807.0,13.661846160888672,111,9888.0
4430,0.056411147117614746,-27.966386795043945,-434,7807.0,8.055081367492676,63,9888.0
4440,0.05655446648597717,-18.678905487060547,-235,7807.0,-2.4152870178222656,-202,9888.0
4450,0.0567891001701355,-5.820348262786865,66,7807.0,-16.740827560424805,-275,9888.0
4460,0.05732032656669617,13.067646980285645,295,7807.0,-24.44039535522461,-300,9888.0
4470,0.05773460865020752,32.189598083496094,643,7807.0,-25.07568359375,-415,9888.0
4480,0.05751553177833557,48.11508560180664,932,7807.0,-21.75360870361328,-263,9888.0
4490,0.05797669291496277,53.27305603027344,821,7807.0,-18.722097396850586,-199,9888.0
4500,0.05844080448150635,40.02012634277344,555,7807.0,-12.708178520202637,-219,9888.0
4510,0.05919164419174194,20.61821937561035,312,7807.0,-7.864182472229004,-179,9888.0
4520,0.06076270341873169,1.166200041770935,-30,7807.0,2.0281460285186768,117,9888.0
4530,0.06100824475288391,-14.278915405273438,-324,7807.0,13.609880447387695,327,9888.0
4540,0.061134546995162964,-28.16067123413086,-567,7807.0,24.003414154052734,359,9888.0
4550,0.0610978901386261,-39.50467300415039,-631,7807.0,25.570714950561523,330,9888.0
4560,0.06095898151397705,-47.28226089477539,-735,7807.0,24.625713348388672,398,9888.0
4570,0.062281519174575806,-43.0518913269043,-687,7807.0,19.29365348815918,317,9888.0
4580,0.06207588315010071,-27.961973190307617,-339,7807.0,9.214205741882324,131,9888.0
4590,0.06195986270904541,-2.472994327545166,84,7807.0,-10.875313758850098,-342,9888.0
4600,0.06188419461250305,24.621980667114258,474,7807.0,-25.229036331176758,-452,9888.0
4610,0.06128901243209839,34.81643295288086,566,7807.0,-31.45250129699707,-441,9888.0
4620,0.06107175350189209,37.79816818237305,625,7807.0,-27.05694007873535,-561,9888.0
4630,0.06127747893333435,25.12425994873047,339,7807.0,-20.33911895751953,-310,9888.0
4640,0.06131988763809204,7.193393230438232,-35,7807.0,-10.94970989227295,-83,9888.0
4650,0.06198582053184509,-9.96284008026123,-234,7807.0,-2.0394093990325928,-31,9888.0
4660,0.0622062087059021,-27.06338119506836,-481,7807.0,5.840933322906494,160,9888.0
4670,0.062431514263153076,-36.62351989746094,-592,7807.0,8.873274803161621,220,9888.0
4680,0.06258624792098999,-37.850135803222656,-611,7807.0,6.714486598968506,39,9888.0
4690,0.06294861435890198,-32.306297302246094,-453,7807.0,1.1665675640106201,95,9888.0
4700,0.062468379735946655,-24.622283935546875,-388,7807.0,-0.7136985659599304,41,9888.0
4710,0.0629652738571167,-11.429399490356445,16,7807.0,2.711134195327759,55,9888.0
4720,0.06359997391700745,0.13373953104019165,54,7807.0,10.868704795837402,245,9888.0
4730,0.06428751349449158,6.8529863357543945,151,7807.0,10.908385276794434,152,9888.0
4740,0.06478020548820496,11.49337100982666,209,7807.0,13.515751838684082,293,9888.0
4750,0.06540682911872864,11.047910690307617,199,7807.0,15.617671012878418,231,9888.0
4760,0.06589090824127197,17.356182098388672,330,7807.0,15.08714485168457,297,9888.0
4770,0.06632402539253235,26.09119415283203,420,7807.0,20.39195442199707,375,9888.0
4780,0.06661218404769897,28.972509384155273,505,7807.0,28.952829360961914,566,9888.0
4790,0.06682029366493225,30.052457809448242,459,7807.0,28.353633880615234,460,9888.0
4800,0.06699994206428528,16.90073585510254,366,7807.0,19.79164695739746,243,9888.0
4810,0.06690734624862671,4.340252876281738,54,7807.0,9.601062774658203,152,9888.0
4820,0.066875159740448,-3.2888195514678955,-26,7807.0,-12.24233341217041,-320,9888.0
4830,0.0673973560333252,-5.563517093658447,-103,7807.0,-27.78292465209961,-452,9888.0
4840,0.06717294454574585,-3.607407331466675,-60,7807.0,-33.51772689819336,-523,9888.0
4850,0.06698685884475708,-4.362919330596924,-72,7807.0,-30.22005271911621,-434,9888.0
4860,0.06677556037902832,-9.070624351501465,-217,7807.0,-15.80664348602295,-186,9888.0
4870,0.06664919853210449,-14.490374565124512,-245,7807.0,-1.5098823308944702,-54,9888.0
4880,0.06656163930892944,-16.361888885498047,-272,7807.0,2.7084970474243164,105,9888.0
4890,0.06646662950515747,-14.138978958129883,-287,7807.0,9.47958755493164,93,9888.0
4900,0.06642290949821472,-12.309118270874023,-134,7807.0,7.978092670440674,109,9888.0
4910,0.06772816181182861,-7.68213415145874,-163,7807.0,4.754753112792969,96,9888.0
4920,0.06780436635017395,-2.462806224822998,42,7807.0,-0.6974053382873535,-194,9888.0
4930,0.06789115071296692,6.723148345947266,151,7807.0,-7.792747497558594,-85,9888.0
4940,0.06798100471496582,20.630756378173828,367,7807.0,-8.039034843444824,-137,9888.0
4950,0.06802451610565186,29.22812843322754,551,7807.0,-11.39733600616455,-276,9888.0
4960,0.06722047924995422,32.98439407348633,548,7807.0,-22.1748104095459,-352,9888.0
4970,0.0671195387840271,29.866491317749023,460,7807.0,-22.464807510375977,-401,9888.0
4980,0.06683412194252014,16.805355072021484,202,7807.0,-17.422536849975586,-196,9888.0
4990,0.06680938601493835,-2.6864218711853027,-139,7807.0,-6.678411960601807,17,9888.0
5000,0.06816378235816956,-13.03559684753418,-275,7807.0,9.52393627166748,220,9888.0
5010,0.06800952553749084,-16.484603881835938,-234,7807.0,27.159074783325195,461,9888.0
5020,0.06792783737182617,-19.310672760009766,-246,7807.0,40.336151123046875,816,9888.0
5030,0.06775921583175659,-13.298249244689941,-251,7807.0,48.91569137573242,876,9888.0
5040,0.0675826370716095,-8.533491134643555,-43,7807.0,46.54789352416992,635,9888.0
5050,0.07019639015197754,-4.1388373374938965,-42,7807.0,37.396610260009766,477,9888.0
5060,0.06998798251152039,-1.1456995010375977,75,7807.0,16.671859741210938,180,9888.0
5070,0.06969448924064636,-1.350846529006958,1,7807.0,-0.9501859545707703,-98,9888.0
5080,0.06962433457374573,1.1018491983413696,97,7807.0,-21.737224578857422,-463,9888.0
5090,0.07114994525909424,1.118654489517212,33,7807.0,-28.240018844604492,-524,9888.0
5100,0.07107865810394287,4.580500602722168,172,7807.0,-37.099979400634766,-634,9888.0
5110,0.07104837894439697,5.867236614227295,78,7807.0,-35.831329345703125,-501,9888.0
5120,0.07106000185012817,-1.1337522268295288,-70,7807.0,-24.882034301757812,-342,9888.0
5130,0.07120141386985779,-7.554383277893066,-94,7807.0,-14.516068458557129,-242,9888.0
5140,0.07341089844703674,-7.811883926391602,-104,7807.0,-5.187393665313721,35,9888.0
5150,0.0738508403301239,-9.543416023254395,-170,7807.0,2.7582218647003174,57,9888.0
5160,0.07446721196174622,-7.672549247741699,-96,7807.0,6.389471054077148,64,9888.0
5170,0.07517370581626892,-0.6619049310684204,-5,7807.0,11.345684051513672,246,9888.0
5180,0.07634028792381287,8.975502014160156,190,7807.0,12.046542167663574,125,9888.0
5190,0.07727807760238647,14.970917701721191,313,7807.0,13.83063793182373,216,9888.0
5200,0.07828402519226074,25.006052017211914,377,7807.0,19.323610305786133,360,9888.0
5210,0.07927379012107849,22.03122329711914,379,7807.0,22.861812591552734,270,9888.0
5220,0.08114901185035706,16.026723861694336,238,7807.0,23.270679473876953,414,9888.0
5230,0.08201208710670471,1.489462971687317,-77,7807.0,16.934040069580078,365,9888.0
5240,0.08273836970329285,-7.296617031097412,-96,7807.0,15.26568603515625,198,9888.0
5250,0.08333593606948853,-13.349897384643555,-170,7807.0,19.801862716674805,352,9888.0
5260,0.08373761177062988,-19.188819885253906,-343,7807.0,26.259565353393555,513,9888.0
5270,0.08426570892333984,-23.203102111816406,-337,7807.0,21.70832061767578,312,9888.0
5280,0.08429825305938721,-23.95700454711914,-359,7807.0,14.262245178222656,255,9888.0
5290,0.0843028724193573,-18.536911010742188,-229,7807.0,4.769842624664307,-86,9888.0
5300,0.08407184481620789,-12.665916442871094,-162,7807.0,-14.018691062927246,-214,9888.0
5310,0.08311766386032104,-10.092772483825684,-183,7807.0,-33.32010269165039,-712,9888.0
5320,0.08274611830711365,-1.4452135562896729,69,7807.0,-53.93458557128906,-901,9888.0
5330,0.08236479759216309,8.87588119506836,171,7807.0,-53.03461837768555,-764,9888.0
5340,0.08234673738479614,12.38300609588623,269,7807.0,-32.326148986816406,-494,9888.0
5350,0.07989433407783508,9.21180248260498,140,7807.0,-10.14965534210205,18,9888.0
5360,0.07962197065353394,1.0022649765014648,-118,7807.0,6.552193641662598,193,9888.0
5370,0.07939419150352478,-11.93706226348877,-176,7807.0,18.62657928466797,323,9888.0
5380,0.0791359543800354,-17.258420944213867,-324,7807.0,26.11388397216797,375,9888.0
5390,0.0788816511631012,-14.358148574829102,-214,7807.0,18.935630798339844,249,9888.0
5400,0.07936790585517883,-11.426318168640137,-240,7807.0,10.752610206604004,154,9888.0
5410,0.07915374636650085,-2.8264710903167725,41,7807.0,2.5083022117614746,-181,9888.0
5420,0.0789976418018341,12.362767219543457,271,7807.0,-10.485742568969727,-186,9888.0
5430,0.07885807752609253,29.076040267944336,541,7807.0,-15.134635925292969,-376,9888.0
5440,0.07943987846374512,39.1733512878418,658,7807.0,-26.908212661743164,-472,9888.0
5450,0.07918515801429749,30.867095947265625,392,7807.0,-31.826400756835938,-519,9888.0
5460,0.07908421754837036,17.1085262298584,275,7807.0,-21.13350486755371,-331,9888.0
5470,0.07881242036819458,7.663130283355713,60,7807.0,-0.171873077750206,147,9888.0
5480,0.07859253883361816,-5.009925365447998,-126,7807.0,18.992774963378906,377,9888.0
5490,0.07785022258758545,-9.299294471740723,-150,7807.0,29.6193904876709,460,9888.0
5500,0.0773773193359375,-9.91535758972168,-248,7807.0,30.769893646240234,518,9888.0
5510,0.07677143812179565,-20.21514129638672,-321,7807.0,20.956281661987305,143,9888.0
5520,0.07614293694496155,-20.528160095214844,-316,7807.0,8.073464393615723,147,9888.0
5530,0.07767108082771301,-20.603557586669922,-291,7807.0,-2.771005392074585,-161,9888.0
5540,0.07708919048309326,-23.893922805786133,-459,7807.0,-16.662696838378906,-265,9888.0
5550,0.07659929990768433,-26.039012908935547,-391,7807.0,-25.03376579284668,-517,9888.0
5560,0.07599771022796631,-24.87123680114746,-443,7807.0,-35.434043884277344,-534,9888.0
5570,0.07693931460380554,-21.48794174194336,-208,7807.0,-28.56206512451172,-428,9888.0
5580,0.0770730972290039,-8.972371101379395,-126,7807.0,-19.07859230041504,-204,9888.0
5590,0.07681652903556824,2.955321788787842,180,7807.0,-3.1541543006896973,-16,9888.0
5600,0.07655876874923706,15.343587875366211,235,7807.0,4.6330461502075195,44,9888.0
5610,0.07641056180000305,23.280025482177734,482,7807.0,6.895881652832031,157,9888.0
5620,0.07804253697395325,30.082294464111328,440,7807.0,3.916546583175659,24,9888.0
5630,0.07802346348762512,24.945547103881836,464,7807.0,5.981159210205078,114,9888.0
5640,0.07809039950370789,31.11474609375,582,7807.0,14.609302520751953,378,9888.0
5650,0.07819527387619019,41.64198303222656,757,7807.0,30.075557708740234,535,9888.0
5660,0.08009564876556396,53.793453216552734,865,7807.0,23.322511672973633,415,9888.0
5670,0.08090811967849731,55.94621276855469,842,7807.0,12.770608901977539,57,9888.0
5680,0.08137023448944092,45.49323654174805,666,7807.0,-3.92476487159729,-106,9888.0
5690,0.08206582069396973,28.381498336791992,304,7807.0,-12.374321937561035,-123,9888.0
5700,0.08261895179748535,11.590911865234375,64,7807.0,-17.114242553710938,-303,9888.0
5710,0.0858663022518158,-8.288637161254883,-150,7807.0,-28.392683029174805,-545,9888.0
5720,0.08678683638572693,-28.57429313659668,-630,7807.0,-25.41871452331543,-337,9888.0
5730,0.0877242386341095,-49.66447830200195,-1010,7807.0,-16.184940338134766,-116,9888.0
5740,0.08841094374656677,-62.16322326660156,-1115,7807.0,-6.380070209503174,-2,9888.0
5750,0.08970242738723755,-65.56766510009766,-995,7807.0,7.311422348022461,64,9888.0
5760,0.09035438299179077,-58.01516342163086,-843,7807.0,23.147008895874023,310,9888.0
5770,0.09098425507545471,-43.78022003173828,-654,7807.0,30.5679988861084,509,9888.0
5780,0.09154388308525085,-26.578685760498047,-280,7807.0,33.274078369140625,493,9888.0
5790,0.0911439061164856,-8.494834899902344,-43,7807.0,30.904069900512695,463,9888.0
5800,0.09144577383995056,4.196893692016602,38,7807.0,27.012245178222656,407,9888.0
5810,0.09182772040367126,15.69941520690918,213,7807.0,10.552220344543457,132,9888.0
5820,0.091981440782547,16.394845962524414,187,7807.0,-4.445030212402344,-123,9888.0
5830,0.09190240502357483,20.039661407470703,291,7807.0,-16.297664642333984,-249,9888.0
5840,0.09261611104011536,16.391523361206055,223,7807.0,-15.321626663208008,-141,9888.0
5850,0.09265568852424622,15.403078079223633,256,7807.0,-11.851088523864746,-210,9888.0
5860,0.09267124533653259,14.663601875305176,258,7807.0,-6.892096996307373,-202,9888.0
5870,0.09268829226493835,4.095212459564209,-50,7807.0,-12.611174583435059,-235,9888.0
5880,0.09308183193206787,-7.606172561645508,-133,7807.0,-19.990697860717773,-470,9888.0
5890,0.09301427006721497,-14.738995552062988,-168,7807.0,-26.298107147216797,-387,9888.0
5900,0.09286513924598694,-3.059999704360962,-56,7807.0,-17.727827072143555,-168,9888.0
5910,0.09282690286636353,7.061667442321777,181,7807.0,0.16309644281864166,-12,9888.0
5920,0.09313443303108215,15.379283905029297,338,7807.0,19.78057289123535,480,9888.0
5930,0.09315720200538635,25.169591903686523,381,7807.0,40.47452926635742,790,9888.0
5940,0.09323486685752869,18.946569442749023,288,7807.0,50.738746643066406,804,9888.0
5950,0.09352296590805054,9.841310501098633,165,7807.0,51.13528823852539,765,9888.0
5960,0.09366366267204285,1.778839111328125,-43,7807.0,39.46658706665039,620,9888.0
5970,0.09413990378379822,-7.169187068939209,-125,7807.0,25.664989471435547,382,9888.0
5980,0.09445208311080933,-13.34604549407959,-353,7807.0,9.79361343383789,179,9888.0
5990,0.09457817673683167,-19.05553436279297,-334,7807.0,-2.222060203552246,-67,9888.0
6000,0.09473663568496704,-23.64862060546875,-383,7807.0,-12.391117095947266,-204,9888.0
6010,0.09586870670318604,-21.125244140625,-204,7807.0,-16.779361724853516,-299,9888.0
6020,0.09603515267372131,-11.352724075317383,-146,7807.0,-21.960079193115234,-343,9888.0
6030,0.09612548351287842,-3.1355807781219482,63,7807.0,-28.755556106567383,-438,9888.0
6040,0.0962362289428711,7.203460216522217,125,7807.0,-32.05557632446289,-525,9888.0
6050,0.096320241689682,11.825993537902832,278,7807.0,-23.807945251464844,-351,9888.0
6060,0.09609395265579224,15.414188385009766,158,7807.0,-9.787278175354004,-53,9888.0
6070,0.0961034893989563,14.418143272399902,261,7807.0,8.146140098571777,141,9888.0
6080,0.09613725543022156,11.568597793579102,158,7807.0,23.195329666137695,524,9888.0
6090,0.09616267681121826,4.024938583374023,70,7807.0,32.115455627441406,477,9888.0
6100,0.09607338905334473,-2.231696844100952,-119,7807.0,23.011064529418945,382,9888.0
6110,0.09637627005577087,-12.084031105041504,-251,7807.0,2.9128761291503906,-101,9888.0
6120,0.0968913733959198,-19.60590171813965,-308,7807.0,-22.623506546020508,-388,9888.0
6130,0.09741774201393127,-19.556745529174805,-334,7807.0,-42.931419372558594,-759,9888.0
6140,0.09603023529052734,-16.38335418701172,-242,7807.0,-56.386043548583984,-811,9888.0
6150,0.09642553329467773,-4.714463233947754,-60,7807.0,-52.8312873840332,-876,9888.0
6160,0.09741806983947754,4.499804496765137,159,7807.0,-33.475250244140625,-466,9888.0
6170,0.0979144275188446,14.297689437866211,207,7807.0,-17.739736557006836,-199,9888.0
6180,0.09849655628204346,20.322641372680664,385,7807.0,-2.2290024757385254,-58,9888.0
6190,0.09852436184883118,20.731082916259766,342,7807.0,17.57215690612793,444,9888.0
6200,0.0989004373550415,20.05992889404297,270,7807.0,32.251930236816406,556,9888.0
6210,0.09912127256393433,15.422075271606445,293,7807.0,40.9532356262207,699,9888.0
6220,0.09926071763038635,10.797287940979004,93,7807.0,45.60836410522461,779,9888.0
6230,0.0986446738243103,4.516702175140381,41,7807.0,41.74600601196289,602,9888.0
6240,0.0987238883972168,-1.5543347597122192,-88,7807.0,23.28594398498535,353,9888.0
6250,0.09877854585647583,-8.178960800170898,-122,7807.0,7.396002292633057,1,9888.0
6260,0.09860482811927795,-8.146855354309082,-178,7807.0,-9.953160285949707,-249,9888.0
6270,0.09849008917808533,-5.628834247589111,-100,7807.0,-33.854942321777344,-633,9888.0
6280,0.09799966216087341,-8.168556213378906,-162,7807.0,-49.63920593261719,-888,9888.0
6290,0.09757190942764282,-9.318721771240234,-93,7807.0,-50.282691955566406,-775,9888.0
6300,0.0971655547618866,-10.023785591125488,-224,7807.0,-40.20621109008789,-534,9888.0
6310,0.0968146026134491,-14.369929313659668,-215,7807.0,-22.291013717651367,-257,9888.0
6320,0.09598776698112488,-13.408438682556152,-229,7807.0,-3.59775710105896,90,9888.0
6330,0.09596255421638489,-8.586629867553711,-76,7807.0,19.869295120239258,382,9888.0
6340,0.09611320495605469,-3.540675640106201,-31,7807.0,29.9173641204834,528,9888.0
6350,0.09631410241127014,1.8827310800552368,94,7807.0,30.22880744934082,398,9888.0
6360,0.09553903341293335,6.37857723236084,192,7807.0,20.15715789794922,324,9888.0
6370,0.09597945213317871,22.095415115356445,460,7807.0,6.222017288208008,-29,9888.0
6380,0.09638848900794983,35.954383850097656,649,7807.0,-7.94560432434082,-90,9888.0
6390,0.09678104519844055,48.18559265136719,900,7807.0,-20.571382522583008,-471,9888.0
6400,0.09714809060096741,55.03056335449219,981,7807.0,-27.221925735473633,-559,9888.0
6410,0.0977647602558136,55.16616439819336,848,7807.0,-31.199220657348633,-395,9888.0
6420,0.09800425171852112,42.01951599121094,595,7807.0,-15.62824821472168,-102,9888.0
6430,0.09819337725639343,23.40196418762207,277,7807.0,8.284781455993652,145,9888.0
6440,0.09867942333221436,-4.612802505493164,-148,7807.0,30.48843002319336,458,9888.0
6450,0.09846362471580505,-34.782989501953125,-670,7807.0,42.274497985839844,776,9888.0
6460,0.09876438975334167,-60.798851013183594,-1117,7807.0,53.20348358154297,956,9888.0
6470,0.09871441125869751,-72.35012817382812,-1202,7807.0,59.6665153503418,885,9888.0
6480,0.09839892387390137,-69.89781951904297,-1084,7807.0,52.63119888305664,840,9888.0
6490,0.09869959950447083,-55.383731842041016,-837,7807.0,38.16994857788086,494,9888.0
6500,0.09799110889434814,-34.812625885009766,-545,7807.0,13.745567321777344,113,9888.0
6510,0.09767180681228638,-13.429936408996582,-96,7807.0,-11.600076675415039,-319,9888.0
6520,0.09738126397132874,8.245758056640625,202,7807.0,-34.162750244140625,-784,9888.0
6530,0.09691482782363892,23.10665512084961,439,7807.0,-43.13969421386719,-650,9888.0
6540,0.09619829058647156,35.44680404663086,619,7807.0,-45.85201644897461,-788,9888.0
6550,0.09575992822647095,41.39735794067383,603,7807.0,-42.97792434692383,-617,9888.0
6560,0.09528660774230957,30.198450088500977,435,7807.0,-28.265453338623047,-461,9888.0
6570,0.09510311484336853,13.527003288269043,137,7807.0,-9.549922943115234,8,9888.0
6580,0.09405997395515442,-5.943820476531982,-171,7807.0,6.376873016357422,165,9888.0
6590,0.09391894936561584,-18.55095863342285,-323,7807.0,19.861005783081055,326,9888.0
6600,0.09390300512313843,-25.611114501953125,-457,7807.0,21.179994583129883,405,9888.0
6610,0.09399676322937012,-25.420499801635742,-375,7807.0,29.18129539489746,501,9888.0
6620,0.09422805905342102,-18.780990600585938,-248,7807.0,37.42228698730469,692,9888.0
6630,0.0954555869102478,-4.162132263183594,20,7807.0,27.15228843688965,377,9888.0
6640,0.0958898663520813,8.525239944458008,136,7807.0,9.621723175048828,163,9888.0
6650,0.0965651273727417,18.319215774536133,388,7807.0,-7.030392169952393,-113,9888.0
6660,0.09718948602676392,28.113035202026367,436,7807.0,-9.98348331451416,-172,9888.0
6670,0.09698411822319031,31.60064697265625,489,7807.0,-7.411355018615723,-122,9888.0
6680,0.09748056530952454,24.105464935302734,304,7807.0,-1.2310914993286133,11,9888.0
6690,0.09795409440994263,9.46104907989502,92,7807.0,-6.0855255126953125,-173,9888.0
6700,0.09834980964660645,-7.023929595947266,-181,7807.0,-8.725781440734863,-20,9888.0
6710,0.09862327575683594,-18.735017776489258,-429,7807.0,-7.539350986480713,-36,9888.0
6720,0.09915429353713989,-29.311403274536133,-456,7807.0,-2.164119005203247,-33,9888.0
6730,0.09911304712295532,-33.91035461425781,-600,7807.0,1.8727622032165527,95,9888.0
6740,0.09902235865592957,-29.6599063873291,-395,7807.0,6.628801345825195,89,9888.0
6750,0.09869664907455444,-10.75525951385498,-216,7807.0,4.682727813720703,84,9888.0
6760,0.0989195704460144,4.158332347869873,158,7807.0,-0.12221557646989822,-87,9888.0
6770,0.09857451915740967,19.880088806152344,323,7807.0,-10.533968925476074,-187,9888.0
6780,0.09827995300292969,21.640769958496094,421,7807.0,-10.99848747253418,-147,9888.0
6790,0.09804973006248474,19.398218154907227,252,7807.0,-12.640687942504883,-171,9888.0
6800,0.09825608134269714,10.973859786987305,171,7807.0,-15.504476547241211,-275,9888.0
6810,0.09825217723846436,2.6278069019317627,-3,7807.0,-17.143699645996094,-207,9888.0
6820,0.09837186336517334,-6.875675678253174,-146,7807.0,-15.895552635192871,-359,9888.0
6830,0.09853130578994751,-12.250536918640137,-139,7807.0,-18.579818725585938,-229,9888.0
6840,0.09878808259963989,-16.206205368041992,-330,7807.0,-10.892247200012207,-59,9888.0
6850,0.09858137369155884,-7.567357540130615,-45,7807.0,5.292779445648193,116,9888.0
6860,0.09903866052627563,2.4812934398651123,104,7807.0,20.14944839477539,367,9888.0
6870,0.0995897650718689,14.91882610321045,290,7807.0,24.90277671813965,309,9888.0
6880,0.1001867949962616,22.7665958404541,396,7807.0,22.927082061767578,415,9888.0
6890,0.10120028257369995,21.676767349243164,283,7807.0,17.02501678466797,279,9888.0
6900,0.10184958577156067,12.940813064575195,245,7807.0,8.78580379486084,-2,9888.0
6910,0.10240080952644348,8.324674606323242,120,7807.0,-7.1826982498168945,-133,9888.0
6920,0.1028786301612854,5.859947681427002,88,7807.0,-12.384767532348633,-372,9888.0
6930,0.10328254103660583,3.8055639266967773,19,7807.0,-15.539514541625977,-202,9888.0
6940,0.10221323370933533,-7.902069091796875,-207,7807.0,-14.576444625854492,-257,9888.0
6950,0.1024804413318634,-16.190885543823242,-344,7807.0,-12.378501892089844,-187,9888.0
6960,0.10264348983764648,-24.8227481842041,-407,7807.0,-4.061946868896484,-18,9888.0
6970,0.10277152061462402,-23.400331497192383,-370,7807.0,0.7741252779960632,-128,9888.0
6980,0.10167264938354492,-14.610445022583008,-172,7807.0,1.1784303188323975,6,9888.0
6990,0.1017884910106659,-5.572185039520264,-144,7807.0,-1.7395470142364502,72,9888.0
7000,0.10190743207931519,-2.9176037311553955,3,7807.0,3.189973831176758,53,9888.0
7010,0.10207897424697876,0.6910028457641602,-26,7807.0,4.29249382019043,98,9888.0
7020,0.1009446382522583,-0.7017132639884949,96,7807.0,8.109212875366211,104,9888.0
7030,0.10119390487670898,3.1551311016082764,-30,7807.0,10.55741024017334,322,9888.0
7040,0.10155358910560608,3.06510066986084,94,7807.0,9.607131004333496,121,9888.0
7050,0.10197722911834717,3.7517452239990234,99,7807.0,7.721262454986572,112,9888.0
7060,0.10251513123512268,6.90947961807251,110,7807.0,-2.015554189682007,-41,9888.0
7070,0.10176992416381836,8.63400936126709,225,7807.0,-14.776741027832031,-259,9888.0
7080,0.10230174660682678,14.285491943359375,264,7807.0,-21.455934524536133,-302,9888.0
7090,0.10287785530090332,19.872100830078125,358,7807.0,-19.867889404296875,-357,9888.0
7100,0.10350596904754639,23.5325870513916,451,7807.0,-15.112255096435547,-192,9888.0
7110,0.10172241926193237,33.11121368408203,502,7807.0,-5.931730270385742,-44,9888.0
7120,0.102257639169693,28.848468780517578,435,7807.0,-0.6758685111999512,-133,9888.0
7130,0.10264694690704346,19.327421188354492,351,7807.0,5.680994033813477,82,9888.0
7140,0.10308560729026794,3.2560853958129883,-73,7807.0,10.738320350646973,304,9888.0
7150,0.10365521907806396,-15.207551956176758,-366,7807.0,18.528987884521484,354,9888.0
7160,0.1040935218334198,-28.671472549438477,-482,7807.0,20.48115348815918,256,9888.0
7170,0.10441401600837708,-35.31044387817383,-557,7807.0,18.179372787475586,310,9888.0
7180,0.10447514057159424,-37.97004699707031,-678,7807.0,19.805330276489258,319,9888.0
7190,0.1048395037651062,-36.68312454223633,-509,7807.0,22.374408721923828,378,9888.0
7200,0.10231316089630127,-28.456348419189453,-474,7807.0,19.32277488708496,357,9888.0
7210,0.10191419720649719,-17.696596145629883,-187,7807.0,14.036189079284668,195,9888.0
7220,0.1014314591884613,-4.352725028991699,-62,7807.0,4.347277641296387,-24,9888.0
7230,0.10104790329933167,7.544394016265869,192,7807.0,-13.504013061523438,-219,9888.0
7240,0.09834074974060059,14.545990943908691,254,7807.0,-28.4022274017334,-576,9888.0
7250,0.09761244058609009,18.1998233795166,317,7807.0,-40.617305755615234,-595,9888.0
7260,0.09688368439674377,16.19893455505371,186,7807.0,-33.01841735839844,-525,9888.0
7270,0.09633293747901917,12.5736665725708,241,7807.0,-16.547361373901367,-161,9888.0
7280,0.09616225957870483,8.743635177612305,114,7807.0,11.086893081665039,207,9888.0
7290,0.09460705518722534,8.08441162109375,166,7807.0,25.099184036254883,440,9888.0
7300,0.09431624412536621,8.080594062805176,42,7807.0,26.295387268066406,461,9888.0
7310,0.09415262937545776,2.3743765354156494,116,7807.0,19.838966369628906,292,9888.0
7320,0.09411895275115967,4.313628196716309,62,7807.0,8.452690124511719,-23,9888.0
7330,0.09245601296424866,8.993063926696777,173,7807.0,-11.217656135559082,-154,9888.0
7340,0.09239882230758667,8.902746200561523,137,7807.0,-15.351648330688477,-339,9888.0
7350,0.09240934252738953,8.099658012390137,101,7807.0,-21.64764976501465,-331,9888.0
7360,0.09265553951263428,2.9294214248657227,-39,7807.0,-28.53355598449707,-469,9888.0
7370,0.09285742044448853,-0.314864844083786,21,7807.0,-27.966867446899414,-319,9888.0
7380,0.09305906295776367,2.7783288955688477,13,7807.0,-12.625235557556152,-152,9888.0
7390,0.09343993663787842,1.1347391605377197,47,7807.0,7.935279846191406,203,9888.0
7400,0.09385523200035095,-6.257452011108398,-161,7807.0,26.971296310424805,585,9888.0
7410,0.09428489208221436,-13.239555358886719,-254,7807.0,40.889286041259766,671,9888.0
7420,0.09275773167610168,-21.1448974609375,-393,7807.0,40.18360900878906,696,9888.0
7430,0.09305137395858765,-24.755577087402344,-414,7807.0,33.318321228027344,467,9888.0
7440,0.0933818519115448,-20.85086441040039,-293,7807.0,20.051515579223633,255,9888.0
7450,0.09351241588592529,-11.251603126525879,-101,7807.0,1.3830410242080688,43,9888.0
7460,0.09176063537597656,-0.21569707989692688,14,7807.0,-13.130373001098633,-280,9888.0
7470,0.09194770455360413,9.395347595214844,176,7807.0,-27.84557342529297,-422,9888.0
7480,0.09206447005271912,17.866025924682617,300,7807.0,-30.642770767211914,-558,9888.0
7490,0.09230262041091919,19.498821258544922,307,7807.0,-28.556962966918945,-354,9888.0
7500,0.09260189533233643,15.071975708007812,220,7807.0,-12.166107177734375,-226,9888.0
7510,0.09446194767951965,4.771188259124756,3,7807.0,8.388997077941895,311,9888.0
7520,0.09498071670532227,-7.903478145599365,-201,7807.0,24.22428321838379,416,9888.0
7530,0.09551689028739929,-16.48430824279785,-308,7807.0,31.193716049194336,540,9888.0
7540,0.0961066484451294,-19.64286994934082,-368,7807.0,21.13648796081543,156,9888.0
7550,0.09710443019866943,-21.29226303100586,-308,7807.0,6.181816577911377,105,9888.0
7560,0.09811383485794067,-15.312837600708008,-208,7807.0,8.86595630645752,44,9888.0
7570,0.09912171959877014,-7.615206718444824,-147,7807.0,11.050996780395508,212,9888.0
7580,0.10014960169792175,1.796053171157837,161,7807.0,13.52966594696045,215,9888.0
7590,0.10131087899208069,16.950199127197266,315,7807.0,5.728924751281738,86,9888.0
7600,0.10304054617881775,29.433610916137695,617,7807.0,-0.015375097282230854,-114,9888.0
7610,0.10411494970321655,37.686912536621094,621,7807.0,-16.834022521972656,-430,9888.0
7620,0.10509857535362244,39.69157791137695,608,7807.0,-29.625642776489258,-384,9888.0
7630,0.10593989491462708,29.128902435302734,349,7807.0,-25.989330291748047,-433,9888.0
7640,0.1050247848033905,11.287626266479492,117,7807.0,-25.458824157714844,-395,9888.0
7650,0.10574069619178772,-7.551874160766602,-259,7807.0,-20.15154457092285,-234,9888.0
7660,0.1062670648097992,-23.63451385498047,-443,7807.0,-12.72726821899414,-228,9888.0
7670,0.10666930675506592,-33.388423919677734,-550,7807.0,-5.672177314758301,-2,9888.0
7680,0.1076492965221405,-33.459144592285156,-555,7807.0,-3.180445432662964,-145,9888.0
7690,0.10799634456634521,-34.71732711791992,-499,7807.0,-2.7817485332489014,46,9888.0
7700,0.10822084546089172,-28.63497543334961,-498,7807.0,-2.8406057357788086,26,9888.0
7710,0.10864898562431335,-24.640565872192383,-322,7807.0,-0.9684039950370789,17,9888.0
7720,0.10902193188667297,-11.446122169494629,-128,7807.0,3.811702013015747,149,9888.0
7730,0.10840797424316406,-2.672414779663086,40,7807.0,7.33848762512207,77,9888.0
7740,0.10887280106544495,4.4424943923950195,71,7807.0,5.800267219543457,93,9888.0
7750,0.10938891768455505,7.709688663482666,218,7807.0,-1.4748131036758423,-37,9888.0
7760,0.10991257429122925,8.744065284729004,125,7807.0,-13.644875526428223,-269,9888.0
7770,0.110541433095932,12.479790687561035,249,7807.0,-25.0864315032959,-460,9888.0
7780,0.11101076006889343,15.516800880432129,225,7807.0,-26.310087203979492,-412,9888.0
7790,0.1114925742149353,17.70015525817871,350,7807.0,-23.799680709838867,-352,9888.0
7800,0.11224037408828735,24.56236457824707,430,7807.0,-10.360355377197266,-25,9888.0
7810,0.11292091012001038,28.617124557495117,494,7807.0,9.235970497131348,180,9888.0
7820,0.11267882585525513,33.6025276184082,507,7807.0,26.257766723632812,537,9888.0
7830,0.11331358551979065,30.802928924560547,460,7807.0,34.39603042602539,571,9888.0
7840,0.11381179094314575,23.353830337524414,358,7807.0,34.837677001953125,474,9888.0
7850,0.11425596475601196,9.865776062011719,135,7807.0,30.023366928100586,487,9888.0
7860,0.11482790112495422,0.2588982582092285,-65,7807.0,23.24144744873047,379,9888.0
7870,0.11507079005241394,-7.974565505981445,-143,7807.0,17.932706832885742,230,9888.0
7880,0.11513713002204895,-20.677143096923828,-381,7807.0,8.830977439880371,195,9888.0
7890,0.11514651775360107,-26.591581344604492,-480,7807.0,-0.3493115305900574,-126,9888.0
7900,0.11407774686813354,-32.5087776184082,-482,7807.0,-23.147815704345703,-391,9888.0
7910,0.1136450469493866,-27.717912673950195,-437,7807.0,-36.12601852416992,-615,9888.0
7920,0.11300161480903625,-17.448078155517578,-195,7807.0,-40.422203063964844,-748,9888.0
7930,0.11235055327415466,-9.6460599899292,-161,7807.0,-36.34469985961914,-499,9888.0
7940,0.11200147867202759,-3.917577028274536,-50,7807.0,-23.855085372924805,-284,9888.0
7950,0.10925295948982239,-1.8753982782363892,15,7807.0,3.0355873107910156,175,9888.0
7960,0.10862523317337036,-3.2258729934692383,-70,7807.0,26.626319885253906,461,9888.0
7970,0.10814154148101807,-5.8379435539245605,-104,7807.0,41.706912994384766,757,9888.0
7980,0.1075785756111145,-11.053174018859863,-230,7807.0,46.92755889892578,821,9888.0
7990,0.10654199123382568,-14.530510902404785,-132,7807.0,37.6907844543457,526,9888.0
8000,0.10615551471710205,-4.982521057128906,-136,7807.0,18.59682846069336,212,9888.0
8010,0.10595741868019104,-1.4149667024612427,21,7807.0,-5.301065444946289,-86,9888.0
8020,0.1059783399105072,13.709177017211914,276,7807.0,-19.220884323120117,-405,9888.0
8030,0.10595512390136719,31.476232528686523,597,7807.0,-22.32781219482422,-285,9888.0
8040,0.10512539744377136,46.367557525634766,818,7807.0,-13.32392692565918,-290,9888.0
8050,0.10514765977859497,58.01132583618164,1027,7807.0,-9.108928680419922,-59,9888.0
8060,0.10531213879585266,67.49784088134766,1048,7807.0,2.329505205154419,92,9888.0
8070,0.10553640127182007,53.459388732910156,860,7807.0,13.467487335205078,277,9888.0
8080,0.10586023330688477,28.46527099609375,346,7807.0,28.122962951660156,600,9888.0
8090,0.1058935821056366,0.8131637573242188,-145,7807.0,38.13811492919922,603,9888.0
8100,0.10611224174499512,-28.367216110229492,-547,7807.0,31.375328063964844,401,9888.0
8110,0.10626038908958435,-49.09190368652344,-892,7807.0,14.43088436126709,207,9888.0
8120,0.1078920066356659,-51.68626022338867,-832,7807.0,-6.355152606964111,-207,9888.0
8130,0.10801312327384949,-45.817909240722656,-691,7807.0,-18.48395538330078,-309,9888.0
8140,0.10811659693717957,-35.91475296020508,-517,7807.0,-21.559961318969727,-434,9888.0
8150,0.10842329263687134,-24.308956146240234,-342,7807.0,-18.97117805480957,-240,9888.0
8160,0.10854068398475647,-5.131765842437744,67,7807.0,-16.121557235717773,-269,9888.0
8170,0.10793814063072205,13.343619346618652,252,7807.0,-10.73455810546875,-60,9888.0
8180,0.10815775394439697,26.82331085205078,515,7807.0,-1.4280750751495361,-69,9888.0
8190,0.108309805393219,31.531213760375977,483,7807.0,-1.394244909286499,47,9888.0
8200,0.10858175158500671,17.81109046936035,228,7807.0,2.7642576694488525,-4,9888.0
8210,0.11005166172981262,-5.973850727081299,-168,7807.0,5.8455023765563965,133,9888.0
8220,0.1104171872138977,-28.312252044677734,-593,7807.0,5.870324611663818,86,9888.0
8230,0.11077708005905151,-41.0493049621582,-689,7807.0,-3.3873751163482666,-79,9888.0
8240,0.11113846302032471,-43.747459411621094,-730,7807.0,-5.737994194030762,-16,9888.0
8250,0.11153697967529297,-41.657203674316406,-657,7807.0,-5.468125820159912,-162,9888.0
8260,0.1124027669429779,-29.111534118652344,-328,7807.0,-8.544923782348633,-76,9888.0
8270,0.11329078674316406,-8.1556396484375,17,7807.0,-12.403653144836426,-223,9888.0
8280,0.11397463083267212,14.861947059631348,438,7807.0,-6.237127780914307,-18,9888.0
8290,0.11484220623970032,35.872371673583984,635,7807.0,1.7064168453216553,120,9888.0
8300,0.11609894037246704,49.80336380004883,988,7807.0,0.41888701915740967,-7,9888.0
8310,0.11700078845024109,58.929115295410156,945,7807.0,5.037580490112305,242,9888.0
8320,0.1179068386554718,47.87468338012695,602,7807.0,11.508639335632324,148,9888.0
8330,0.11885139346122742,14.8643798828125,17,7807.0,11.903987884521484,161,9888.0
8340,0.12089243531227112,-18.838092803955078,-455,7807.0,10.97409439086914,200,9888.0
8350,0.1218506395816803,-42.344520568847656,-761,7807.0,7.067928791046143,10,9888.0
8360,0.12265017628669739,-48.205604553222656,-722,7807.0,-1.6651594638824463,-63,9888.0
8370,0.12318694591522217,-47.36305236816406,-721,7807.0,-3.5211870670318604,4,9888.0
8380,0.1235261857509613,-32.16111373901367,-501,7807.0,-10.102778434753418,-287,9888.0
8390,0.1247900128364563,-14.067435264587402,-145,7807.0,-15.800888061523438,-306,9888.0
8400,0.12495070695877075,4.010941028594971,266,7807.0,-20.454164505004883,-377,9888.0
8410,0.12513715028762817,24.62030792236328,457,7807.0,-21.941862106323242,-301,9888.0
8420,0.12518206238746643,38.02304458618164,624,7807.0,-25.72287940979004,-399,9888.0
8430,0.12579837441444397,44.503562927246094,747,7807.0,-19.073904037475586,-338,9888.0
8440,0.125769704580307,34.72788619995117,523,7807.0,-8.34611701965332,-26,9888.0
8450,0.12570732831954956,20.443445205688477,160,7807.0,2.1606009006500244,77,9888.0
8460,0.12559565901756287,-5.1002726554870605,-160,7807.0,12.534525871276855,214,9888.0
8470,0.12548741698265076,-27.88892364501953,-556,7807.0,15.713606834411621,294,9888.0
8480,0.12502193450927734,-43.56508255004883,-734,7807.0,15.443779945373535,97,9888.0
8490,0.12482088804244995,-46.23370361328125,-722,7807.0,3.675489902496338,104,9888.0
8500,0.12463805079460144,-36.80696487426758,-484,7807.0,-2.3684937953948975,-80,9888.0
8510,0.12458133697509766,-17.013124465942383,-154,7807.0,-7.911235332489014,-74,9888.0
8520,0.12501826882362366,12.429611206054688,397,7807.0,-5.073744297027588,-119,9888.0
8530,0.12502753734588623,39.50215148925781,725,7807.0,3.291653871536255,113,9888.0
8540,0.12508833408355713,52.98688507080078,922,7807.0,5.826303482055664,54,9888.0
8550,0.1250998079776764,53.70762252807617,797,7807.0,-5.899038791656494,-54,9888.0
8560,0.12636518478393555,34.40513229370117,417,7807.0,-16.558618545532227,-345,9888.0
8570,0.1263866126537323,7.762613773345947,-3,7807.0,-23.896894454956055,-319,9888.0
8580,0.12636646628379822,-16.237998962402344,-386,7807.0,-19.15365219116211,-217,9888.0
8590,0.1261710524559021,-30.470867156982422,-486,7807.0,-1.0041645765304565,-21,9888.0
8600,0.12597277760505676,-36.08131408691406,-601,7807.0,14.657907485961914,394,9888.0
8610,0.12476691603660583,-34.313636779785156,-528,7807.0,23.780088424682617,434,9888.0
8620,0.12437695264816284,-25.127939224243164,-358,7807.0,29.309288024902344,573,9888.0
8630,0.12390419840812683,-13.339296340942383,-173,7807.0,30.67453384399414,336,9888.0
8640,0.1234728991985321,-1.5085090398788452,-49,7807.0,20.6390438079834,337,9888.0
8650,0.12318533658981323,3.2324111461639404,149,7807.0,6.109118938446045,44,9888.0
8660,0.1226428747177124,5.987921237945557,71,7807.0,-12.620457649230957,-309,9888.0
8670,0.12203183770179749,1.7224225997924805,-7,7807.0,-27.63385581970215,-403,9888.0
8680,0.12137448787689209,-6.309007167816162,-73,7807.0,-28.137252807617188,-516,9888.0
8690,0.12072116136550903,-9.724213600158691,-187,7807.0,-23.52615737915039,-300,9888.0
8700,0.11969822645187378,-7.155376434326172,-32,7807.0,-14.039361000061035,-146,9888.0
8710,0.11922243237495422,-1.972845435142517,9,7807.0,-2.1004414558410645,-82,9888.0
8720,0.11893758177757263,6.661613941192627,168,7807.0,11.134263038635254,280,9888.0
8730,0.1186913549900055,14.3694486618042,258,7807.0,16.707881927490234,304,9888.0
8740,0.11939841508865356,14.69482421875,212,7807.0,17.191316604614258,295,9888.0
8750,0.11933207511901855,16.39212989807129,277,7807.0,12.07987117767334,133,9888.0
8760,0.11939141154289246,16.414518356323242,262,7807.0,3.98289155960083,-40,9888.0
8770,0.11946356296539307,20.85888671875,356,7807.0,3.6324360370635986,209,9888.0
8780,0.1193247139453888,25.841304779052734,393,7807.0,11.140195846557617,218,9888.0
8790,0.11954227089881897,24.457542419433594,396,7807.0,17.32694435119629,316,9888.0
8800,0.11985856294631958,17.12508773803711,202,7807.0,16.56828498840332,166,9888.0
8810,0.12011545896530151,5.624456882476807,5,7807.0,14.051301002502441,270,9888.0
8820,0.12027814984321594,-7.159957408905029,-154,7807.0,13.194421768188477,140,9888.0
8830,0.12015005946159363,-17.580724716186523,-311,7807.0,6.901416301727295,109,9888.0
8840,0.12010654807090759,-26.06690216064453,-436,7807.0,-5.361854553222656,-236,9888.0
8850,0.11988300085067749,-23.22202491760254,-324,7807.0,-10.594339370727539,-104,9888.0
8860,0.11959180235862732,-16.647001266479492,-208,7807.0,-5.532400608062744,-117,9888.0
8870,0.11826431751251221,-10.430558204650879,-174,7807.0,-0.8906371593475342,49,9888.0
8880,0.11789447069168091,-7.184665203094482,-45,7807.0,0.7759085297584534,-9,9888.0
8890,0.11750143766403198,-5.200717926025391,-112,7807.0,4.061755657196045,118,9888.0
8900,0.1170845627784729,-5.063445091247559,-49,7807.0,2.3264434337615967,26,9888.0
8910,0.11663609743118286,-3.5606930255889893,-79,7807.0,-2.9744715690612793,-16,9888.0
8920,0.11457672715187073,-1.493769645690918,40,7807.0,-0.5640501379966736,-19,9888.0
8930,0.11403459310531616,4.148765563964844,30,7807.0,-4.018139839172363,-137,9888.0
8940,0.11355656385421753,-1.651248574256897,-61,7807.0,-5.348974227905273,31,9888.0
8950,0.11317622661590576,-5.0156025886535645,-100,7807.0,-0.7410474419593811,-46,9888.0
8960,0.11163032054901123,-7.1578497886657715,-93,7807.0,-0.8709936141967773,29,9888.0
8970,0.11139222979545593,-4.4844512939453125,-7,7807.0,2.3427717685699463,-66,9888.0
8980,0.1111835241317749,1.4572111368179321,70,7807.0,1.1364606618881226,112,9888.0
8990,0.11102962493896484,8.943203926086426,229,7807.0,1.7274010181427002,2,9888.0
9000,0.11164653301239014,14.47244930267334,239,7807.0,3.1076009273529053,108,9888.0
9010,0.11170932650566101,18.169296264648438,369,7807.0,7.212308406829834,165,9888.0
9020,0.11190876364707947,24.0397891998291,378,7807.0,10.85327434539795,200,9888.0
9030,0.11225700378417969,28.861047744750977,580,7807.0,13.44015121459961,201,9888.0
9040,0.11253586411476135,37.194515228271484,681,7807.0,12.106630325317383,218,9888.0
9050,0.11348479986190796,37.49372100830078,634,7807.0,5.643850326538086,-6,9888.0
9060,0.11381477117538452,36.46036148071289,589,7807.0,-4.07517671585083,-100,9888.0
9070,0.11420238018035889,16.828350067138672,155,7807.0,-11.912638664245605,-178,9888.0
9080,0.11467021703720093,-7.754054069519043,-218,7807.0,-14.590509414672852,-284,9888.0
9090,0.11683511734008789,-32.85028076171875,-650,7807.0,-13.021427154541016,-129,9888.0
9100,0.11710691452026367,-53.459136962890625,-980,7807.0,-8.231742858886719,-27,9888.0
9110,0.11721104383468628,-55.847442626953125,-845,7807.0,1.8963851928710938,89,9888.0
9120,0.11728912591934204,-48.130401611328125,-794,7807.0,10.273944854736328,306,9888.0
9130,0.11721038818359375,-32.46695327758789,-462,7807.0,13.71330738067627,233,9888.0
9140,0.11775708198547363,-16.60136604309082,-230,7807.0,13.228190422058105,173,9888.0
9150,0.11778825521469116,-1.5246021747589111,89,7807.0,1.4696693420410156,-81,9888.0
9160,0.1178080141544342,7.985937118530273,172,7807.0,-13.08574104309082,-329,9888.0
9170,0.11783847212791443,12.562889099121094,264,7807.0,-21.127315521240234,-377,9888.0
9180,0.11662527918815613,9.541661262512207,88,7807.0,-24.38157081604004,-439,9888.0
9190,0.11657339334487915,0.8803436756134033,-42,7807.0,-21.097366333007812,-214,9888.0
9200,0.11654800176620483,-2.5445499420166016,-64,7807.0,-20.038450241088867,-353,9888.0
9210,0.11666959524154663,-0.5064086318016052,36,7807.0,-14.799081802368164,-190,9888.0
9220,0.11642917990684509,6.406936168670654,89,7807.0,-9.589734077453613,-130,9888.0
9230,0.11669328808784485,7.579007148742676,145,7807.0,-1.6842619180679321,27,9888.0
9240,0.11700105667114258,2.048192024230957,-17,7807.0,3.417079448699951,37,9888.0
9250,0.11735507845878601,-0.5045612454414368,42,7807.0,7.175755023956299,117,9888.0
9260,0.11771422624588013,3.627586603164673,40,7807.0,2.8873839378356934,79,9888.0
9270,0.11848777532577515,6.858253002166748,275,7807.0,11.414563179016113,190,9888.0
9280,0.11886203289031982,19.174890518188477,338,7807.0,14.066885948181152,180,9888.0
9290,0.11923879384994507,21.831483840942383,442,7807.0,1.9406017065048218,-50,9888.0
9300,0.11971879005432129,14.752852439880371,131,7807.0,-10.713653564453125,-143,9888.0
9310,0.12033644318580627,-1.299864649772644,-69,7807.0,-15.45591926574707,-274,9888.0
9320,0.12062948942184448,-13.021482467651367,-310,7807.0,-16.921443939208984,-221,9888.0
9330,0.12088721990585327,-22.422632217407227,-348,7807.0,-11.74755573272705,-197,9888.0
9340,0.12110596895217896,-21.498125076293945,-324,7807.0,-0.9101241827011108,94,9888.0
9350,0.12125211954116821,-14.982057571411133,-179,7807.0,9.671042442321777,162,9888.0
9360,0.12199363112449646,-5.625164985656738,-77,7807.0,10.48675537109375,250,9888.0
9370,0.12208518385887146,-1.3168987035751343,75,7807.0,12.74648380279541,45,9888.0
9380,0.12211000919342041,10.304499626159668,163,7807.0,4.247538089752197,37,9888.0
9390,0.12209275364875793,19.205814361572266,417,7807.0,-5.294029235839844,-160,9888.0
9400,0.12264114618301392,24.725736618041992,396,7807.0,-21.595638275146484,-367,9888.0
9410,0.12254512310028076,23.81695556640625,382,7807.0,-20.792028427124023,-317,9888.0
9420,0.12258154153823853,13.869379043579102,169,7807.0,-7.901710033416748,-69,9888.0
9430,0.12279209494590759,6.164208889007568,81,7807.0,8.828125,105,9888.0
9440,0.12370800971984863,-4.9960784912109375,-174,7807.0,20.14224624633789,423,9888.0
9450,0.12413662672042847,-17.62932586669922,-369,7807.0,21.21784210205078,347,9888.0
9460,0.12465658783912659,-21.552167892456055,-380,7807.0,15.551280975341797,333,9888.0
9470,0.12540313601493835,-17.74685287475586,-308,7807.0,8.277996063232422,4,9888.0
9480,0.12620890140533447,-7.540849208831787,-18,7807.0,-3.961921453475952,-37,9888.0
9490,0.12615472078323364,4.5835981369018555,114,7807.0,5.75970983505249,52,9888.0
9500,0.12703099846839905,11.864835739135742,254,7807.0,9.046319961547852,118,9888.0
9510,0.12790223956108093,11.339341163635254,97,7807.0,6.842986106872559,40,9888.0
9520,0.12863659858703613,3.5863325595855713,67,7807.0,-1.6148340702056885,9,9888.0
9530,0.12618866562843323,2.243352174758911,-7,7807.0,-9.80434513092041,-191,9888.0
9540,0.12636831402778625,2.017209529876709,117,7807.0,-13.48176383972168,-185,9888.0
9550,0.12640780210494995,-1.305751919746399,-54,7807.0,-0.9335570335388184,72,9888.0
9560,0.12626659870147705,-4.882297039031982,-68,7807.0,12.620067596435547,275,9888.0
9570,0.125952810049057,-10.011160850524902,-253,7807.0,18.74210548400879,342,9888.0
9580,0.12376341223716736,-12.388643264770508,-222,7807.0,17.331642150878906,187,9888.0
9590,0.12310132384300232,-16.380115509033203,-209,7807.0,5.674792289733887,0,9888.0
9600,0.12233051657676697,-3.386479377746582,64,7807.0,-12.11267375946045,-398,9888.0
9610,0.12154990434646606,9.439927101135254,210,7807.0,-31.28840446472168,-528,9888.0
9620,0.11963808536529541,19.845970153808594,468,7807.0,-38.7586784362793,-617,9888.0
9630,0.11900150775909424,28.138614654541016,399,7807.0,-31.302892684936523,-459,9888.0
9640,0.11819609999656677,20.276453018188477,279,7807.0,-14.660032272338867,-132,9888.0
9650,0.11731261014938354,4.655462265014648,-15,7807.0,6.3998003005981445,292,9888.0
9660,0.11518996953964233,-12.859481811523438,-323,7807.0,23.72841453552246,429,9888.0
9670,0.1142728328704834,-30.735849380493164,-539,7807.0,32.68673324584961,640,9888.0
9680,0.11340180039405823,-41.59595489501953,-720,7807.0,32.81632995605469,464,9888.0
9690,0.11268851161003113,-43.151031494140625,-674,7807.0,21.34525489807129,375,9888.0
9700,0.11200031638145447,-31.480539321899414,-441,7807.0,8.557230949401855,49,9888.0
9710,0.1113521158695221,-19.617141723632812,-281,7807.0,-0.17962974309921265,-136,9888.0
9720,0.11097767949104309,-9.687056541442871,-116,7807.0,-10.069123268127441,-178,9888.0
9730,0.11080774664878845,0.6362329721450806,110,7807.0,-17.99850845336914,-300,9888.0
9740,0.11064395308494568,6.472263336181641,164,7807.0,-19.832143783569336,-392,9888.0
9750,0.11104205250740051,18.811216354370117,354,7807.0,-13.402679443359375,-29,9888.0
9760,0.11101645231246948,33.10588836669922,618,7807.0,-2.8549108505249023,-26,9888.0
9770,0.11099454760551453,45.29925537109375,691,7807.0,3.8820083141326904,144,9888.0
9780,0.11092162132263184,47.50113296508789,812,7807.0,13.177545547485352,211,9888.0
9790,0.11076441407203674,41.49064636230469,611,7807.0,21.391925811767578,343,9888.0
9800,0.11361372470855713,25.189849853515625,376,7807.0,27.441728591918945,449,9888.0
9810,0.11368420720100403,5.3094682693481445,-12,7807.0,28.459558486938477,454,9888.0
9820,0.11371085047721863,-4.485254287719727,-79,7807.0,22.465164184570312,334,9888.0
9830,0.11384111642837524,-12.255718231201172,-236,7807.0,5.274905204772949,-29,9888.0
9840,0.1145646870136261,-10.057549476623535,-149,7807.0,-11.724613189697266,-184,9888.0
9850,0.11462587118148804,-6.657102584838867,-99,7807.0,-19.638280868530273,-397,9888.0
9860,0.11466455459594727,5.355350494384766,168,7807.0,-22.96544647216797,-291,9888.0
9870,0.11473244428634644,20.060487747192383,328,7807.0,-18.986003875732422,-290,9888.0
9880,0.11451542377471924,19.196392059326172,226,7807.0,-4.937448501586914,62,9888.0
9890,0.1148405373096466,-3.428022623062134,-244,7807.0,6.913056373596191,207,9888.0
9900,0.115515798330307,-37.2397346496582,-708,7807.0,26.71498680114746,450,9888.0
9910,0.11632722616195679,-64.65795135498047,-1189,7807.0,31.15770149230957,498,9888.0
9920,0.11719769239425659,-71.95634460449219,-1102,7807.0,26.885717391967773,425,9888.0
9930,0.11756739020347595,-62.959529876708984,-1007,7807.0,18.90808868408203,229,9888.0
9940,0.11840251088142395,-52.76249694824219,-759,7807.0,12.09210205078125,275,9888.0
9950,0.11964282393455505,-38.25480270385742,-488,7807.0,2.892146110534668,25,9888.0
9960,0.12119275331497192,-27.089765548706055,-335,7807.0,-2.665602684020996,-147,9888.0
9970,0.11925989389419556,-7.774077892303467,31,7807.0,-5.89067268371582,-28,9888.0
9980,0.12038803100585938,16.126155853271484,386,7807.0,-0.004643687978386879,-26,9888.0
9990,0.12170404195785522,43.99678039550781,722,7807.0,5.139266490936279,61,9888.0
10000,0.12265840172767639,57.46217727661133,1048,7807.0,7.0924482345581055,36,9888.0
10010,0.12368026375770569,69.41078186035156,1161,7807.0,2.1139028072357178,-101,9888.0
10020,0.1237330436706543,72.28225708007812,1180,7807.0,-7.148779392242432,-72,9888.0
10030,0.1244695782661438,63.43894958496094,936,7807.0,-8.369552612304688,-219,9888.0
10040,0.12512007355690002,41.5285758972168,570,7807.0,-10.43693733215332,-111,9888.0
10050,0.1262446641921997,17.581527709960938,141,7807.0,-18.44575309753418,-256,9888.0
10060,0.12792280316352844,-5.791805744171143,-149,7807.0,-26.333770751953125,-513,9888.0
10070,0.1284785270690918,-18.385997772216797,-334,7807.0,-28.99602508544922,-407,9888.0
10080,0.1287793517112732,-21.77862548828125,-371,7807.0,-24.469194412231445,-424,9888.0
10090,0.12893202900886536,-18.054441452026367,-277,7807.0,-27.470630645751953,-460,9888.0
10100,0.12973415851593018,-9.900991439819336,-176,7807.0,-33.77340316772461,-540,9888.0
10110,0.12986505031585693,-6.827802658081055,-17,7807.0,-28.67112922668457,-409,9888.0
10120,0.12999391555786133,-6.829137802124023,-160,7807.0,-14.337847709655762,-101,9888.0
10130,0.13025745749473572,-9.688255310058594,-169,7807.0,0.26980820298194885,12,9888.0
10140,0.13043519854545593,-14.526135444641113,-247,7807.0,19.57526969909668,465,9888.0
10150,0.13156545162200928,-16.801877975463867,-292,7807.0,28.323760986328125,389,9888.0
10160,0.13175439834594727,-13.024519920349121,-217,7807.0,26.19348907470703,453,9888.0
10170,0.13206762075424194,-13.511597633361816,-169,7807.0,18.650774002075195,266,9888.0
10180,0.13222292065620422,-12.621275901794434,-232,7807.0,4.155827522277832,-18,9888.0
10190,0.13137680292129517,-12.161139488220215,-201,7807.0,-22.04768943786621,-510,9888.0
10200,0.13154610991477966,-18.460712432861328,-366,7807.0,-41.8764762878418,-794,9888.0
10210,0.13172531127929688,-19.803083419799805,-281,7807.0,-52.652774810791016,-761,9888.0
10220,0.13174733519554138,-18.63683319091797,-272,7807.0,-43.67269515991211,-729,9888.0
10230,0.13171076774597168,-9.822029113769531,-122,7807.0,-30.21217155456543,-349,9888.0
10240,0.13115105032920837,-3.979431390762329,-87,7807.0,-8.260563850402832,51,9888.0
10250,0.13105887174606323,-0.8023650050163269,74,7807.0,19.820022583007812,554,9888.0
10260,0.13097956776618958,3.625453233718872,64,7807.0,48.112483978271484,975,9888.0
10270,0.13069838285446167,10.211524963378906,220,7807.0,64.84290313720703,1226,9888.0
10280,0.13032245635986328,16.428470611572266,263,7807.0,64.99810791015625,881,9888.0
10290,0.13003376126289368,14.387445449829102,246,7807.0,47.758872985839844,618,9888.0
10300,0.12956219911575317,8.80046558380127,100,7807.0,19.394208908081055,194,9888.0
10310,0.12907114624977112,-0.9984492063522339,-97,7807.0,-6.791679382324219,-200,9888.0
10320,0.13064169883728027,-6.074793815612793,-213,7807.0,-27.116382598876953,-484,9888.0
10330,0.1302027702331543,-2.2819597721099854,31,7807.0,-43.987308502197266,-831,9888.0
10340,0.12954995036125183,5.035854339599609,155,7807.0,-57.665985107421875,-976,9888.0
10350,0.1288573145866394,16.714101791381836,310,7807.0,-64.1019515991211,-948,9888.0
10360,0.12805941700935364,24.774433135986328,453,7807.0,-56.03955078125,-897,9888.0
10370,0.1267159879207611,32.92821502685547,599,7807.0,-35.48950958251953,-365,9888.0
10380,0.126562237739563,32.77306365966797,543,7807.0,-7.09462833404541,-153,9888.0
10390,0.12618184089660645,27.79873275756836,377,7807.0,11.763483047485352,311,9888.0
10400,0.12578171491622925,14.169219970703125,194,7807.0,22.07918930053711,381,9888.0
10410,0.12519416213035583,5.186856746673584,18,7807.0,33.795143127441406,635,9888.0
10420,0.12488502264022827,-3.5697431564331055,-43,7807.0,46.82967758178711,823,9888.0
10430,0.12461227178573608,-15.859865188598633,-374,7807.0,52.028045654296875,854,9888.0
10440,0.12443456053733826,-28.968385696411133,-503,7807.0,40.280731201171875,646,9888.0
10450,0.12434685230255127,-37.652442932128906,-578,7807.0,19.042137145996094,133,9888.0
10460,0.124860018491745,-34.744041442871094,-494,7807.0,-3.180304527282715,-247,9888.0
10470,0.12484338879585266,-24.867650985717773,-355,7807.0,-13.366134643554688,-237,9888.0
10480,0.12493839859962463,-2.9099156856536865,105,7807.0,-17.594440460205078,-224,9888.0
10490,0.1250549852848053,17.407005310058594,328,7807.0,-12.609040260314941,-255,9888.0
10500,0.12510272860527039,29.795251846313477,483,7807.0,-2.7565107345581055,25,9888.0
10510,0.12525686621665955,27.87362289428711,407,7807.0,8.309155464172363,192,9888.0
10520,0.1254550814628601,13.661255836486816,179,7807.0,12.561720848083496,331,9888.0
10530,0.12558314204216003,5.498704433441162,148,7807.0,23.231435775756836,372,9888.0
10540,0.12649157643318176,-0.35569360852241516,-79,7807.0,24.599056243896484,354,9888.0
10550,0.12661728262901306,-10.62000846862793,-162,7807.0,23.881196975708008,301,9888.0
10560,0.1266934871673584,-26.449621200561523,-568,7807.0,17.623567581176758,259,9888.0
10570,0.1266813576221466,-35.553489685058594,-582,7807.0,11.596945762634277,251,9888.0
10580,0.12661534547805786,-35.8817138671875,-606,7807.0,3.141141891479492,-95,9888.0
10590,0.12734875082969666,-19.395143508911133,-215,7807.0,-12.136542320251465,-201,9888.0
10600,0.12736815214157104,-2.380866765975952,76,7807.0,-21.351408004760742,-420,9888.0
10610,0.12744542956352234,9.210227966308594,200,7807.0,-28.204822540283203,-391,9888.0
10620,0.127370685338974,23.95488166809082,466,7807.0,-22.12855339050293,-308,9888.0
10630,0.12612217664718628,36.0518798828125,605,7807.0,-6.963499546051025,-3,9888.0
10640,0.1260230541229248,41.04706573486328,701,7807.0,15.00391674041748,358,9888.0
10650,0.1259118616580963,39.310821533203125,564,7807.0,29.012060165405273,591,9888.0
10660,0.12589100003242493,29.54831314086914,470,7807.0,36.17389678955078,541,9888.0
10670,0.12590080499649048,19.74419403076172,183,7807.0,30.799821853637695,533,9888.0
10680,0.126604825258255,2.6189894676208496,-26,7807.0,21.739789962768555,369,9888.0
10690,0.12675020098686218,-15.151324272155762,-322,7807.0,12.821393966674805,191,9888.0
10700,0.1270829737186432,-23.530715942382812,-391,7807.0,7.267983913421631,94,9888.0
10710,0.1273052990436554,-27.369293212890625,-435,7807.0,-2.3187265396118164,-175,9888.0
10720,0.12758547067642212,-22.374902725219727,-316,7807.0,-11.35872745513916,-217,9888.0
10730,0.12771320343017578,-12.032923698425293,-149,7807.0,-18.223804473876953,-347,9888.0
10740,0.12778949737548828,6.885941982269287,159,7807.0,-17.109561920166016,-155,9888.0
10750,0.127915620803833,20.03152084350586,316,7807.0,-11.701662063598633,-148,9888.0
10760,0.12912169098854065,20.420543670654297,338,7807.0,-0.603205144405365,45,9888.0
10770,0.12931880354881287,13.07232666015625,161,7807.0,12.53057861328125,234,9888.0
10780,0.129570871591568,8.1168212890625,168,7807.0,22.800588607788086,407,9888.0
10790,0.12973082065582275,1.9214216470718384,-55,7807.0,28.421947479248047,539,9888.0
10800,0.12980836629867554,-13.445914268493652,-241,7807.0,27.232309341430664,432,9888.0
10810,0.1317482590675354,-11.953742027282715,-203,7807.0,20.487472534179688,300,9888.0
10820,0.13186722993850708,-13.546351432800293,-184,7807.0,0.600318431854248,-78,9888.0
10830,0.13201451301574707,-16.92217254638672,-281,7807.0,-25.05611801147461,-522,9888.0
10840,0.13227897882461548,-13.333488464355469,-127,7807.0,-51.58234405517578,-852,9888.0
10850,0.13215118646621704,-12.99121379852295,-274,7807.0,-68.08828735351562,-1143,9888.0
10860,0.13226822018623352,-10.770341873168945,42,7807.0,-69.89515686035156,-960,9888.0
10870,0.13214218616485596,32.734596252441406,629,7807.0,-59.886234283447266,-969,9888.0
10880,0.13229387998580933,31.046039581298828,467,7807.0,-51.00728225708008,-648,9888.0
10890,0.1323324739933014,20.566055297851562,598,7807.0,-14.641443252563477,-93,9888.0
10900,0.1313782036304474,63.35365295410156,949,7807.0,6.073700904846191,197,9888.0
10910,0.13147926330566406,32.43056869506836,256,7807.0,12.722475051879883,317,9888.0
10920,0.1316898763179779,-2.1064672470092773,-190,7807.0,14.30107307434082,239,9888.0
10930,0.13197308778762817,-22.940242767333984,-510,7807.0,16.64412498474121,364,9888.0
10940,0.13286206126213074,-44.46674728393555,-892,7807.0,7.5329132080078125,71,9888.0
10950,0.13350209593772888,-58.807743072509766,-982,7807.0,-10.531692504882812,-173,9888.0
10960,0.13344937562942505,-54.5452766418457,-797,7807.0,-28.796367645263672,-702,9888.0
10970,0.13436928391456604,-36.63282012939453,-520,7807.0,-54.615177154541016,-995,9888.0
10980,0.131891667842865,-21.814640045166016,-223,7807.0,-69.18848419189453,-1044,9888.0
10990,0.1321832239627838,0.5295751094818115,116,7807.0,-62.556678771972656,-915,9888.0
11000,0.1319788098335266,21.564376831054688,426,7807.0,-48.590301513671875,-702,9888.0
11010,0.13182005286216736,28.63741111755371,449,7807.0,-35.111061096191406,-444,9888.0
11020,0.1317373812198639,29.026485443115234,521,7807.0,-18.30522346496582,-292,9888.0
11030,0.12743541598320007,23.588603973388672,309,7807.0,-9.258176803588867,-148,9888.0
11040,0.1269155740737915,9.982281684875488,169,7807.0,-3.872319221496582,-84,9888.0
11050,0.1265975832939148,-3.823843479156494,-153,7807.0,-6.90399694442749,-96,9888.0
11060,0.12635880708694458,-14.514923095703125,-209,7807.0,-10.337060928344727,-198,9888.0
11070,0.12221932411193848,-28.152667999267578,-520,7807.0,-9.833654403686523,-149,9888.0
11080,0.12138205766677856,-37.006656646728516,-588,7807.0,-17.63753890991211,-408,9888.0
11090,0.12076622247695923,-42.83237838745117,-751,7807.0,-39.29010772705078,-728,9888.0
11100,0.12021812796592712,-46.99409484863281,-762,7807.0,-50.90961837768555,-832,9888.0
11110,0.1197139322757721,-49.217987060546875,-792,7807.0,-56.919246673583984,-1074,9888.0
11120,0.11584785580635071,-46.3639030456543,-708,7807.0,-55.834747314453125,-774,9888.0
11130,0.11516547203063965,-41.55229949951172,-644,7807.0,-34.0347785949707,-495,9888.0
11140,0.11445009708404541,-38.60385513305664,-646,7807.0,-11.566883087158203,20,9888.0
11150,0.11376574635505676,-36.82415771484375,-555,7807.0,12.733769416809082,264,9888.0
11160,0.11280697584152222,-28.591238021850586,-536,7807.0,29.790332794189453,553,9888.0
11170,0.11224788427352905,-30.047012329101562,-456,7807.0,41.19999694824219,743,9888.0
11180,0.11177593469619751,-27.39759635925293,-366,7807.0,44.11133575439453,655,9888.0
11190,0.11140808463096619,-15.372440338134766,-195,7807.0,33.422386169433594,427,9888.0
11200,0.10975787043571472,0.08197688311338425,25,7807.0,24.106943130493164,399,9888.0
11210,0.10944250226020813,9.594291687011719,221,7807.0,10.730606079101562,186,9888.0
11220,0.10925844311714172,17.214189529418945,364,7807.0,1.1376644372940063,43,9888.0
11230,0.10902196168899536,27.453195571899414,567,7807.0,-8.846314430236816,-201,9888.0
11240,0.10868921875953674,35.30465316772461,605,7807.0,-7.691340923309326,-225,9888.0
11250,0.10896444320678711,43.60136032104492,770,7807.0,-6.754827499389648,-6,9888.0
11260,0.10882031917572021,52.338687896728516,855,7807.0,7.1336846351623535,207,9888.0
11270,0.10860759019851685,48.125431060791016,736,7807.0,20.569259643554688,343,9888.0
11280,0.10837894678115845,41.68376922607422,615,7807.0,35.730979919433594,647,9888.0
11290,0.10796508193016052,40.85298538208008,693,7807.0,41.438228607177734,688,9888.0
11300,0.10776054859161377,35.428367614746094,550,7807.0,39.20808410644531,546,9888.0
11310,0.10762330889701843,32.933570861816406,499,7807.0,39.63913345336914,672,9888.0
11320,0.1075291633605957,21.34893226623535,293,7807.0,33.242069244384766,577,9888.0
11330,0.10748586058616638,3.4564855098724365,-75,7807.0,40.37350845336914,633,9888.0
11340,0.10625627636909485,-19.001567840576172,-349,7807.0,47.63810348510742,842,9888.0
11350,0.10630437731742859,-27.293804168701172,-418,7807.0,51.018592834472656,796,9888.0
11360,0.10645473003387451,-31.5168399810791,-525,7807.0,43.30086898803711,591,9888.0
11370,0.10666275024414062,-31.799846649169922,-540,7807.0,28.947561264038086,355,9888.0
11380,0.10812026262283325,-29.867313385009766,-569,7807.0,14.555272102355957,244,9888.0
11390,0.10865521430969238,-25.79805564880371,-397,7807.0,9.25135326385498,198,9888.0
11400,0.1092056930065155,-23.325010299682617,-303,7807.0,13.246664047241211,216,9888.0
11410,0.10983416438102722,-14.401108741760254,-183,7807.0,21.426713943481445,385,9888.0
11420,0.1098845899105072,-4.938998222351074,-87,7807.0,30.379175186157227,544,9888.0
11430,0.1106337308883667,2.4719104766845703,104,7807.0,44.482688903808594,838,9888.0
11440,0.1114988923072815,12.718390464782715,247,7807.0,51.66313934326172,892,9888.0
11450,0.11223393678665161,12.801385879516602,171,7807.0,58.33849334716797,821,9888.0
11460,0.11336848139762878,9.634563446044922,187,7807.0,57.406646728515625,963,9888.0
11470,0.11668294668197632,14.51923656463623,302,7807.0,55.70620346069336,969,9888.0
11480,0.11755311489105225,20.701122283935547,391,7807.0,47.616966247558594,698,9888.0
11490,0.1182354986667633,26.687211990356445,454,7807.0,35.92626190185547,514,9888.0
11500,0.11903494596481323,28.541345596313477,471,7807.0,22.858768463134766,333,9888.0
11510,0.12178584933280945,27.72905158996582,448,7807.0,5.701417922973633,74,9888.0
11520,0.1222730278968811,29.037513732910156,490,7807.0,-12.164390563964844,-401,9888.0
11530,0.12256002426147461,33.55891036987305,529,7807.0,-24.67681884765625,-402,9888.0
11540,0.12277868390083313,37.9389533996582,647,7807.0,-23.680509567260742,-296,9888.0
11550,0.12298673391342163,35.46055221557617,564,7807.0,-15.141040802001953,-340,9888.0
11560,0.1233101487159729,34.977088928222656,620,7807.0,-10.404112815856934,-74,9888.0
11570,0.12325817346572876,36.12457275390625,599,7807.0,-3.214033603668213,-54,9888.0
11580,0.12357461452484131,38.205265045166016,602,7807.0,8.552847862243652,342,9888.0
11590,0.12337669730186462,37.171512603759766,588,7807.0,24.47085189819336,427,9888.0
11600,0.12380126118659973,34.67521286010742,612,7807.0,37.01448440551758,720,9888.0
11610,0.12383869290351868,35.96813201904297,514,7807.0,40.65878677368164,630,9888.0
11620,0.12349021434783936,27.178892135620117,434,7807.0,39.638153076171875,640,9888.0
11630,0.1234007477760315,15.69502067565918,137,7807.0,35.185428619384766,560,9888.0
11640,0.12300530076026917,0.8083600401878357,-85,7807.0,31.919919967651367,539,9888.0
11650,0.12274545431137085,-13.952823638916016,-249,7807.0,20.948076248168945,300,9888.0
11660,0.12256741523742676,-24.642345428466797,-419,7807.0,3.0388331413269043,-165,9888.0
11670,0.12246313691139221,-36.31147766113281,-629,7807.0,-24.455810546875,-519,9888.0
11680,0.12217110395431519,-41.7750129699707,-655,7807.0,-40.225494384765625,-745,9888.0
11690,0.1203906238079071,-43.04111099243164,-736,7807.0,-49.300235748291016,-711,9888.0
11700,0.12033113837242126,-44.059654235839844,-743,7807.0,-42.004539489746094,-630,9888.0
11710,0.12009382247924805,-36.90608596801758,-580,7807.0,-26.002748489379883,-308,9888.0
11720,0.11993962526321411,-33.74727249145508,-549,7807.0,-5.863475322723389,-43,9888.0
11730,0.11823159456253052,-28.33999252319336,-370,7807.0,15.576912879943848,367,9888.0
11740,0.11808982491493225,-28.49395179748535,-503,7807.0,26.599422454833984,445,9888.0
11750,0.11831969022750854,-20.460390090942383,-303,7807.0,27.854555130004883,443,9888.0
11760,0.11805540323257446,-11.201295852661133,-142,7807.0,19.238874435424805,154,9888.0
11770,0.11788332462310791,0.5400123000144958,15,7807.0,12.59704303741455,242,9888.0
11780,0.11685436964035034,10.477248191833496,261,7807.0,10.987801551818848,152,9888.0
11790,0.11669430136680603,15.730600357055664,270,7807.0,5.094541072845459,15,9888.0
11800,0.11632323265075684,22.044584274291992,323,7807.0,-3.173732042312622,-59,9888.0
11810,0.11587482690811157,24.551183700561523,504,7807.0,-10.820751190185547,-187,9888.0
11820,0.1135227382183075,28.5340576171875,484,7807.0,-8.531859397888184,-165,9888.0
11830,0.1129801869392395,28.227291107177734,407,7807.0,-1.8249890804290771,84,9888.0
11840,0.11237409710884094,23.865007400512695,339,7807.0,4.88972282409668,78,9888.0
11850,0.1116151213645935,9.14674186706543,12,7807.0,11.918289184570312,183,9888.0
11860,0.11033841967582703,-0.1737319380044937,-10,7807.0,17.8937931060791,356,9888.0
11870,0.10956862568855286,-7.225950241088867,-161,7807.0,17.36910057067871,269,9888.0
11880,0.10881388187408447,-10.313678741455078,-160,7807.0,17.56069564819336,272,9888.0
11890,0.10807177424430847,-4.794735431671143,-30,7807.0,12.181034088134766,224,9888.0
11900,0.10737249255180359,3.8382420539855957,170,7807.0,4.171143531799316,-25,9888.0
11910,0.10728433728218079,5.796417713165283,36,7807.0,-6.973976135253906,-203,9888.0
11920,0.10678064823150635,6.667916774749756,41,7807.0,-16.301969528198242,-261,9888.0
11930,0.1063443124294281,1.1955475807189941,49,7807.0,-27.20680809020996,-425,9888.0
11940,0.10598021745681763,-10.032395362854004,-234,7807.0,-40.49003601074219,-850,9888.0
11950,0.10453227162361145,-27.088275909423828,-535,7807.0,-50.309207916259766,-832,9888.0
11960,0.1041300892829895,-42.2122688293457,-684,7807.0,-48.62216567993164,-819,9888.0
11970,0.10370641946792603,-50.87211608886719,-897,7807.0,-43.240577697753906,-603,9888.0
11980,0.10361543297767639,-43.36631774902344,-605,7807.0,-40.333030700683594,-642,9888.0
11990,0.10195043683052063,-26.180530548095703,-375,7807.0,-27.74094581604004,-508,9888.0
12000,0.10203912854194641,-7.478673934936523,-53,7807.0,-17.518434524536133,-116,9888.0
12010,0.1020839512348175,7.206131458282471,188,7807.0,-2.7779829502105713,-84,9888.0
12020,0.10242468118667603,18.025060653686523,262,7807.0,8.670363426208496,227,9888.0
12030,0.10281580686569214,14.021490097045898,200,7807.0,18.087221145629883,276,9888.0
12040,0.10115548968315125,12.284234046936035,139,7807.0,28.684497833251953,588,9888.0
12050,0.10160329937934875,11.802356719970703,179,7807.0,28.22153091430664,498,9888.0
12060,0.10205677151679993,0.2882113456726074,-112,7807.0,26.886760711669922,390,9888.0
12070,0.10254618525505066,-15.784112930297852,-244,7807.0,13.549403190612793,172,9888.0
12080,0.10329902172088623,-23.246673583984375,-431,7807.0,-3.5819172859191895,-163,9888.0
12090,0.10366210341453552,-24.52926254272461,-363,7807.0,-20.49372673034668,-303,9888.0
12100,0.10395607352256775,-21.240314483642578,-287,7807.0,-28.182126998901367,-447,9888.0
12110,0.1043369472026825,-14.518221855163574,-208,7807.0,-30.31032943725586,-485,9888.0
12120,0.10434290766716003,-0.5084870457649231,109,7807.0,-28.45406150817871,-477,9888.0
12130,0.10429897904396057,16.139251708984375,353,7807.0,-24.05866050720215,-416,9888.0
12140,0.10458028316497803,28.386199951171875,518,7807.0,-18.794921875,-182,9888.0
12150,0.10487475991249084,33.94725036621094,599,7807.0,-4.289525032043457,-48,9888.0
12160,0.1051267683506012,42.40776062011719,752,7807.0,4.23229455947876,101,9888.0
12170,0.10589641332626343,43.12315368652344,653,7807.0,9.156987190246582,165,9888.0
12180,0.10620942711830139,34.65500259399414,502,7807.0,11.074603080749512,200,9888.0
12190,0.10668346285820007,18.759666442871094,115,7807.0,9.450006484985352,166,9888.0
12200,0.10727584362030029,-5.499655246734619,-227,7807.0,4.585334777832031,42,9888.0
12210,0.10893058776855469,-29.433565139770508,-570,7807.0,0.5890070796012878,-9,9888.0
12220,0.10950002074241638,-49.412864685058594,-896,7807.0,-6.371651649475098,-178,9888.0
12230,0.10997793078422546,-60.44158172607422,-979,7807.0,-11.63736343383789,-326,9888.0
12240,0.11051809787750244,-62.542179107666016,-1033,7807.0,-20.345447540283203,-314,9888.0
12250,0.11106270551681519,-54.865966796875,-800,7807.0,-21.763261795043945,-398,9888.0
12260,0.11203384399414062,-40.05975341796875,-559,7807.0,-22.012828826904297,-287,9888.0
12270,0.11280694603919983,-18.618654251098633,-135,7807.0,-17.218490600585938,-300,9888.0
12280,0.1138315498828888,3.3453285694122314,195,7807.0,-10.185742378234863,6,9888.0
12290,0.11473309993743896,17.966577529907227,337,7807.0,5.809235095977783,80,9888.0
12300,0.11723610758781433,20.494417190551758,319,7807.0,12.204306602478027,238,9888.0
12310,0.11835092306137085,18.483705520629883,211,7807.0,15.424005508422852,326,9888.0
12320,0.11941570043563843,7.756100654602051,136,7807.0,16.918115615844727,212,9888.0
12330,0.12045684456825256,1.737038254737854,-9,7807.0,21.82387924194336,376,9888.0
12340,0.12140235304832458,-5.455238342285156,-106,7807.0,18.152883529663086,305,9888.0
12350,0.12278863787651062,-8.212385177612305,-147,7807.0,11.563145637512207,207,9888.0
12360,0.12352633476257324,-3.449824094772339,3,7807.0,5.004612922668457,7,9888.0
12370,0.12413504719734192,3.7942183017730713,35,7807.0,-1.568485975265503,4,9888.0
12380,0.12466281652450562,9.529706001281738,215,7807.0,-7.305848121643066,-99,9888.0
12390,0.12680265307426453,16.524999618530273,208,7807.0,-7.566451549530029,-122,9888.0
12400,0.12717464566230774,17.586393356323242,333,7807.0,-8.284149169921875,-110,9888.0
12410,0.1275210678577423,17.521577835083008,254,7807.0,-10.094744682312012,-182,9888.0
12420,0.12777775526046753,16.663673400878906,257,7807.0,-14.359074592590332,-295,9888.0
12430,0.12824159860610962,12.249656677246094,130,7807.0,-16.569053649902344,-204,9888.0
12440,0.12841182947158813,7.807565212249756,170,7807.0,-19.836198806762695,-329,9888.0
12450,0.12841585278511047,6.09346866607666,86,7807.0,-17.100988388061523,-200,9888.0
12460,0.12837201356887817,7.82813024520874,152,7807.0,-4.740140438079834,-66,9888.0
12470,0.12826424837112427,8.863455772399902,118,7807.0,4.1840596199035645,136,9888.0
12480,0.1291656196117401,8.023807525634766,142,7807.0,11.973349571228027,167,9888.0
12490,0.12904557585716248,2.0410354137420654,-57,7807.0,13.371695518493652,268,9888.0
12500,0.12887448072433472,-7.420655250549316,-136,7807.0,8.56391429901123,-24,9888.0
12510,0.1287098228931427,-10.464720726013184,-184,7807.0,-2.2417654991149902,3,9888.0
12520,0.12898659706115723,-9.847091674804688,-125,7807.0,-12.765729904174805,-226,9888.0
12530,0.12885922193527222,-8.328539848327637,-120,7807.0,-19.130626678466797,-320,9888.0
12540,0.12879493832588196,-3.669221878051758,40,7807.0,-21.358858108520508,-361,9888.0
12550,0.12876290082931519,1.4457119703292847,16,7807.0,-15.963698387145996,-222,9888.0
12560,0.12802335619926453,8.691715240478516,223,7807.0,-0.6755610704421997,63,9888.0
12570,0.12802651524543762,15.783390045166016,247,7807.0,13.226900100708008,317,9888.0
12580,0.1279451549053192,26.608835220336914,502,7807.0,24.752939224243164,420,9888.0
12590,0.12780171632766724,27.410329818725586,362,7807.0,33.4992790222168,630,9888.0
12600,0.1275017261505127,16.29364585876465,258,7807.0,31.880619049072266,489,9888.0
12610,0.12715142965316772,4.040476322174072,-6,7807.0,17.929332733154297,117,9888.0
12620,0.12676456570625305,-11.345592498779297,-170,7807.0,5.15601110458374,48,9888.0
12630,0.12628701329231262,-14.686165809631348,-214,7807.0,-5.294701099395752,-172,9888.0
12640,0.12574943900108337,-15.357120513916016,-280,7807.0,-15.674067497253418,-246,9888.0
12650,0.1265447735786438,-17.75657081604004,-206,7807.0,-19.0949764251709,-294,9888.0
12660,0.12591159343719482,-13.219803810119629,-208,7807.0,-20.12784194946289,-364,9888.0
12670,0.12528562545776367,-8.30801010131836,-76,7807.0,-12.49173355102539,-139,9888.0
12680,0.12467983365058899,-4.423672199249268,34,7807.0,-0.9228762984275818,28,9888.0
12690,0.12416067719459534,1.3694148063659668,-34,7807.0,2.9087605476379395,14,9888.0
12700,0.12245753407478333,6.411038398742676,148,7807.0,7.633799076080322,158,9888.0
12710,0.1218995451927185,14.601591110229492,370,7807.0,20.493444442749023,450,9888.0
12720,0.1214219331741333,23.485807418823242,365,7807.0,28.79564094543457,415,9888.0
12730,0.1210186779499054,18.278644561767578,248,7807.0,16.102493286132812,199,9888.0
12740,0.12037840485572815,4.795143127441406,84,7807.0,1.3166234493255615,45,9888.0
12750,0.12017056345939636,-0.9904112815856934,-67,7807.0,-9.624524116516113,-231,9888.0
12760,0.1200246512889862,-0.18315622210502625,11,7807.0,-18.40399169921875,-370,9888.0
12770,0.11994850635528564,5.591253757476807,134,7807.0,-21.257997512817383,-285,9888.0
12780,0.11914962530136108,8.940367698669434,115,7807.0,-23.52956199645996,-426,9888.0
12790,0.11924275755882263,5.712264537811279,36,7807.0,-14.984148979187012,-126,9888.0
12800,0.11945158243179321,2.0117390155792236,148,7807.0,-5.599625587463379,-39,9888.0
12810,0.11967107653617859,3.5819079875946045,31,7807.0,3.9619996547698975,102,9888.0
12820,0.11993691325187683,6.468376636505127,155,7807.0,13.967803955078125,305,9888.0
12830,0.12044206261634827,8.598993301391602,111,7807.0,21.876432418823242,364,9888.0
12840,0.12074965238571167,9.589500427246094,211,7807.0,27.92343521118164,528,9888.0
12850,0.12117460370063782,12.129796028137207,254,7807.0,26.3499698638916,348,9888.0
12860,0.12148222327232361,10.260377883911133,58,7807.0,18.370389938354492,257,9888.0
12870,0.12100192904472351,4.094815254211426,78,7807.0,9.910091400146484,128,9888.0
12880,0.12122276425361633,-3.812290906906128,-20,7807.0,0.9112614393234253,-102,9888.0
12890,0.12143418192863464,-9.934730529785156,-242,7807.0,-5.224908828735352,-65,9888.0
12900,0.12157684564590454,-14.711236000061035,-223,7807.0,-4.59200382232666,-65,9888.0
12910,0.12165668606758118,-13.824997901916504,-191,7807.0,-8.964882850646973,-248,9888.0
12920,0.12330013513565063,-12.47409439086914,-209,7807.0,-13.847609519958496,-260,9888.0
12930,0.1233261227607727,-10.076696395874023,-113,7807.0,-19.659908294677734,-344,9888.0
12940,0.12339422106742859,-4.290380001068115,-86,7807.0,-22.765501022338867,-416,9888.0
12950,0.12341934442520142,0.2187623828649521,66,7807.0,-18.049541473388672,-272,9888.0
12960,0.12358418107032776,1.3936083316802979,52,7807.0,-10.275971412658691,-86,9888.0
12970,0.12370985746383667,6.092483043670654,87,7807.0,10.611059188842773,282,9888.0
12980,0.12397322058677673,2.751210927963257,23,7807.0,20.904949188232422,232,9888.0
12990,0.12437516450881958,-3.0039637088775635,-53,7807.0,20.861562728881836,465,9888.0
13000,0.12490195035934448,-8.080146789550781,-146,7807.0,16.79391860961914,145,9888.0
13010,0.12382921576499939,-7.875327110290527,-161,7807.0,5.474214553833008,94,9888.0
13020,0.12435245513916016,-8.388810157775879,-77,7807.0,-4.219637870788574,-111,9888.0
13030,0.12488517165184021,-4.342237949371338,-103,7807.0,-15.462401390075684,-329,9888.0
13040,0.12548097968101501,2.343196153640747,116,7807.0,-21.328508377075195,-322,9888.0
13050,0.1236538290977478,8.820528984069824,133,7807.0,-23.503524780273438,-454,9888.0
13060,0.1243237555027008,17.389501571655273,331,7807.0,-17.5925235748291,-203,9888.0
13070,0.12487378716468811,22.942195892333984,344,7807.0,-6.5851826667785645,-41,9888.0
13080,0.12537649273872375,21.735265731811523,382,7807.0,6.828053951263428,114,9888.0
13090,0.125410795211792,12.700311660766602,96,7807.0,16.99216651916504,375,9888.0
13100,0.1257053017616272,0.5220456123352051,62,7807.0,25.171138763427734,401,9888.0
13110,0.12586891651153564,-7.58836030960083,-142,7807.0,32.59247589111328,559,9888.0
13120,0.125788152217865,-11.874165534973145,-187,7807.0,35.720218658447266,544,9888.0
13130,0.12555834650993347,-14.751041412353516,-271,7807.0,33.153411865234375,582,9888.0
13140,0.1239919364452362,-15.990469932556152,-160,7807.0,24.359256744384766,357,9888.0
13150,0.12351265549659729,-10.941535949707031,-172,7807.0,10.712106704711914,30,9888.0
13160,0.12293866276741028,-6.146252632141113,11,7807.0,-12.18402099609375,-257,9888.0
13170,0.12244045734405518,3.2949161529541016,100,7807.0,-31.402082443237305,-637,9888.0
13180,0.1232568621635437,12.601212501525879,197,7807.0,-47.908592224121094,-772,9888.0
13190,0.1226789653301239,19.751510620117188,430,7807.0,-50.30537796020508,-780,9888.0
13200,0.12206825613975525,21.527767181396484,268,7807.0,-40.51786804199219,-533,9888.0
13210,0.12180191278457642,12.001434326171875,188,7807.0,-20.955766677856445,-283,9888.0
13220,0.11963886022567749,-1.8229291439056396,-95,7807.0,0.7141465544700623,152,9888.0
13230,0.11948207020759583,-17.295063018798828,-290,7807.0,16.180593490600586,212,9888.0
13240,0.1193440854549408,-26.668787002563477,-534,7807.0,25.293846130371094,469,9888.0
13250,0.11932653188705444,-33.91318893432617,-586,7807.0,28.669336318969727,356,9888.0
13260,0.1194172203540802,-32.44428634643555,-541,7807.0,22.869462966918945,371,9888.0
13270,0.11895191669464111,-29.4345645904541,-419,7807.0,16.481706619262695,277,9888.0
13280,0.1190621554851532,-29.746427536010742,-581,7807.0,8.519885063171387,105,9888.0
13290,0.11943420767784119,-25.163890838623047,-334,7807.0,-5.148765563964844,-81,9888.0
13300,0.11983102560043335,-5.327526569366455,6,7807.0,-18.03038787841797,-307,9888.0
13310,0.11971437931060791,9.541948318481445,189,7807.0,-19.132986068725586,-200,9888.0
13320,0.12007996439933777,23.874889373779297,493,7807.0,-16.09176254272461,-222,9888.0
13330,0.12040582299232483,34.6907844543457,560,7807.0,-7.603304386138916,-60,9888.0
13340,0.12064245343208313,36.732460021972656,628,7807.0,7.990310192108154,253,9888.0
13350,0.12092623114585876,29.956451416015625,346,7807.0,19.52223014831543,357,9888.0
13360,0.11847984790802002,8.751691818237305,81,7807.0,23.574260711669922,310,9888.0
13370,0.11862969398498535,-14.843099594116211,-292,7807.0,21.50019073486328,328,9888.0
13380,0.11866194009780884,-31.553077697753906,-546,7807.0,15.948562622070312,294,9888.0
13390,0.1185639500617981,-41.854801177978516,-758,7807.0,15.756278038024902,208,9888.0
13400,0.11967524886131287,-33.84850311279297,-494,7807.0,7.421123027801514,135,9888.0
13410,0.11953717470169067,-17.86833381652832,-181,7807.0,-3.58168363571167,-168,9888.0
13420,0.11947682499885559,1.2148517370224,33,7807.0,-15.421907424926758,-272,9888.0
13430,0.11936882138252258,19.12110137939453,377,7807.0,-22.675582885742188,-388,9888.0
13440,0.11944857239723206,20.47972297668457,325,7807.0,-28.12277603149414,-645,9888.0
13450,0.1194143295288086,14.75043773651123,221,7807.0,-30.50887680053711,-350,9888.0
13460,0.11948546767234802,5.5589165687561035,65,7807.0,-19.14240264892578,-299,9888.0
13470,0.11965787410736084,1.7032550573349,-17,7807.0,-6.171271324157715,-2,9888.0
13480,0.11976978182792664,-3.6384758949279785,-75,7807.0,5.183676242828369,140,9888.0
13490,0.11910951137542725,-7.8972249031066895,-208,7807.0,16.35623550415039,377,9888.0
13500,0.11936357617378235,-16.12154769897461,-292,7807.0,22.294179916381836,324,9888.0
13510,0.11971667408943176,-26.186521530151367,-489,7807.0,29.674074172973633,565,9888.0
13520,0.12012651562690735,-33.1351318359375,-545,7807.0,32.85777282714844,585,9888.0
13530,0.12097463011741638,-31.546031951904297,-490,7807.0,28.41547966003418,288,9888.0
13540,0.12144669890403748,-15.589807510375977,-127,7807.0,11.425808906555176,87,9888.0
13550,0.12198781967163086,5.745429515838623,169,7807.0,-9.51755428314209,-96,9888.0
13560,0.12253326177597046,20.803970336914062,453,7807.0,-20.48586654663086,-423,9888.0
13570,0.12307056784629822,28.048830032348633,485,7807.0,-28.80001449584961,-481,9888.0
13580,0.12270179390907288,32.31025695800781,561,7807.0,-31.747970581054688,-564,9888.0
13590,0.12292253971099854,26.64119529724121,423,7807.0,-27.22344398498535,-394,9888.0
13600,0.1231130063533783,18.082408905029297,247,7807.0,-14.435094833374023,-164,9888.0
13610,0.12321850657463074,11.360065460205078,145,7807.0,3.489455461502075,122,9888.0
13620,0.12378671765327454,5.324674606323242,45,7807.0,14.445389747619629,345,9888.0
13630,0.12361782789230347,-3.1209616661071777,-77,7807.0,19.88019561767578,161,9888.0
13640,0.12338057160377502,-6.897640228271484,-135,7807.0,11.31806755065918,228,9888.0
13650,0.12307074666023254,-6.349477767944336,-22,7807.0,-0.4568282961845398,-65,9888.0
13660,0.12273547053337097,-2.934913158416748,-69,7807.0,-11.783679962158203,-189,9888.0
13670,0.12279471755027771,-0.4761877954006195,3,7807.0,-12.345354080200195,-27,9888.0
13680,0.12248077988624573,1.8265992403030396,18,7807.0,-3.1895439624786377,-121,9888.0
13690,0.12221828103065491,2.911543369293213,34,7807.0,2.2881863117218018,115,9888.0
13700,0.12208059430122375,1.1039700508117676,61,7807.0,8.59935474395752,146,9888.0
13710,0.12158200144767761,0.5946832895278931,-3,7807.0,5.831051826477051,43,9888.0
13720,0.12168315052986145,2.615173101425171,141,7807.0,3.114424705505371,19,9888.0
13730,0.12186646461486816,5.544068336486816,38,7807.0,-5.942776679992676,-176,9888.0
13740,0.12212944030761719,-0.4046592712402344,-29,7807.0,-10.759815216064453,-138,9888.0
13750,0.12257751822471619,-10.09514331817627,-203,7807.0,-7.328261852264404,-219,9888.0
13760,0.12297338247299194,-24.801380157470703,-431,7807.0,-4.157966136932373,29,9888.0
13770,0.123385488986969,-29.782453536987305,-402,7807.0,-0.043827272951602936,-37,9888.0
13780,0.12380722165107727,-20.655710220336914,-343,7807.0,4.855585098266602,169,9888.0
13790,0.12410613894462585,-1.8685306310653687,66,7807.0,12.074361801147461,315,9888.0
13800,0.12377440929412842,8.672775268554688,214,7807.0,20.27349853515625,255,9888.0
13810,0.12385106086730957,14.631667137145996,219,7807.0,21.905162811279297,451,9888.0
13820,0.12387299537658691,13.983800888061523,242,7807.0,20.45624542236328,350,9888.0
13830,0.12387463450431824,11.68132495880127,163,7807.0,17.382902145385742,130,9888.0
13840,0.12461456656455994,10.559453010559082,213,7807.0,4.4651665687561035,119,9888.0
13850,0.12446936964988708,15.41453742980957,257,7807.0,-13.306506156921387,-344,9888.0
13860,0.12429410219192505,23.211214065551758,369,7807.0,-34.83292770385742,-598,9888.0
13870,0.12405791878700256,32.07970428466797,662,7807.0,-45.99909210205078,-733,9888.0
13880,0.12372148036956787,38.61259841918945,576,7807.0,-39.10905838012695,-562,9888.0
13890,0.12364333868026733,28.644479751586914,369,7807.0,-32.553016662597656,-495,9888.0
13900,0.12332543730735779,11.758611679077148,98,7807.0,-19.349348068237305,-223,9888.0
13910,0.12320423126220703,-12.20082950592041,-235,7807.0,4.535293102264404,69,9888.0
13920,0.12302416563034058,-31.87413787841797,-631,7807.0,22.950353622436523,531,9888.0
13930,0.12273198366165161,-44.564598083496094,-716,7807.0,32.784828186035156,465,9888.0
13940,0.12244942784309387,-47.727901458740234,-750,7807.0,32.66273880004883,506,9888.0
13950,0.12218084931373596,-38.98262405395508,-504,7807.0,16.822078704833984,159,9888.0
13960,0.12214446067810059,-29.882814407348633,-499,7807.0,0.16751615703105927,-153,9888.0
13970,0.12153241038322449,-18.654651641845703,-297,7807.0,-20.16619873046875,-348,9888.0
13980,0.12156930565834045,-12.89404296875,-162,7807.0,-26.90863800048828,-456,9888.0
