timestamp,kalman.stateZ,gyro.x,gyro.xRaw,gyro.xVariance,gyro.y,gyro.yRaw,gyro.yVariance
0,0.3228828012943268,0.6338367462158203,13,6731.0,-0.7365392446517944,-12,9951.0
10,0.32289716601371765,-0.1497373878955841,1,6731.0,-1.1057615280151367,-23,9951.0
20,0.3229151666164398,0.26336780190467834,5,6731.0,-1.2799862623214722,-21,9951.0
30,0.3237359821796417,0.3124369978904724,3,6731.0,-1.9773011207580566,-27,9951.0
40,0.3238094747066498,-0.38748154044151306,-8,6731.0,-1.8984323740005493,-32,9951.0
50,0.3238908648490906,-0.2557205855846405,-5,6731.0,-2.6022768020629883,-51,9951.0
60,0.3239882290363312,-0.42554348707199097,-3,6731.0,-3.194150447845459,-50,9951.0
70,0.3235984444618225,-0.43992820382118225,-12,6731.0,-3.5938727855682373,-52,9951.0
80,0.3236684799194336,-0.8245182633399963,-7,6731.0,-3.699723482131958,-60,9951.0
90,0.3237769305706024,-0.16718311607837677,0,6731.0,-4.12660026550293,-58,9951.0
100,0.32388967275619507,-0.30851876735687256,3,6731.0,-4.148036956787109,-61,9951.0
110,0.323975145816803,0.16326381266117096,8,6731.0,-4.038377285003662,-66,9951.0
120,0.3244321048259735,1.1710115671157837,17,6731.0,-4.366541385650635,-64,9951.0
130,0.324524462223053,0.8271902203559875,9,6731.0,-3.730959415435791,-61,9951.0
140,0.3246094584465027,0.23731517791748047,1,6731.0,-3.511028528213501,-52,9951.0
150,0.324688196182251,-0.12964780628681183,-2,6731.0,-3.3379218578338623,-45,9951.0
160,0.32412147521972656,-1.0011931657791138,-13,6731.0,-2.779876947402954,-44,9951.0
170,0.32416653633117676,-0.8086129426956177,-6,6731.0,-2.538057565689087,-35,9951.0
180,0.3242581784725189,0.37634116411209106,8,6731.0,-2.5270426273345947,-39,9951.0
190,0.324332594871521,-0.7229368686676025,-10,6731.0,-4.121943473815918,-83,9951.0
200,0.3238384425640106,1.1835851669311523,20,6731.0,-6.958430290222168,-137,9951.0
210,0.32392898201942444,4.123641014099121,58,6731.0,-15.232024192810059,-293,9951.0
220,0.324196994304657,3.2069358825683594,45,6731.0,-23.49022102355957,-458,9951.0
230,0.3244022727012634,6.201932907104492,92,6731.0,-37.587738037109375,-657,9951.0
240,0.3250550329685211,4.530127048492432,11,6731.0,-52.890228271484375,-889,9951.0
250,0.3245916962623596,2.2165377140045166,26,6731.0,-56.32894515991211,-998,9951.0
260,0.32492080330848694,2.7910890579223633,18,6731.0,-58.77503204345703,-869,9951.0
270,0.3259746730327606,3.472079038619995,65,6731.0,-50.4060173034668,-718,9951.0
280,0.32680511474609375,4.978017330169678,46,6731.0,-34.928436279296875,-313,9951.0
290,0.32753247022628784,6.110288619995117,61,6731.0,-13.75493335723877,-169,9951.0
300,0.32845813035964966,8.638655662536621,126,6731.0,4.351511001586914,142,9951.0
310,0.32961708307266235,8.105024337768555,139,6731.0,21.079999923706055,517,9951.0
320,0.33043530583381653,5.2797932624816895,89,6731.0,33.015193939208984,505,9951.0
330,0.33164358139038086,2.4560225009918213,22,6731.0,34.35971450805664,503,9951.0
340,0.3326595723628998,-1.1599417924880981,46,6731.0,27.650117874145508,304,9951.0
350,0.33368831872940063,-1.5160084962844849,-49,6731.0,13.573883056640625,173,9951.0
360,0.3347418010234833,-0.47387269139289856,2,6731.0,-0.7532472610473633,7,9951.0
370,0.3356529474258423,3.050848960876465,-69,6731.0,-14.122204780578613,-138,9951.0
380,0.3378022015094757,3.841937780380249,-17,6731.0,-19.890304565429688,-302,9951.0
390,0.33876296877861023,5.38294792175293,115,6731.0,-21.28645896911621,-457,9951.0
400,0.33955588936805725,4.0446085929870605,52,6731.0,-18.600177764892578,-398,9951.0
410,0.34055668115615845,0.8353700637817383,70,6731.0,-12.952360153198242,-246,9951.0
420,0.34165990352630615,-3.1359610557556152,1,6731.0,-4.559836387634277,-75,9951.0
430,0.3425540030002594,-6.243193626403809,-2,6731.0,8.418197631835938,196,9951.0
440,0.3438956141471863,-7.975069046020508,-76,6731.0,18.681699752807617,321,9951.0
450,0.3451177775859833,-6.129336833953857,-160,6731.0,29.75063133239746,543,9951.0
460,0.34616246819496155,-6.497864246368408,-216,6731.0,33.77061462402344,708,9951.0
470,0.3470456898212433,-4.921980381011963,-139,6731.0,38.043827056884766,763,9951.0
480,0.34800416231155396,-5.029801368713379,-49,6731.0,35.36833953857422,519,9951.0
490,0.3488277494907379,1.3084741830825806,70,6731.0,33.010009765625,370,9951.0
500,0.3495396673679352,3.612855911254883,87,6731.0,25.244482040405273,376,9951.0
510,0.3508824110031128,4.651382923126221,34,6731.0,19.82253074645996,392,9951.0
520,0.3512535095214844,3.2028541564941406,77,6731.0,11.665307998657227,269,9951.0
530,0.3514348268508911,2.196199417114258,30,6731.0,4.078630447387695,-88,9951.0
540,0.35136330127716064,2.583432912826538,57,6731.0,-3.103376865386963,-153,9951.0
550,0.35299378633499146,3.548776149749756,106,6731.0,-8.97659683227539,-123,9951.0
560,0.35260921716690063,5.233567714691162,61,6731.0,-11.340402603149414,-35,9951.0
570,0.35216283798217773,6.55516242980957,43,6731.0,-11.697092056274414,-99,9951.0
580,0.351535826921463,4.689046859741211,38,6731.0,-9.583562850952148,-269,9951.0
590,0.3506978452205658,2.8576481342315674,101,6731.0,-7.324354648590088,-293,9951.0
600,0.35053732991218567,2.6976540088653564,69,6731.0,-7.483143329620361,-174,9951.0
610,0.349324107170105,2.071715831756592,-28,6731.0,-7.622127532958984,-23,9951.0
620,0.34818214178085327,2.32013201713562,-24,6731.0,-5.7876129150390625,-174,9951.0
630,0.3468623459339142,0.27201661467552185,96,6731.0,-7.74003791809082,-174,9951.0
640,0.3489908277988434,1.2115358114242554,32,6731.0,-11.73548698425293,-142,9951.0
650,0.34774959087371826,1.2513113021850586,-10,6731.0,-12.990066528320312,-170,9951.0
660,0.34666991233825684,1.1162132024765015,44,6731.0,-18.5181884765625,-415,9951.0
670,0.3454671800136566,-0.961522102355957,21,6731.0,-22.933914184570312,-299,9951.0
680,0.3442390561103821,-3.4149365425109863,-118,6731.0,-25.365585327148438,-352,9951.0
690,0.34671151638031006,-5.577980995178223,-57,6731.0,-26.51633071899414,-489,9951.0
700,0.3458261787891388,-5.753325939178467,-77,6731.0,-23.00863265991211,-272,9951.0
710,0.3449881970882416,-5.430783748626709,-106,6731.0,-20.891603469848633,-244,9951.0
720,0.3442424535751343,-3.699390172958374,-78,6731.0,-18.280231475830078,-321,9951.0
730,0.34667322039604187,-3.615279197692871,32,6731.0,-13.620816230773926,-211,9951.0
740,0.34642040729522705,-0.6257210373878479,3,6731.0,-9.708219528198242,-31,9951.0
750,0.346124529838562,1.2564001083374023,-58,6731.0,-5.706870079040527,-53,9951.0
760,0.34578484296798706,1.2955306768417358,83,6731.0,-2.772282361984253,-79,9951.0
770,0.3489421606063843,0.6676819920539856,1,6731.0,1.2440133094787598,-75,9951.0
780,0.3490585684776306,-1.674631953239441,-2,6731.0,5.792327880859375,189,9951.0
790,0.3492146134376526,-2.667454719543457,-137,6731.0,6.498120307922363,206,9951.0
800,0.3494279384613037,-4.782566070556641,-40,6731.0,8.109618186950684,41,9951.0
810,0.34988731145858765,-5.438477993011475,-8,6731.0,6.919308185577393,173,9951.0
820,0.3506011962890625,-3.0009167194366455,-27,6731.0,9.008099555969238,203,9951.0
830,0.3511110842227936,0.26601824164390564,-44,6731.0,8.169024467468262,163,9951.0
840,0.3515312373638153,0.14424006640911102,70,6731.0,11.085601806640625,67,9951.0
850,0.3520343005657196,-1.448937177658081,62,6731.0,11.141219139099121,230,9951.0
860,0.3530478775501251,1.3050768375396729,-11,6731.0,11.8942289352417,257,9951.0
870,0.353613018989563,3.2269444465637207,1,6731.0,15.249225616455078,159,9951.0
880,0.3540891110897064,3.2775070667266846,68,6731.0,18.272560119628906,157,9951.0
890,0.3546464443206787,4.3738250732421875,28,6731.0,16.593917846679688,261,9951.0
900,0.3551356792449951,0.8327860832214355,12,6731.0,18.152597427368164,360,9951.0
910,0.3546479344367981,1.2321864366531372,-41,6731.0,15.168213844299316,246,9951.0
920,0.3548116087913513,1.0275495052337646,82,6731.0,13.194466590881348,145,9951.0
930,0.3549249470233917,1.1024657487869263,106,6731.0,8.054845809936523,60,9951.0
940,0.35503697395324707,1.6698012351989746,16,6731.0,1.446338176727295,53,9951.0
950,0.3550902307033539,2.8280303478240967,-22,6731.0,-1.9866245985031128,-80,9951.0
960,0.3551689088344574,4.386805534362793,54,6731.0,-4.330367565155029,-185,9951.0
970,0.35519087314605713,4.134861469268799,138,6731.0,-9.251235961914062,-176,9951.0
980,0.35522356629371643,4.058516979217529,-16,6731.0,-12.40088176727295,-46,9951.0
990,0.35500022768974304,2.144838809967041,-31,6731.0,-13.469603538513184,-87,9951.0
1000,0.3547673523426056,-0.5306583642959595,24,6731.0,-12.590705871582031,-244,9951.0
1010,0.35458904504776,-0.34779131412506104,64,6731.0,-10.814720153808594,-225,9951.0
1020,0.3543691337108612,0.27556535601615906,42,6731.0,-10.401512145996094,-105,9951.0
1030,0.35411620140075684,1.8374710083007812,-48,6731.0,-9.48523998260498,-86,9951.0
1040,0.3524768054485321,0.1642555445432663,-91,6731.0,-6.5769476890563965,-121,9951.0
1050,0.3519589602947235,-2.6383535861968994,-89,6731.0,-5.846043586730957,-183,9951.0
1060,0.3513953983783722,-6.793055534362793,-45,6731.0,-5.053245544433594,-185,9951.0
1070,0.35076287388801575,-3.88089656829834,-93,6731.0,-4.58984375,3,9951.0
1080,0.3495018780231476,-4.018834590911865,-126,6731.0,-4.458362102508545,40,9951.0
1090,0.3487268388271332,-2.5741984844207764,-101,6731.0,-3.07787823677063,16,9951.0
1100,0.3479148745536804,-2.817539691925049,40,6731.0,-3.6465542316436768,-128,9951.0
1110,0.34719112515449524,-2.366802453994751,84,6731.0,-2.470961809158325,-23,9951.0
1120,0.34659141302108765,-0.5483317375183105,-58,6731.0,-6.022369861602783,-10,9951.0
1130,0.34586775302886963,-1.2349071502685547,-100,6731.0,-2.2703652381896973,38,9951.0
1140,0.34534862637519836,-1.7204803228378296,13,6731.0,0.6961919665336609,-171,9951.0
1150,0.3448784351348877,-2.3130624294281006,84,6731.0,3.375364065170288,43,9951.0
1160,0.3444330096244812,1.011452078819275,-27,6731.0,5.009565353393555,144,9951.0
1170,0.3443715274333954,0.48397350311279297,-60,6731.0,9.703874588012695,216,9951.0
1180,0.3442346751689911,-0.7940589785575867,-5,6731.0,11.695870399475098,94,9951.0
1190,0.34427380561828613,-0.7843432426452637,44,6731.0,14.227880477905273,233,9951.0
1200,0.344367116689682,1.0264308452606201,-25,6731.0,11.857776641845703,259,9951.0
1210,0.3450901210308075,0.8186594247817993,-30,6731.0,11.291179656982422,197,9951.0
1220,0.3452737033367157,1.318785548210144,68,6731.0,9.573296546936035,86,9951.0
1230,0.34550741314888,1.6076531410217285,55,6731.0,7.524290561676025,239,9951.0
1240,0.34584030508995056,2.511094331741333,6,6731.0,5.5340189933776855,184,9951.0
1250,0.3462914526462555,1.277277946472168,38,6731.0,2.551891803741455,-3,9951.0
1260,0.3470756411552429,3.0159568786621094,110,6731.0,-2.9716885089874268,-112,9951.0
1270,0.34757909178733826,1.473104476928711,53,6731.0,-6.771104335784912,-2,9951.0
1280,0.34801098704338074,1.9262136220932007,-70,6731.0,-7.788579940795898,-73,9951.0
1290,0.34829258918762207,-0.09731695801019669,-66,6731.0,-6.681138515472412,-158,9951.0
1300,0.3498880863189697,-1.8801029920578003,4,6731.0,-4.649036884307861,-171,9951.0
1310,0.3500552475452423,-0.960099995136261,-44,6731.0,-2.188490867614746,76,9951.0
1320,0.35021352767944336,1.2487382888793945,-66,6731.0,0.06184563785791397,152,9951.0
1330,0.35029903054237366,2.1643121242523193,-41,6731.0,3.892744541168213,103,9951.0
1340,0.35025209188461304,2.212543487548828,80,6731.0,5.0520501136779785,96,9951.0
1350,0.35118424892425537,2.4383275508880615,90,6731.0,6.150930881500244,95,9951.0
1360,0.35102686285972595,-0.4280710220336914,56,6731.0,4.440408229827881,207,9951.0
1370,0.3507835566997528,0.7134813666343689,-58,6731.0,3.7507965564727783,107,9951.0
1380,0.35050168633461,2.116888999938965,-21,6731.0,0.7477505207061768,-92,9951.0
1390,0.3527480661869049,1.4469712972640991,4,6731.0,0.6520240306854248,-243,9951.0
1400,0.352422833442688,3.893043041229248,155,6731.0,-5.027192115783691,-8,9951.0
1410,0.3519654870033264,4.121403694152832,112,6731.0,-5.114294528961182,-8,9951.0
1420,0.351401150226593,2.555692672729492,-1,6731.0,-4.391931056976318,-100,9951.0
1430,0.3521084189414978,0.583954393863678,15,6731.0,-7.84568452835083,-180,9951.0
1440,0.3515971601009369,-2.8707163333892822,-34,6731.0,-6.0529255867004395,-83,9951.0
1450,0.35103949904441833,-6.475302219390869,-10,6731.0,-2.440941572189331,-84,9951.0
1460,0.3503991961479187,-4.486097812652588,-90,6731.0,-1.3205980062484741,-10,9951.0
1470,0.34971579909324646,-3.1359236240386963,-84,6731.0,3.0260040760040283,69,9951.0
1480,0.3499898910522461,-2.029498815536499,-61,6731.0,5.7063751220703125,-56,9951.0
1490,0.3495604991912842,0.9008122086524963,91,6731.0,4.079356670379639,24,9951.0
1500,0.3490926921367645,3.2979860305786133,55,6731.0,5.802019119262695,141,9951.0
1510,0.3486221134662628,3.8932249546051025,2,6731.0,5.49871301651001,197,9951.0
1520,0.3498813807964325,-1.0330075025558472,-43,6731.0,6.003281593322754,30,9951.0
1530,0.3495461046695709,-3.933401584625244,6,6731.0,4.407747745513916,25,9951.0
1540,0.3492444157600403,-6.651411056518555,-109,6731.0,2.1360318660736084,67,9951.0
1550,0.3490447402000427,-6.049469947814941,-153,6731.0,0.5920706391334534,43,9951.0
1560,0.3489707410335541,-4.935684680938721,-21,6731.0,-0.8102760910987854,-169,9951.0
1570,0.34818071126937866,-2.7472422122955322,32,6731.0,-0.975152850151062,14,9951.0
1580,0.34822964668273926,0.3224233388900757,-41,6731.0,-1.1715984344482422,-2,9951.0
1590,0.34825587272644043,1.953855037689209,-9,6731.0,0.28989750146865845,-60,9951.0
1600,0.3482673168182373,2.230482816696167,74,6731.0,1.995746374130249,-73,9951.0
1610,0.3478042483329773,3.4354119300842285,22,6731.0,1.7730692625045776,96,9951.0
1620,0.3480415344238281,2.9786269664764404,-8,6731.0,2.13590407371521,124,9951.0
1630,0.34832963347435,1.1461108922958374,-71,6731.0,-0.04941713064908981,4,9951.0
1640,0.3487681746482849,-1.8099451065063477,43,6731.0,-2.8348841667175293,-108,9951.0
1650,0.34794849157333374,-1.4133813381195068,-9,6731.0,-4.321171283721924,22,9951.0
1660,0.34831714630126953,-1.6707148551940918,-60,6731.0,-2.0590145587921143,126,9951.0
1670,0.3485923707485199,1.3096177577972412,14,6731.0,-4.9425578117370605,-93,9951.0
1680,0.3488948345184326,3.163099765777588,100,6731.0,-2.122337579727173,-170,9951.0
1690,0.34922298789024353,4.139992713928223,127,6731.0,-4.51682710647583,-131,9951.0
1700,0.34991690516471863,3.825535774230957,-16,6731.0,-7.058887481689453,3,9951.0
1710,0.35028067231178284,3.921388626098633,-18,6731.0,-5.954348087310791,-48,9951.0
1720,0.35051628947257996,1.7159756422042847,-31,6731.0,-3.174529552459717,-45,9951.0
1730,0.35069480538368225,-0.1282409429550171,35,6731.0,-3.5808799266815186,-91,9951.0
1740,0.34938696026802063,-1.5918011665344238,43,6731.0,-0.8128973841667175,-115,9951.0
1750,0.34947025775909424,-3.0453436374664307,32,6731.0,-0.5541966557502747,96,9951.0
1760,0.3495253324508667,-2.3436057567596436,-77,6731.0,1.4478987455368042,102,9951.0
1770,0.3494545519351959,-1.0892513990402222,-90,6731.0,4.191758632659912,78,9951.0
1780,0.34936901926994324,0.6905120611190796,-36,6731.0,6.555882453918457,12,9951.0
1790,0.34960901737213135,-1.4199247360229492,31,6731.0,5.268020153045654,-36,9951.0
1800,0.34955033659935,-0.5277316570281982,53,6731.0,3.949416399002075,74,9951.0
1810,0.34935858845710754,-1.2570719718933105,-15,6731.0,2.8315463066101074,166,9951.0
1820,0.3490632474422455,-1.5509085655212402,-50,6731.0,1.9792166948318481,92,9951.0
1830,0.3483635485172272,-3.065995931625366,-55,6731.0,1.7707655429840088,19,9951.0
1840,0.3480928838253021,-0.1941618025302887,27,6731.0,2.553802728652954,-131,9951.0
1850,0.347793310880661,-0.4039832353591919,70,6731.0,3.0013365745544434,43,9951.0
1860,0.3473937511444092,1.2134419679641724,5,6731.0,3.6607093811035156,117,9951.0
1870,0.34777581691741943,-0.20926350355148315,-89,6731.0,6.2483134269714355,306,9951.0
1880,0.3474435806274414,-2.2736785411834717,-4,6731.0,4.330185413360596,81,9951.0
1890,0.3471928536891937,-1.7191323041915894,65,6731.0,6.6968536376953125,42,9951.0
1900,0.34692564606666565,-0.9751522541046143,103,6731.0,8.504267692565918,28,9951.0
1910,0.34659531712532043,-0.8347633481025696,-36,6731.0,3.19224214553833,52,9951.0
1920,0.3464117646217346,0.5340079069137573,-82,6731.0,0.9556352496147156,149,9951.0
1930,0.34617164731025696,0.26149657368659973,-61,6731.0,2.986678123474121,-26,9951.0
1940,0.34611132740974426,0.010983537882566452,86,6731.0,-1.0674042701721191,2,9951.0
1950,0.34605899453163147,1.2661954164505005,63,6731.0,-1.7778528928756714,58,9951.0
1960,0.3459451198577881,2.4392786026000977,6,6731.0,-0.03635710850358009,93,9951.0
1970,0.34584754705429077,2.385774850845337,56,6731.0,-2.164595127105713,-97,9951.0
1980,0.34581807255744934,1.3129017353057861,69,6731.0,-1.5940388441085815,-118,9951.0
1990,0.3458848297595978,2.2007334232330322,66,6731.0,-0.44024375081062317,-1,9951.0
2000,0.3460884094238281,2.5650808811187744,-63,6731.0,-1.1824883222579956,54,9951.0
2010,0.34753093123435974,1.7879612445831299,-41,6731.0,-1.2621161937713623,71,9951.0
2020,0.34778645634651184,1.1099607944488525,18,6731.0,-2.611722469329834,-80,9951.0
2030,0.3480263948440552,-0.9609014391899109,80,6731.0,-1.9777156114578247,-42,9951.0
2040,0.3482380509376526,0.257980614900589,58,6731.0,-3.240408420562744,-169,9951.0
2050,0.34799909591674805,0.48394596576690674,-69,6731.0,-4.392173767089844,-45,9951.0
2060,0.3482379913330078,0.5859510898590088,-47,6731.0,-6.716343879699707,23,9951.0
2070,0.3484962582588196,0.7243896126747131,-14,6731.0,-5.852829456329346,7,9951.0
2080,0.34869304299354553,-0.28671950101852417,56,6731.0,-4.664946556091309,-112,9951.0
2090,0.3481096923351288,0.2172168642282486,89,6731.0,-4.654186248779297,-147,9951.0
2100,0.34824368357658386,-1.1450177431106567,70,6731.0,-4.89092493057251,-143,9951.0
2110,0.34833410382270813,-1.11710786819458,-87,6731.0,-1.9904855489730835,50,9951.0
2120,0.3483986556529999,-2.1908373832702637,-161,6731.0,-0.5057770609855652,130,9951.0
2130,0.3485439717769623,-3.089994192123413,-131,6731.0,1.8949521780014038,134,9951.0
2140,0.3485807478427887,-4.332751750946045,-2,6731.0,3.813411235809326,92,9951.0
2150,0.3488350808620453,-2.147101640701294,33,6731.0,4.362149238586426,-15,9951.0
2160,0.3489934206008911,-0.19807098805904388,88,6731.0,3.797358512878418,38,9951.0
2170,0.3491453528404236,1.8745088577270508,-2,6731.0,6.46749210357666,89,9951.0
2180,0.34812793135643005,3.0669686794281006,-36,6731.0,4.302792072296143,135,9951.0
2190,0.3483358919620514,2.3936476707458496,-28,6731.0,5.034796714782715,215,9951.0
2200,0.3485180139541626,-0.49445104598999023,37,6731.0,4.351228713989258,22,9951.0
2210,0.34868142008781433,-1.5389564037322998,50,6731.0,4.172474384307861,-67,9951.0
2220,0.3488309979438782,-4.432139873504639,41,6731.0,2.398245334625244,-94,9951.0
2230,0.3482544422149658,-3.0932157039642334,-67,6731.0,2.0489614009857178,35,9951.0
2240,0.34834524989128113,-1.4775041341781616,-86,6731.0,2.232539176940918,232,9951.0
2250,0.34836095571517944,-0.099930040538311,-19,6731.0,0.55633544921875,142,9951.0
2260,0.34844139218330383,1.2793952226638794,34,6731.0,2.065802812576294,-16,9951.0
2270,0.347188264131546,0.9141560792922974,52,6731.0,2.1116554737091064,-122,9951.0
2280,0.3472342789173126,0.2087310254573822,39,6731.0,1.5496412515640259,-59,9951.0
2290,0.3471694886684418,0.4326709806919098,-49,6731.0,-0.970108151435852,22,9951.0
2300,0.347126841545105,0.16692300140857697,-44,6731.0,-0.37917083501815796,172,9951.0
2310,0.34668660163879395,-3.2096540927886963,-69,6731.0,0.5238684415817261,41,9951.0
2320,0.34669870138168335,-1.8283395767211914,-26,6731.0,0.011038786731660366,-51,9951.0
2330,0.34664490818977356,-0.9608672261238098,4,6731.0,1.0657627582550049,-146,9951.0
2340,0.3465754985809326,-1.1057418584823608,62,6731.0,-1.3172199726104736,-103,9951.0
2350,0.3465273678302765,1.4789153337478638,52,6731.0,-1.852113962173462,70,9951.0
2360,0.34711045026779175,2.911259174346924,75,6731.0,-3.4133613109588623,134,9951.0
2370,0.34709346294403076,3.175196647644043,44,6731.0,-4.617035388946533,-44,9951.0
2380,0.34697309136390686,3.812840700149536,42,6731.0,-4.436851501464844,-126,9951.0
2390,0.3469172716140747,2.3254458904266357,45,6731.0,-3.4905455112457275,-210,9951.0
2400,0.34594252705574036,0.5393173098564148,18,6731.0,-3.523390769958496,-6,9951.0
2410,0.3458561301231384,2.0530097484588623,80,6731.0,-3.4326086044311523,106,9951.0
2420,0.3457183241844177,0.9238890409469604,22,6731.0,-3.0779011249542236,65,9951.0
2430,0.34566730260849,-0.1515445113182068,-59,6731.0,-0.5406800508499146,57,9951.0
2440,0.3457368016242981,0.5500006675720215,-57,6731.0,1.1414837837219238,-77,9951.0
2450,0.3467358946800232,-0.11351269483566284,-20,6731.0,1.7082325220108032,-64,9951.0
2460,0.3467969596385956,-1.1450473070144653,54,6731.0,4.121927738189697,31,9951.0
2470,0.34696924686431885,-1.5373492240905762,75,6731.0,3.4164981842041016,102,9951.0
2480,0.3471095561981201,0.21365571022033691,15,6731.0,2.3469810485839844,140,9951.0
2490,0.34609535336494446,0.3069913387298584,-73,6731.0,3.788241386413574,65,9951.0
2500,0.346124529838562,0.8796805739402771,-52,6731.0,4.592605113983154,-24,9951.0
2510,0.346174418926239,-0.5887143611907959,14,6731.0,2.341050148010254,-20,9951.0
2520,0.3462776243686676,-1.520487666130066,55,6731.0,3.114955186843872,59,9951.0
2530,0.34584319591522217,0.30588972568511963,54,6731.0,1.6073713302612305,101,9951.0
2540,0.3458736836910248,0.10718505084514618,-31,6731.0,2.8561389446258545,148,9951.0
2550,0.3459177315235138,3.606224298477173,-82,6731.0,1.3171805143356323,58,9951.0
2560,0.34603768587112427,0.8548851609230042,-62,6731.0,4.556975364685059,13,9951.0
2570,0.3461873233318329,0.5981276631355286,43,6731.0,2.9710748195648193,34,9951.0
2580,0.34618350863456726,0.07694238424301147,119,6731.0,2.2626407146453857,-44,9951.0
2590,0.34617406129837036,-2.4332287311553955,51,6731.0,1.9982017278671265,35,9951.0
2600,0.3462277054786682,-1.97141695022583,-85,6731.0,0.5370264053344727,50,9951.0
2610,0.3462885916233063,-1.9077304601669312,-124,6731.0,1.9092048406600952,136,9951.0
2620,0.34657469391822815,-3.141166925430298,-95,6731.0,0.33133241534233093,118,9951.0
2630,0.34647807478904724,-2.618197202682495,30,6731.0,0.8122016787528992,-19,9951.0
2640,0.3463716506958008,-0.6631090044975281,68,6731.0,3.6466689109802246,-170,9951.0
2650,0.3463437259197235,-0.07310077548027039,23,6731.0,-0.4450347125530243,31,9951.0
2660,0.34625044465065,3.9573006629943848,13,6731.0,-0.44020986557006836,87,9951.0
2670,0.34593796730041504,3.5281307697296143,-17,6731.0,-1.4975600242614746,71,9951.0
2680,0.3457581400871277,1.2781277894973755,10,6731.0,-1.907718300819397,-19,9951.0
2690,0.34564098715782166,2.284050464630127,40,6731.0,-4.347002029418945,-157,9951.0
2700,0.345524400472641,0.17218339443206787,-11,6731.0,-5.121263027191162,-216,9951.0
2710,0.3459329605102539,-1.6949583292007446,15,6731.0,-4.038695335388184,-53,9951.0
2720,0.34580257534980774,-3.159672260284424,-22,6731.0,-1.15389883518219,69,9951.0
2730,0.3457223176956177,-2.246067523956299,26,6731.0,-1.5087701082229614,-79,9951.0
2740,0.34561413526535034,1.2456669807434082,-84,6731.0,-1.561966896057129,73,9951.0
2750,0.345412015914917,2.2254536151885986,-70,6731.0,0.9078435301780701,138,9951.0
2760,0.3454499840736389,0.7733572721481323,-43,6731.0,1.8384160995483398,59,9951.0
2770,0.3452911078929901,0.9612008333206177,83,6731.0,2.5879111289978027,25,9951.0
2780,0.34512630105018616,-0.23402093350887299,70,6731.0,2.5365591049194336,-143,9951.0
2790,0.3449200987815857,-0.7484310269355774,-7,6731.0,-0.966284990310669,-65,9951.0
2800,0.34558334946632385,-1.2678802013397217,-49,6731.0,-0.6256746649742126,114,9951.0
2810,0.3455725610256195,-1.615576148033142,-31,6731.0,-1.0945024490356445,152,9951.0
2820,0.34570950269699097,0.7088972330093384,-8,6731.0,-1.982552170753479,-16,9951.0
2830,0.34560295939445496,1.3084298372268677,10,6731.0,1.209851622581482,-110,9951.0
2840,0.3456268310546875,0.5568091869354248,52,6731.0,-0.6202805042266846,-180,9951.0
2850,0.3455887734889984,2.4308183193206787,51,6731.0,-0.21071086823940277,4,9951.0
2860,0.34562715888023376,1.5896955728530884,65,6731.0,-0.5733200907707214,111,9951.0
2870,0.3457013964653015,0.11490847170352936,-56,6731.0,-0.5292459726333618,36,9951.0
2880,0.3457392752170563,-1.7682749032974243,-125,6731.0,0.19733642041683197,29,9951.0
2890,0.3449738621711731,-1.3641421794891357,-101,6731.0,3.4044172763824463,-5,9951.0
2900,0.3449564576148987,-3.187182903289795,9,6731.0,2.8037002086639404,-56,9951.0
2910,0.34490829706192017,-1.866462230682373,84,6731.0,3.638510227203369,84,9951.0
2920,0.3448006212711334,-0.7878339290618896,99,6731.0,3.5998716354370117,135,9951.0
2930,0.34523528814315796,1.4377120733261108,-19,6731.0,5.795666217803955,110,9951.0
2940,0.34528443217277527,4.024009704589844,-83,6731.0,3.853088140487671,153,9951.0
2950,0.3453238010406494,2.6356911659240723,-23,6731.0,1.736498475074768,57,9951.0
2960,0.34528088569641113,0.6782870888710022,52,6731.0,-0.7586771249771118,-107,9951.0
2970,0.34596073627471924,0.32946857810020447,107,6731.0,-4.580215930938721,-153,9951.0
2980,0.3460998833179474,-1.0649796724319458,25,6731.0,-6.203956127166748,-119,9951.0
2990,0.3461991846561432,-1.1574715375900269,-90,6731.0,-5.662283897399902,-98,9951.0
3000,0.34620505571365356,-0.4494795501232147,-102,6731.0,-6.303700923919678,114,9951.0
3010,0.34619998931884766,-2.6778030395507812,-42,6731.0,-5.120782852172852,56,9951.0
3020,0.34612801671028137,0.7950497269630432,-19,6731.0,-1.262060284614563,-89,9951.0
3030,0.34600767493247986,0.23131521046161652,26,6731.0,0.9682091474533081,-96,9951.0
3040,0.3460082411766052,-0.37726500630378723,45,6731.0,3.4958367347717285,6,9951.0
3050,0.3455498218536377,0.8289892673492432,73,6731.0,4.478611946105957,69,9951.0
3060,0.34647679328918457,1.052839994430542,65,6731.0,5.171031951904297,194,9951.0
3070,0.3460952043533325,0.9046949744224548,-15,6731.0,5.816492557525635,132,9951.0
3080,0.34611019492149353,1.7756195068359375,-76,6731.0,4.777646064758301,107,9951.0
3090,0.34585142135620117,-0.7048856019973755,-64,6731.0,3.7045295238494873,121,9951.0
3100,0.3455713093280792,-0.6901865601539612,62,6731.0,0.41931673884391785,20,9951.0
3110,0.34479185938835144,-1.156838297843933,46,6731.0,0.04185721278190613,-181,9951.0
3120,0.344510555267334,-0.0602768138051033,33,6731.0,-1.5789598226547241,-99,9951.0
3130,0.3442460596561432,1.53195059299469,-17,6731.0,-5.337832927703857,-4,9951.0
3140,0.34409451484680176,0.98865807056427,-17,6731.0,-5.932896614074707,62,9951.0
3150,0.3451424539089203,-0.20929747819900513,-38,6731.0,-4.0455169677734375,32,9951.0
3160,0.3450900614261627,-1.4877601861953735,-37,6731.0,-2.6870362758636475,-75,9951.0
3170,0.3450382351875305,-1.4394718408584595,-51,6731.0,-0.6988227963447571,-152,9951.0
3180,0.34496915340423584,-0.635922372341156,74,6731.0,2.588470458984375,-66,9951.0
3190,0.3449021279811859,0.2234252691268921,81,6731.0,1.062540054321289,27,9951.0
3200,0.34476223587989807,-0.6927782297134399,52,6731.0,1.7850686311721802,71,9951.0
3210,0.3448544144630432,-1.1549067497253418,-86,6731.0,3.6849167346954346,115,9951.0
3220,0.3449156880378723,1.9939117431640625,-105,6731.0,3.8278284072875977,123,9951.0
3230,0.3449414074420929,0.07683414965867996,-12,6731.0,5.033872127532959,114,9951.0
3240,0.34452277421951294,2.002526044845581,61,6731.0,4.707322120666504,1,9951.0
3250,0.3445076644420624,0.5565752983093262,113,6731.0,3.498697519302368,-136,9951.0
3260,0.34453025460243225,-0.6677020192146301,64,6731.0,0.5657830238342285,-117,9951.0
3270,0.3445371389389038,-2.4648020267486572,-13,6731.0,-0.4823150634765625,35,9951.0
3280,0.34436309337615967,-1.9624874591827393,35,6731.0,-4.501303195953369,161,9951.0
3290,0.34453654289245605,-0.3489018976688385,-84,6731.0,-2.685983180999756,-24,9951.0
3300,0.3447849452495575,1.0213500261306763,-105,6731.0,-2.881822347640991,-56,9951.0
3310,0.34499338269233704,0.5408995151519775,-22,6731.0,-3.7943997383117676,-86,9951.0
3320,0.34509003162384033,-0.5155534148216248,58,6731.0,-2.453684091567993,-132,9951.0
3330,0.34549611806869507,-0.7541717886924744,114,6731.0,1.0048964023590088,-115,9951.0
3340,0.3456907272338867,-1.096370816230774,39,6731.0,-1.1626144647598267,-21,9951.0
3350,0.34564125537872314,-1.2235864400863647,35,6731.0,-0.3261365294456482,165,9951.0
3360,0.34557807445526123,1.5043224096298218,-48,6731.0,0.21030227839946747,208,9951.0
3370,0.34570926427841187,2.536186456680298,-20,6731.0,1.8432036638259888,125,9951.0
3380,0.345572829246521,2.4835240840911865,-66,6731.0,1.1327877044677734,184,9951.0
3390,0.3454071581363678,1.7670832872390747,-12,6731.0,0.7759133577346802,93,9951.0
3400,0.34532803297042847,1.6423940658569336,4,6731.0,4.390705108642578,-5,9951.0
3410,0.34443825483322144,0.9984011650085449,9,6731.0,0.6657754778862,-58,9951.0
3420,0.3443220555782318,-2.0569798946380615,4,6731.0,-0.870959997177124,-55,9951.0
3430,0.3442126214504242,-3.8057007789611816,40,6731.0,-2.484640121459961,-85,9951.0
3440,0.34413889050483704,-4.074824333190918,-1,6731.0,-5.176154136657715,-42,9951.0
3450,0.34402555227279663,-3.1119062900543213,-69,6731.0,-3.2722280025482178,-5,9951.0
3460,0.3435250222682953,0.13334150612354279,-31,6731.0,-3.2925662994384766,113,9951.0
3470,0.34337174892425537,1.4952188730239868,-24,6731.0,-0.4197338819503784,161,9951.0
3480,0.34355872869491577,4.55848503112793,72,6731.0,1.1560628414154053,53,9951.0
3490,0.34344303607940674,6.432947635650635,90,6731.0,3.4633257389068604,-50,9951.0
3500,0.34316226840019226,3.196697235107422,87,6731.0,4.087619781494141,-9,9951.0
3510,0.34301358461380005,2.1201634407043457,119,6731.0,3.0434327125549316,64,9951.0
3520,0.34284713864326477,-0.6188405752182007,37,6731.0,3.9778172969818115,29,9951.0
3530,0.34262871742248535,-3.7393698692321777,-85,6731.0,3.050034523010254,26,9951.0
3540,0.34241610765457153,-3.9139230251312256,-138,6731.0,-1.0293039083480835,106,9951.0
3550,0.34247979521751404,-4.533520221710205,-66,6731.0,-1.5752917528152466,150,9951.0
3560,0.3422683775424957,-2.6689157485961914,-74,6731.0,-2.026423454284668,-95,9951.0
3570,0.3420569598674774,-1.1850134134292603,-49,6731.0,-1.4168651103973389,-186,9951.0
3580,0.3419303894042969,0.8420500159263611,46,6731.0,-3.0129575729370117,-86,9951.0
3590,0.3436461091041565,3.1933388710021973,167,6731.0,-0.935554563999176,-64,9951.0
3600,0.3436211943626404,4.765604019165039,152,6731.0,-1.2829655408859253,-65,9951.0
3610,0.34358465671539307,3.035043478012085,-23,6731.0,-1.553519606590271,13,9951.0
3620,0.3435342013835907,1.9052371978759766,-19,6731.0,-2.8134567737579346,131,9951.0
3630,0.34368452429771423,-1.7030680179595947,-85,6731.0,-0.07950706779956818,89,9951.0
3640,0.34352949261665344,1.0407545566558838,-19,6731.0,-1.4820908308029175,-4,9951.0
3650,0.3433595895767212,-1.9930170774459839,-41,6731.0,2.3637595176696777,-83,9951.0
3660,0.34323784708976746,-0.14948758482933044,47,6731.0,1.7502825260162354,-22,9951.0
3670,0.34314918518066406,2.987880229949951,134,6731.0,3.773519515991211,-86,9951.0
3680,0.3441846966743469,1.3709627389907837,79,6731.0,2.480556011199951,87,9951.0
3690,0.34419482946395874,-0.15608710050582886,-90,6731.0,3.603667736053467,87,9951.0
3700,0.3441449701786041,-0.7264943718910217,-101,6731.0,2.378049612045288,202,9951.0
3710,0.3439464271068573,-3.927279472351074,-90,6731.0,2.2708423137664795,151,9951.0
3720,0.3445891737937927,-2.509323835372925,-50,6731.0,1.9505839347839355,4,9951.0
3730,0.34437569975852966,-2.299330711364746,-51,6731.0,0.1884237676858902,-118,9951.0
3740,0.3441818952560425,-2.0495998859405518,44,6731.0,-1.1721789836883545,-105,9951.0
3750,0.3439716696739197,0.7580277919769287,176,6731.0,-2.3688244819641113,-7,9951.0
3760,0.343828946352005,1.4861778020858765,95,6731.0,0.5019447207450867,-69,9951.0
3770,0.344184547662735,0.4035423994064331,-57,6731.0,-0.07249041646718979,-8,9951.0
3780,0.34402143955230713,1.5142594575881958,-67,6731.0,-0.2677974998950958,181,9951.0
3790,0.34379303455352783,-0.7536414861679077,-13,6731.0,-0.11286439746618271,109,9951.0
3800,0.3436180353164673,-2.9287004470825195,-76,6731.0,3.628283739089966,26,9951.0
3810,0.34283870458602905,-1.2670884132385254,-104,6731.0,3.733835220336914,-72,9951.0
3820,0.34256890416145325,3.0081961154937744,114,6731.0,5.587705135345459,46,9951.0
3830,0.342381089925766,3.5207927227020264,175,6731.0,4.1910014152526855,7,9951.0
3840,0.3422609269618988,2.1902012825012207,124,6731.0,3.5416462421417236,-45,9951.0
3850,0.34169337153434753,0.4582500159740448,-49,6731.0,3.5222601890563965,99,9951.0
3860,0.341617226600647,-0.060145240277051926,-105,6731.0,0.18738912045955658,238,9951.0
3870,0.34152504801750183,-2.3663320541381836,-108,6731.0,1.2404358386993408,70,9951.0
3880,0.34129852056503296,0.2470308542251587,-50,6731.0,0.854176938533783,-18,9951.0
3890,0.34092819690704346,-0.12666773796081543,-92,6731.0,-2.018749237060547,-62,9951.0
3900,0.34117159247398376,2.0535550117492676,96,6731.0,-5.628523826599121,-80,9951.0
3910,0.3407886028289795,1.8774921894073486,130,6731.0,-4.098429203033447,-215,9951.0
3920,0.3404635488986969,-0.9976204037666321,37,6731.0,-3.2347350120544434,-117,9951.0
3930,0.3402327299118042,1.0340300798416138,53,6731.0,-3.105550765991211,79,9951.0
3940,0.34048810601234436,-0.3866613507270813,36,6731.0,-1.3026123046875,83,9951.0
3950,0.3405391275882721,0.9527648091316223,-33,6731.0,-1.954474687576294,-14,9951.0
3960,0.3403559923171997,0.19697920978069305,-75,6731.0,-0.6768651604652405,50,9951.0
3970,0.34009113907814026,0.22607184946537018,-23,6731.0,-0.43345677852630615,32,9951.0
3980,0.3397924304008484,-2.5454373359680176,-12,6731.0,1.3065105676651,-35,9951.0
3990,0.3411000669002533,-0.7186010479927063,94,6731.0,4.507068634033203,-81,9951.0
4000,0.34083375334739685,-2.8115811347961426,30,6731.0,5.107604503631592,-22,9951.0
4010,0.340694397687912,1.4913948774337769,4,6731.0,1.7721836566925049,65,9951.0
4020,0.34070390462875366,-1.0706398487091064,99,6731.0,2.4416396617889404,-86,9951.0
4030,0.34114813804626465,0.8847733736038208,28,6731.0,2.42400860786438,63,9951.0
4040,0.34110698103904724,2.232495069503784,-86,6731.0,-1.102979302406311,117,9951.0
4050,0.34114745259284973,0.6182039976119995,-16,6731.0,-3.2358264923095703,40,9951.0
4060,0.341060608625412,0.7705512642860413,76,6731.0,-0.7880444526672363,-85,9951.0
4070,0.3413585126399994,1.637054443359375,-73,6731.0,-2.6037118434906006,-196,9951.0
4080,0.3413736820220947,-0.5377265810966492,53,6731.0,-2.9371135234832764,-47,9951.0
4090,0.34145036339759827,-1.1695902347564697,70,6731.0,-2.179032564163208,-123,9951.0
4100,0.34149423241615295,-2.75738263130188,24,6731.0,0.2531386911869049,-143,9951.0
4110,0.3415202498435974,-1.4571948051452637,-42,6731.0,0.5960610508918762,-9,9951.0
4120,0.34289976954460144,2.0470211505889893,42,6731.0,-2.5567400455474854,115,9951.0
4130,0.34287142753601074,0.17305952310562134,-10,6731.0,2.4060535430908203,45,9951.0
4140,0.34280553460121155,0.6911752223968506,-124,6731.0,4.8354363441467285,156,9951.0
4150,0.34277966618537903,-0.38952937722206116,-48,6731.0,4.389054775238037,265,9951.0
4160,0.34287846088409424,0.25253257155418396,2,6731.0,4.743049621582031,173,9951.0
4170,0.3429432213306427,-0.023975979536771774,-89,6731.0,5.584288120269775,56,9951.0
4180,0.34301742911338806,-1.7068085670471191,-25,6731.0,5.578065395355225,-6,9951.0
4190,0.34309619665145874,0.8091504573822021,106,6731.0,2.3286001682281494,-36,9951.0
4200,0.343051940202713,-2.7021872997283936,82,6731.0,2.7095372676849365,-110,9951.0
4210,0.3445086181163788,0.440714567899704,-24,6731.0,1.1274768114089966,-23,9951.0
4220,0.3445236086845398,-0.4802917540073395,44,6731.0,-3.3191232681274414,-15,9951.0
4230,0.34449294209480286,0.0040573300793766975,-22,6731.0,-3.8130202293395996,-52,9951.0
4240,0.34444740414619446,-0.8799537420272827,-108,6731.0,-4.201779365539551,11,9951.0
4250,0.342313677072525,-0.9618953466415405,-72,6731.0,-4.195074558258057,132,9951.0
4260,0.34220588207244873,4.367826461791992,2,6731.0,-4.157042980194092,-16,9951.0
4270,0.34207233786582947,1.7640914916992188,-42,6731.0,-2.0794007778167725,-14,9951.0
4280,0.34201622009277344,-0.4928525686264038,-45,6731.0,0.5537548661231995,-3,9951.0
4290,0.34273970127105713,-0.7367347478866577,41,6731.0,0.5694109201431274,-58,9951.0
4300,0.3426978588104248,-1.7798209190368652,50,6731.0,1.3596426248550415,-201,9951.0
4310,0.34265565872192383,-2.571845054626465,32,6731.0,-1.7020695209503174,-109,9951.0
4320,0.3424963355064392,-0.6847394704818726,72,6731.0,0.03430540859699249,32,9951.0
4330,0.34221717715263367,-1.202984094619751,117,6731.0,-1.1508147716522217,-80,9951.0
4340,0.3411647081375122,2.1663851737976074,-5,6731.0,-1.3659775257110596,-22,9951.0
4350,0.3409252464771271,3.224362373352051,-1,6731.0,-2.3242361545562744,52,9951.0
4360,0.3407287299633026,2.5279226303100586,-17,6731.0,-3.775682210922241,59,9951.0
4370,0.3406200110912323,0.7290424704551697,-53,6731.0,-3.8166282176971436,50,9951.0
4380,0.3404040038585663,-1.8792073726654053,-122,6731.0,-2.189185619354248,38,9951.0
4390,0.3402303159236908,-1.8407753705978394,-39,6731.0,-1.6299697160720825,-20,9951.0
4400,0.34001389145851135,-0.643417239189148,49,6731.0,1.5044766664505005,-73,9951.0
4410,0.3400798439979553,0.922680139541626,23,6731.0,3.6160826683044434,-93,9951.0
4420,0.3400118350982666,0.7884472608566284,106,6731.0,3.098294496536255,77,9951.0
4430,0.3399452269077301,2.173607349395752,126,6731.0,4.298871994018555,-27,9951.0
4440,0.34000471234321594,1.871420979499817,12,6731.0,3.565782070159912,-10,9951.0
4450,0.3401070535182953,1.3963298797607422,-12,6731.0,3.0655951499938965,172,9951.0
4460,0.34013721346855164,-0.4798448979854584,41,6731.0,1.425512671470642,101,9951.0
4470,0.3406030237674713,0.7373313307762146,-77,6731.0,2.0284383296966553,77,9951.0
4480,0.340780645608902,-0.881252110004425,-75,6731.0,0.39432868361473083,114,9951.0
4490,0.3408212959766388,-1.5510152578353882,-66,6731.0,-0.3953213393688202,98,9951.0
4500,0.34079405665397644,-0.19641178846359253,-35,6731.0,0.33974528312683105,-55,9951.0
4510,0.3404466509819031,-0.5188026428222656,13,6731.0,-1.226353406906128,-47,9951.0
4520,0.34036415815353394,-1.3206615447998047,72,6731.0,0.3871495723724365,-77,9951.0
4530,0.3403327763080597,-1.9011682271957397,102,6731.0,2.8313887119293213,-146,9951.0
4540,0.3404114246368408,-0.15839631855487823,50,6731.0,2.7339959144592285,28,9951.0
4550,0.3405587673187256,-1.3288605213165283,86,6731.0,1.4126062393188477,43,9951.0
4560,0.3412382900714874,0.840628981590271,26,6731.0,5.808093070983887,-2,9951.0
4570,0.34144872426986694,-0.47069036960601807,-68,6731.0,2.856957197189331,23,9951.0
4580,0.34162619709968567,0.3227236568927765,-65,6731.0,2.7292160987854004,196,9951.0
4590,0.34182506799697876,-1.2096903324127197,-74,6731.0,3.0644266605377197,156,9951.0
4600,0.3428220748901367,3.9062275886535645,-74,6731.0,0.6904839873313904,87,9951.0
4610,0.3430469036102295,0.1638067364692688,-59,6731.0,-0.7949723601341248,64,9951.0
4620,0.34322646260261536,1.9739799499511719,1,6731.0,0.7011736035346985,25,9951.0
4630,0.34350478649139404,0.17294973134994507,-86,6731.0,-1.3632075786590576,81,9951.0
4640,0.34382838010787964,-1.1613857746124268,-16,6731.0,0.37933942675590515,39,9951.0
4650,0.342561274766922,-1.980547308921814,-102,6731.0,-0.6203557848930359,-84,9951.0
4660,0.34269270300865173,-1.9995315074920654,-61,6731.0,-0.12817560136318207,-90,9951.0
4670,0.3428325355052948,-1.4429515600204468,-2,6731.0,-1.2085165977478027,-84,9951.0
4680,0.34296727180480957,0.16045784950256348,22,6731.0,-0.320026159286499,-155,9951.0
4690,0.3422488868236542,-0.6748251914978027,67,6731.0,1.3308017253875732,-5,9951.0
4700,0.34234362840652466,2.331744432449341,106,6731.0,-0.740662157535553,-82,9951.0
4710,0.34241983294487,0.2528849244117737,25,6731.0,0.28392550349235535,-33,9951.0
4720,0.34255480766296387,0.6327516436576843,124,6731.0,-0.29153919219970703,-62,9951.0
4730,0.343156099319458,-1.2771297693252563,73,6731.0,0.14892837405204773,-211,9951.0
4740,0.3433181345462799,-2.676711082458496,-29,6731.0,-2.983489513397217,-117,9951.0
4750,0.3434712290763855,-2.1962087154388428,52,6731.0,-7.182528972625732,-113,9951.0
4760,0.3435550630092621,-1.1120549440383911,-7,6731.0,-6.82814884185791,-107,9951.0
4770,0.3436638414859772,-0.16323722898960114,75,6731.0,-8.586217880249023,23,9951.0
4780,0.3423539996147156,0.14853832125663757,-3,6731.0,-5.862907886505127,-27,9951.0
4790,0.34255877137184143,0.984255313873291,-67,6731.0,-4.28451681137085,-64,9951.0
4800,0.3428260087966919,1.157081127166748,-26,6731.0,-2.789245128631592,67,9951.0
4810,0.343126118183136,1.3842215538024902,-33,6731.0,-0.16211287677288055,91,9951.0
4820,0.3421071469783783,1.541731595993042,-66,6731.0,-1.0732004642486572,154,9951.0
4830,0.3422955274581909,-0.06765802204608917,-82,6731.0,0.4972347319126129,206,9951.0
4840,0.34245941042900085,1.8633575439453125,-19,6731.0,-2.37052321434021,34,9951.0
4850,0.34265536069869995,0.5054631233215332,-79,6731.0,1.0013612508773804,112,9951.0
4860,0.34294018149375916,-0.04640331119298935,-12,6731.0,3.760328769683838,175,9951.0
4870,0.3428676128387451,-1.0517359972000122,-55,6731.0,0.5704306364059448,47,9951.0
4880,0.34310269355773926,-0.9747324585914612,-59,6731.0,1.4463727474212646,103,9951.0
4890,0.34328916668891907,0.04068424180150032,48,6731.0,1.3390992879867554,17,9951.0
4900,0.3435691297054291,0.8083561658859253,-9,6731.0,1.2451634407043457,-68,9951.0
4910,0.3415050506591797,0.6668142080307007,64,6731.0,1.0656156539916992,-75,9951.0
4920,0.3414742946624756,-0.7670843601226807,103,6731.0,-1.2006092071533203,-262,9951.0
4930,0.3414333462715149,1.5125967264175415,66,6731.0,-2.3986618518829346,-57,9951.0
4940,0.34112876653671265,0.23586924374103546,159,6731.0,-2.209449052810669,-91,9951.0
4950,0.33988264203071594,-3.5837900638580322,23,6731.0,-0.322526752948761,-174,9951.0
4960,0.3394327163696289,-0.5714213252067566,-1,6731.0,1.4498906135559082,9,9951.0
4970,0.33900848031044006,-3.848180055618286,62,6731.0,2.3135666847229004,-108,9951.0
4980,0.33863329887390137,-4.455730438232422,-43,6731.0,4.269630432128906,-33,9951.0
4990,0.33833131194114685,-0.11144589632749557,17,6731.0,3.9238932132720947,65,9951.0
5000,0.33856794238090515,1.0782800912857056,80,6731.0,3.3171279430389404,51,9951.0
5010,0.33829745650291443,7.931955814361572,122,6731.0,2.179340362548828,122,9951.0
5020,0.3380879759788513,8.207680702209473,154,6731.0,1.6977593898773193,217,9951.0
5030,0.33796754479408264,12.004889488220215,59,6731.0,0.8505801558494568,41,9951.0
5040,0.3389430344104767,8.088509559631348,36,6731.0,0.9441915154457092,112,9951.0
5050,0.33863767981529236,6.575094699859619,83,6731.0,0.7209404706954956,149,9951.0
5060,0.3383319079875946,4.52816104888916,-22,6731.0,0.7643362283706665,106,9951.0
5070,0.3379901647567749,3.596825122833252,-5,6731.0,0.922518789768219,119,9951.0
5080,0.3377343714237213,1.853845238685608,67,6731.0,-0.6180137991905212,5,9951.0
5090,0.3372417986392975,5.627119541168213,132,6731.0,-1.4327186346054077,-154,9951.0
5100,0.33662551641464233,9.97180461883545,27,6731.0,-1.5146206617355347,-28,9951.0
5110,0.335808128118515,0.756385862827301,28,6731.0,-0.3891606628894806,29,9951.0
5120,0.33485355973243713,-5.846062660217285,-80,6731.0,0.6030468344688416,-55,9951.0
5130,0.335309773683548,-5.052969455718994,-54,6731.0,3.7601890563964844,-151,9951.0
5140,0.3338913023471832,-7.6643805503845215,-73,6731.0,4.2468156814575195,-64,9951.0
5150,0.3325289487838745,-4.483821392059326,-87,6731.0,7.0014801025390625,116,9951.0
5160,0.33115115761756897,-11.665555953979492,-73,6731.0,7.288515567779541,147,9951.0
5170,0.3312020003795624,-14.987931251525879,-237,6731.0,10.450961112976074,87,9951.0
5180,0.32953178882598877,-17.174633026123047,-267,6731.0,10.120035171508789,109,9951.0
5190,0.32791823148727417,-13.188940048217773,-228,6731.0,9.094728469848633,311,9951.0
5200,0.32624366879463196,-7.253793716430664,-142,6731.0,11.59101390838623,315,9951.0
5210,0.32466551661491394,-2.178223133087158,-75,6731.0,12.353425979614258,251,9951.0
5220,0.3235376179218292,-1.3817989826202393,-15,6731.0,16.882171630859375,146,9951.0
5230,0.32230645418167114,-0.9372850060462952,55,6731.0,17.0983829498291,257,9951.0
5240,0.32130056619644165,3.578763484954834,82,6731.0,17.197494506835938,459,9951.0
5250,0.32056498527526855,3.1928863525390625,50,6731.0,16.685428619384766,370,9951.0
5260,0.3200172781944275,1.9669667482376099,27,6731.0,20.34149742126465,194,9951.0
5270,0.31974199414253235,0.691881537437439,1,6731.0,18.190488815307617,125,9951.0
5280,0.31982070207595825,2.4159464836120605,92,6731.0,15.296144485473633,236,9951.0
5290,0.3201727569103241,3.195634365081787,35,6731.0,10.83515453338623,321,9951.0
5300,0.3207559585571289,4.426631450653076,2,6731.0,8.157785415649414,150,9951.0
5310,0.3216712772846222,4.797353267669678,24,6731.0,5.262895107269287,140,9951.0
5320,0.32272231578826904,0.6744639873504639,26,6731.0,3.0778706073760986,-85,9951.0
5330,0.3242112696170807,-1.716867208480835,22,6731.0,-1.222873568534851,-36,9951.0
5340,0.32563409209251404,-1.691450595855713,65,6731.0,-5.589762210845947,-210,9951.0
5350,0.3252202868461609,-1.9538012742996216,-14,6731.0,-11.490486145019531,-154,9951.0
5360,0.32660147547721863,5.120297431945801,136,6731.0,-15.046399116516113,-124,9951.0
5370,0.32825911045074463,12.89073657989502,170,6731.0,-19.687955856323242,-324,9951.0
5380,0.3295910060405731,16.233755111694336,225,6731.0,-22.48809051513672,-269,9951.0
5390,0.3313412070274353,13.543357849121094,238,6731.0,-25.64954948425293,-360,9951.0
5400,0.3322945535182953,13.317814826965332,270,6731.0,-24.698030471801758,-502,9951.0
5410,0.33290159702301025,11.241990089416504,137,6731.0,-23.806180953979492,-443,9951.0
5420,0.3334995210170746,9.427063941955566,202,6731.0,-17.226238250732422,-345,9951.0
5430,0.3339429199695587,6.792032718658447,81,6731.0,-16.344362258911133,-358,9951.0
5440,0.3348325490951538,-1.4036157131195068,-101,6731.0,-13.598735809326172,-218,9951.0
5450,0.33480167388916016,-0.9922360777854919,-26,6731.0,-9.040105819702148,-96,9951.0
5460,0.3345581293106079,-6.018342971801758,-62,6731.0,-10.971780776977539,-211,9951.0
5470,0.3339874744415283,-6.648012161254883,-156,6731.0,-10.668697357177734,-153,9951.0
5480,0.33279046416282654,-7.7626543045043945,-97,6731.0,-11.334836959838867,-135,9951.0
5490,0.3318510055541992,-7.008525848388672,-83,6731.0,-12.40176773071289,-266,9951.0
5500,0.33072060346603394,-9.601902961730957,-185,6731.0,-12.602350234985352,-283,9951.0
5510,0.3293392062187195,-8.771114349365234,-105,6731.0,-16.276437759399414,-331,9951.0
5520,0.32631710171699524,-13.869568824768066,-156,6731.0,-13.884296417236328,-352,9951.0
5530,0.3244335353374481,-13.58505630493164,-200,6731.0,-11.783690452575684,-210,9951.0
5540,0.3224456310272217,-6.935914516448975,-30,6731.0,-6.655737400054932,-142,9951.0
5550,0.32036349177360535,-5.228870868682861,9,6731.0,-4.394929885864258,-238,9951.0
5560,0.3183811604976654,-0.33043065667152405,37,6731.0,-0.15486276149749756,-52,9951.0
5570,0.3151508569717407,4.442216873168945,138,6731.0,6.996464729309082,24,9951.0
5580,0.31255999207496643,2.6462182998657227,127,6731.0,10.749526023864746,139,9951.0
5590,0.31070366501808167,2.1999571323394775,3,6731.0,15.816488265991211,194,9951.0
5600,0.3085063099861145,0.9931739568710327,-37,6731.0,20.475496292114258,343,9951.0
5610,0.30731043219566345,-2.213870048522949,-7,6731.0,21.154237747192383,424,9951.0
5620,0.30546480417251587,-0.4921520948410034,-24,6731.0,18.798097610473633,316,9951.0
5630,0.302845299243927,1.0172438621520996,-105,6731.0,18.53915786743164,207,9951.0
5640,0.3007996678352356,1.2304996252059937,36,6731.0,16.635799407958984,213,9951.0
5650,0.3003380596637726,8.052020072937012,278,6731.0,13.323362350463867,160,9951.0
5660,0.2960500121116638,12.060415267944336,264,6731.0,12.499771118164062,205,9951.0
5670,0.29451653361320496,14.867283821105957,151,6731.0,12.52789306640625,331,9951.0
5680,0.2919710874557495,17.6134090423584,249,6731.0,17.842498779296875,270,9951.0
5690,0.2910934388637543,14.990896224975586,328,6731.0,19.3255615234375,288,9951.0
5700,0.2902988791465759,12.648785591125488,246,6731.0,24.040103912353516,497,9951.0
5710,0.288972407579422,10.546488761901855,86,6731.0,27.326189041137695,482,9951.0
5720,0.2869560122489929,8.947696685791016,54,6731.0,29.273160934448242,406,9951.0
5730,0.2856212556362152,3.589003562927246,99,6731.0,32.255943298339844,500,9951.0
5740,0.2843656837940216,-0.17927120625972748,-1,6731.0,32.498931884765625,640,9951.0
5750,0.2830866873264313,-3.0882883071899414,-122,6731.0,31.151473999023438,535,9951.0
5760,0.28162822127342224,-6.302805423736572,-103,6731.0,28.945524215698242,317,9951.0
5770,0.28084465861320496,-6.18272590637207,-86,6731.0,25.033287048339844,358,9951.0
5780,0.2803226113319397,-4.172243118286133,-130,6731.0,23.20334243774414,537,9951.0
5790,0.2788239121437073,-1.1574946641921997,2,6731.0,20.941917419433594,332,9951.0
5800,0.27867990732192993,3.8516271114349365,156,6731.0,19.58165740966797,208,9951.0
5810,0.27904173731803894,9.734298706054688,65,6731.0,17.224260330200195,320,9951.0
5820,0.27948954701423645,11.91126823425293,119,6731.0,15.376577377319336,298,9951.0
5830,0.2781822383403778,11.823553085327148,225,6731.0,14.04521656036377,220,9951.0
5840,0.2784835696220398,13.780159950256348,294,6731.0,15.289689064025879,202,9951.0
5850,0.27892592549324036,13.403654098510742,179,6731.0,13.484441757202148,274,9951.0
5860,0.27911680936813354,12.771224021911621,111,6731.0,13.970673561096191,203,9951.0
5870,0.27927082777023315,11.978099822998047,185,6731.0,12.210084915161133,124,9951.0
5880,0.27924272418022156,11.108177185058594,215,6731.0,11.936549186706543,207,9951.0
5890,0.27954402565956116,10.226500511169434,147,6731.0,11.492049217224121,294,9951.0
5900,0.2798856198787689,6.468213081359863,60,6731.0,11.672009468078613,271,9951.0
5910,0.27986329793930054,3.82486891746521,19,6731.0,9.86719799041748,66,9951.0
5920,0.2787543833255768,0.29267096519470215,49,6731.0,8.27164363861084,21,9951.0
5930,0.2785186469554901,-3.006164073944092,-61,6731.0,6.169763088226318,132,9951.0
5940,0.27827873826026917,-4.561130523681641,-124,6731.0,3.8582475185394287,184,9951.0
5950,0.27791720628738403,-4.964406490325928,-141,6731.0,1.5653655529022217,30,9951.0
5960,0.27735382318496704,-6.3798065185546875,-66,6731.0,-0.016008656471967697,-85,9951.0
5970,0.27656301856040955,-9.402928352355957,-112,6731.0,-3.2424402236938477,-49,9951.0
5980,0.27563199400901794,-12.00822925567627,-244,6731.0,-5.596702575683594,-68,9951.0
5990,0.27429917454719543,-11.890120506286621,-294,6731.0,-6.2529120445251465,50,9951.0
6000,0.2733341157436371,-10.994832992553711,-198,6731.0,-6.771601676940918,-54,9951.0
6010,0.2708309590816498,-9.447441101074219,-83,6731.0,-6.794922828674316,-215,9951.0
6020,0.26956120133399963,-6.568666934967041,-35,6731.0,-5.126504898071289,-77,9951.0
6030,0.26781511306762695,-2.20235276222229,-82,6731.0,-2.8638205528259277,51,9951.0
6040,0.2664823830127716,0.5498577356338501,-38,6731.0,0.9328154921531677,-6,9951.0
6050,0.2649402916431427,-0.08296753466129303,75,6731.0,3.9581708908081055,6,9951.0
6060,0.26336896419525146,-0.2356535941362381,52,6731.0,6.258251190185547,177,9951.0
6070,0.26210030913352966,-2.446199893951416,-87,6731.0,8.521129608154297,262,9951.0
6080,0.2609953284263611,-4.194055080413818,-108,6731.0,10.9786376953125,131,9951.0
6090,0.25952669978141785,-7.26940393447876,-79,6731.0,10.594924926757812,115,9951.0
6100,0.2579514682292938,-5.852337837219238,-140,6731.0,5.676682949066162,201,9951.0
6110,0.25651317834854126,-4.975226879119873,-114,6731.0,6.544381141662598,74,9951.0
6120,0.25514551997184753,-3.3499200344085693,41,6731.0,4.329549789428711,-84,9951.0
6130,0.2537669539451599,-1.7438883781433105,66,6731.0,-0.4135046601295471,29,9951.0
6140,0.25267332792282104,3.196516752243042,-27,6731.0,-4.471904754638672,-99,9951.0
6150,0.25146767497062683,6.648312568664551,133,6731.0,-7.23494815826416,-276,9951.0
6160,0.2502851188182831,10.125578880310059,253,6731.0,-11.4104642868042,-88,9951.0
6170,0.24913828074932098,13.096613883972168,269,6731.0,-12.177367210388184,-113,9951.0
6180,0.24936360120773315,13.4527006149292,189,6731.0,-13.207526206970215,-331,9951.0
6190,0.24805580079555511,11.163593292236328,204,6731.0,-11.739683151245117,-330,9951.0
6200,0.24661244451999664,8.164855003356934,99,6731.0,-13.567631721496582,-173,9951.0
6210,0.2450859248638153,2.4554243087768555,-41,6731.0,-12.367680549621582,-97,9951.0
6220,0.2437545657157898,-4.307306289672852,-107,6731.0,-11.213441848754883,-145,9951.0
6230,0.24361856281757355,-8.096571922302246,-64,6731.0,-10.64647388458252,-241,9951.0
6240,0.24227699637413025,-13.019861221313477,-121,6731.0,-7.275472640991211,-121,9951.0
6250,0.2410355508327484,-13.571829795837402,-279,6731.0,-5.733735084533691,-74,9951.0
6260,0.239724799990654,-11.085190773010254,-234,6731.0,-1.1693028211593628,-106,9951.0
6270,0.23882226645946503,-5.930602073669434,-2,6731.0,1.3890001773834229,-20,9951.0
6280,0.2376503348350525,-0.4428770840167999,7,6731.0,0.11311148852109909,163,9951.0
6290,0.236453577876091,4.833215236663818,55,6731.0,1.9785289764404297,72,9951.0
6300,0.23527003824710846,6.733854293823242,240,6731.0,2.786957263946533,-29,9951.0
6310,0.23461198806762695,7.850101947784424,129,6731.0,2.0257136821746826,69,9951.0
6320,0.2338809221982956,5.866203308105469,24,6731.0,0.2804596424102783,-119,9951.0
6330,0.23260121047496796,2.1286208629608154,49,6731.0,0.12894012033939362,-31,9951.0
6340,0.23155577480793,1.1964349746704102,-22,6731.0,-0.8867343068122864,76,9951.0
6350,0.23069696128368378,-1.933716058731079,-61,6731.0,3.8221359252929688,-48,9951.0
6360,0.230880469083786,-1.273953914642334,40,6731.0,1.684812068939209,-14,9951.0
6370,0.22992052137851715,-2.231069326400757,-20,6731.0,4.477919101715088,232,9951.0
6380,0.2287156730890274,0.21078886091709137,15,6731.0,5.147890567779541,57,9951.0
6390,0.22789821028709412,3.527280569076538,176,6731.0,4.82642936706543,102,9951.0
6400,0.2273717224597931,8.243395805358887,130,6731.0,6.868807792663574,125,9951.0
6410,0.2267979085445404,8.861801147460938,184,6731.0,11.317590713500977,-10,9951.0
6420,0.2259782999753952,11.09650993347168,233,6731.0,7.833258628845215,160,9951.0
6430,0.22547270357608795,8.93771743774414,43,6731.0,8.916810989379883,179,9951.0
6440,0.22515052556991577,7.039700508117676,63,6731.0,6.95720100402832,30,9951.0
6450,0.22453583776950836,6.013237953186035,105,6731.0,6.462229251861572,124,9951.0
6460,0.2240886390209198,2.755288600921631,-45,6731.0,4.570455551147461,168,9951.0
6470,0.22367261350154877,-1.866746187210083,-50,6731.0,3.162081003189087,45,9951.0
6480,0.22367112338542938,-4.822470188140869,-92,6731.0,-0.7383210062980652,100,9951.0
6490,0.22237108647823334,-6.946468353271484,-174,6731.0,-1.3971294164657593,30,9951.0
6500,0.2221686840057373,-6.917233467102051,-67,6731.0,-1.1022236347198486,-181,9951.0
6510,0.22196067869663239,-6.616576671600342,-71,6731.0,-3.875093936920166,20,9951.0
6520,0.2215808480978012,-4.671504497528076,-83,6731.0,-5.077154159545898,-66,9951.0
6530,0.22122734785079956,-2.450678586959839,44,6731.0,-4.512609004974365,-109,9951.0
6540,0.22089822590351105,-0.4936959743499756,-32,6731.0,-4.650003910064697,6,9951.0
6550,0.22047685086727142,3.4759340286254883,-6,6731.0,-2.7924728393554688,-135,9951.0
6560,0.21992729604244232,3.5870234966278076,71,6731.0,-2.8698532581329346,-32,9951.0
6570,0.21923653781414032,2.3941054344177246,14,6731.0,-0.12324690818786621,38,9951.0
6580,0.22075092792510986,2.2236216068267822,30,6731.0,1.492565631866455,-91,9951.0
6590,0.21982567012310028,1.6935168504714966,92,6731.0,1.745326042175293,7,9951.0
6600,0.21912281215190887,1.8546421527862549,-48,6731.0,3.885476589202881,117,9951.0
6610,0.2182944118976593,1.4908695220947266,-23,6731.0,3.066389560699463,60,9951.0
6620,0.21837036311626434,-0.847261369228363,-12,6731.0,5.605055809020996,186,9951.0
6630,0.21728163957595825,-0.19995176792144775,-5,6731.0,2.1775999069213867,127,9951.0
6640,0.21638399362564087,0.15368801355361938,-43,6731.0,1.1232415437698364,-26,9951.0
6650,0.21524661779403687,-0.9565346837043762,40,6731.0,0.8695573806762695,33,9951.0
6660,0.2169174998998642,0.6251479983329773,-54,6731.0,0.25259360671043396,92,9951.0
6670,0.21616175770759583,0.5040037631988525,26,6731.0,3.2588517665863037,-87,9951.0
6680,0.21531157195568085,0.9933670163154602,70,6731.0,2.2816224098205566,19,9951.0
6690,0.21435581147670746,2.6685736179351807,-30,6731.0,4.487659454345703,35,9951.0
6700,0.21334858238697052,1.5254647731781006,26,6731.0,3.489790201187134,-29,9951.0
6710,0.2145850658416748,0.8935034275054932,-20,6731.0,1.896098256111145,138,9951.0
6720,0.21413618326187134,0.9283697605133057,-50,6731.0,4.3395233154296875,32,9951.0
6730,0.21348492801189423,0.3409315049648285,77,6731.0,7.536165237426758,62,9951.0
6740,0.21324864029884338,2.6344549655914307,27,6731.0,6.796739101409912,184,9951.0
6750,0.21424224972724915,3.3203229904174805,35,6731.0,9.047649383544922,74,9951.0
6760,0.21422924101352692,2.94340181350708,144,6731.0,6.361663341522217,46,9951.0
6770,0.21384747326374054,4.205901145935059,13,6731.0,6.512558937072754,205,9951.0
6780,0.21374055743217468,3.151855945587158,37,6731.0,7.433192253112793,109,9951.0
6790,0.21568401157855988,3.41910982131958,118,6731.0,6.833113670349121,199,9951.0
6800,0.21533477306365967,2.1679625511169434,33,6731.0,6.315912246704102,248,9951.0
6810,0.21534432470798492,1.5893592834472656,34,6731.0,7.211414813995361,21,9951.0
6820,0.21471372246742249,-0.821652889251709,70,6731.0,7.412619113922119,119,9951.0
6830,0.21423576772212982,0.19530299305915833,-63,6731.0,6.479118824005127,146,9951.0
6840,0.21422286331653595,-1.012412428855896,-20,6731.0,6.651660442352295,-73,9951.0
6850,0.2135539948940277,-2.25636625289917,14,6731.0,1.0739721059799194,-5,9951.0
6860,0.213043674826622,-0.7268396615982056,-102,6731.0,0.2657192051410675,80,9951.0
6870,0.21236330270767212,-1.5332647562026978,-14,6731.0,2.4452829360961914,-50,9951.0
6880,0.21102862060070038,1.047255039215088,14,6731.0,-2.7321572303771973,46,9951.0
6890,0.2103557586669922,0.762933611869812,-10,6731.0,1.7181819677352905,-5,9951.0
6900,0.21009206771850586,0.11129647493362427,74,6731.0,0.6648684144020081,-34,9951.0
6910,0.20954705774784088,0.38725370168685913,15,6731.0,1.0648796558380127,131,9951.0
6920,0.20961081981658936,0.4094230830669403,-41,6731.0,2.9584105014801025,6,9951.0
6930,0.2074202597141266,-0.22952519357204437,71,6731.0,1.3465030193328857,43,9951.0
6940,0.20696523785591125,-1.400543451309204,-48,6731.0,4.012009143829346,110,9951.0
6950,0.20659634470939636,-2.110551357269287,32,6731.0,1.9960540533065796,-20,9951.0
6960,0.20622408390045166,-0.3901657462120056,-2,6731.0,0.14161480963230133,132,9951.0
6970,0.20724694430828094,-1.809566855430603,-72,6731.0,0.6712356209754944,12,9951.0
6980,0.207290381193161,-1.430260419845581,50,6731.0,0.5538683533668518,38,9951.0
6990,0.2072107195854187,-3.475778341293335,-121,6731.0,0.10814789682626724,128,9951.0
7000,0.20698007941246033,-4.9673614501953125,-84,6731.0,1.9671012163162231,-26,9951.0
7010,0.2054782658815384,-5.921102046966553,-59,6731.0,2.4329824447631836,98,9951.0
7020,0.2056727409362793,-4.09922456741333,-97,6731.0,2.9629781246185303,-6,9951.0
7030,0.20584414899349213,-2.4731881618499756,23,6731.0,0.9549838304519653,0,9951.0
7040,0.20598235726356506,-0.8424561023712158,-61,6731.0,-3.990384817123413,-58,9951.0
7050,0.2061205804347992,0.14661067724227905,53,6731.0,-4.243557453155518,-189,9951.0
7060,0.20091883838176727,0.2014898955821991,-22,6731.0,-6.717686653137207,-10,9951.0
7070,0.20091786980628967,-2.8533101081848145,-80,6731.0,-3.0288469791412354,-135,9951.0
7080,0.200673907995224,-3.5998964309692383,12,6731.0,-1.176524043083191,18,9951.0
7090,0.20072557032108307,-4.2402167320251465,-99,6731.0,2.3766510486602783,93,9951.0
7100,0.19668301939964294,-4.741171836853027,1,6731.0,5.959799766540527,34,9951.0
7110,0.1966494768857956,-0.7411960363388062,21,6731.0,6.327301025390625,231,9951.0
7120,0.19658111035823822,0.7947267293930054,1,6731.0,7.863533973693848,66,9951.0
7130,0.19647496938705444,2.2881088256835938,165,6731.0,6.052414894104004,98,9951.0
7140,0.1963447481393814,2.682955026626587,56,6731.0,2.824202299118042,18,9951.0
7150,0.19167420268058777,4.307564735412598,139,6731.0,-0.5818102955818176,-171,9951.0
7160,0.1914791613817215,2.524831771850586,0,6731.0,-4.861959457397461,-69,9951.0
7170,0.19130457937717438,2.220233201980591,-5,6731.0,-6.5495285987854,-248,9951.0
7180,0.1913677304983139,-1.0221697092056274,-42,6731.0,-8.415324211120605,-77,9951.0
7190,0.18836036324501038,-2.6391639709472656,-111,6731.0,-10.364363670349121,-200,9951.0
7200,0.1881852000951767,-5.37623929977417,-58,6731.0,-8.161844253540039,-130,9951.0
7210,0.1879420429468155,-6.910844802856445,-122,6731.0,-8.619643211364746,-31,9951.0
7220,0.18750758469104767,-5.237416744232178,-6,6731.0,-5.4664506912231445,-150,9951.0
7230,0.18443287909030914,-3.055790901184082,-15,6731.0,-3.8324239253997803,21,9951.0
7240,0.18464957177639008,3.6619691848754883,70,6731.0,-1.0082958936691284,-146,9951.0
7250,0.1844172328710556,6.524485111236572,152,6731.0,0.28062427043914795,20,9951.0
7260,0.1847670078277588,10.210151672363281,77,6731.0,1.891985297203064,-21,9951.0
7270,0.18486744165420532,9.985504150390625,202,6731.0,4.359675407409668,79,9951.0
7280,0.1801445484161377,9.946817398071289,104,6731.0,3.494359016418457,86,9951.0
7290,0.17984884977340698,7.739462852478027,89,6731.0,3.188725471496582,-114,9951.0
7300,0.17948277294635773,3.4909608364105225,54,6731.0,0.7918819785118103,-23,9951.0
7310,0.17909297347068787,2.21343731880188,-120,6731.0,0.5995903015136719,7,9951.0
7320,0.17435558140277863,-1.3050014972686768,17,6731.0,-0.5238407850265503,37,9951.0
7330,0.17401105165481567,0.5757218599319458,-51,6731.0,-1.222756266593933,106,9951.0
7340,0.1734016388654709,-1.2491241693496704,70,6731.0,-0.2610412836074829,-5,9951.0
7350,0.17276263236999512,-0.13603369891643524,30,6731.0,-0.19975849986076355,124,9951.0
7360,0.17205555737018585,1.3058966398239136,23,6731.0,-1.4878408908843994,-82,9951.0
7370,0.16889561712741852,3.26889705657959,86,6731.0,-0.2606164813041687,54,9951.0
7380,0.16940689086914062,2.952288866043091,13,6731.0,4.202972412109375,-83,9951.0
7390,0.1676550656557083,2.3241007328033447,101,6731.0,3.89395809173584,124,9951.0
7400,0.16823972761631012,3.022690773010254,-13,6731.0,6.665907382965088,53,9951.0
7410,0.1660587042570114,5.630992412567139,138,6731.0,8.201361656188965,179,9951.0
7420,0.1656208336353302,7.778664588928223,13,6731.0,12.399081230163574,263,9951.0
7430,0.16503894329071045,9.281211853027344,206,6731.0,12.937162399291992,227,9951.0
7440,0.1645544469356537,8.314722061157227,50,6731.0,13.39097785949707,230,9951.0
7450,0.1632787138223648,5.981912136077881,187,6731.0,7.724376201629639,139,9951.0
7460,0.162929967045784,3.506258249282837,-14,6731.0,6.07140588760376,-8,9951.0
7470,0.16256561875343323,0.04006323963403702,25,6731.0,0.14401306211948395,60,9951.0
7480,0.16220124065876007,-3.6597368717193604,-118,6731.0,-1.283099889755249,-146,9951.0
7490,0.16184011101722717,-7.747679233551025,-110,6731.0,-5.4517903327941895,-29,9951.0
7500,0.16201649606227875,-9.686745643615723,-128,6731.0,-4.881733417510986,-209,9951.0
7510,0.16179193556308746,-9.721930503845215,-189,6731.0,-6.8104095458984375,-61,9951.0
7520,0.16166216135025024,-9.392574310302734,-95,6731.0,-2.224775791168213,-165,9951.0
7530,0.16158753633499146,-8.320928573608398,-130,6731.0,-3.4470016956329346,2,9951.0
7540,0.1615000069141388,-5.736522197723389,-16,6731.0,-2.2633821964263916,-144,9951.0
7550,0.1616329699754715,-2.4080145359039307,-99,6731.0,-2.2999322414398193,-39,9951.0
7560,0.16165640950202942,-2.2475545406341553,11,6731.0,-1.226818323135376,-48,9951.0
7570,0.16175244748592377,-4.913655757904053,-161,6731.0,1.4890140295028687,-31,9951.0
7580,0.1621052771806717,-4.685910224914551,-58,6731.0,-0.8711375594139099,59,9951.0
7590,0.16237513720989227,-4.833248138427734,-148,6731.0,-3.1745047569274902,-111,9951.0
7600,0.1623380333185196,-6.406508445739746,-118,6731.0,-2.251924991607666,114,9951.0
7610,0.1626158058643341,-7.472573280334473,-153,6731.0,-3.7913131713867188,-115,9951.0
7620,0.1627761423587799,-6.564723491668701,-114,6731.0,0.04471917077898979,148,9951.0
7630,0.16305330395698547,-3.35982084274292,-79,6731.0,2.007352113723755,-4,9951.0
7640,0.1635468751192093,-1.9358891248703003,-52,6731.0,4.16360330581665,243,9951.0
7650,0.16378653049468994,-1.071740984916687,-9,6731.0,8.989538192749023,93,9951.0
7660,0.16395775973796844,3.319716215133667,59,6731.0,7.58603572845459,270,9951.0
7670,0.16759347915649414,5.425075054168701,116,6731.0,7.711061000823975,110,9951.0
7680,0.1677696406841278,8.285259246826172,114,6731.0,4.533867359161377,189,9951.0
7690,0.1686612218618393,8.893628120422363,176,6731.0,7.39674186706543,44,9951.0
7700,0.16902495920658112,9.892627716064453,158,6731.0,6.6933674812316895,197,9951.0
7710,0.16928450763225555,8.456607818603516,151,6731.0,11.494892120361328,75,9951.0
7720,0.17173480987548828,6.836597442626953,103,6731.0,8.33370304107666,210,9951.0
7730,0.17378054559230804,3.6394598484039307,83,6731.0,9.696413040161133,41,9951.0
7740,0.17370714247226715,-0.6018259525299072,24,6731.0,6.188572883605957,129,9951.0
7750,0.17497563362121582,-0.7076579928398132,-76,6731.0,8.258896827697754,121,9951.0
7760,0.1759970486164093,-4.605320930480957,-16,6731.0,6.851136207580566,139,9951.0
7770,0.17662313580513,-6.031466484069824,-172,6731.0,7.160208702087402,182,9951.0
7780,0.17701341211795807,-7.60160493850708,-60,6731.0,7.259550094604492,69,9951.0
7790,0.1769258677959442,-8.62918758392334,-142,6731.0,5.703408718109131,162,9951.0
7800,0.17828121781349182,-5.369107723236084,-57,6731.0,5.2025370597839355,-85,9951.0
7810,0.17849023640155792,-2.7476468086242676,44,6731.0,1.5363242626190186,103,9951.0
7820,0.1787293404340744,1.1070431470870972,10,6731.0,0.4881024658679962,-126,9951.0
7830,0.1789175271987915,1.482131838798523,72,6731.0,-2.1640546321868896,36,9951.0
7840,0.17917224764823914,2.19901967048645,-85,6731.0,-1.8769031763076782,81,9951.0
7850,0.18001478910446167,-1.2546682357788086,25,6731.0,1.2712669372558594,-8,9951.0
7860,0.1804158091545105,-2.626216411590576,-51,6731.0,0.8386649489402771,155,9951.0
7870,0.18070350587368011,-1.597274661064148,-1,6731.0,5.002604961395264,29,9951.0
7880,0.1814301460981369,-1.2216179370880127,-37,6731.0,6.709657192230225,251,9951.0
7890,0.1824331134557724,-0.47567567229270935,-82,6731.0,10.390802383422852,155,9951.0
7900,0.1829962283372879,-1.8051949739456177,30,6731.0,9.748062133789062,222,9951.0
7910,0.1843072921037674,-1.5148134231567383,-39,6731.0,9.166519165039062,174,9951.0
7920,0.18531154096126556,-1.8443201780319214,-62,6731.0,7.541089057922363,143,9951.0
7930,0.18606874346733093,0.7383647561073303,19,6731.0,6.71133279800415,176,9951.0
7940,0.18657265603542328,2.0498926639556885,-34,6731.0,4.001296520233154,104,9951.0
7950,0.18712042272090912,4.749650955200195,149,6731.0,3.210284471511841,127,9951.0
7960,0.18762162327766418,5.532271862030029,28,6731.0,2.8244316577911377,44,9951.0
7970,0.18828199803829193,2.653714418411255,87,6731.0,-1.0927284955978394,-41,9951.0
7980,0.18780815601348877,1.5780858993530273,-27,6731.0,-1.3306952714920044,65,9951.0
7990,0.1880308985710144,0.6895661354064941,5,6731.0,-2.171611785888672,-154,9951.0
8000,0.18868336081504822,0.2473178654909134,-16,6731.0,-2.0064220428466797,-10,9951.0
8010,0.18925674259662628,-1.000787377357483,-114,6731.0,1.547883152961731,-8,9951.0
8020,0.18900609016418457,-2.2339580059051514,-2,6731.0,3.806532382965088,96,9951.0
8030,0.18919065594673157,-2.5011274814605713,-124,6731.0,6.002320766448975,201,9951.0
8040,0.18930020928382874,-3.4583370685577393,-14,6731.0,6.773557662963867,12,9951.0
8050,0.18944863975048065,-3.580075979232788,-70,6731.0,4.569151401519775,158,9951.0
8060,0.18951217830181122,-2.708315134048462,-59,6731.0,1.5584759712219238,-96,9951.0
8070,0.18840241432189941,-1.274097204208374,-28,6731.0,-2.7948875427246094,71,9951.0
8080,0.18825893104076385,-1.673326849937439,-48,6731.0,-7.22844123840332,-214,9951.0
8090,0.18803799152374268,0.06317146122455597,24,6731.0,-10.359386444091797,-127,9951.0
8100,0.1877364069223404,0.04429549351334572,-45,6731.0,-10.73125171661377,-259,9951.0
8110,0.1874728947877884,-1.020251750946045,17,6731.0,-11.288544654846191,-159,9951.0
8120,0.18725501000881195,-1.3079261779785156,-146,6731.0,-7.3552656173706055,-148,9951.0
8130,0.18705961108207703,-1.8597275018692017,36,6731.0,-4.389038562774658,-23,9951.0
8140,0.18694934248924255,2.311420202255249,-31,6731.0,-3.7696688175201416,-1,9951.0
8150,0.18770690262317657,3.5231597423553467,145,6731.0,-1.3807183504104614,-5,9951.0
8160,0.18779702484607697,7.362903594970703,101,6731.0,-0.6890347599983215,18,9951.0
8170,0.1878746747970581,7.350690841674805,219,6731.0,1.6953660249710083,-77,9951.0
8180,0.18793269991874695,7.404547214508057,82,6731.0,1.6505661010742188,23,9951.0
8190,0.18798384070396423,5.449374675750732,128,6731.0,0.951798677444458,-10,9951.0
8200,0.18870776891708374,5.70826530456543,63,6731.0,-0.5487289428710938,90,9951.0
8210,0.18885713815689087,4.006293296813965,84,6731.0,-0.27898970246315,-74,9951.0
8220,0.1887812614440918,3.52154541015625,97,6731.0,-2.581881046295166,-16,9951.0
8230,0.18887215852737427,2.374276876449585,60,6731.0,-2.669814348220825,-207,9951.0
8240,0.18913009762763977,2.597568988800049,75,6731.0,-5.305177688598633,33,9951.0
8250,0.18903033435344696,0.302378386259079,-20,6731.0,-5.827494144439697,-113,9951.0
8260,0.1889018416404724,-1.4567257165908813,35,6731.0,-5.993758678436279,9,9951.0
8270,0.18874594569206238,0.11564669758081436,-48,6731.0,-4.944852828979492,-124,9951.0
8280,0.18860305845737457,-1.3358848094940186,40,6731.0,-3.7741951942443848,-107,9951.0
8290,0.18945781886577606,2.1446824073791504,-56,6731.0,-5.165325164794922,3,9951.0
8300,0.1896241456270218,1.6668827533721924,72,6731.0,0.48083001375198364,-50,9951.0
8310,0.18977326154708862,2.434612274169922,39,6731.0,-0.4724264144897461,26,9951.0
8320,0.1898936629295349,2.5313472747802734,19,6731.0,3.258775472640991,-67,9951.0
8330,0.19256573915481567,-0.4208102226257324,-29,6731.0,4.383031368255615,185,9951.0
8340,0.19283521175384521,-0.5290018320083618,-36,6731.0,4.744913578033447,40,9951.0
8350,0.1944853961467743,-2.910466194152832,43,6731.0,2.72896146774292,46,9951.0
8360,0.19628474116325378,-0.356975257396698,-54,6731.0,2.618692636489868,-30,9951.0
8370,0.19766636192798615,-0.18996310234069824,49,6731.0,-0.6282901763916016,0,9951.0
8380,0.1988089382648468,-2.5303163528442383,-95,6731.0,-0.8641876578330994,97,9951.0
8390,0.19985371828079224,-8.932397842407227,-122,6731.0,-1.241246223449707,-115,9951.0
8400,0.20037153363227844,-14.247892379760742,-262,6731.0,-1.7793043851852417,90,9951.0
8410,0.20095476508140564,-16.91948127746582,-289,6731.0,1.3601218461990356,-58,9951.0
8420,0.2019364982843399,-16.85587501525879,-219,6731.0,1.353823184967041,51,9951.0
8430,0.20229549705982208,-15.303330421447754,-313,6731.0,1.8140549659729004,129,9951.0
8440,0.20286458730697632,-13.751744270324707,-121,6731.0,2.698607921600342,-20,9951.0
8450,0.20321747660636902,-11.720556259155273,-199,6731.0,1.8144595623016357,97,9951.0
8460,0.2043774574995041,-9.927007675170898,-172,6731.0,4.84677791595459,-4,9951.0
8470,0.20463146269321442,-5.377623081207275,-18,6731.0,5.212493419647217,149,9951.0
8480,0.2052767425775528,-2.441816806793213,-101,6731.0,6.563736438751221,150,9951.0
8490,0.20535893738269806,-1.692119836807251,19,6731.0,5.6134209632873535,53,9951.0
8500,0.20577605068683624,0.849577784538269,23,6731.0,6.19234037399292,103,9951.0
8510,0.20711742341518402,0.7601853013038635,-70,6731.0,3.5978024005889893,65,9951.0
8520,0.20729254186153412,-1.0257817506790161,73,6731.0,3.4356374740600586,43,9951.0
8530,0.20781178772449493,-3.3968989849090576,-88,6731.0,4.594421863555908,122,9951.0
8540,0.20873968303203583,-5.616029739379883,-120,6731.0,4.311291217803955,-29,9951.0
8550,0.20997633039951324,-7.793708801269531,-109,6731.0,6.618049621582031,100,9951.0
8560,0.2106064260005951,-10.396260261535645,-196,6731.0,3.1295716762542725,133,9951.0
8570,0.21072177588939667,-7.6788458824157715,-148,6731.0,4.1337432861328125,102,9951.0
8580,0.21213161945343018,-7.338297367095947,-57,6731.0,3.4570324420928955,-88,9951.0
8590,0.21328575909137726,-7.377005100250244,-124,6731.0,1.1526159048080444,74,9951.0
8600,0.21566203236579895,-8.390254020690918,-208,6731.0,1.4170347452163696,132,9951.0
8610,0.21622920036315918,-10.322636604309082,-148,6731.0,3.964099645614624,-43,9951.0
8620,0.21662001311779022,-10.095821380615234,-156,6731.0,0.615652322769165,84,9951.0
8630,0.21796658635139465,-9.909096717834473,-192,6731.0,2.4768288135528564,79,9951.0
8640,0.2173636257648468,-8.947845458984375,-118,6731.0,0.8086175918579102,-69,9951.0
8650,0.2177235335111618,-5.821927547454834,-27,6731.0,0.9877378344535828,7,9951.0
8660,0.2178531140089035,-3.4743003845214844,-145,6731.0,1.7507708072662354,150,9951.0
8670,0.21820838749408722,-3.7036566734313965,-7,6731.0,-0.5527958869934082,-87,9951.0
8680,0.21914689242839813,-1.2001869678497314,20,6731.0,-0.3989439010620117,1,9951.0
8690,0.2197616696357727,-0.33801373839378357,-41,6731.0,-1.0232130289077759,39,9951.0
8700,0.22038912773132324,0.762673020362854,-6,6731.0,-0.7657908797264099,-68,9951.0
8710,0.22086332738399506,-1.926399827003479,50,6731.0,0.027840333059430122,-12,9951.0
8720,0.22160930931568146,0.6656048893928528,-62,6731.0,1.1897952556610107,144,9951.0
8730,0.21783122420310974,0.17118628323078156,-5,6731.0,3.3189547061920166,13,9951.0
8740,0.21847690641880035,0.020690826699137688,67,6731.0,5.419615745544434,24,9951.0
8750,0.2189783900976181,-2.456709623336792,-86,6731.0,4.846965312957764,163,9951.0
8760,0.21951206028461456,-4.751667499542236,-109,6731.0,4.135138988494873,32,9951.0
8770,0.22084921598434448,-5.373684406280518,-55,6731.0,2.858522415161133,-37,9951.0
8780,0.22089816629886627,-7.6336259841918945,-125,6731.0,1.421919822692871,137,9951.0
8790,0.22109094262123108,-7.208377361297607,-186,6731.0,-1.0458874702453613,-6,9951.0
8800,0.2213691622018814,-6.030117511749268,-33,6731.0,-2.0448687076568604,-100,9951.0
8810,0.21976134181022644,-5.00320291519165,-94,6731.0,-4.179481029510498,22,9951.0
8820,0.22020860016345978,-3.5605528354644775,-90,6731.0,-3.3632380962371826,-128,9951.0
8830,0.22067689895629883,-2.4727134704589844,18,6731.0,-2.131148338317871,-85,9951.0
8840,0.22109349071979523,0.8060458898544312,46,6731.0,-0.9752430319786072,81,9951.0
8850,0.22165247797966003,4.473953723907471,24,6731.0,2.5501532554626465,22,9951.0
8860,0.22537626326084137,4.911681652069092,154,6731.0,4.29622745513916,0,9951.0
8870,0.22637544572353363,6.514360427856445,134,6731.0,4.012049198150635,142,9951.0
8880,0.2271643877029419,6.478472709655762,11,6731.0,5.115874767303467,109,9951.0
8890,0.2279997169971466,3.1756341457366943,111,6731.0,3.9557554721832275,22,9951.0
8900,0.22667524218559265,2.0277092456817627,14,6731.0,2.590420961380005,109,9951.0
8910,0.22730416059494019,0.6887215375900269,-63,6731.0,1.2302764654159546,62,9951.0
8920,0.22778932750225067,-1.8269975185394287,11,6731.0,-0.39997994899749756,-121,9951.0
8930,0.22844736278057098,-0.5587812066078186,18,6731.0,-2.3337135314941406,14,9951.0
8940,0.23073258996009827,0.9160084128379822,-30,6731.0,-3.247974395751953,-7,9951.0
8950,0.2316591888666153,2.3996307849884033,15,6731.0,-2.4268016815185547,-160,9951.0
8960,0.23267972469329834,3.3489813804626465,130,6731.0,-4.2614617347717285,-38,9951.0
8970,0.23378820717334747,3.5006043910980225,-22,6731.0,-4.458624362945557,30,9951.0
8980,0.2349483221769333,2.13869309425354,29,6731.0,-2.716637372970581,-79,9951.0
8990,0.2340766340494156,3.1563796997070312,154,6731.0,-1.8936859369277954,-56,9951.0
9000,0.2350749373435974,3.9038310050964355,77,6731.0,-1.0359586477279663,17,9951.0
9010,0.23601995408535004,6.000179290771484,37,6731.0,0.06114869564771652,51,9951.0
9020,0.236962229013443,4.585108280181885,107,6731.0,1.9618598222732544,-103,9951.0
9030,0.23754076659679413,5.076582908630371,122,6731.0,-0.820775032043457,-9,9951.0
9040,0.2385626882314682,5.156281471252441,43,6731.0,-1.7055761814117432,72,9951.0
9050,0.239670068025589,6.676407337188721,41,6731.0,-2.6275930404663086,-155,9951.0
9060,0.24084773659706116,5.794241428375244,157,6731.0,-4.336660861968994,-105,9951.0
9070,0.2420058250427246,5.933389663696289,96,6731.0,-5.920752048492432,7,9951.0
9080,0.24096721410751343,4.838334083557129,-14,6731.0,-6.029020309448242,-27,9951.0
9090,0.24190326035022736,4.502763271331787,83,6731.0,-5.341547012329102,-124,9951.0
9100,0.24273207783699036,2.5674197673797607,118,6731.0,-3.545473575592041,-81,9951.0
9110,0.24351096153259277,1.451460599899292,21,6731.0,-3.191446542739868,-10,9951.0
9120,0.24413645267486572,1.8567516803741455,-30,6731.0,-3.361684560775757,14,9951.0
9130,0.24519389867782593,0.6798365116119385,64,6731.0,0.3018124997615814,-92,9951.0
9140,0.24612249433994293,1.9769630432128906,88,6731.0,-0.866453230381012,-25,9951.0
9150,0.24683639407157898,1.751402735710144,51,6731.0,2.295037269592285,111,9951.0
9160,0.2474457174539566,5.7800397872924805,72,6731.0,1.3407673835754395,-22,9951.0
9170,0.24786140024662018,7.044895648956299,159,6731.0,0.917751669883728,-94,9951.0
9180,0.24863462150096893,8.3999662399292,134,6731.0,-4.082319736480713,77,9951.0
9190,0.24931608140468597,9.014863967895508,77,6731.0,-2.679687261581421,-19,9951.0
9200,0.2508932054042816,8.83887004852295,209,6731.0,-1.8071247339248657,-75,9951.0
9210,0.2499609887599945,9.342513084411621,206,6731.0,0.683049201965332,60,9951.0
9220,0.25094321370124817,11.577507019042969,149,6731.0,-2.0272018909454346,-11,9951.0
9230,0.2519189715385437,12.086597442626953,205,6731.0,-1.4109398126602173,-120,9951.0
9240,0.2533626854419708,11.276378631591797,174,6731.0,-1.7216709852218628,-121,9951.0
9250,0.2536381185054779,8.888387680053711,190,6731.0,-2.616252899169922,-92,9951.0
9260,0.2544044256210327,5.807000637054443,37,6731.0,-4.080071449279785,36,9951.0
9270,0.25515639781951904,1.9897133111953735,-18,6731.0,-3.773911952972412,-119,9951.0
9280,0.25606298446655273,-3.154132127761841,-2,6731.0,-3.188708543777466,-103,9951.0
9290,0.2565321922302246,-5.521068572998047,-55,6731.0,-1.5406713485717773,44,9951.0
9300,0.2574942708015442,-6.3403000831604,-186,6731.0,-0.32652348279953003,38,9951.0
9310,0.258468896150589,-8.680877685546875,-166,6731.0,0.8187435865402222,-55,9951.0
9320,0.25933805108070374,-9.730137825012207,-65,6731.0,2.3215010166168213,-3,9951.0
9330,0.26063624024391174,-5.706408977508545,-101,6731.0,1.2125635147094727,114,9951.0
9340,0.25960665941238403,-2.9026777744293213,-59,6731.0,0.24552734196186066,21,9951.0
9350,0.2598889172077179,-1.3954907655715942,28,6731.0,-2.6484780311584473,-107,9951.0
9360,0.26142361760139465,-2.820674419403076,-26,6731.0,-0.2915475070476532,44,9951.0
9370,0.263062983751297,-4.3465704917907715,-146,6731.0,2.7272987365722656,132,9951.0
9380,0.2619662582874298,-9.00886344909668,-204,6731.0,8.984642028808594,165,9951.0
9390,0.26344776153564453,-12.570375442504883,-141,6731.0,15.26947021484375,183,9951.0
9400,0.2648393511772156,-15.789216041564941,-221,6731.0,18.49075698852539,316,9951.0
9410,0.2658725380897522,-15.418309211730957,-289,6731.0,19.178579330444336,406,9951.0
9420,0.26673609018325806,-13.860010147094727,-293,6731.0,18.945722579956055,331,9951.0
9430,0.26570791006088257,-12.8429594039917,-148,6731.0,15.53323745727539,149,9951.0
9440,0.2665081024169922,-9.566575050354004,-87,6731.0,9.523839950561523,131,9951.0
9450,0.26727423071861267,-3.288529396057129,-42,6731.0,3.2324235439300537,118,9951.0
9460,0.26797163486480713,-0.8536468148231506,2,6731.0,-2.2466087341308594,-185,9951.0
9470,0.26780951023101807,2.7736334800720215,123,6731.0,-8.145601272583008,-182,9951.0
9480,0.2683202624320984,3.975564956665039,61,6731.0,-11.008565902709961,-114,9951.0
9490,0.26879048347473145,4.7056803703308105,-36,6731.0,-10.344098091125488,-86,9951.0
9500,0.26935723423957825,3.0491278171539307,47,6731.0,-6.172842979431152,-209,9951.0
9510,0.2695648968219757,1.5909043550491333,81,6731.0,-1.6807345151901245,-37,9951.0
9520,0.27042555809020996,1.6014463901519775,40,6731.0,0.7006444334983826,119,9951.0
9530,0.2711472511291504,2.664018392562866,-42,6731.0,4.167313098907471,184,9951.0
9540,0.2726137638092041,1.6006883382797241,18,6731.0,6.170066833496094,17,9951.0
9550,0.2728123366832733,3.367532968521118,103,6731.0,5.847886085510254,53,9951.0
9560,0.2744285762310028,3.6247293949127197,42,6731.0,1.7117184400558472,105,9951.0
9570,0.2744747996330261,2.941318988800049,-25,6731.0,0.7395534515380859,2,9951.0
9580,0.2761058509349823,2.707982063293457,133,6731.0,-2.614884614944458,-107,9951.0
9590,0.2761721909046173,4.384230136871338,67,6731.0,-6.097693920135498,2,9951.0
9600,0.2769862711429596,6.905201435089111,36,6731.0,-6.019876956939697,-89,9951.0
9610,0.2781010568141937,5.620877265930176,87,6731.0,-6.211043834686279,-201,9951.0
9620,0.27901458740234375,6.475404262542725,187,6731.0,-9.8086576461792,-172,9951.0
9630,0.2797629237174988,5.041102886199951,52,6731.0,-9.733931541442871,-77,9951.0
9640,0.280577689409256,4.270051002502441,40,6731.0,-9.931282997131348,-175,9951.0
9650,0.280859112739563,3.70697021484375,97,6731.0,-7.8237528800964355,-207,9951.0
9660,0.2817191183567047,3.634392499923706,115,6731.0,-7.904336929321289,-83,9951.0
9670,0.28264564275741577,3.577798843383789,-21,6731.0,-4.563619136810303,64,9951.0
9680,0.2847433388233185,5.285060882568359,62,6731.0,-2.344144821166992,-104,9951.0
9690,0.2858864665031433,5.400073528289795,169,6731.0,0.2908483147621155,-30,9951.0
9700,0.2868902087211609,7.796916961669922,140,6731.0,-1.6952556371688843,45,9951.0
9710,0.287903755903244,5.914292812347412,-8,6731.0,-3.234708547592163,22,9951.0
9720,0.2886967957019806,1.2227776050567627,14,6731.0,-3.460820436477661,-223,9951.0
9730,0.28894343972206116,-2.889042615890503,25,6731.0,-7.791202545166016,-113,9951.0
9740,0.2899848520755768,-3.8918046951293945,-120,6731.0,-12.201704025268555,-128,9951.0
9750,0.29104992747306824,-5.625547409057617,-145,6731.0,-14.772472381591797,-198,9951.0
9760,0.29212599992752075,-6.838181018829346,-75,6731.0,-13.69534969329834,-315,9951.0
9770,0.2931501269340515,-6.800429344177246,-40,6731.0,-12.637778282165527,-115,9951.0
9780,0.29448235034942627,-5.293663501739502,-110,6731.0,-10.224203109741211,-50,9951.0
9790,0.2954447865486145,-3.3405916690826416,-120,6731.0,-4.558551788330078,-96,9951.0
9800,0.2964099049568176,-3.4887008666992188,12,6731.0,-0.48887279629707336,-59,9951.0
9810,0.2973623275756836,-1.8321064710617065,-1,6731.0,4.713021755218506,156,9951.0
9820,0.29861485958099365,-0.21140380203723907,-47,6731.0,6.389252662658691,188,9951.0
9830,0.2996993660926819,1.2361903190612793,-14,6731.0,10.003352165222168,101,9951.0
9840,0.30074912309646606,2.842740774154663,127,6731.0,6.85791015625,101,9951.0
9850,0.30175310373306274,2.3971641063690186,10,6731.0,6.350552082061768,168,9951.0
9860,0.30268386006355286,2.26056170463562,14,6731.0,4.0695576667785645,93,9951.0
9870,0.30532708764076233,1.6511926651000977,48,6731.0,2.066004991531372,-73,9951.0
9880,0.3062705099582672,-0.11206382513046265,40,6731.0,1.2964653968811035,65,9951.0
9890,0.307312548160553,1.3257404565811157,-66,6731.0,-2.6343650817871094,33,9951.0
9900,0.30843719840049744,1.283090591430664,-52,6731.0,-1.1954755783081055,95,9951.0
9910,0.310153990983963,-0.04245484247803688,-6,6731.0,1.7625494003295898,-80,9951.0
9920,0.31138482689857483,-1.5694600343704224,37,6731.0,-0.06036348640918732,28,9951.0
9930,0.3125409483909607,-1.4749916791915894,-44,6731.0,1.6311701536178589,79,9951.0
9940,0.31361082196235657,-1.744540810585022,-120,6731.0,3.6563310623168945,152,9951.0
9950,0.31589746475219727,-2.3372280597686768,-39,6731.0,6.771806716918945,26,9951.0
9960,0.31694933772087097,-1.70032799243927,27,6731.0,6.873507499694824,75,9951.0
9970,0.31797417998313904,-0.25832101702690125,28,6731.0,4.664704322814941,146,9951.0
9980,0.319823294878006,2.321115016937256,-40,6731.0,5.085511207580566,166,9951.0
9990,0.3210466206073761,4.867649078369141,98,6731.0,2.218259572982788,-36,9951.0
10000,0.3234163820743561,4.585298538208008,119,6731.0,-0.4747709333896637,-46,9951.0
10010,0.32461267709732056,0.6361479759216309,-2,6731.0,0.6458543539047241,118,9951.0
10020,0.3256669342517853,-4.00687837600708,-174,6731.0,3.634610891342163,187,9951.0
10030,0.32687291502952576,-8.891884803771973,-198,6731.0,8.784223556518555,145,9951.0
10040,0.32830810546875,-13.654372215270996,-181,6731.0,12.65221118927002,131,9951.0
10050,0.32945844531059265,-16.593074798583984,-193,6731.0,14.800243377685547,217,9951.0
10060,0.33065277338027954,-16.623119354248047,-267,6731.0,15.952750205993652,297,9951.0
10070,0.33152714371681213,-15.62963581085205,-279,6731.0,15.279632568359375,344,9951.0
10080,0.33230847120285034,-13.043601036071777,-201,6731.0,13.549708366394043,112,9951.0
10090,0.3334891200065613,-10.057195663452148,-62,6731.0,8.004204750061035,12,9951.0
10100,0.3343259394168854,-6.72772741317749,-91,6731.0,1.9059557914733887,48,9951.0
10110,0.33512866497039795,-4.865288734436035,-133,6731.0,-1.998810887336731,68,9951.0
10120,0.33580318093299866,-2.6915488243103027,-33,6731.0,-5.643176555633545,-204,9951.0
10130,0.33663803339004517,-0.7619576454162598,90,6731.0,-5.4320526123046875,-179,9951.0
10140,0.3372965455055237,1.0058292150497437,50,6731.0,-4.66368293762207,-40,9951.0
10150,0.33801621198654175,3.0370490550994873,-6,6731.0,-4.366389274597168,95,9951.0
10160,0.3387792110443115,3.3056559562683105,-2,6731.0,-1.3379638195037842,-48,9951.0
10170,0.3392762839794159,2.659594774246216,86,6731.0,0.9002575874328613,-96,9951.0
10180,0.3399342894554138,1.259361743927002,61,6731.0,2.8616816997528076,36,9951.0
10190,0.34048181772232056,0.31460753083229065,-1,6731.0,1.3878315687179565,127,9951.0
10200,0.3411097824573517,-0.3371732831001282,-48,6731.0,0.00527313444763422,22,9951.0
10210,0.3418212831020355,-0.9017785787582397,-9,6731.0,-0.6951950192451477,-116,9951.0
10220,0.3435395061969757,-0.9424910545349121,45,6731.0,-2.465519666671753,-59,9951.0
10230,0.3443620204925537,1.596034288406372,-15,6731.0,-6.106719017028809,21,9951.0
10240,0.3451387882232666,0.7336612939834595,-51,6731.0,-5.246717929840088,-108,9951.0
10250,0.3458234667778015,0.7819000482559204,58,6731.0,-4.806362152099609,-149,9951.0
10260,0.34893500804901123,0.7568484544754028,77,6731.0,-5.401374340057373,-6,9951.0
10270,0.34977760910987854,1.667842984199524,0,6731.0,-3.9329845905303955,-11,9951.0
10280,0.35070329904556274,2.151376724243164,-53,6731.0,-0.4272196888923645,42,9951.0
10290,0.35172733664512634,2.018723487854004,66,6731.0,-0.447313517332077,-114,9951.0
10300,0.3526943027973175,4.066439628601074,119,6731.0,0.7470701932907104,68,9951.0
10310,0.35371944308280945,4.03825569152832,29,6731.0,-0.1578245311975479,37,9951.0
10320,0.3546164333820343,5.027927398681641,25,6731.0,0.7055075764656067,40,9951.0
10330,0.355411171913147,5.965394020080566,128,6731.0,-0.9739006161689758,-119,9951.0
10340,0.35625025629997253,6.664682865142822,208,6731.0,-4.029854774475098,-95,9951.0
10350,0.3587478995323181,6.330471515655518,102,6731.0,-4.482855319976807,3,9951.0
10360,0.3598049283027649,6.655896186828613,37,6731.0,-5.6963419914245605,-86,9951.0
10370,0.3607044517993927,6.393523693084717,82,6731.0,-7.399954795837402,-195,9951.0
10380,0.36148086190223694,6.326416015625,161,6731.0,-7.749807834625244,-197,9951.0
10390,0.36366015672683716,6.181357383728027,174,6731.0,-7.328108310699463,-84,9951.0
10400,0.36472344398498535,7.5997538566589355,67,6731.0,-10.195192337036133,-89,9951.0
10410,0.36577677726745605,9.233217239379883,106,6731.0,-10.8140230178833,-158,9951.0
10420,0.3667757213115692,8.94455337524414,170,6731.0,-11.335569381713867,-300,9951.0
10430,0.36767885088920593,6.575516223907471,196,6731.0,-11.260438919067383,-225,9951.0
10440,0.36955660581588745,6.108155250549316,110,6731.0,-8.793672561645508,-120,9951.0
10450,0.3706212639808655,2.8625848293304443,4,6731.0,-8.21251392364502,-58,9951.0
10460,0.37172096967697144,2.512742519378662,-54,6731.0,-6.121915817260742,14,9951.0
10470,0.3727358281612396,-0.053827300667762756,-12,6731.0,-3.164921760559082,-54,9951.0
10480,0.37415292859077454,-0.7233270406723022,32,6731.0,-0.7393481731414795,-98,9951.0
10490,0.37511730194091797,-2.259315252304077,27,6731.0,0.7425505518913269,-88,9951.0
10500,0.3761714994907379,-0.2623406946659088,23,6731.0,-0.22822584211826324,116,9951.0
10510,0.3772199749946594,1.2988463640213013,-60,6731.0,-4.330404281616211,40,9951.0
10520,0.37818610668182373,2.809473752975464,22,6731.0,-2.8686294555664062,25,9951.0
10530,0.3790106177330017,1.7682501077651978,33,6731.0,1.5228610038757324,-132,9951.0
10540,0.379831999540329,1.7965912818908691,4,6731.0,-0.07106201350688934,-88,9951.0
10550,0.3806287944316864,1.4435099363327026,84,6731.0,0.5123660564422607,-96,9951.0
10560,0.38132619857788086,-0.3303873538970947,69,6731.0,-0.6652780771255493,5,9951.0
10570,0.3831265866756439,-1.1343765258789062,-20,6731.0,0.42405760288238525,49,9951.0
10580,0.3838934004306793,0.5683420896530151,-95,6731.0,-1.2657378911972046,69,9951.0
10590,0.3846933841705322,0.5035070180892944,-37,6731.0,0.20886635780334473,-47,9951.0
10600,0.3853991627693176,-0.20200097560882568,23,6731.0,1.1150269508361816,-109,9951.0
10610,0.38743534684181213,-0.12175571918487549,66,6731.0,-0.9178983569145203,-64,9951.0
10620,0.3879638612270355,1.3316686153411865,56,6731.0,0.16957618296146393,57,9951.0
10630,0.38855019211769104,1.1659966707229614,-63,6731.0,1.559800148010254,99,9951.0
10640,0.3891217112541199,2.120772123336792,-53,6731.0,2.2295193672180176,87,9951.0
10650,0.38955652713775635,0.567501962184906,-15,6731.0,4.403956890106201,4,9951.0
10660,0.39068567752838135,-0.9168123602867126,39,6731.0,2.7415032386779785,-37,9951.0
10670,0.39099645614624023,-1.9521503448486328,42,6731.0,5.730596542358398,100,9951.0
10680,0.39131808280944824,-2.491672992706299,-33,6731.0,4.664860248565674,67,9951.0
10690,0.3915439546108246,-1.529759168624878,-116,6731.0,3.106436252593994,162,9951.0
10700,0.3929019868373871,0.5628455281257629,-48,6731.0,6.456708908081055,81,9951.0
10710,0.39302146434783936,0.13007482886314392,5,6731.0,5.582124710083008,-1,9951.0
10720,0.3932396173477173,-0.837105393409729,71,6731.0,6.171653747558594,80,9951.0
10730,0.39345309138298035,-1.3079752922058105,-9,6731.0,5.3506760597229,96,9951.0
10740,0.393555223941803,-1.8827468156814575,-92,6731.0,3.361178159713745,145,9951.0
10750,0.3968808650970459,-2.7875993251800537,-145,6731.0,3.752657890319824,36,9951.0
10760,0.3971365690231323,-3.7727980613708496,-32,6731.0,0.8053942918777466,-67,9951.0
10770,0.3975306451320648,-3.7300877571105957,19,6731.0,-0.7093521952629089,12,9951.0
10780,0.397920161485672,-3.7977709770202637,-72,6731.0,1.567351222038269,57,9951.0
10790,0.401639848947525,-4.688368797302246,-98,6731.0,0.8683813214302063,109,9951.0
10800,0.40202540159225464,-4.888319969177246,-115,6731.0,0.8117297291755676,-14,9951.0
10810,0.40247267484664917,-5.257302761077881,-58,6731.0,1.5665318965911865,-84,9951.0
10820,0.40302345156669617,-5.127540111541748,-1,6731.0,1.4852416515350342,-9,9951.0
10830,0.406392902135849,-4.25148868560791,-122,6731.0,2.22525954246521,173,9951.0
10840,0.40705206990242004,-5.460030555725098,-139,6731.0,5.254456996917725,127,9951.0
10850,0.4076869785785675,-5.4020609855651855,-97,6731.0,6.56210470199585,78,9951.0
10860,0.40829241275787354,-6.712833404541016,-38,6731.0,6.549925804138184,44,9951.0
10870,0.4089812636375427,-7.644002914428711,-48,6731.0,3.699281930923462,65,9951.0
10880,0.41183507442474365,-7.0618815422058105,-159,6731.0,2.403580665588379,175,9951.0
10890,0.4126444458961487,-5.242346286773682,-165,6731.0,1.0721397399902344,-7,9951.0
10900,0.41333481669425964,-1.868951678276062,2,6731.0,-2.4563653469085693,-158,9951.0
10910,0.41400113701820374,-0.5452372431755066,75,6731.0,-4.306809425354004,-105,9951.0
10920,0.4171184301376343,0.11754662543535233,8,6731.0,-4.062199115753174,-59,9951.0
10930,0.4180414080619812,1.9960414171218872,-26,6731.0,-4.826154708862305,38,9951.0
10940,0.41892319917678833,2.6115527153015137,-28,6731.0,-3.9314839839935303,-29,9951.0
10950,0.4196876287460327,1.3269367218017578,24,6731.0,-4.845975875854492,-98,9951.0
10960,0.42040756344795227,-1.5723459720611572,44,6731.0,-0.4522794187068939,-131,9951.0
10970,0.4237841069698334,-1.7178146839141846,58,6731.0,-1.6775312423706055,-53,9951.0
10980,0.4248259663581848,0.5091338753700256,-18,6731.0,-5.009057998657227,5,9951.0
10990,0.42563700675964355,1.2194585800170898,-100,6731.0,-4.259871959686279,81,9951.0
11000,0.4262677729129791,1.5457758903503418,18,6731.0,-4.836607933044434,-119,9951.0
11010,0.4289281964302063,3.3028039932250977,10,6731.0,0.7011173963546753,-38,9951.0
11020,0.4297114312648773,1.2116889953613281,96,6731.0,0.809939980506897,-55,9951.0
11030,0.43050065636634827,-1.1818183660507202,68,6731.0,1.474700689315796,-5,9951.0
11040,0.4311673045158386,-1.2609128952026367,36,6731.0,4.501071929931641,-5,9951.0
11050,0.4322425127029419,-2.2599902153015137,-23,6731.0,3.386092185974121,116,9951.0
11060,0.43283092975616455,0.9913409352302551,-93,6731.0,0.877802848815918,90,9951.0
11070,0.4332877993583679,3.138949155807495,-77,6731.0,-1.483955979347229,72,9951.0
11080,0.43367335200309753,3.8923583030700684,34,6731.0,-3.6296868324279785,-11,9951.0
11090,0.4341125786304474,3.978372097015381,52,6731.0,-3.4040703773498535,-137,9951.0
11100,0.43551722168922424,3.2219038009643555,139,6731.0,-6.5433125495910645,-106,9951.0
11110,0.43582984805107117,3.581907272338867,131,6731.0,-5.6142401695251465,-138,9951.0
11120,0.43609559535980225,1.1897505521774292,111,6731.0,-4.686983585357666,-116,9951.0
11130,0.43632352352142334,1.0799732208251953,69,6731.0,1.7792303562164307,61,9951.0
11140,0.4381868839263916,0.7444029450416565,2,6731.0,3.071918249130249,103,9951.0
11150,0.4382934868335724,-0.5706155896186829,-8,6731.0,2.7411367893218994,84,9951.0
11160,0.4384330213069916,-0.3278771638870239,31,6731.0,3.582704782485962,87,9951.0
11170,0.43852734565734863,-0.19207999110221863,-103,6731.0,1.9431556463241577,107,9951.0
11180,0.43858802318573,0.19521012902259827,-83,6731.0,4.6203413009643555,133,9951.0
11190,0.44088512659072876,-0.5499112010002136,-53,6731.0,4.540060043334961,-13,9951.0
11200,0.4411754608154297,0.0074447388760745525,85,6731.0,1.4195185899734497,-71,9951.0
11210,0.44140657782554626,0.026213712990283966,69,6731.0,0.866467297077179,-111,9951.0
11220,0.4416264593601227,-1.7507336139678955,47,6731.0,-0.34448447823524475,-26,9951.0
11230,0.44429439306259155,0.4752745032310486,0,6731.0,-1.9511821269989014,59,9951.0
11240,0.44460564851760864,0.7382603883743286,-83,6731.0,-0.9139654636383057,-6,9951.0
11250,0.4447861611843109,-0.7753565907478333,-42,6731.0,0.9356537461280823,18,9951.0
11260,0.44487816095352173,-2.3864829540252686,-44,6731.0,2.0455093383789062,-61,9951.0
11270,0.4480361044406891,-0.24674248695373535,119,6731.0,-1.6517236232757568,-84,9951.0
11280,0.44827693700790405,1.1890913248062134,85,6731.0,1.4753241539001465,110,9951.0
11290,0.4483897387981415,4.785886764526367,46,6731.0,1.667119026184082,16,9951.0
11300,0.4483747184276581,5.056935787200928,19,6731.0,-1.4474493265151978,47,9951.0
11310,0.4483632445335388,6.13939094543457,53,6731.0,1.1626648902893066,-1,9951.0
11320,0.4490143656730652,2.9149293899536133,81,6731.0,-1.5399932861328125,-131,9951.0
11330,0.4489852786064148,2.5551390647888184,147,6731.0,-2.3524789810180664,-72,9951.0
11340,0.448840469121933,2.825709104537964,68,6731.0,-1.787578821182251,14,9951.0
11350,0.4487048089504242,4.288846969604492,7,6731.0,-2.8813135623931885,61,9951.0
11360,0.44916248321533203,3.2960989475250244,17,6731.0,-1.0238423347473145,27,9951.0
11370,0.4491705298423767,3.118821859359741,82,6731.0,-0.7076925039291382,-126,9951.0
11380,0.44916313886642456,3.188486099243164,150,6731.0,-1.0515432357788086,-67,9951.0
11390,0.4490971863269806,1.3499857187271118,42,6731.0,-2.7624545097351074,27,9951.0
11400,0.4490387439727783,0.31227144598960876,-28,6731.0,-0.6935815811157227,-14,9951.0
11410,0.45292964577674866,-0.7420167326927185,-98,6731.0,-2.36867618560791,-3,9951.0
11420,0.4531969428062439,-0.5027715563774109,-59,6731.0,-2.6566200256347656,-76,9951.0
11430,0.4534015655517578,-2.125211477279663,15,6731.0,-2.751418352127075,-238,9951.0
11440,0.45357125997543335,-2.05191707611084,62,6731.0,-7.3598504066467285,-136,9951.0
11450,0.4554634690284729,0.4313395917415619,20,6731.0,-8.234160423278809,-43,9951.0
11460,0.45589110255241394,0.7799607515335083,-90,6731.0,-10.317424774169922,-97,9951.0
11470,0.4562632143497467,1.0886191129684448,8,6731.0,-8.259011268615723,-100,9951.0
11480,0.45663127303123474,1.639875888824463,50,6731.0,-6.596364498138428,-213,9951.0
11490,0.45738181471824646,1.8312231302261353,107,6731.0,-7.9493560791015625,-207,9951.0
11500,0.4578430950641632,0.9511268734931946,88,6731.0,-5.975464344024658,-119,9951.0
11510,0.4582977592945099,0.35564231872558594,19,6731.0,-3.0433225631713867,47,9951.0
11520,0.4586942791938782,1.304535984992981,-38,6731.0,-0.6540840864181519,117,9951.0
11530,0.45913150906562805,-0.6254784464836121,-87,6731.0,-2.130887746810913,58,9951.0
11540,0.460339218378067,-3.000162124633789,-69,6731.0,-1.3649851083755493,-61,9951.0
11550,0.46079596877098083,-4.744930744171143,-65,6731.0,0.07921864092350006,-98,9951.0
11560,0.46117889881134033,-5.360657691955566,-48,6731.0,1.5173829793930054,-40,9951.0
11570,0.46154457330703735,-5.487142086029053,11,6731.0,1.2024214267730713,13,9951.0
11580,0.4607190191745758,-3.107006072998047,24,6731.0,0.7563468217849731,17,9951.0
11590,0.4608001112937927,-1.9530082941055298,-78,6731.0,-3.677351713180542,73,9951.0
11600,0.4608169496059418,-3.145439624786377,-50,6731.0,1.7479757070541382,69,9951.0
11610,0.4608623683452606,1.7361030578613281,-98,6731.0,-0.590831995010376,72,9951.0
11620,0.4609251618385315,2.6609139442443848,-22,6731.0,0.400206059217453,0,9951.0
11630,0.46181297302246094,3.0414881706237793,37,6731.0,4.661006927490234,13,9951.0
11640,0.46204254031181335,1.6838635206222534,127,6731.0,2.612846612930298,-38,9951.0
11650,0.4623390734195709,3.359215497970581,139,6731.0,-1.6356244087219238,-51,9951.0
11660,0.4625519812107086,0.8380613923072815,70,6731.0,6.478339672088623,-38,9951.0
11670,0.4631582498550415,-0.9249944090843201,-10,6731.0,3.251032590866089,81,9951.0
11680,0.46317505836486816,-1.7308540344238281,-158,6731.0,1.3192572593688965,164,9951.0
11690,0.46309131383895874,-2.518019437789917,-172,6731.0,4.21466064453125,154,9951.0
11700,0.4628719985485077,-1.750834584236145,-41,6731.0,3.227984666824341,105,9951.0
11710,0.46395084261894226,-1.4069985151290894,-86,6731.0,0.3046698272228241,-6,9951.0
11720,0.46380680799484253,0.8199593424797058,13,6731.0,-0.09903547167778015,-64,9951.0
11730,0.46353429555892944,-0.46649229526519775,138,6731.0,1.4911012649536133,-67,9951.0
11740,0.463200181722641,0.7795915603637695,40,6731.0,0.49592360854148865,55,9951.0
11750,0.46292516589164734,-2.402405261993408,21,6731.0,-0.19302602112293243,18,9951.0
11760,0.463583379983902,-2.079519033432007,-17,6731.0,1.8598439693450928,93,9951.0
11770,0.4633144438266754,-1.667407751083374,-191,6731.0,-1.3054865598678589,160,9951.0
11780,0.4630964398384094,-3.51303768157959,-94,6731.0,0.2353883981704712,-11,9951.0
11790,0.4629596769809723,-4.494636535644531,-29,6731.0,4.9386796951293945,24,9951.0
11800,0.4632323086261749,-2.4152042865753174,-37,6731.0,5.774111747741699,16,9951.0
11810,0.4629567265510559,-1.1474761962890625,118,6731.0,6.610057830810547,9,9951.0
11820,0.4627174437046051,0.20650748908519745,47,6731.0,5.059177875518799,33,9951.0
11830,0.46250176429748535,0.07815047353506088,-83,6731.0,5.452353000640869,50,9951.0
11840,0.46217572689056396,-0.42986923456192017,30,6731.0,4.486862659454346,140,9951.0
11850,0.46253666281700134,0.8571236729621887,-138,6731.0,0.9154897928237915,123,9951.0
11860,0.4623343348503113,-1.0620980262756348,-86,6731.0,2.534207820892334,32,9951.0
11870,0.4621737003326416,-1.2810276746749878,-11,6731.0,4.467909336090088,-38,9951.0
11880,0.4619540274143219,-2.044370412826538,72,6731.0,1.7647309303283691,12,9951.0
11890,0.4622475206851959,-0.6988714337348938,36,6731.0,1.9449671506881714,37,9951.0
11900,0.4621734321117401,-3.1699962615966797,6,6731.0,3.982795000076294,125,9951.0
11910,0.4620876908302307,-1.5141019821166992,-45,6731.0,-0.18890050053596497,77,9951.0
11920,0.46196332573890686,-1.775998830795288,-202,6731.0,3.396656036376953,182,9951.0
11930,0.46498969197273254,-5.112181186676025,-89,6731.0,2.8496265411376953,-25,9951.0
11940,0.4652802050113678,-3.1975162029266357,-31,6731.0,-0.21466940641403198,-72,9951.0
11950,0.4655750095844269,-3.69856595993042,-4,6731.0,1.0295741558074951,-88,9951.0
11960,0.4657967984676361,-2.4038474559783936,70,6731.0,-2.8864707946777344,-89,9951.0
11970,0.4660870134830475,-1.0497223138809204,-46,6731.0,0.0838155671954155,95,9951.0
11980,0.4664374887943268,0.6048609018325806,-106,6731.0,-2.3502368927001953,79,9951.0
11990,0.46676352620124817,-0.5144893527030945,-29,6731.0,-0.7053849697113037,-55,9951.0
12000,0.4669475555419922,1.7859508991241455,53,6731.0,-2.947030782699585,-69,9951.0
12010,0.4670916199684143,-0.5493457317352295,-22,6731.0,1.4235626459121704,-57,9951.0
12020,0.4675273001194,1.0360366106033325,123,6731.0,0.6432172656059265,-150,9951.0
12030,0.4675768315792084,2.5326008796691895,184,6731.0,-1.155404806137085,-52,9951.0
12040,0.46757936477661133,2.071075916290283,71,6731.0,-0.87958824634552,-27,9951.0
12050,0.467654287815094,1.9568666219711304,80,6731.0,-0.4267103374004364,-25,9951.0
12060,0.46772074699401855,1.8160252571105957,13,6731.0,-1.0004090070724487,52,9951.0
12070,0.4674062728881836,3.7450783252716064,-151,6731.0,-0.9309782385826111,118,9951.0
12080,0.4673949182033539,0.17783164978027344,-21,6731.0,-0.5985870957374573,-4,9951.0
12090,0.4673914313316345,0.2255433201789856,-48,6731.0,2.744645118713379,138,9951.0
12100,0.4672563374042511,0.4249906539916992,-41,6731.0,3.037480115890503,57,9951.0
12110,0.46823850274086,0.8201983571052551,47,6731.0,0.9623174071311951,-39,9951.0
12120,0.46816423535346985,-2.4535255432128906,13,6731.0,-1.1500470638275146,-3,9951.0
12130,0.4679902195930481,-1.9023401737213135,86,6731.0,2.817650079727173,-82,9951.0
12140,0.4677562117576599,0.6207519769668579,91,6731.0,-0.5453555583953857,64,9951.0
12150,0.4677169919013977,-1.7361005544662476,-26,6731.0,0.09299420565366745,47,9951.0
12160,0.46749523282051086,-0.0035348779056221247,-59,6731.0,-2.718472957611084,65,9951.0
12170,0.4672970473766327,0.42695361375808716,-70,6731.0,-1.0650211572647095,101,9951.0
12180,0.46722668409347534,2.2514967918395996,-71,6731.0,-0.9802792072296143,63,9951.0
12190,0.46721020340919495,0.5044500827789307,-4,6731.0,-0.6782414317131042,-19,9951.0
12200,0.4678473472595215,4.432931423187256,75,6731.0,-3.0775034427642822,-87,9951.0
12210,0.4677402675151825,2.1230270862579346,125,6731.0,0.943112850189209,-84,9951.0
12220,0.467541366815567,2.286381244659424,130,6731.0,0.3697614073753357,-45,9951.0
12230,0.4671686291694641,2.7633049488067627,47,6731.0,2.111372232437134,67,9951.0
12240,0.46595653891563416,-1.2963560819625854,-19,6731.0,3.698029041290283,111,9951.0
12250,0.465358704328537,-0.1826009452342987,-103,6731.0,3.5594322681427,157,9951.0
12260,0.4647514522075653,0.3791597783565521,-95,6731.0,-2.6267893314361572,-10,9951.0
12270,0.46403437852859497,-1.6906975507736206,-46,6731.0,-1.8329395055770874,-16,9951.0
12280,0.46339669823646545,-0.4277650713920593,38,6731.0,-1.9468806982040405,-153,9951.0
12290,0.46385514736175537,-0.6366518139839172,88,6731.0,-0.5731161236763,-135,9951.0
12300,0.46327757835388184,1.0353187322616577,148,6731.0,-5.0667595863342285,13,9951.0
12310,0.462723046541214,1.8558964729309082,-6,6731.0,-3.458768129348755,48,9951.0
12320,0.46233251690864563,3.683361768722534,-78,6731.0,-2.119384527206421,64,9951.0
12330,0.46186304092407227,1.1986243724822998,-5,6731.0,-2.8999106884002686,-29,9951.0
12340,0.4614327847957611,2.0158376693725586,25,6731.0,-3.7643706798553467,-71,9951.0
12350,0.4609145224094391,1.755706548690796,17,6731.0,0.12424170970916748,-97,9951.0
12360,0.4603566825389862,0.36120566725730896,130,6731.0,1.0217911005020142,-87,9951.0
12370,0.4618839621543884,-0.057626873254776,54,6731.0,0.9671484231948853,83,9951.0
12380,0.46137022972106934,2.151540517807007,-99,6731.0,-0.5759234428405762,101,9951.0
12390,0.46086516976356506,-0.517839252948761,-103,6731.0,1.574883222579956,78,9951.0
12400,0.46046310663223267,0.8150635957717896,-18,6731.0,-1.5691241025924683,-10,9951.0
12410,0.46007078886032104,1.5002952814102173,26,6731.0,-1.3822789192199707,-69,9951.0
12420,0.46160438656806946,-1.3857885599136353,139,6731.0,0.6903610825538635,-59,9951.0
12430,0.4612291157245636,-0.1042153537273407,84,6731.0,-1.8921624422073364,6,9951.0
12440,0.4609244167804718,0.8048830032348633,-37,6731.0,1.5082485675811768,66,9951.0
12450,0.4606040418148041,0.6677520871162415,-33,6731.0,-2.1430375576019287,34,9951.0
12460,0.4629612863063812,1.7115607261657715,-17,6731.0,-1.1350575685501099,44,9951.0
12470,0.46277916431427,2.743504524230957,35,6731.0,-0.22364670038223267,-123,9951.0
12480,0.46266990900039673,1.7640217542648315,124,6731.0,-1.6677614450454712,-57,9951.0
12490,0.46255940198898315,-0.5290049910545349,69,6731.0,-3.4777286052703857,-155,9951.0
12500,0.4624532163143158,-0.8666958808898926,68,6731.0,-0.7490016222000122,-107,9951.0
12510,0.46385252475738525,0.6921079754829407,115,6731.0,-1.531935691833496,4,9951.0
12520,0.46399229764938354,0.5092243552207947,6,6731.0,-2.1023383140563965,89,9951.0
12530,0.4640772342681885,2.1288883686065674,-65,6731.0,0.5289309024810791,79,9951.0
12540,0.4640209972858429,0.0969042181968689,-52,6731.0,1.731905460357666,23,9951.0
12550,0.46434974670410156,0.6837587356567383,-86,6731.0,3.552501678466797,116,9951.0
12560,0.46433931589126587,-0.6074005961418152,-5,6731.0,1.6399132013320923,39,9951.0
12570,0.4642201364040375,-1.216794729232788,47,6731.0,1.6630066633224487,-128,9951.0
12580,0.4640609622001648,-2.8851397037506104,10,6731.0,0.23530325293540955,-87,9951.0
12590,0.4659101366996765,-4.441606521606445,17,6731.0,-2.173588275909424,-80,9951.0
12600,0.4658626914024353,-4.122743129730225,6,6731.0,-3.8689708709716797,-104,9951.0
12610,0.4658673107624054,-3.2508840560913086,-24,6731.0,-5.993187427520752,-42,9951.0
12620,0.4659689962863922,-3.7006287574768066,-98,6731.0,-3.910747766494751,37,9951.0
12630,0.4660826325416565,-0.7429165840148926,-137,6731.0,-4.936822414398193,30,9951.0
12640,0.46810033917427063,0.025729721412062645,-151,6731.0,-3.209411382675171,68,9951.0
12650,0.4682081937789917,-0.4753033220767975,-70,6731.0,1.1448113918304443,116,9951.0
12660,0.46823394298553467,-2.7631418704986572,-29,6731.0,5.291075229644775,33,9951.0
12670,0.46815288066864014,-7.777073383331299,-147,6731.0,7.432436466217041,51,9951.0
12680,0.4707961082458496,-8.22493839263916,-52,6731.0,5.220848083496094,48,9951.0
12690,0.47083282470703125,-6.91960334777832,-30,6731.0,5.586066722869873,28,9951.0
12700,0.47086045145988464,-7.053747177124023,-5,6731.0,5.659668922424316,-23,9951.0
12710,0.4709572494029999,0.020904287695884705,91,6731.0,-1.9687118530273438,46,9951.0
12720,0.47107255458831787,4.403082847595215,11,6731.0,-4.357987880706787,56,9951.0
12730,0.47106024622917175,4.595913887023926,2,6731.0,-3.985452890396118,-43,9951.0
12740,0.4710642993450165,4.494508743286133,67,6731.0,-3.130173921585083,-27,9951.0
12750,0.47106093168258667,6.723423004150391,22,6731.0,-3.028763771057129,53,9951.0
12760,0.4709453582763672,6.820915699005127,71,6731.0,-4.538175106048584,-88,9951.0
12770,0.4710921049118042,6.007002353668213,132,6731.0,-3.7555835247039795,-100,9951.0
12780,0.47083356976509094,1.4696632623672485,8,6731.0,-0.2727268934249878,-49,9951.0
12790,0.47054746747016907,-2.134779930114746,-14,6731.0,2.011887788772583,-124,9951.0
12800,0.470255583524704,-8.549359321594238,-9,6731.0,1.237475872039795,-40,9951.0
12810,0.47002702951431274,-8.189062118530273,-123,6731.0,0.31491899490356445,75,9951.0
12820,0.46985939145088196,-9.32316780090332,-73,6731.0,0.4864409863948822,85,9951.0
12830,0.4695541262626648,-7.297867774963379,-85,6731.0,3.328247547149658,129,9951.0
12840,0.4691736698150635,-1.3287382125854492,-146,6731.0,1.0837510824203491,42,9951.0
12850,0.46880531311035156,0.21232189238071442,-68,6731.0,2.7094032764434814,80,9951.0
12860,0.4695644676685333,3.446120262145996,71,6731.0,-2.1690785884857178,-46,9951.0
12870,0.4690532684326172,2.5860486030578613,71,6731.0,0.8442641496658325,-103,9951.0
12880,0.46864160895347595,2.1141934394836426,149,6731.0,-2.7488443851470947,-126,9951.0
12890,0.46828436851501465,3.3103528022766113,111,6731.0,-5.200506210327148,-94,9951.0
12900,0.46861740946769714,4.1911211013793945,16,6731.0,-3.2780916690826416,-66,9951.0
12910,0.4684155285358429,2.0487749576568604,-1,6731.0,-3.0168116092681885,68,9951.0
12920,0.4683372676372528,1.853466510772705,-136,6731.0,2.0866644382476807,240,9951.0
12930,0.4682155251502991,1.807788610458374,-50,6731.0,2.4055063724517822,39,9951.0
12940,0.46878334879875183,0.7539756298065186,65,6731.0,2.40376615524292,15,9951.0
12950,0.46851393580436707,-2.324385404586792,-51,6731.0,2.498666524887085,12,9951.0
12960,0.46811848878860474,-3.4749257564544678,32,6731.0,5.8024582862854,-17,9951.0
12970,0.4675794541835785,-3.3802900314331055,69,6731.0,3.4027745723724365,12,9951.0
12980,0.4670330286026001,-3.4772446155548096,-72,6731.0,3.781569480895996,137,9951.0
12990,0.4673243463039398,-2.389849901199341,-57,6731.0,5.123998165130615,123,9951.0
13000,0.4667530953884125,0.4822230339050293,-46,6731.0,-1.1391791105270386,61,9951.0
13010,0.46615663170814514,2.3072550296783447,-68,6731.0,0.4280584156513214,60,9951.0
13020,0.4656263589859009,1.7100871801376343,35,6731.0,-2.042137384414673,-85,9951.0
13030,0.4671224355697632,2.6043269634246826,119,6731.0,-2.348817825317383,-95,9951.0
13040,0.46671172976493835,2.360590934753418,115,6731.0,-1.058481216430664,-41,9951.0
13050,0.46633070707321167,1.2558680772781372,116,6731.0,-1.046182632446289,-31,9951.0
13060,0.466048002243042,1.636304259300232,-6,6731.0,-0.4056086540222168,32,9951.0
13070,0.4657301604747772,3.0122146606445312,-106,6731.0,0.6922391057014465,175,9951.0
13080,0.46745407581329346,-2.4783055782318115,-68,6731.0,4.125351905822754,67,9951.0
13090,0.4671243131160736,-1.8272325992584229,-58,6731.0,4.4210076332092285,73,9951.0
13100,0.46683284640312195,-3.6550233364105225,18,6731.0,4.4580254554748535,1,9951.0
13110,0.46651342511177063,-5.300085544586182,47,6731.0,5.177116394042969,-15,9951.0
13120,0.46555861830711365,-6.310755729675293,22,6731.0,2.678178310394287,25,9951.0
13130,0.4652705788612366,-0.6684125065803528,-88,6731.0,-2.62156081199646,88,9951.0
13140,0.46505117416381836,-0.720676064491272,11,6731.0,-2.0062968730926514,-41,9951.0
13150,0.46472832560539246,0.38037458062171936,-29,6731.0,-1.8588510751724243,9,9951.0
13160,0.4642888009548187,3.344019651412964,-88,6731.0,-4.276072025299072,54,9951.0
13170,0.4650326669216156,2.143421173095703,-83,6731.0,-3.6850152015686035,-93,9951.0
13180,0.46471646428108215,0.24638631939888,83,6731.0,-3.074620246887207,-154,9951.0
13190,0.46436530351638794,-0.3454868495464325,65,6731.0,-2.034506320953369,-106,9951.0
13200,0.46408894658088684,0.4871219992637634,79,6731.0,-0.0647784098982811,-91,9951.0
13210,0.4654993414878845,1.5140706300735474,21,6731.0,1.0775352716445923,51,9951.0
13220,0.4654446840286255,0.8049739003181458,-26,6731.0,2.1998493671417236,110,9951.0
13230,0.46537113189697266,-0.6558497548103333,-80,6731.0,3.0519332885742188,84,9951.0
13240,0.4653381109237671,-0.8026126623153687,-84,6731.0,4.0830464363098145,132,9951.0
13250,0.4651472568511963,-0.9154109954833984,-93,6731.0,3.078752040863037,98,9951.0
13260,0.4649347960948944,-2.5149877071380615,-11,6731.0,1.920210361480713,-64,9951.0
13270,0.46461746096611023,-1.929193377494812,102,6731.0,0.08891689777374268,-76,9951.0
13280,0.4643324613571167,-2.916644334793091,25,6731.0,-3.184110641479492,-56,9951.0
13290,0.4640306830406189,-1.8503892421722412,68,6731.0,-1.0289678573608398,-134,9951.0
13300,0.46366965770721436,-1.4253032207489014,33,6731.0,-1.8006097078323364,4,9951.0
13310,0.46335113048553467,2.393195390701294,-39,6731.0,-2.9530069828033447,53,9951.0
13320,0.4630028307437897,4.644374370574951,-81,6731.0,-2.872546911239624,39,9951.0
13330,0.46253523230552673,0.4577721655368805,-11,6731.0,2.2233047485351562,64,9951.0
13340,0.46420854330062866,3.854534149169922,-50,6731.0,4.079417705535889,166,9951.0
13350,0.4638044238090515,1.9984209537506104,-3,6731.0,1.7851028442382812,32,9951.0
13360,0.4633110463619232,-1.4949815273284912,53,6731.0,5.5457353591918945,47,9951.0
13370,0.46276187896728516,-3.3060519695281982,42,6731.0,5.725793361663818,23,9951.0
13380,0.46413812041282654,-3.7432281970977783,28,6731.0,2.4935529232025146,-81,9951.0
13390,0.4637232720851898,-2.6564972400665283,62,6731.0,1.2782009840011597,51,9951.0
13400,0.46327462792396545,-1.2310749292373657,-31,6731.0,3.842522621154785,148,9951.0
13410,0.4628754258155823,-0.5294607877731323,-9,6731.0,3.2885749340057373,90,9951.0
13420,0.4624674320220947,1.246017575263977,-32,6731.0,0.4360615611076355,45,9951.0
13430,0.4617338180541992,2.275169849395752,-101,6731.0,0.17220978438854218,200,9951.0
13440,0.4611053168773651,3.1599018573760986,7,6731.0,2.1765708923339844,8,9951.0
13450,0.46051520109176636,1.7443748712539673,102,6731.0,1.173289179801941,-75,9951.0
13460,0.45995664596557617,3.208822011947632,128,6731.0,-1.3675501346588135,-6,9951.0
13470,0.4609529376029968,0.8291645050048828,67,6731.0,3.137878656387329,-46,9951.0
13480,0.46053898334503174,0.6541878581047058,102,6731.0,1.7656911611557007,0,9951.0
13490,0.4601108431816101,1.491882085800171,-21,6731.0,-1.0544928312301636,132,9951.0
13500,0.4596160054206848,-0.47470149397850037,-112,6731.0,1.5083446502685547,128,9951.0
13510,0.45916274189949036,-1.9736601114273071,-75,6731.0,-0.9486538171768188,-46,9951.0
13520,0.4599306285381317,-0.4420810639858246,-15,6731.0,3.2901456356048584,33,9951.0
13530,0.4595845341682434,-0.372958242893219,-15,6731.0,-0.7432470917701721,-80,9951.0
13540,0.4592740535736084,-0.4328971207141876,72,6731.0,0.6706160306930542,-111,9951.0
13550,0.45904308557510376,0.5026602745056152,141,6731.0,-3.055765151977539,-52,9951.0
13560,0.4599216878414154,1.846064805984497,-9,6731.0,-1.3256990909576416,65,9951.0
13570,0.4595480263233185,-0.3264458179473877,-24,6731.0,-0.08627328276634216,29,9951.0
13580,0.45917704701423645,0.4585932791233063,-59,6731.0,1.7577060461044312,127,9951.0
13590,0.4588238298892975,1.365722417831421,-105,6731.0,0.8028243184089661,99,9951.0
13600,0.45982861518859863,0.9501501321792603,-5,6731.0,-1.546966314315796,-50,9951.0
13610,0.4593825936317444,-1.1348105669021606,90,6731.0,-0.2562756836414337,-123,9951.0
13620,0.459008127450943,0.043501295149326324,57,6731.0,-0.03681851923465729,-74,9951.0
13630,0.45870235562324524,-1.4566051959991455,73,6731.0,-0.6878687143325806,-58,9951.0
13640,0.4583069384098053,-1.6116421222686768,42,6731.0,3.7835257053375244,-7,9951.0
13650,0.4585963487625122,-0.10802443325519562,-27,6731.0,-4.833508491516113,55,9951.0
13660,0.4582763612270355,1.010764241218567,-124,6731.0,-4.726951599121094,45,9951.0
13670,0.45789822936058044,-1.1919350624084473,-77,6731.0,-4.460914611816406,-17,9951.0
13680,0.4574279487133026,0.26222267746925354,-17,6731.0,0.7506203055381775,35,9951.0
13690,0.45800358057022095,-0.6216334104537964,-85,6731.0,-0.850022554397583,-28,9951.0
13700,0.4576364755630493,-0.5142651200294495,-22,6731.0,0.6983973979949951,-107,9951.0
13710,0.45725080370903015,-4.774077415466309,84,6731.0,0.3354494273662567,-94,9951.0
13720,0.4569631516933441,-2.5788564682006836,27,6731.0,-0.8848845958709717,-70,9951.0
13730,0.45677247643470764,-4.196066379547119,-10,6731.0,1.0481457710266113,-36,9951.0
13740,0.45616716146469116,-2.7926747798919678,-5,6731.0,1.9214487075805664,136,9951.0
13750,0.4557495415210724,0.5115451812744141,-86,6731.0,1.469055414199829,136,9951.0
13760,0.45534732937812805,1.9044976234436035,-79,6731.0,-0.7518832683563232,93,9951.0
13770,0.45487841963768005,2.9389381408691406,-37,6731.0,-0.5206868648529053,79,9951.0
13780,0.4547750651836395,0.6199731826782227,21,6731.0,-1.4725837707519531,-75,9951.0
13790,0.45432159304618835,1.3856849670410156,41,6731.0,-3.254256248474121,-2,9951.0
13800,0.4539245367050171,-1.1841092109680176,-21,6731.0,-1.3154683113098145,-105,9951.0
13810,0.45341822504997253,-1.7674840688705444,46,6731.0,-3.875145435333252,-212,9951.0
13820,0.4545007050037384,-2.3472421169281006,125,6731.0,-1.4321000576019287,-113,9951.0
13830,0.4540068507194519,2.047240734100342,91,6731.0,-0.9642664790153503,0,9951.0
13840,0.45342397689819336,1.3263224363327026,18,6731.0,3.2930448055267334,37,9951.0
13850,0.45274513959884644,2.2126810550689697,-23,6731.0,0.45827746391296387,96,9951.0
13860,0.45212385058403015,2.2652013301849365,-38,6731.0,0.5624426007270813,137,9951.0
13870,0.4531145989894867,0.19420258700847626,-99,6731.0,0.3901074528694153,41,9951.0
13880,0.45260342955589294,-1.3793652057647705,3,6731.0,3.0348217487335205,24,9951.0
13890,0.4521434009075165,-0.7296848893165588,15,6731.0,0.575929582118988,-35,9951.0
13900,0.45178020000457764,-1.268822431564331,74,6731.0,1.2749974727630615,-102,9951.0
13910,0.452213853597641,-0.8738349080085754,91,6731.0,-0.49241703748703003,-29,9951.0
13920,0.4517306685447693,-0.27386191487312317,5,6731.0,0.0018618120811879635,-18,9951.0
13930,0.45126670598983765,0.15560655295848846,-60,6731.0,-0.7349079251289368,105,9951.0
13940,0.45078185200691223,0.16377976536750793,-158,6731.0,-4.275938034057617,37,9951.0
13950,0.4516986906528473,-0.5801682472229004,-91,6731.0,1.3382488489151,44,9951.0
13960,0.4512222111225128,0.4467361569404602,40,6731.0,-0.18177643418312073,13,9951.0
13970,0.4508019983768463,2.1743369102478027,64,6731.0,1.42288339138031,-18,9951.0
13980,0.45039093494415283,0.9407386779785156,107,6731.0,1.4494489431381226,-48,9951.0
13990,0.4498630464076996,0.8392955660820007,84,6731.0,2.442326068878174,18,9951.0
14000,0.45132550597190857,0.7320494055747986,37,6731.0,4.589658737182617,129,9951.0
14010,0.450904905796051,0.6030856966972351,-65,6731.0,2.9396414756774902,135,9951.0
14020,0.45050278306007385,-1.1578572988510132,-108,6731.0,2.146287202835083,59,9951.0
14030,0.4501022696495056,-0.3380425274372101,-79,6731.0,0.9847344160079956,94,9951.0
14040,0.4509488344192505,-0.6447526812553406,-63,6731.0,-0.03430629149079323,-9,9951.0
14050,0.4507438540458679,0.6794815063476562,34,6731.0,3.1235995292663574,-115,9951.0
14060,0.4504713714122772,-0.47765854001045227,143,6731.0,0.13513320684432983,-40,9951.0
14070,0.4502297639846802,0.3955796957015991,47,6731.0,0.6670584082603455,-42,9951.0
14080,0.4499167501926422,0.14867781102657318,26,6731.0,-2.0974509716033936,-19,9951.0
14090,0.45117950439453125,-0.9583552479743958,-7,6731.0,-1.098872184753418,42,9951.0
14100,0.4508116543292999,-0.7182987928390503,-99,6731.0,-0.40648987889289856,119,9951.0
14110,0.45049986243247986,-1.724768877029419,-135,6731.0,1.8440220355987549,135,9951.0
14120,0.45016950368881226,-1.743852972984314,-123,6731.0,2.7327003479003906,136,9951.0
14130,0.45097318291664124,-3.1042912006378174,-65,6731.0,1.5654516220092773,115,9951.0
14140,0.4507841467857361,-0.07831049710512161,-39,6731.0,3.99523663520813,15,9951.0
14150,0.45057037472724915,-1.7648427486419678,23,6731.0,1.9004465341567993,-66,9951.0
14160,0.4502352178096771,-1.052977442741394,59,6731.0,-0.15164683759212494,-121,9951.0
14170,0.4503241181373596,-2.7507030963897705,126,6731.0,-1.6340450048446655,-152,9951.0
14180,0.4499356746673584,-0.5994299054145813,72,6731.0,-0.4313512146472931,-107,9951.0
14190,0.4493955969810486,-0.4224948585033417,45,6731.0,0.25533631443977356,-86,9951.0
14200,0.44878247380256653,-1.8815107345581055,3,6731.0,-1.933101773262024,35,9951.0
14210,0.4482647180557251,1.427263617515564,-113,6731.0,-1.1802401542663574,90,9951.0
14220,0.4484265446662903,0.9423925876617432,-100,6731.0,-2.6022582054138184,16,9951.0
