timestamp,kalman.stateZ,gyro.x,gyro.xRaw,gyro.xVariance,gyro.y,gyro.yRaw,gyro.yVariance
0,0.32046690583229065,-0.48690518736839294,-15,5717.0,1.642621397972107,36,9982.0
10,0.3198373019695282,-1.1672284603118896,-18,5717.0,1.893532633781433,34,9982.0
20,0.3198468089103699,-0.423969030380249,2,5717.0,1.8970142602920532,36,9982.0
30,0.31985652446746826,-0.07008584588766098,6,5717.0,2.1996219158172607,25,9982.0
40,0.31986939907073975,1.5712226629257202,37,5717.0,2.052720785140991,23,9982.0
50,0.31908169388771057,2.324615955352783,31,5717.0,-2.0417895317077637,-51,9982.0
60,0.3191017806529999,2.469681739807129,16,5717.0,-9.694421768188477,-169,9982.0
70,0.3191882073879242,2.6648011207580566,65,5717.0,-20.12079429626465,-413,9982.0
80,0.3193422555923462,0.4756087064743042,81,5717.0,-33.039878845214844,-677,9982.0
90,0.317434161901474,2.6887125968933105,120,5717.0,-46.01100540161133,-887,9982.0
100,0.317596435546875,1.557930827140808,5,5717.0,-65.27621459960938,-956,9982.0
110,0.31817424297332764,3.2629313468933105,72,5717.0,-63.76167297363281,-1075,9982.0
120,0.3183083236217499,3.519486427307129,73,5717.0,-62.77168273925781,-1133,9982.0
130,0.31821590662002563,5.444986343383789,75,5717.0,-52.34846878051758,-775,9982.0
140,0.31852197647094727,6.272694110870361,118,5717.0,-32.15398406982422,-558,9982.0
150,0.32003745436668396,7.940999507904053,187,5717.0,-9.351091384887695,17,9982.0
160,0.3207226097583771,8.060736656188965,95,5717.0,13.120104789733887,391,9982.0
170,0.321704626083374,5.8491740226745605,170,5717.0,29.21495819091797,441,9982.0
180,0.3270763158798218,5.392466068267822,55,5717.0,34.80404281616211,483,9982.0
190,0.32816609740257263,3.1110000610351562,201,5717.0,29.968765258789062,365,9982.0
200,0.32966378331184387,3.410733461380005,39,5717.0,21.342172622680664,325,9982.0
210,0.3309726417064667,-1.8921196460723877,86,5717.0,7.662710189819336,47,9982.0
220,0.3323962092399597,-1.0934967994689941,-22,5717.0,-7.246871471405029,-171,9982.0
230,0.33356037735939026,-2.1456375122070312,-142,5717.0,-18.867813110351562,-206,9982.0
240,0.33482807874679565,-0.657927393913269,0,5717.0,-29.140113830566406,-473,9982.0
250,0.33565619587898254,0.6666456460952759,13,5717.0,-28.74117088317871,-587,9982.0
260,0.33660686016082764,0.296871542930603,42,5717.0,-24.08851432800293,-411,9982.0
270,0.33893653750419617,-0.20488454401493073,75,5717.0,-13.3212890625,-130,9982.0
280,0.33988356590270996,-1.4341686964035034,44,5717.0,0.9355021715164185,-155,9982.0
290,0.3415641486644745,-2.485680103302002,-5,5717.0,12.294151306152344,64,9982.0
300,0.342783659696579,-3.003500461578369,-15,5717.0,25.02330207824707,373,9982.0
310,0.3432767391204834,-4.772868633270264,0,5717.0,33.588523864746094,676,9982.0
320,0.34431493282318115,-6.755446910858154,69,5717.0,46.44784927368164,735,9982.0
330,0.34701627492904663,-1.5342235565185547,-50,5717.0,52.47938537597656,854,9982.0
340,0.3472094237804413,0.35890433192253113,-70,5717.0,48.31511306762695,872,9982.0
350,0.34818893671035767,0.6017305254936218,25,5717.0,46.11686325073242,858,9982.0
360,0.3492611050605774,4.573569297790527,9,5717.0,39.394229888916016,510,9982.0
370,0.3492933511734009,5.189862251281738,19,5717.0,28.4259090423584,338,9982.0
380,0.3497409522533417,4.840194225311279,161,5717.0,18.834638595581055,112,9982.0
390,0.35008782148361206,2.4016458988189697,66,5717.0,2.414626121520996,-105,9982.0
400,0.3494347333908081,-0.9041065573692322,-114,5717.0,-9.393396377563477,-53,9982.0
410,0.34957998991012573,-2.138347625732422,-78,5717.0,-19.20110511779785,-287,9982.0
420,0.34959468245506287,-2.044923782348633,-168,5717.0,-26.685562133789062,-427,9982.0
430,0.34940752387046814,-2.8283255100250244,-46,5717.0,-27.93891716003418,-472,9982.0
440,0.349152147769928,-2.0774855613708496,62,5717.0,-29.690418243408203,-378,9982.0
450,0.3485671281814575,-0.1960359513759613,103,5717.0,-24.175447463989258,-319,9982.0
460,0.3480781018733978,2.480088233947754,-21,5717.0,-21.264184951782227,-391,9982.0
470,0.347412645816803,2.702695846557617,-53,5717.0,-13.967288970947266,-159,9982.0
480,0.3466448485851288,1.78086256980896,-3,5717.0,-11.961763381958008,-284,9982.0
490,0.3482072353363037,2.9673380851745605,121,5717.0,-11.142496109008789,-147,9982.0
500,0.34746527671813965,2.0415427684783936,161,5717.0,-7.1950297355651855,-153,9982.0
510,0.34673818945884705,1.794994592666626,-10,5717.0,-11.795878410339355,-60,9982.0
520,0.3458772301673889,0.9681318998336792,-68,5717.0,-12.344048500061035,-168,9982.0
530,0.34803059697151184,0.9866021275520325,9,5717.0,-13.679291725158691,-346,9982.0
540,0.34741970896720886,0.6000022292137146,26,5717.0,-18.261409759521484,-342,9982.0
550,0.34681078791618347,-1.1543020009994507,-112,5717.0,-21.860584259033203,-256,9982.0
560,0.34647706151008606,-3.021811008453369,-105,5717.0,-19.96695899963379,-335,9982.0
570,0.3459070920944214,-6.060868263244629,-68,5717.0,-19.62604331970215,-361,9982.0
580,0.347187340259552,-3.763371467590332,-3,5717.0,-15.786856651306152,-300,9982.0
590,0.3467460870742798,-3.6819519996643066,-43,5717.0,-14.786730766296387,-68,9982.0
600,0.3463889956474304,0.017361219972372055,-53,5717.0,-9.785833358764648,-53,9982.0
610,0.346100389957428,2.8947622776031494,100,5717.0,-6.863615036010742,-158,9982.0
620,0.34622761607170105,3.6072957515716553,106,5717.0,0.05364645645022392,-77,9982.0
630,0.3460678458213806,1.0290204286575317,67,5717.0,2.551884412765503,177,9982.0
640,0.3460075557231903,0.36318379640579224,-70,5717.0,4.247350692749023,74,9982.0
650,0.34613487124443054,-0.5236063599586487,-47,5717.0,2.8399195671081543,57,9982.0
660,0.34647125005722046,-3.9906270503997803,-54,5717.0,6.624194145202637,-86,9982.0
670,0.34695401787757874,-5.309870719909668,-44,5717.0,4.54660701751709,35,9982.0
680,0.34727492928504944,-3.8537943363189697,-167,5717.0,4.233349800109863,170,9982.0
690,0.347518652677536,-8.11175537109375,-174,5717.0,8.69048023223877,307,9982.0
700,0.34797340631484985,-7.220317840576172,-116,5717.0,9.951634407043457,145,9982.0
710,0.34839147329330444,-2.822143077850342,24,5717.0,9.64399242401123,166,9982.0
720,0.3490554988384247,-1.1856054067611694,51,5717.0,10.470354080200195,160,9982.0
730,0.34968703985214233,1.9943039417266846,-19,5717.0,11.14111614227295,180,9982.0
740,0.35031744837760925,6.222670555114746,-15,5717.0,9.625175476074219,129,9982.0
750,0.34946107864379883,6.101891994476318,92,5717.0,13.27994155883789,134,9982.0
760,0.35008692741394043,8.962566375732422,255,5717.0,8.949379920959473,219,9982.0
770,0.35085225105285645,6.263573169708252,187,5717.0,13.005780220031738,243,9982.0
780,0.35151198506355286,4.088330268859863,15,5717.0,10.75636100769043,245,9982.0
790,0.3521111309528351,1.8112964630126953,-83,5717.0,7.571476936340332,128,9982.0
800,0.35148653388023376,-1.100916862487793,-76,5717.0,6.082589149475098,16,9982.0
810,0.3518027067184448,-3.2562577724456787,-28,5717.0,5.0245161056518555,-58,9982.0
820,0.352070689201355,-3.018188238143921,105,5717.0,-2.4007041454315186,-8,9982.0
830,0.35225847363471985,-0.3453678488731384,-11,5717.0,-6.151976108551025,-133,9982.0
840,0.35219135880470276,-1.14799165725708,-95,5717.0,-11.93359375,-123,9982.0
850,0.35204675793647766,-1.1403276920318604,-99,5717.0,-15.620665550231934,-288,9982.0
860,0.35193631052970886,1.4727262258529663,61,5717.0,-18.595531463623047,-346,9982.0
870,0.3517031669616699,0.2741589844226837,126,5717.0,-17.44623565673828,-261,9982.0
881,0.3515699803829193,-0.5045472383499146,82,5717.0,-10.173993110656738,-149,9982.0
890,0.3515699803829193,1.4634815454483032,16,5717.0,-7.727474212646484,-33,9982.0
900,0.3511526882648468,3.172102212905884,-23,5717.0,0.21865132451057434,4,9982.0
910,0.3506988286972046,2.2846181392669678,-21,5717.0,5.001278400421143,55,9982.0
920,0.35020849108695984,2.9988348484039307,88,5717.0,7.913293361663818,17,9982.0
930,0.34982696175575256,-0.10109362751245499,71,5717.0,10.358997344970703,209,9982.0
940,0.34939613938331604,0.10649124532938004,3,5717.0,8.963759422302246,308,9982.0
950,0.3490583002567291,-0.6180459260940552,-75,5717.0,3.489999294281006,159,9982.0
960,0.3487568497657776,-0.998106062412262,-53,5717.0,3.19840931892395,-76,9982.0
970,0.347883015871048,-1.6388837099075317,-15,5717.0,-0.8965425491333008,-129,9982.0
980,0.34754812717437744,-4.070180416107178,-71,5717.0,-5.986822605133057,-145,9982.0
990,0.34730949997901917,-4.13372802734375,-220,5717.0,-7.770158290863037,-34,9982.0
1000,0.34719496965408325,-5.543834209442139,-160,5717.0,-6.265294551849365,-24,9982.0
1010,0.347199022769928,-3.9784233570098877,-47,5717.0,-0.03557044267654419,-63,9982.0
1020,0.3463251292705536,-1.3984558582305908,32,5717.0,-3.353052854537964,-73,9982.0
1030,0.34625306725502014,-0.8506373167037964,65,5717.0,2.05777645111084,115,9982.0
1040,0.346271812915802,-0.11613956838846207,-46,5717.0,3.690805673599243,108,9982.0
1050,0.34644123911857605,4.128108024597168,-19,5717.0,6.572461128234863,176,9982.0
1060,0.34565359354019165,3.4895172119140625,47,5717.0,9.173850059509277,234,9982.0
1070,0.3460451662540436,0.7234576344490051,55,5717.0,13.288952827453613,168,9982.0
1080,0.346370667219162,-0.7804899215698242,125,5717.0,9.463737487792969,135,9982.0
1090,0.3467780351638794,-1.2888903617858887,-18,5717.0,9.240350723266602,167,9982.0
1100,0.3472847640514374,1.090021014213562,17,5717.0,7.372250556945801,144,9982.0
1110,0.34618237614631653,3.1980955600738525,-20,5717.0,2.5827643871307373,-24,9982.0
1120,0.3467084765434265,3.483933210372925,89,5717.0,1.1607556343078613,43,9982.0
1130,0.34720316529273987,5.002920627593994,159,5717.0,-5.736512184143066,-84,9982.0
1140,0.34770068526268005,3.547093152999878,84,5717.0,-6.795314311981201,-74,9982.0
1150,0.34814774990081787,0.8718532919883728,-18,5717.0,-6.3842949867248535,-117,9982.0
1160,0.3487274646759033,0.596992015838623,-68,5717.0,-5.235705852508545,-207,9982.0
1170,0.34925639629364014,-2.7052667140960693,14,5717.0,-5.6493940353393555,-179,9982.0
1180,0.3496633768081665,-3.9971377849578857,16,5717.0,-3.335092544555664,-51,9982.0
1190,0.3492257297039032,-1.8051245212554932,74,5717.0,-3.58833384513855,57,9982.0
1200,0.34950146079063416,0.04988756775856018,-44,5717.0,-2.8708465099334717,52,9982.0
1210,0.3497692942619324,1.522963523864746,-54,5717.0,-0.373803973197937,-48,9982.0
1220,0.349933922290802,1.9350512027740479,-51,5717.0,3.223914861679077,67,9982.0
1230,0.35000866651535034,1.8724530935287476,17,5717.0,6.54850959777832,-27,9982.0
1240,0.3500424325466156,5.276349067687988,173,5717.0,9.23532772064209,131,9982.0
1250,0.35004040598869324,1.4651657342910767,142,5717.0,7.276931285858154,93,9982.0
1260,0.34989145398139954,-1.9774304628372192,-24,5717.0,5.1294026374816895,150,9982.0
1270,0.3496789336204529,-3.269932270050049,-140,5717.0,6.26181173324585,179,9982.0
1280,0.34967508912086487,-2.7067370414733887,-129,5717.0,1.5192022323608398,88,9982.0
1290,0.34951072931289673,-1.4238516092300415,-29,5717.0,0.010989483445882797,41,9982.0
1300,0.3492295742034912,-3.0792253017425537,28,5717.0,2.0343241691589355,-140,9982.0
1310,0.3489294648170471,-4.574772834777832,49,5717.0,-3.363065004348755,15,9982.0
1320,0.3472926914691925,-4.190333366394043,-57,5717.0,1.4063602685928345,3,9982.0
1330,0.3468950688838959,-2.4541428089141846,-122,5717.0,2.465257406234741,157,9982.0
1340,0.3464552164077759,0.16629880666732788,-55,5717.0,2.7762866020202637,102,9982.0
1350,0.34600934386253357,1.1944178342819214,106,5717.0,2.6029598712921143,22,9982.0
1360,0.34565865993499756,2.597566843032837,168,5717.0,3.681309461593628,-36,9982.0
1370,0.34678915143013,2.7209043502807617,65,5717.0,-0.2986215651035309,95,9982.0
1380,0.3465658128261566,2.2899444103240967,-76,5717.0,-0.7593566179275513,-4,9982.0
1390,0.3462912440299988,0.5092511773109436,-157,5717.0,-0.3282581567764282,-105,9982.0
1400,0.34602415561676025,-0.46347102522850037,23,5717.0,-3.757075786590576,-90,9982.0
1410,0.3454950153827667,0.4548632502555847,40,5717.0,-0.17124298214912415,-40,9982.0
1420,0.3453066647052765,-1.9887123107910156,27,5717.0,0.03755977377295494,171,9982.0
1430,0.34508755803108215,-2.324477434158325,-43,5717.0,4.184412479400635,54,9982.0
1440,0.34478673338890076,-1.1877360343933105,3,5717.0,-1.8001600503921509,-81,9982.0
1450,0.34442925453186035,1.4791817665100098,38,5717.0,0.08320017158985138,-224,9982.0
1460,0.34568849205970764,1.5245771408081055,58,5717.0,-5.018485069274902,-45,9982.0
1470,0.34554189443588257,2.0380139350891113,9,5717.0,-2.298844337463379,101,9982.0
1480,0.345375657081604,3.573232650756836,-4,5717.0,-7.474810600280762,13,9982.0
1490,0.34519046545028687,0.9230775833129883,60,5717.0,-7.667579174041748,-158,9982.0
1500,0.3461310863494873,2.0663702487945557,113,5717.0,-5.528923511505127,-232,9982.0
1510,0.3459893763065338,0.9122809171676636,80,5717.0,-12.405084609985352,-114,9982.0
1520,0.3458930253982544,0.056761275976896286,-119,5717.0,-4.675155162811279,-109,9982.0
1530,0.3458004295825958,1.0510618686676025,-100,5717.0,-4.537074089050293,21,9982.0
1541,0.3457866609096527,-1.0943177938461304,-77,5717.0,2.018679141998291,-27,9982.0
1550,0.34559762477874756,1.1915267705917358,62,5717.0,1.6833345890045166,-24,9982.0
1560,0.3455325663089752,-0.4966569244861603,58,5717.0,3.4441378116607666,-54,9982.0
1570,0.34538185596466064,-2.4224534034729004,85,5717.0,8.896344184875488,231,9982.0
1580,0.34517693519592285,-1.435994029045105,5,5717.0,6.832644939422607,194,9982.0
1590,0.3449045419692993,-0.18504783511161804,-89,5717.0,10.683103561401367,239,9982.0
1601,0.34457316994667053,-1.6811604499816895,-97,5717.0,12.104655265808105,95,9982.0
1610,0.3442275822162628,-1.9727927446365356,4,5717.0,9.556350708007812,28,9982.0
1620,0.3438414931297302,-0.6139629483222961,89,5717.0,7.913094520568848,172,9982.0
1630,0.34475210309028625,-1.1048247814178467,13,5717.0,8.08575439453125,326,9982.0
1640,0.34424230456352234,1.5704985857009888,-8,5717.0,5.4757609367370605,243,9982.0
1650,0.3436962962150574,1.4815648794174194,13,5717.0,6.204192161560059,-13,9982.0
1660,0.3432125151157379,-0.3633863031864166,49,5717.0,3.3217380046844482,-109,9982.0
1670,0.34267935156822205,-0.0656997337937355,-6,5717.0,3.650017023086548,28,9982.0
1680,0.344061940908432,1.380971908569336,8,5717.0,0.603272020816803,179,9982.0
1690,0.34355705976486206,2.412546157836914,-3,5717.0,1.1271615028381348,99,9982.0
1700,0.3430938720703125,1.6858896017074585,-59,5717.0,0.6708942651748657,59,9982.0
1710,0.34269091486930847,-0.22873103618621826,5,5717.0,1.58482027053833,-131,9982.0
1720,0.34525173902511597,-2.383209228515625,19,5717.0,2.632038116455078,-11,9982.0
1730,0.3449491560459137,0.7561085224151611,-49,5717.0,1.1319984197616577,80,9982.0
1740,0.34456831216812134,-1.613848328590393,-140,5717.0,3.2194716930389404,171,9982.0
1750,0.3441344201564789,-2.756408929824829,4,5717.0,0.6296008229255676,-8,9982.0
1760,0.3436960279941559,-0.8170155882835388,-5,5717.0,-3.061922788619995,-173,9982.0
1770,0.34612366557121277,1.5494686365127563,129,5717.0,-4.539361476898193,-106,9982.0
1780,0.34578537940979004,3.484694480895996,-15,5717.0,-4.0360846519470215,-93,9982.0
1790,0.34537720680236816,3.017617702484131,-57,5717.0,-4.141595363616943,-103,9982.0
1800,0.34493574500083923,-0.3040056526660919,35,5717.0,-3.676715612411499,-295,9982.0
1810,0.34742623567581177,0.20650714635849,99,5717.0,-2.423185110092163,-64,9982.0
1820,0.34718820452690125,-0.16921783983707428,31,5717.0,-4.2334089279174805,50,9982.0
1830,0.3470313549041748,-1.010151743888855,-38,5717.0,-5.978734493255615,40,9982.0
1840,0.346868634223938,-1.2667747735977173,-24,5717.0,-0.37733131647109985,-111,9982.0
1850,0.34639379382133484,-1.4723671674728394,19,5717.0,-2.4675331115722656,-164,9982.0
1860,0.34608396887779236,-0.8511305451393127,43,5717.0,-4.083442687988281,-94,9982.0
1870,0.34582048654556274,-0.22943010926246643,-49,5717.0,-6.563910961151123,35,9982.0
1880,0.34559935331344604,1.7106295824050903,-39,5717.0,-4.930915355682373,41,9982.0
1890,0.3453114330768585,-0.25709545612335205,-53,5717.0,-2.6116344928741455,-13,9982.0
1900,0.345569372177124,-1.542093276977539,91,5717.0,-2.536238431930542,-69,9982.0
1910,0.3451417088508606,-1.4379998445510864,64,5717.0,3.2954471111297607,-14,9982.0
1920,0.34474074840545654,-0.12856754660606384,41,5717.0,4.519167900085449,120,9982.0
1930,0.3443438708782196,-0.09928178787231445,-76,5717.0,3.5058066844940186,62,9982.0
1940,0.34434518218040466,0.8071152567863464,-61,5717.0,5.402247905731201,181,9982.0
1950,0.3438912332057953,-0.8258192539215088,-6,5717.0,6.982995986938477,2,9982.0
1960,0.34342649579048157,0.6032203435897827,62,5717.0,4.977232456207275,84,9982.0
1970,0.34305083751678467,-1.4585896730422974,75,5717.0,3.593676805496216,85,9982.0
1980,0.345086932182312,-0.1914234757423401,-22,5717.0,1.9096871614456177,166,9982.0
1990,0.3448679745197296,-0.981601893901825,-33,5717.0,4.244895935058594,-25,9982.0
2000,0.3446081280708313,0.05290685221552849,-51,5717.0,2.055363893508911,-121,9982.0
2010,0.34438222646713257,-0.17911547422409058,67,5717.0,2.851856231689453,35,9982.0
2020,0.3442479372024536,1.1554149389266968,-14,5717.0,-2.6205079555511475,78,9982.0
2030,0.34412017464637756,0.44729772210121155,-19,5717.0,-1.0896780490875244,194,9982.0
2040,0.3440832197666168,0.6861008405685425,-46,5717.0,-0.9004490971565247,-49,9982.0
2050,0.34398192167282104,-1.8643081188201904,-7,5717.0,-2.5311973094940186,-152,9982.0
2060,0.3438554108142853,-0.5254170894622803,7,5717.0,-1.4405173063278198,-101,9982.0
2070,0.3453581631183624,-0.2900294363498688,-48,5717.0,-2.133322238922119,87,9982.0
2080,0.34535476565361023,1.91871976852417,-28,5717.0,-2.1149537563323975,79,9982.0
2090,0.3453206419944763,2.582019329071045,63,5717.0,-3.1227893829345703,-118,9982.0
2100,0.3451577425003052,2.271252393722534,122,5717.0,-2.481358289718628,-155,9982.0
2110,0.3449322581291199,2.792095422744751,86,5717.0,1.0607434511184692,-86,9982.0
2120,0.3451157212257385,1.5541040897369385,-17,5717.0,-1.7213904857635498,45,9982.0
2130,0.34490442276000977,-0.04275648295879364,-69,5717.0,2.4811995029449463,171,9982.0
2140,0.34467199444770813,-1.383752465248108,-118,5717.0,1.9868261814117432,172,9982.0
2150,0.344315767288208,-2.4313061237335205,23,5717.0,-1.8164139986038208,-70,9982.0
2160,0.34558379650115967,0.25835752487182617,61,5717.0,-2.7311151027679443,-164,9982.0
2170,0.345350980758667,0.08696631342172623,69,5717.0,-0.015673194080591202,-118,9982.0
2180,0.345111221075058,-0.47658443450927734,-97,5717.0,-2.732041597366333,0,9982.0
2190,0.3448074460029602,0.918276309967041,-50,5717.0,-3.314178466796875,72,9982.0
2200,0.3450823426246643,0.022544099017977715,-82,5717.0,1.2542804479599,19,9982.0
2210,0.3448750376701355,-0.41430729627609253,86,5717.0,-1.8441429138183594,-97,9982.0
2220,0.34467068314552307,0.04306310787796974,69,5717.0,-1.620751142501831,-127,9982.0
2230,0.3443833291530609,-3.1881814002990723,35,5717.0,0.16202186048030853,-51,9982.0
2240,0.34411659836769104,-0.17379918694496155,-88,5717.0,1.3059494495391846,75,9982.0
2250,0.34598585963249207,-1.8725988864898682,-138,5717.0,1.7254951000213623,162,9982.0
2260,0.34597253799438477,-0.6093302965164185,-59,5717.0,5.1612443923950195,190,9982.0
2270,0.34596097469329834,-1.8490338325500488,38,5717.0,4.8276686668396,81,9982.0
2280,0.34588027000427246,-1.2458770275115967,60,5717.0,8.095335960388184,46,9982.0
2290,0.3466724455356598,-2.1297264099121094,66,5717.0,5.375906467437744,-2,9982.0
2300,0.3467503488063812,-0.2764298915863037,-104,5717.0,7.774200439453125,104,9982.0
2310,0.34682518243789673,-1.965572476387024,-48,5717.0,3.8345742225646973,201,9982.0
2320,0.34698864817619324,-1.6808688640594482,-66,5717.0,1.4309443235397339,76,9982.0
2330,0.3471934497356415,0.22319838404655457,100,5717.0,-0.17308446764945984,-53,9982.0
2340,0.3466072678565979,1.668352723121643,132,5717.0,0.8428816199302673,-149,9982.0
2350,0.3468659222126007,0.7739505171775818,105,5717.0,-0.9423493146896362,44,9982.0
2360,0.34706059098243713,2.567263126373291,145,5717.0,-0.4447069466114044,83,9982.0
2370,0.34725242853164673,0.4018489122390747,29,5717.0,-2.7989563941955566,-2,9982.0
2380,0.34573492407798767,0.6676416993141174,-85,5717.0,-2.0482985973358154,61,9982.0
2390,0.3459645211696625,-0.5362683534622192,-131,5717.0,-0.23272281885147095,-183,9982.0
2400,0.3461199104785919,-0.5706995725631714,-36,5717.0,-2.871917486190796,-21,9982.0
2410,0.34616753458976746,-0.6116293668746948,92,5717.0,-1.8464630842208862,-90,9982.0
2420,0.3453606367111206,-0.14504636824131012,89,5717.0,1.239573359489441,-225,9982.0
2430,0.34536251425743103,0.5990951061248779,82,5717.0,-2.1424176692962646,-20,9982.0
2440,0.345278799533844,2.1114017963409424,-29,5717.0,-0.34658679366111755,83,9982.0
2450,0.34513571858406067,2.5451645851135254,-17,5717.0,0.39976492524147034,120,9982.0
2460,0.34503138065338135,2.4514598846435547,-18,5717.0,2.774238109588623,161,9982.0
2470,0.3452829122543335,0.8162573575973511,-38,5717.0,1.9310529232025146,-84,9982.0
2480,0.3450900614261627,-1.1270809173583984,-59,5717.0,0.3852655291557312,-113,9982.0
2490,0.3448866009712219,-2.4196856021881104,63,5717.0,-1.3745867013931274,-113,9982.0
2500,0.34471389651298523,-0.1939702332019806,134,5717.0,-3.557974338531494,-133,9982.0
2510,0.34234854578971863,-1.0382369756698608,74,5717.0,-3.256810426712036,-38,9982.0
2520,0.3420370817184448,1.0227917432785034,-67,5717.0,-2.411363124847412,-5,9982.0
2530,0.34184491634368896,-0.43002840876579285,-145,5717.0,-0.7749782800674438,110,9982.0
2540,0.3418038487434387,1.1478334665298462,-51,5717.0,-2.3951919078826904,53,9982.0
2550,0.341766893863678,-0.27053162455558777,26,5717.0,0.7933585047721863,-83,9982.0
2560,0.3418259918689728,-1.2268668413162231,91,5717.0,2.5854878425598145,-177,9982.0
2570,0.3419020175933838,0.0828368067741394,47,5717.0,2.6701853275299072,-34,9982.0
2580,0.34208235144615173,1.4601683616638184,-7,5717.0,-6.469947814941406,76,9982.0
2590,0.3421889543533325,1.7193800210952759,22,5717.0,1.1872007846832275,233,9982.0
2600,0.34138643741607666,-0.12070995569229126,-52,5717.0,1.5635719299316406,178,9982.0
2610,0.34148043394088745,-0.8344807028770447,-56,5717.0,0.0626235380768776,64,9982.0
2620,0.3416256606578827,-2.5444674491882324,-86,5717.0,2.4791676998138428,-67,9982.0
2630,0.3417067527770996,-1.7263907194137573,-19,5717.0,1.6396279335021973,-95,9982.0
2640,0.3422667980194092,-1.0448992252349854,122,5717.0,1.6748837232589722,-35,9982.0
2650,0.3425082266330719,0.10506286472082138,110,5717.0,1.1525379419326782,-57,9982.0
2660,0.34278666973114014,-1.6010470390319824,-44,5717.0,2.113377094268799,135,9982.0
2670,0.343063622713089,1.9752384424209595,-141,5717.0,-0.30600443482398987,104,9982.0
2680,0.34343692660331726,2.055131673812866,-42,5717.0,1.3887180089950562,156,9982.0
2690,0.3436809182167053,0.9381939768791199,40,5717.0,-0.9544620513916016,2,9982.0
2700,0.34401652216911316,0.40569859743118286,33,5717.0,2.899862289428711,-142,9982.0
2710,0.3443650007247925,-3.437859535217285,-12,5717.0,1.9711968898773193,-96,9982.0
2720,0.34482648968696594,-0.7328333854675293,81,5717.0,-1.080361247062683,13,9982.0
2730,0.34483757615089417,-1.7092036008834839,125,5717.0,3.0181055068969727,-117,9982.0
2740,0.34538495540618896,0.5401394963264465,-31,5717.0,4.66071081161499,150,9982.0
2750,0.34598666429519653,3.893195629119873,-17,5717.0,1.5089175701141357,104,9982.0
2760,0.3466656506061554,1.5936613082885742,39,5717.0,6.201357364654541,188,9982.0
2770,0.34712979197502136,2.2139790058135986,57,5717.0,6.535689353942871,161,9982.0
2780,0.3469882905483246,1.1366329193115234,-75,5717.0,5.4341864585876465,117,9982.0
2790,0.3472505211830139,-1.6603423357009888,-120,5717.0,2.8472328186035156,46,9982.0
2800,0.3473878502845764,-3.2987592220306396,44,5717.0,1.3103163242340088,-16,9982.0
2810,0.347451776266098,-1.896701693534851,38,5717.0,0.6190751791000366,-217,9982.0
2820,0.34611648321151733,-4.099664211273193,-7,5717.0,-0.2899591326713562,-96,9982.0
2830,0.3461973965167999,-1.579819917678833,121,5717.0,-1.518639326095581,-123,9982.0
2840,0.3462628126144409,-1.849505066871643,72,5717.0,-1.7450060844421387,-165,9982.0
2850,0.34635770320892334,2.3524694442749023,-38,5717.0,-2.136822462081909,-44,9982.0
2860,0.34482327103614807,0.6285297870635986,-3,5717.0,0.21151427924633026,217,9982.0
2870,0.34498080611228943,1.5954957008361816,19,5717.0,-1.2141814231872559,92,9982.0
2880,0.3452092111110687,3.2527525424957275,-63,5717.0,-2.1617929935455322,26,9982.0
2890,0.34553301334381104,1.9843101501464844,-42,5717.0,-3.258108139038086,55,9982.0
2900,0.3457548916339874,-0.06579216569662094,-70,5717.0,-2.8659327030181885,9,9982.0
2910,0.34404700994491577,-1.797215223312378,-38,5717.0,-3.676931858062744,-121,9982.0
2920,0.34400010108947754,-1.3898394107818604,-25,5717.0,3.592787265777588,-119,9982.0
2930,0.3438297212123871,-4.485632419586182,11,5717.0,-1.1200555562973022,-71,9982.0
2940,0.3435783088207245,-1.1345925331115723,71,5717.0,1.117929458618164,-83,9982.0
2950,0.3419690430164337,-2.3837952613830566,130,5717.0,-0.26363664865493774,-103,9982.0
2960,0.3416147828102112,4.5791144371032715,-21,5717.0,-2.952927350997925,-25,9982.0
2970,0.3413234055042267,1.8034353256225586,-3,5717.0,0.4369480311870575,116,9982.0
2980,0.34108537435531616,1.5923733711242676,-4,5717.0,-0.03795238211750984,202,9982.0
2990,0.34082740545272827,2.979997158050537,-87,5717.0,-2.0877909660339355,-46,9982.0
3000,0.3418446183204651,-0.683148205280304,-59,5717.0,-1.591192364692688,123,9982.0
3010,0.3416844308376312,0.8033056259155273,-17,5717.0,-1.725158452987671,35,9982.0
3020,0.3415413200855255,1.7734509706497192,29,5717.0,-2.584365129470825,-113,9982.0
3030,0.34137994050979614,0.8525503277778625,-17,5717.0,-2.1487557888031006,-172,9982.0
3040,0.339972585439682,0.5263769030570984,94,5717.0,-4.473772048950195,-58,9982.0
3050,0.33993640542030334,-0.4008958041667938,93,5717.0,-2.2305126190185547,-188,9982.0
3060,0.3399595618247986,-4.106972694396973,13,5717.0,-2.0795931816101074,-157,9982.0
3070,0.3400513231754303,-1.0137746334075928,5,5717.0,-2.2145965099334717,56,9982.0
3080,0.33939266204833984,0.4668304920196533,-3,5717.0,-0.5955476760864258,87,9982.0
3090,0.33958670496940613,-1.2656899690628052,-32,5717.0,5.352766990661621,239,9982.0
3100,0.3397822976112366,1.9064481258392334,-118,5717.0,5.41259765625,206,9982.0
3110,0.3399917185306549,2.9656670093536377,-91,5717.0,4.769430637359619,153,9982.0
3120,0.3401760458946228,0.9952990412712097,-47,5717.0,11.735396385192871,319,9982.0
3130,0.3406282365322113,1.3005930185317993,73,5717.0,9.393145561218262,113,9982.0
3140,0.34084609150886536,1.1851649284362793,52,5717.0,8.138964653015137,-76,9982.0
3150,0.34095892310142517,0.4531715512275696,-7,5717.0,6.654640197753906,39,9982.0
3160,0.34102943539619446,0.36128711700439453,92,5717.0,3.4189021587371826,13,9982.0
3170,0.3414723575115204,-1.3369072675704956,65,5717.0,1.3067195415496826,-81,9982.0
3180,0.34162724018096924,-2.011120319366455,-112,5717.0,-1.9016119241714478,77,9982.0
3190,0.3417072594165802,-0.5942202210426331,9,5717.0,-3.453660726547241,139,9982.0
3200,0.3417440950870514,-0.9064462780952454,-68,5717.0,-0.7015688419342041,117,9982.0
3211,0.34224656224250793,1.2078090906143188,-93,5717.0,-5.318255424499512,3,9982.0
3220,0.3421790301799774,-1.7223310470581055,-51,5717.0,0.24989107251167297,20,9982.0
3230,0.3420668840408325,-1.5416399240493774,4,5717.0,1.2477141618728638,0,9982.0
3240,0.34196576476097107,2.7528300285339355,84,5717.0,2.3632500171661377,-20,9982.0
3250,0.3418768346309662,0.07311412692070007,20,5717.0,6.1597981452941895,-74,9982.0
3260,0.34263962507247925,-0.27988216280937195,53,5717.0,4.288165092468262,-20,9982.0
3270,0.34267309308052063,0.12881211936473846,172,5717.0,2.7774147987365723,35,9982.0
3280,0.34273213148117065,0.5269545912742615,78,5717.0,5.420538425445557,-8,9982.0
3291,0.342717707157135,-0.6339958310127258,-95,5717.0,0.06775934249162674,60,9982.0
3300,0.342803418636322,-1.8518770933151245,-40,5717.0,-2.604726791381836,192,9982.0
3310,0.34272217750549316,-2.9427695274353027,-177,5717.0,-3.5301008224487305,-21,9982.0
3320,0.34251144528388977,0.22749418020248413,-115,5717.0,-3.469287395477295,-61,9982.0
3330,0.34220609068870544,-1.4393419027328491,-83,5717.0,-4.024615287780762,4,9982.0
3340,0.3418501019477844,0.5541915893554688,54,5717.0,-6.028955936431885,-184,9982.0
3350,0.3407319188117981,-0.05197147652506828,66,5717.0,-2.5808584690093994,-199,9982.0
3360,0.3403748571872711,1.1878547668457031,80,5717.0,-3.075031042098999,-127,9982.0
3370,0.34010744094848633,3.3610379695892334,106,5717.0,-5.569733619689941,-118,9982.0
3380,0.339919775724411,1.3713154792785645,106,5717.0,-3.853118658065796,-54,9982.0
3391,0.34026288986206055,1.4886620044708252,6,5717.0,-4.745067119598389,-15,9982.0
3400,0.3402057886123657,1.8351634740829468,-120,5717.0,-4.09243631362915,62,9982.0
3411,0.3401891887187958,0.17354567348957062,-63,5717.0,-2.483177423477173,132,9982.0
3420,0.3401530981063843,-1.6532998085021973,-98,5717.0,-1.5224275588989258,-19,9982.0
3431,0.34050777554512024,-0.8333097696304321,-67,5717.0,-1.7018325328826904,-135,9982.0
3441,0.3406686782836914,-2.933060884475708,-87,5717.0,1.183136224746704,58,9982.0
3451,0.34082406759262085,-2.9642772674560547,37,5717.0,0.872783362865448,26,9982.0
3460,0.34100374579429626,-1.5546740293502808,47,5717.0,5.403924465179443,-166,9982.0
3470,0.3412480652332306,-2.148054838180542,-9,5717.0,3.6070406436920166,-90,9982.0
3480,0.34211796522140503,4.312108039855957,129,5717.0,4.747264862060547,80,9982.0
3490,0.3422085642814636,3.300830841064453,144,5717.0,2.552251100540161,-30,9982.0
3500,0.3422577679157257,1.1095778942108154,-8,5717.0,4.109562873840332,66,9982.0
3510,0.3422496020793915,0.8547202944755554,-55,5717.0,-3.751492500305176,53,9982.0
3520,0.34211021661758423,-0.43863680958747864,-3,5717.0,-0.024380670860409737,37,9982.0
3530,0.34215593338012695,0.0475979782640934,-62,5717.0,0.8040233254432678,33,9982.0
3540,0.3422524929046631,-0.5883117318153381,-83,5717.0,-2.3399746417999268,87,9982.0
3550,0.34238722920417786,-1.1206550598144531,-172,5717.0,-3.295710802078247,115,9982.0
3560,0.3426262438297272,-1.3867754936218262,6,5717.0,0.28867268562316895,-17,9982.0
3570,0.3426797091960907,-2.1681408882141113,-56,5717.0,3.5396389961242676,-21,9982.0
3580,0.34300291538238525,-1.2429707050323486,-17,5717.0,5.205411911010742,26,9982.0
3590,0.3433755934238434,0.8715394139289856,140,5717.0,3.1154258251190186,-128,9982.0
3600,0.3437880277633667,0.7907754778862,136,5717.0,2.8083505630493164,-42,9982.0
3610,0.34371495246887207,2.2312498092651367,60,5717.0,4.348196029663086,45,9982.0
3620,0.3441406786441803,1.244712233543396,82,5717.0,4.367569923400879,-40,9982.0
3630,0.34456580877304077,-1.4290231466293335,-13,5717.0,2.6477277278900146,72,9982.0
3640,0.34497371315956116,-2.1253774166107178,-83,5717.0,1.617565631866455,84,9982.0
3650,0.3433109223842621,-3.0162782669067383,-17,5717.0,2.9041361808776855,-167,9982.0
3660,0.3435470461845398,0.10512607544660568,-26,5717.0,1.8727314472198486,-13,9982.0
3670,0.3437696099281311,-0.9409733414649963,-36,5717.0,1.5775624513626099,107,9982.0
3680,0.3439690172672272,1.4517359733581543,-21,5717.0,1.1052418947219849,106,9982.0
3690,0.3441118597984314,6.4464192390441895,-20,5717.0,-1.6293494701385498,31,9982.0
3700,0.3433186709880829,2.6077067852020264,71,5717.0,0.5823830366134644,93,9982.0
3710,0.3432980179786682,-1.278011679649353,42,5717.0,-1.2207963466644287,109,9982.0
3720,0.34325525164604187,-0.0909813717007637,-105,5717.0,-2.452883005142212,74,9982.0
3730,0.3432266414165497,-0.16934598982334137,-49,5717.0,-2.6220345497131348,-26,9982.0
3740,0.343139111995697,-0.5120826363563538,-44,5717.0,-7.444225788116455,-67,9982.0
3750,0.343189537525177,-0.8732553720474243,10,5717.0,-4.626656532287598,2,9982.0
3760,0.3432683050632477,-2.261404514312744,27,5717.0,-6.354928493499756,-170,9982.0
3770,0.34340888261795044,-3.4051196575164795,141,5717.0,-5.406997203826904,-212,9982.0
3780,0.3425131142139435,-2.383153200149536,-23,5717.0,-1.2479318380355835,-134,9982.0
3790,0.3423883318901062,-0.3583933115005493,12,5717.0,0.7384817600250244,-40,9982.0
3800,0.3422616124153137,-2.4405505657196045,74,5717.0,4.760390281677246,-199,9982.0
3810,0.34214770793914795,-0.1995847523212433,-2,5717.0,3.283477544784546,-48,9982.0
3820,0.3420710265636444,1.9639499187469482,138,5717.0,2.940539598464966,32,9982.0
3830,0.3416341543197632,0.22577399015426636,47,5717.0,2.9288320541381836,-68,9982.0
3840,0.34161117672920227,1.3266406059265137,-18,5717.0,2.371234178543091,64,9982.0
3850,0.3415895700454712,1.7009925842285156,-66,5717.0,1.2590667009353638,152,9982.0
3860,0.34152892231941223,0.3947364091873169,-64,5717.0,-1.4866387844085693,78,9982.0
3870,0.34009864926338196,2.032550811767578,-28,5717.0,-2.9241561889648438,-36,9982.0
3880,0.3399924039840698,-1.3294095993041992,-55,5717.0,-3.479477643966675,104,9982.0
3890,0.3399275839328766,-0.7965179681777954,17,5717.0,-4.753096103668213,8,9982.0
3900,0.339874267578125,-0.6878236532211304,-90,5717.0,-3.276674509048462,-38,9982.0
3910,0.33990392088890076,-0.27548059821128845,9,5717.0,-1.8787957429885864,45,9982.0
3920,0.33884283900260925,3.552412271499634,106,5717.0,-1.9795619249343872,-87,9982.0
3930,0.3388276994228363,2.5011894702911377,117,5717.0,-0.12612374126911163,-54,9982.0
3940,0.33881205320358276,-0.1223592683672905,47,5717.0,0.7526166439056396,-54,9982.0
3950,0.3387610912322998,-1.9647083282470703,106,5717.0,2.759307384490967,-38,9982.0
3960,0.3388025164604187,-2.889862060546875,-41,5717.0,4.950314521789551,-139,9982.0
3970,0.3386997580528259,-3.363851308822632,-101,5717.0,4.870028018951416,52,9982.0
3980,0.3386034667491913,-2.0995841026306152,33,5717.0,2.88824462890625,-16,9982.0
3990,0.33853989839553833,-3.0998904705047607,19,5717.0,2.9922966957092285,22,9982.0
4001,0.33986610174179077,4.796627521514893,50,5717.0,1.9898960590362549,60,9982.0
4010,0.3399152457714081,0.11341043561697006,151,5717.0,6.19050931930542,4,9982.0
4020,0.3399848937988281,2.908970594406128,-55,5717.0,1.3609269857406616,140,9982.0
4030,0.34014415740966797,2.451312303543091,-18,5717.0,-0.6530084609985352,130,9982.0
4040,0.3403058350086212,-0.5112861394882202,-87,5717.0,2.0922250747680664,114,9982.0
4050,0.3403124511241913,1.6694327592849731,-112,5717.0,-0.4961361289024353,75,9982.0
4060,0.340505987405777,-0.6983330845832825,-60,5717.0,1.0563199520111084,212,9982.0
4070,0.34072229266166687,-1.264756202697754,-64,5717.0,1.7430475950241089,34,9982.0
4080,0.34095925092697144,1.6138261556625366,-25,5717.0,-1.5185781717300415,-150,9982.0
4090,0.34115922451019287,-0.20671959221363068,-26,5717.0,3.20064115524292,152,9982.0
4100,0.34150394797325134,0.4982779324054718,57,5717.0,5.43052864074707,63,9982.0
4110,0.34185367822647095,-0.5254747271537781,-42,5717.0,2.915458917617798,-72,9982.0
4120,0.34211796522140503,0.04608059301972389,4,5717.0,1.1824530363082886,-58,9982.0
4130,0.3422969579696655,2.4917116165161133,112,5717.0,5.571025371551514,-36,9982.0
4140,0.3415018916130066,0.7733100056648254,25,5717.0,3.1175665855407715,-77,9982.0
4150,0.3415285050868988,0.9129639863967896,85,5717.0,3.144937515258789,-48,9982.0
4160,0.341431200504303,-1.9893542528152466,90,5717.0,2.7666807174682617,-171,9982.0
4170,0.3412988781929016,-0.37705764174461365,34,5717.0,-4.051854133605957,-9,9982.0
4180,0.34028008580207825,-3.432060718536377,80,5717.0,-3.2985239028930664,-146,9982.0
4190,0.34001028537750244,-2.101492404937744,-7,5717.0,-2.8281493186950684,-178,9982.0
4200,0.3396332561969757,-0.9106380343437195,-51,5717.0,-4.013095378875732,-7,9982.0
4210,0.3391786813735962,-2.458233118057251,73,5717.0,-3.423383951187134,-16,9982.0
4221,0.3392345607280731,2.067979574203491,-54,5717.0,-5.123860836029053,-54,9982.0
4230,0.3389003276824951,3.7116854190826416,-69,5717.0,-2.1129374504089355,95,9982.0
4240,0.3385828137397766,1.6137930154800415,8,5717.0,-0.3978051245212555,152,9982.0
4250,0.33832165598869324,3.2879209518432617,-81,5717.0,-4.187169075012207,16,9982.0
4260,0.3381422758102417,0.6971251964569092,-84,5717.0,0.501623272895813,122,9982.0
4270,0.33782318234443665,2.0018908977508545,-37,5717.0,2.2735838890075684,93,9982.0
4280,0.3375225365161896,0.6628625392913818,-16,5717.0,-0.7795853018760681,-129,9982.0
4290,0.3372509777545929,-1.7327229976654053,-60,5717.0,-1.0374984741210938,-118,9982.0
4300,0.33701688051223755,0.20831632614135742,-17,5717.0,-4.838771343231201,-133,9982.0
4310,0.33893805742263794,-2.2691051959991455,-90,5717.0,-1.8661932945251465,-94,9982.0
4320,0.3391101062297821,-0.9245034456253052,60,5717.0,-3.992835283279419,-50,9982.0
4330,0.339372843503952,-0.15857219696044922,56,5717.0,-3.3357009887695312,-180,9982.0
4340,0.33968839049339294,-2.5124802589416504,-38,5717.0,-0.9505504369735718,-229,9982.0
4350,0.33997759222984314,1.3459621667861938,93,5717.0,-3.957423448562622,-74,9982.0
4360,0.3389602303504944,1.5177546739578247,163,5717.0,0.0402945801615715,-164,9982.0
4370,0.3390978276729584,1.5413415431976318,54,5717.0,1.2581095695495605,-82,9982.0
4380,0.3392794728279114,1.269853115081787,43,5717.0,0.39137721061706543,31,9982.0
4390,0.3394370675086975,-1.4809010028839111,96,5717.0,4.894833564758301,-77,9982.0
4400,0.3405643403530121,1.39004647731781,-74,5717.0,5.322371959686279,40,9982.0
4410,0.3407810628414154,0.12579196691513062,76,5717.0,6.602489471435547,114,9982.0
4420,0.34099718928337097,-2.8680524826049805,-15,5717.0,6.573655605316162,41,9982.0
4430,0.3412233889102936,0.11364652216434479,-52,5717.0,2.19344425201416,141,9982.0
4440,0.3416427969932556,-2.0057735443115234,111,5717.0,2.656343460083008,72,9982.0
4450,0.341941773891449,-0.6162311434745789,-2,5717.0,0.655338704586029,-3,9982.0
4460,0.3423102796077728,0.9401618242263794,-79,5717.0,-3.2332212924957275,148,9982.0
4470,0.34269243478775024,0.770189106464386,12,5717.0,-3.437948226928711,69,9982.0
4480,0.3430892825126648,1.5374287366867065,-66,5717.0,-2.627176284790039,-34,9982.0
4490,0.34303492307662964,-0.25735244154930115,-38,5717.0,-2.997713565826416,127,9982.0
4500,0.34333154559135437,1.0830228328704834,-53,5717.0,-1.2656195163726807,16,9982.0
4510,0.34360256791114807,-2.2010960578918457,-95,5717.0,0.5228822827339172,116,9982.0
4520,0.3438189923763275,-2.832451105117798,-59,5717.0,1.6043169498443604,281,9982.0
4530,0.34363290667533875,0.1730429232120514,-97,5717.0,2.9157090187072754,75,9982.0
4540,0.34390413761138916,0.3314772844314575,-23,5717.0,5.775728225708008,221,9982.0
4550,0.3441886305809021,0.6338613033294678,-17,5717.0,6.475480556488037,171,9982.0
4560,0.34443333745002747,1.4725358486175537,-35,5717.0,5.3922319412231445,216,9982.0
4570,0.3446437120437622,1.5128543376922607,-28,5717.0,3.85504412651062,120,9982.0
4580,0.3434108793735504,2.5205469131469727,-11,5717.0,1.0425238609313965,13,9982.0
4590,0.3436325490474701,0.6857234239578247,-81,5717.0,3.967229127883911,251,9982.0
4600,0.34384027123451233,-0.3644634485244751,-23,5717.0,-0.7066535353660583,31,9982.0
4610,0.34402474761009216,-2.578545093536377,-100,5717.0,-1.0504038333892822,29,9982.0
4620,0.34135425090789795,-2.4540085792541504,21,5717.0,-2.872596025466919,-66,9982.0
4630,0.3412194550037384,-1.8561055660247803,-90,5717.0,-4.295775413513184,-87,9982.0
4640,0.3410515785217285,0.1372055858373642,-5,5717.0,-4.13672399520874,-47,9982.0
4650,0.3408069312572479,-0.07650579512119293,27,5717.0,-6.223250865936279,-168,9982.0
4660,0.33838143944740295,0.6382812857627869,-30,5717.0,-4.789092540740967,-127,9982.0
4670,0.3379380404949188,2.01872181892395,86,5717.0,-6.531625270843506,-173,9982.0
4680,0.33737632632255554,2.8595364093780518,60,5717.0,-1.7732741832733154,-142,9982.0
4690,0.33683982491493225,2.199216842651367,69,5717.0,-4.114312648773193,11,9982.0
4700,0.33633822202682495,-0.9370103478431702,18,5717.0,-1.7463974952697754,-176,9982.0
4710,0.33609357476234436,-4.364445209503174,-106,5717.0,0.9914942979812622,-206,9982.0
4720,0.3356005847454071,-0.6116684675216675,60,5717.0,-1.556087613105774,-23,9982.0
4730,0.3350194990634918,-2.5510413646698,140,5717.0,-3.3351030349731445,-106,9982.0
4740,0.33437153697013855,-0.6697342395782471,4,5717.0,1.0611170530319214,-75,9982.0
4750,0.3354547917842865,1.005180835723877,92,5717.0,0.21793225407600403,-117,9982.0
4760,0.33493176102638245,0.5942966341972351,110,5717.0,-0.2290654480457306,-62,9982.0
4770,0.33446425199508667,1.9843730926513672,16,5717.0,0.01233977172523737,-15,9982.0
4780,0.33408883213996887,2.8869106769561768,74,5717.0,0.8651264905929565,50,9982.0
4790,0.3337671160697937,1.8029131889343262,11,5717.0,0.8766987919807434,-15,9982.0
4800,0.3365003764629364,-0.8048404455184937,-129,5717.0,-0.15638430416584015,80,9982.0
4810,0.33639445900917053,-3.6831564903259277,-44,5717.0,-0.4425371587276459,152,9982.0
4820,0.3362598121166229,1.3040273189544678,-128,5717.0,-0.05939390882849693,139,9982.0
4830,0.33614441752433777,-0.846777617931366,-168,5717.0,-0.19310802221298218,131,9982.0
4840,0.33797213435173035,-2.0903468132019043,-73,5717.0,0.5347514748573303,240,9982.0
4850,0.33795982599258423,0.382215291261673,-43,5717.0,-1.2878574132919312,96,9982.0
4860,0.3380235731601715,0.915244996547699,-57,5717.0,3.6573781967163086,52,9982.0
4870,0.3380627930164337,0.670833945274353,-39,5717.0,4.654861927032471,200,9982.0
4881,0.3388154208660126,1.53913414478302,56,5717.0,4.217382907867432,93,9982.0
4890,0.33875223994255066,1.92598557472229,-25,5717.0,4.211508274078369,51,9982.0
4900,0.33860763907432556,0.1826382726430893,74,5717.0,4.878323554992676,57,9982.0
4910,0.33843177556991577,0.6045976877212524,62,5717.0,4.993427276611328,-22,9982.0
4920,0.3382583260536194,-2.2024645805358887,-21,5717.0,6.793130874633789,277,9982.0
4930,0.33919936418533325,-2.1745893955230713,86,5717.0,6.0444231033325195,-4,9982.0
4940,0.3391372859477997,-1.7132253646850586,-21,5717.0,7.550451755523682,70,9982.0
4950,0.3390043079853058,2.420222520828247,77,5717.0,2.313784599304199,9,9982.0
4960,0.3387845754623413,1.8293706178665161,10,5717.0,2.688883066177368,26,9982.0
4970,0.33834925293922424,1.5103373527526855,57,5717.0,-0.132126122713089,12,9982.0
4980,0.3381682336330414,0.08958947658538818,79,5717.0,-1.1449981927871704,-231,9982.0
4990,0.33800581097602844,-2.0728259086608887,61,5717.0,-0.5734448432922363,-124,9982.0
5000,0.3378163278102875,1.4823626279830933,106,5717.0,-6.1371588706970215,-102,9982.0
5010,0.337503045797348,-0.5005452036857605,47,5717.0,-1.3735249042510986,-264,9982.0
5020,0.33856141567230225,1.7434526681900024,70,5717.0,-1.4791444540023804,-154,9982.0
5030,0.3382769823074341,1.072860836982727,120,5717.0,-2.978321075439453,-101,9982.0
5040,0.33795982599258423,0.03985000029206276,90,5717.0,-0.8518933653831482,-134,9982.0
5050,0.3376810848712921,5.087382793426514,90,5717.0,-2.4583635330200195,-75,9982.0
5060,0.3379003703594208,3.852694511413574,175,5717.0,-1.699536919593811,-181,9982.0
5070,0.3375641405582428,5.702225685119629,49,5717.0,-4.7777557373046875,-104,9982.0
5080,0.3370996415615082,7.195033073425293,143,5717.0,-5.303491592407227,-12,9982.0
5090,0.33648353815078735,5.875116348266602,215,5717.0,-4.677596092224121,-153,9982.0
5100,0.3374424874782562,5.985980987548828,31,5717.0,-3.662768602371216,-72,9982.0
5110,0.33675074577331543,5.182154655456543,-9,5717.0,-5.8836588859558105,34,9982.0
5120,0.3360191881656647,2.2024953365325928,131,5717.0,-2.161611795425415,-95,9982.0
5130,0.3352414667606354,0.7522074580192566,-47,5717.0,-1.1129575967788696,-91,9982.0
5140,0.33441847562789917,-4.411070823669434,-127,5717.0,-1.1172535419464111,46,9982.0
5150,0.3325989544391632,-6.7287516593933105,-11,5717.0,-1.9907094240188599,93,9982.0
5160,0.3316115140914917,-8.212697982788086,-162,5717.0,0.254016637802124,23,9982.0
5170,0.3308126926422119,-8.305399894714355,-165,5717.0,3.836697578430176,75,9982.0
5180,0.3299717605113983,-11.12922191619873,-87,5717.0,4.11578369140625,161,9982.0
5190,0.32934966683387756,-7.800084114074707,-193,5717.0,9.864322662353516,305,9982.0
5200,0.3290453851222992,-4.477808475494385,-120,5717.0,17.493234634399414,288,9982.0
5210,0.3289828300476074,-3.0858945846557617,-86,5717.0,15.172858238220215,457,9982.0
5220,0.32907673716545105,-0.6367595195770264,10,5717.0,19.380346298217773,361,9982.0
5230,0.3293013572692871,2.3586585521698,2,5717.0,15.270023345947266,236,9982.0
5240,0.3275896906852722,3.9097750186920166,16,5717.0,12.152923583984375,194,9982.0
5250,0.32782578468322754,7.455887317657471,173,5717.0,7.739609718322754,-25,9982.0
5260,0.3280410170555115,1.4970066547393799,-6,5717.0,5.88714075088501,-85,9982.0
5270,0.32823508977890015,0.4060048758983612,77,5717.0,-3.4010121822357178,-68,9982.0
5280,0.3270877003669739,-1.6391812562942505,72,5717.0,-2.500096082687378,-270,9982.0
5290,0.32709699869155884,-0.4257243871688843,36,5717.0,-5.013195514678955,-208,9982.0
5300,0.3271000385284424,1.3456693887710571,112,5717.0,-5.589452266693115,-155,9982.0
5310,0.3270196318626404,0.936874270439148,55,5717.0,-5.385805130004883,-288,9982.0
5321,0.32339122891426086,0.5040050148963928,29,5717.0,-5.96831750869751,-184,9982.0
5330,0.32309776544570923,-1.7509617805480957,52,5717.0,-6.557093143463135,-146,9982.0
5340,0.32295408844947815,-5.811976909637451,-62,5717.0,3.6741583347320557,-169,9982.0
5350,0.3229178488254547,-11.010526657104492,-249,5717.0,5.47993803024292,90,9982.0
5360,0.3230609595775604,-18.333232879638672,-68,5717.0,7.290362358093262,46,9982.0
5370,0.32152050733566284,-15.260343551635742,-180,5717.0,10.697101593017578,-12,9982.0
5380,0.32148364186286926,-12.597907066345215,-139,5717.0,8.276918411254883,65,9982.0
5390,0.3213772177696228,-6.953668594360352,39,5717.0,2.521059989929199,-22,9982.0
5400,0.3212447166442871,3.0268096923828125,130,5717.0,-4.0230393409729,12,9982.0
5410,0.3203069269657135,13.74124526977539,362,5717.0,-15.087540626525879,-197,9982.0
5420,0.31966713070869446,29.14711570739746,456,5717.0,-17.924148559570312,-326,9982.0
5430,0.31878823041915894,36.16265869140625,495,5717.0,-21.515478134155273,-212,9982.0
5440,0.3176925480365753,28.193222045898438,448,5717.0,-21.005817413330078,-178,9982.0
5450,0.3165108263492584,22.832902908325195,307,5717.0,-18.305234909057617,-227,9982.0
5460,0.3154642879962921,16.51033592224121,184,5717.0,-13.010054588317871,-224,9982.0
5470,0.3143002688884735,8.962127685546875,16,5717.0,-6.071167469024658,-68,9982.0
5480,0.31280916929244995,-1.1874991655349731,-13,5717.0,-2.3839070796966553,-72,9982.0
5490,0.3110372722148895,-9.758190155029297,-177,5717.0,3.534325361251831,-112,9982.0
5500,0.309326708316803,-18.32887840270996,-309,5717.0,11.61422348022461,41,9982.0
5510,0.3073865473270416,-20.502506256103516,-277,5717.0,22.592737197875977,237,9982.0
5520,0.3053380250930786,-13.294198036193848,-29,5717.0,20.294387817382812,299,9982.0
5530,0.3036860227584839,-9.39449405670166,-61,5717.0,29.06064796447754,328,9982.0
5540,0.3016055226325989,-11.26615047454834,-156,5717.0,28.198040008544922,470,9982.0
5550,0.2998231053352356,-10.503089904785156,-207,5717.0,31.128053665161133,519,9982.0
5560,0.2988812327384949,-16.37628746032715,-287,5717.0,29.134685516357422,668,9982.0
5570,0.29757922887802124,-11.638178825378418,-270,5717.0,28.209253311157227,380,9982.0
5580,0.2973117232322693,0.3451208174228668,16,5717.0,21.666898727416992,390,9982.0
5590,0.294686496257782,16.495281219482422,395,5717.0,17.590600967407227,159,9982.0
5600,0.2944226562976837,17.420997619628906,295,5717.0,15.337936401367188,124,9982.0
5610,0.29393094778060913,11.69879150390625,274,5717.0,15.87583065032959,271,9982.0
5620,0.29379841685295105,1.3142368793487549,82,5717.0,13.25108528137207,182,9982.0
5630,0.2925965487957001,-5.091476917266846,-189,5717.0,10.820812225341797,246,9982.0
5640,0.2923731505870819,-8.854317665100098,-206,5717.0,8.303632736206055,359,9982.0
5650,0.29216262698173523,-7.038638591766357,-162,5717.0,4.883368968963623,67,9982.0
5660,0.2923416793346405,-2.8743653297424316,-109,5717.0,4.991726398468018,-60,9982.0
5670,0.2921578884124756,-1.6327537298202515,40,5717.0,2.5739245414733887,11,9982.0
5680,0.29148221015930176,-0.3305276334285736,176,5717.0,5.969290256500244,-48,9982.0
5690,0.2914990186691284,4.070695400238037,80,5717.0,7.513182640075684,98,9982.0
5700,0.2913312613964081,9.366326332092285,133,5717.0,10.089756965637207,306,9982.0
5710,0.2908703684806824,11.416500091552734,171,5717.0,10.330995559692383,295,9982.0
5720,0.28806981444358826,13.757737159729004,85,5717.0,6.961193561553955,177,9982.0
5730,0.28743088245391846,10.837206840515137,157,5717.0,3.9113757610321045,184,9982.0
5740,0.28684481978416443,10.37720775604248,165,5717.0,-0.07237673550844193,30,9982.0
5750,0.28596988320350647,10.716028213500977,142,5717.0,-1.307395339012146,-107,9982.0
5760,0.28458040952682495,14.147910118103027,209,5717.0,-0.2993627190589905,18,9982.0
5770,0.283803790807724,15.454293251037598,318,5717.0,4.14339017868042,-18,9982.0
5780,0.28285419940948486,11.91012191772461,163,5717.0,-0.1475147157907486,-234,9982.0
5790,0.2821361720561981,2.590130567550659,-6,5717.0,2.600294589996338,-84,9982.0
5800,0.2810250520706177,0.23052893579006195,18,5717.0,3.7456657886505127,59,9982.0
5810,0.2796039581298828,-6.7165751457214355,-47,5717.0,1.9401277303695679,15,9982.0
5820,0.27879446744918823,-13.388689041137695,-153,5717.0,10.91629695892334,-70,9982.0
5830,0.2780904769897461,-13.220797538757324,-225,5717.0,10.151843070983887,214,9982.0
5840,0.27707844972610474,-10.356002807617188,-174,5717.0,20.078950881958008,409,9982.0
5850,0.27542969584465027,-12.88790225982666,-147,5717.0,21.207015991210938,389,9982.0
5860,0.2751009464263916,-13.412068367004395,-289,5717.0,21.479175567626953,362,9982.0
5870,0.2747247815132141,-13.150474548339844,-260,5717.0,20.849346160888672,485,9982.0
5880,0.27446678280830383,-10.203659057617188,-192,5717.0,18.119129180908203,275,9982.0
5890,0.27157849073410034,-4.873838901519775,13,5717.0,15.116290092468262,108,9982.0
5900,0.27086272835731506,-1.4776978492736816,31,5717.0,9.38276481628418,129,9982.0
5910,0.2700887620449066,4.595869541168213,204,5717.0,4.335755348205566,92,9982.0
5920,0.26936280727386475,7.096436977386475,104,5717.0,-1.0651649236679077,-94,9982.0
5930,0.2685595154762268,9.08901596069336,84,5717.0,-8.463469505310059,50,9982.0
5940,0.26533010601997375,7.251407146453857,96,5717.0,-12.284311294555664,-227,9982.0
5950,0.26434871554374695,8.652353286743164,81,5717.0,-12.410330772399902,-342,9982.0
5960,0.26340973377227783,6.593720436096191,101,5717.0,-11.302406311035156,-199,9982.0
5970,0.26238560676574707,6.244717597961426,171,5717.0,-8.788116455078125,-254,9982.0
5980,0.25886479020118713,3.3245129585266113,125,5717.0,-6.343493461608887,-291,9982.0
5990,0.2578245997428894,6.399214744567871,126,5717.0,-5.001232147216797,-104,9982.0
6000,0.2567765414714813,6.013919830322266,215,5717.0,-3.4938552379608154,-99,9982.0
6010,0.255801260471344,2.649670124053955,53,5717.0,-2.245943784713745,-22,9982.0
6020,0.2547527849674225,0.7334287166595459,-111,5717.0,-1.0588034391403198,67,9982.0
6030,0.25378134846687317,-2.579807996749878,-111,5717.0,-0.9934008717536926,156,9982.0
6040,0.25261959433555603,-5.458865165710449,-172,5717.0,-3.9073779582977295,193,9982.0
6050,0.2514733672142029,-5.975921154022217,-190,5717.0,-5.348825931549072,-85,9982.0
6060,0.2503587603569031,-9.362951278686523,-205,5717.0,-5.664933204650879,-25,9982.0
6070,0.24766351282596588,-6.658074855804443,-134,5717.0,-3.835935592651367,-96,9982.0
6080,0.24646902084350586,-7.66529655456543,-82,5717.0,-6.2862725257873535,-251,9982.0
6090,0.24533295631408691,-7.17024040222168,-21,5717.0,-3.483173370361328,-242,9982.0
6100,0.24416807293891907,-6.111475944519043,-19,5717.0,-4.278687953948975,-138,9982.0
6111,0.24378414452075958,-2.381859540939331,-25,5717.0,-5.095019340515137,9,9982.0
6120,0.24270465970039368,-3.428555965423584,-32,5717.0,-3.4932305812835693,-26,9982.0
6130,0.24148187041282654,-0.142116978764534,-105,5717.0,-5.412628173828125,-59,9982.0
6140,0.24017736315727234,-2.7022252082824707,-135,5717.0,-3.31193208694458,-4,9982.0
6150,0.23877711594104767,-2.3781509399414062,-84,5717.0,0.814720630645752,-22,9982.0
6160,0.23803701996803284,-1.7981845140457153,-18,5717.0,4.630151271820068,30,9982.0
6170,0.2370194047689438,-1.497283935546875,128,5717.0,4.485800743103027,-43,9982.0
6180,0.2359580248594284,-1.2165873050689697,-2,5717.0,6.649667739868164,95,9982.0
6190,0.23478902876377106,-1.0205268859863281,-105,5717.0,11.816757202148438,251,9982.0
6200,0.23372219502925873,-2.0525827407836914,-67,5717.0,8.480995178222656,312,9982.0
6210,0.23242545127868652,0.5838308334350586,-17,5717.0,7.041048526763916,100,9982.0
6220,0.23112136125564575,2.207857370376587,138,5717.0,7.753803730010986,114,9982.0
6230,0.22974999248981476,2.4682815074920654,122,5717.0,7.944554805755615,7,9982.0
6240,0.22862254083156586,2.4247279167175293,42,5717.0,6.7977142333984375,159,9982.0
6250,0.2284369021654129,1.0169199705123901,109,5717.0,5.032013893127441,137,9982.0
6260,0.22738909721374512,-0.9111079573631287,17,5717.0,6.687519550323486,210,9982.0
6270,0.2261306792497635,0.2688117027282715,-70,5717.0,4.182854175567627,51,9982.0
6280,0.22459383308887482,1.1355911493301392,-112,5717.0,2.9001457691192627,74,9982.0
6290,0.22473840415477753,-1.6798652410507202,-63,5717.0,3.524461507797241,64,9982.0
6300,0.22385980188846588,-1.7581816911697388,4,5717.0,3.2460741996765137,-6,9982.0
6310,0.22316309809684753,-0.944911539554596,101,5717.0,3.282628059387207,20,9982.0
6320,0.22239284217357635,-5.274763107299805,45,5717.0,8.14102554321289,88,9982.0
6330,0.22559019923210144,-3.5955772399902344,-135,5717.0,10.027796745300293,247,9982.0
6340,0.22492006421089172,0.49184277653694153,-70,5717.0,14.017877578735352,424,9982.0
6350,0.22508442401885986,2.499831199645996,-19,5717.0,12.576000213623047,343,9982.0
6360,0.22499939799308777,4.603217124938965,125,5717.0,9.859434127807617,145,9982.0
6370,0.2244606912136078,8.03820514678955,185,5717.0,10.038058280944824,-47,9982.0
6380,0.22365452349185944,7.816165447235107,205,5717.0,8.324272155761719,-7,9982.0
6390,0.22331032156944275,10.546446800231934,228,5717.0,3.3724617958068848,73,9982.0
6400,0.22314241528511047,8.566059112548828,272,5717.0,1.0347185134887695,83,9982.0
6410,0.2233770489692688,6.208464622497559,83,5717.0,-1.0851918458938599,39,9982.0
6420,0.22599242627620697,4.903247833251953,-30,5717.0,0.09099216014146805,115,9982.0
6430,0.22561430931091309,2.3894126415252686,-87,5717.0,-1.1381114721298218,62,9982.0
6440,0.22542889416217804,1.7953672409057617,-65,5717.0,-5.604328632354736,80,9982.0
6450,0.22477304935455322,-1.5672279596328735,-86,5717.0,-6.8150858879089355,21,9982.0
6460,0.223922461271286,-1.78059983253479,-133,5717.0,0.26410984992980957,41,9982.0
6470,0.22264881432056427,-1.9650591611862183,-69,5717.0,-3.0996148586273193,75,9982.0
6480,0.2222381830215454,-7.318006992340088,-209,5717.0,7.551402568817139,64,9982.0
6490,0.22160421311855316,-7.451650142669678,-52,5717.0,8.86331558227539,139,9982.0
6500,0.22077837586402893,-7.6654205322265625,-17,5717.0,10.86234188079834,84,9982.0
6510,0.22039499878883362,-9.118836402893066,-88,5717.0,7.622466087341309,-11,9982.0
6520,0.21950054168701172,-5.34234619140625,4,5717.0,9.107059478759766,5,9982.0
6530,0.21832363307476044,-2.6172101497650146,74,5717.0,11.943777084350586,80,9982.0
6540,0.2173052281141281,-0.9499154090881348,221,5717.0,6.330664157867432,30,9982.0
6550,0.21921034157276154,6.723896503448486,107,5717.0,5.55357027053833,108,9982.0
6560,0.21825793385505676,9.130668640136719,64,5717.0,5.294589519500732,136,9982.0
6570,0.21715867519378662,8.78179931640625,-5,5717.0,6.390268802642822,289,9982.0
6580,0.21612024307250977,6.231171607971191,0,5717.0,8.056756019592285,343,9982.0
6590,0.21534442901611328,2.8532378673553467,15,5717.0,14.847606658935547,359,9982.0
6600,0.2163972407579422,0.8059195280075073,6,5717.0,12.206672668457031,141,9982.0
6610,0.21546733379364014,1.8805510997772217,34,5717.0,10.983992576599121,79,9982.0
6620,0.21431410312652588,-1.9481509923934937,-6,5717.0,8.1850004196167,-141,9982.0
6630,0.21279799938201904,-0.6213181614875793,17,5717.0,4.021756172180176,23,9982.0
6640,0.21664945781230927,-1.101622462272644,55,5717.0,2.1295018196105957,-20,9982.0
6650,0.21608062088489532,-1.4537714719772339,91,5717.0,0.7069800496101379,110,9982.0
6660,0.21490684151649475,0.4911380410194397,-16,5717.0,0.8010918498039246,63,9982.0
6670,0.21447376906871796,2.325016736984253,-98,5717.0,1.6148957014083862,194,9982.0
6680,0.21625398099422455,2.2471892833709717,-49,5717.0,6.370378017425537,222,9982.0
6690,0.21516607701778412,4.127927303314209,-11,5717.0,8.4136962890625,330,9982.0
6700,0.21422967314720154,6.640112400054932,91,5717.0,12.189854621887207,265,9982.0
6710,0.21384316682815552,8.564464569091797,168,5717.0,9.56106948852539,211,9982.0
6720,0.21279512345790863,6.0992045402526855,240,5717.0,12.783795356750488,86,9982.0
6730,0.2148912400007248,2.726133346557617,83,5717.0,9.547768592834473,19,9982.0
6740,0.21519802510738373,1.087060570716858,31,5717.0,10.797829627990723,35,9982.0
6750,0.21537882089614868,-4.856395721435547,-26,5717.0,7.948650360107422,80,9982.0
6760,0.21520285308361053,-2.2140302658081055,-9,5717.0,2.17218279838562,67,9982.0
6770,0.21497920155525208,-7.6596760749816895,15,5717.0,4.495148658752441,84,9982.0
6780,0.21419291198253632,-9.20242691040039,-33,5717.0,-0.9828457236289978,-54,9982.0
6790,0.2130630910396576,-6.703169822692871,-188,5717.0,-0.28581613302230835,25,9982.0
6800,0.2130924016237259,-6.017924785614014,-257,5717.0,2.192274570465088,3,9982.0
6810,0.20914813876152039,-7.473857879638672,-284,5717.0,5.045600891113281,192,9982.0
6820,0.20883400738239288,-6.507297515869141,-195,5717.0,3.23661470413208,294,9982.0
6830,0.20744754374027252,-6.2838826179504395,-192,5717.0,11.15468692779541,304,9982.0
6840,0.20653747022151947,-2.8043954372406006,-78,5717.0,10.322783470153809,204,9982.0
6850,0.20710892975330353,-4.986189365386963,-94,5717.0,15.242652893066406,26,9982.0
6860,0.20392316579818726,-6.217447757720947,-48,5717.0,10.378576278686523,-11,9982.0
6870,0.20249316096305847,-5.587876319885254,-42,5717.0,6.901341915130615,-49,9982.0
6880,0.20205026865005493,-1.4077459573745728,43,5717.0,6.034347057342529,133,9982.0
6890,0.20086513459682465,-0.6288811564445496,-11,5717.0,4.4719767570495605,-82,9982.0
6900,0.19537027180194855,-2.658823251724243,-11,5717.0,-0.5981312394142151,6,9982.0
6910,0.1941661834716797,-4.732418537139893,-174,5717.0,-2.509446859359741,-106,9982.0
6920,0.19338786602020264,-7.259224891662598,-255,5717.0,-1.790126085281372,93,9982.0
6930,0.19273048639297485,-10.167756080627441,-329,5717.0,0.9391159415245056,-19,9982.0
6940,0.192755788564682,-9.193799018859863,-198,5717.0,-1.6926723718643188,-142,9982.0
6950,0.18944542109966278,-11.28296947479248,-117,5717.0,0.6848448514938354,-24,9982.0
6960,0.18861764669418335,-8.398630142211914,-28,5717.0,1.2416476011276245,-11,9982.0
6970,0.18718566000461578,-4.738770008087158,25,5717.0,0.618664562702179,62,9982.0
6980,0.18577170372009277,-1.7473007440567017,-20,5717.0,-1.355977177619934,135,9982.0
6990,0.18430167436599731,-0.743834376335144,-120,5717.0,7.644723892211914,106,9982.0
7000,0.18345136940479279,-1.2691147327423096,-66,5717.0,3.557743787765503,-90,9982.0
7010,0.18239742517471313,-3.3710720539093018,-25,5717.0,3.341625452041626,-13,9982.0
7020,0.18109668791294098,-2.511761426925659,16,5717.0,0.421174019575119,14,9982.0
7030,0.17953114211559296,-2.367802858352661,-63,5717.0,0.27337196469306946,132,9982.0
7040,0.17905060946941376,-0.8888771533966064,-15,5717.0,-1.2618629932403564,95,9982.0
7050,0.17826056480407715,0.7923144698143005,-2,5717.0,-1.8854621648788452,76,9982.0
7060,0.17737485468387604,3.1795339584350586,91,5717.0,-0.39091619849205017,-139,9982.0
7070,0.17649592459201813,7.220956325531006,187,5717.0,-3.2251501083374023,-27,9982.0
7080,0.1772424727678299,7.148222923278809,196,5717.0,1.399799108505249,-127,9982.0
7090,0.1767047792673111,9.69031047821045,145,5717.0,-0.11937281489372253,38,9982.0
7100,0.17605404555797577,11.38632869720459,107,5717.0,-1.5797467231750488,116,9982.0
7110,0.17527323961257935,12.662434577941895,176,5717.0,-3.485722780227661,11,9982.0
7120,0.17733433842658997,8.546942710876465,72,5717.0,2.396989583969116,69,9982.0
7130,0.1769857555627823,6.908290386199951,115,5717.0,2.028798818588257,-43,9982.0
7140,0.17698849737644196,0.7326719164848328,137,5717.0,-1.5357412099838257,-75,9982.0
7150,0.1764994114637375,-1.2931779623031616,77,5717.0,-2.345372438430786,-194,9982.0
7160,0.17852206528186798,-7.404012203216553,-40,5717.0,-0.44956550002098083,20,9982.0
7170,0.17899689078330994,-9.491013526916504,-203,5717.0,-1.5518168210983276,64,9982.0
7180,0.17927291989326477,-10.053553581237793,-257,5717.0,-1.405964732170105,164,9982.0
7190,0.17956754565238953,-7.139338970184326,-231,5717.0,-4.709015369415283,-52,9982.0
7200,0.17944647371768951,-8.577771186828613,-265,5717.0,-4.401340961456299,-69,9982.0
7210,0.18047061562538147,-12.20126724243164,-176,5717.0,2.0697944164276123,-150,9982.0
7220,0.1804182231426239,-1.4699132442474365,41,5717.0,-3.556290626525879,-30,9982.0
7230,0.18127375841140747,1.1963109970092773,150,5717.0,-2.438530206680298,-57,9982.0
7240,0.18148139119148254,1.8799360990524292,193,5717.0,-3.5290753841400146,-24,9982.0
7250,0.18296092748641968,2.3852577209472656,70,5717.0,-3.9610352516174316,-12,9982.0
7260,0.18334130942821503,2.377164363861084,-21,5717.0,-7.452605247497559,-114,9982.0
7270,0.18315434455871582,5.131374359130859,-48,5717.0,-8.764575004577637,16,9982.0
7280,0.1834440976381302,2.5103201866149902,-22,5717.0,-2.6373369693756104,1,9982.0
7290,0.18317703902721405,2.195918560028076,-75,5717.0,-3.5021424293518066,-116,9982.0
7300,0.185275137424469,-1.1232521533966064,-31,5717.0,1.6363985538482666,-4,9982.0
7310,0.18518413603305817,-3.431654691696167,-58,5717.0,2.374420404434204,17,9982.0
7320,0.18613743782043457,0.7869060039520264,114,5717.0,4.131709575653076,-30,9982.0
7330,0.18629781901836395,-0.7151883244514465,121,5717.0,3.2146782875061035,-48,9982.0
7340,0.1871200054883957,-1.2585936784744263,144,5717.0,3.105564832687378,50,9982.0
7350,0.18730539083480835,4.047266960144043,125,5717.0,4.275908470153809,-109,9982.0
7360,0.1874927133321762,0.05035041645169258,37,5717.0,8.573599815368652,-8,9982.0
7370,0.18741275370121002,3.512427806854248,-54,5717.0,-3.524653196334839,73,9982.0
7381,0.18943025171756744,-0.07376128435134888,-88,5717.0,4.552809238433838,108,9982.0
7390,0.18943025171756744,2.6766369342803955,-32,5717.0,2.7077128887176514,159,9982.0
7400,0.18875202536582947,5.447514057159424,59,5717.0,0.15325120091438293,125,9982.0
7410,0.1888248175382614,6.8913373947143555,32,5717.0,4.258634567260742,61,9982.0
7420,0.18878918886184692,11.219415664672852,126,5717.0,2.821154832839966,168,9982.0
7430,0.18864552676677704,7.388258934020996,96,5717.0,5.8246989250183105,144,9982.0
7440,0.18826699256896973,5.749794006347656,137,5717.0,5.399681568145752,-103,9982.0
7450,0.1877901703119278,2.8306970596313477,134,5717.0,-0.2321973443031311,65,9982.0
7460,0.18738868832588196,-0.44033873081207275,117,5717.0,2.8795015811920166,-17,9982.0
7470,0.18649518489837646,-3.8080780506134033,84,5717.0,-0.8434473276138306,107,9982.0
7480,0.18615363538265228,-4.739521026611328,-7,5717.0,5.358978271484375,55,9982.0
7490,0.18544696271419525,-6.109038352966309,-104,5717.0,-2.7747960090637207,32,9982.0
7500,0.18476693332195282,-4.551699638366699,-100,5717.0,-5.333161354064941,58,9982.0
7510,0.18417122960090637,-2.4582879543304443,-123,5717.0,-3.5684866905212402,14,9982.0
7520,0.18521709740161896,-2.1195316314697266,-170,5717.0,0.8203746676445007,72,9982.0
7530,0.18493084609508514,-1.0362000465393066,-113,5717.0,1.3815137147903442,-68,9982.0
7540,0.18447574973106384,-2.781860589981079,-15,5717.0,6.290741920471191,-25,9982.0
7550,0.1842450499534607,-0.7099477648735046,75,5717.0,5.104992389678955,40,9982.0
7560,0.18649765849113464,0.860564112663269,150,5717.0,4.965723514556885,51,9982.0
7570,0.1864023357629776,1.482545256614685,3,5717.0,4.8568267822265625,142,9982.0
7580,0.18624790012836456,2.129650115966797,-75,5717.0,5.301739692687988,234,9982.0
7590,0.18609751760959625,-1.8281480073928833,-51,5717.0,4.607656955718994,78,9982.0
7600,0.18590053915977478,-3.0647284984588623,-66,5717.0,1.8801277875900269,-8,9982.0
7610,0.18843497335910797,-3.5925133228302,13,5717.0,-3.7668306827545166,-185,9982.0
7620,0.1883530467748642,-2.1432838439941406,15,5717.0,-3.815366268157959,-92,9982.0
7630,0.18856297433376312,-1.0676714181900024,-4,5717.0,-5.880486965179443,29,9982.0
7640,0.18851681053638458,-3.7300620079040527,-93,5717.0,-6.0682373046875,-26,9982.0
7650,0.18985533714294434,-1.9511829614639282,-112,5717.0,-6.289616584777832,-82,9982.0
7660,0.18994280695915222,-2.8392839431762695,-14,5717.0,-0.6734753251075745,-104,9982.0
7670,0.19018808007240295,-1.1240661144256592,74,5717.0,1.3183469772338867,-75,9982.0
7680,0.19016361236572266,2.0773839950561523,99,5717.0,1.321000576019287,124,9982.0
7690,0.19127598404884338,1.1158063411712646,24,5717.0,6.367184638977051,94,9982.0
7700,0.19143815338611603,0.7771822214126587,-81,5717.0,4.669875621795654,189,9982.0
7710,0.19178101420402527,-1.5501912832260132,-69,5717.0,3.1838459968566895,157,9982.0
7720,0.19209223985671997,0.7709861397743225,-16,5717.0,2.901193618774414,-31,9982.0
7730,0.19247658550739288,-0.022143429145216942,43,5717.0,2.619936227798462,-31,9982.0
7740,0.19494065642356873,-1.7302205562591553,77,5717.0,1.010290503501892,-61,9982.0
7750,0.19559408724308014,-0.707408607006073,-2,5717.0,-2.284073829650879,-18,9982.0
7760,0.19609582424163818,-1.5311827659606934,-78,5717.0,-2.376087188720703,127,9982.0
7770,0.1965588927268982,-2.096437692642212,-201,5717.0,-2.57985520362854,89,9982.0
7780,0.19682824611663818,-3.096478223800659,-152,5717.0,-1.3255722522735596,38,9982.0
7790,0.1975274533033371,-3.4705355167388916,-91,5717.0,0.07193198800086975,62,9982.0
7800,0.1981685310602188,-2.6407721042633057,-32,5717.0,-2.4635627269744873,-82,9982.0
7810,0.19876906275749207,-0.7662402987480164,77,5717.0,-1.5762776136398315,-153,9982.0
7820,0.19952382147312164,2.4488167762756348,123,5717.0,-1.2107609510421753,-97,9982.0
7830,0.19991044700145721,1.0357972383499146,105,5717.0,1.9458400011062622,-94,9982.0
7840,0.20017684996128082,0.3593311607837677,86,5717.0,1.4214012622833252,22,9982.0
7850,0.20054931938648224,0.2031482607126236,157,5717.0,0.4930843710899353,9,9982.0
7860,0.20085717737674713,2.938955307006836,63,5717.0,2.662775993347168,46,9982.0
7870,0.2018548995256424,2.869184970855713,63,5717.0,0.3340369462966919,-8,9982.0
7880,0.2020735889673233,2.8994927406311035,35,5717.0,0.5086976289749146,100,9982.0
7890,0.2021491378545761,2.7237493991851807,28,5717.0,-1.2062983512878418,113,9982.0
7900,0.20216453075408936,3.3403878211975098,0,5717.0,-1.5208361148834229,171,9982.0
7910,0.2016114592552185,1.3881638050079346,21,5717.0,-1.4350422620773315,37,9982.0
7920,0.20176628232002258,0.9893451929092407,-66,5717.0,-0.9648566842079163,-63,9982.0
7930,0.20195364952087402,0.1293228417634964,-34,5717.0,4.6370415687561035,58,9982.0
7940,0.2022656351327896,-2.199589490890503,-6,5717.0,1.6815812587738037,-121,9982.0
7950,0.20264627039432526,-3.4481308460235596,7,5717.0,2.2190301418304443,-20,9982.0
7960,0.20094895362854004,-2.4072768688201904,84,5717.0,4.810248851776123,-59,9982.0
7970,0.20107364654541016,-3.6633760929107666,42,5717.0,7.109045505523682,-48,9982.0
7980,0.20132769644260406,0.23620185256004333,36,5717.0,-0.16197091341018677,70,9982.0
7990,0.2014106959104538,-0.9545101523399353,101,5717.0,3.578183650970459,103,9982.0
8000,0.20244383811950684,3.8988571166992188,22,5717.0,2.4451653957366943,107,9982.0
8010,0.20257116854190826,0.019786227494478226,-57,5717.0,4.159969806671143,247,9982.0
8020,0.20269852876663208,1.2111713886260986,-76,5717.0,4.702551364898682,116,9982.0
8030,0.2028694599866867,0.9585256576538086,-18,5717.0,2.56646728515625,49,9982.0
8041,0.20387089252471924,-0.39533963799476624,14,5717.0,0.8909992575645447,-72,9982.0
8050,0.20416218042373657,-3.151721239089966,25,5717.0,0.6769730448722839,-73,9982.0
8060,0.20444020628929138,-0.870958685874939,135,5717.0,-3.6128804683685303,-291,9982.0
8071,0.20479385554790497,-1.252407431602478,6,5717.0,-3.339392900466919,-195,9982.0
8081,0.20508719980716705,-3.2603981494903564,-6,5717.0,-1.1151829957962036,-23,9982.0
8090,0.20475177466869354,-0.8674176931381226,-47,5717.0,-3.9211645126342773,43,9982.0
8100,0.2049044370651245,0.20103108882904053,-109,5717.0,-2.4475724697113037,49,9982.0
8110,0.20504219830036163,-0.5229969024658203,-78,5717.0,-6.60786247253418,-18,9982.0
8121,0.2051033079624176,4.431460380554199,-112,5717.0,-2.9216415882110596,55,9982.0
8131,0.20447911322116852,3.5643434524536133,-26,5717.0,-1.20015549659729,60,9982.0
8140,0.20466072857379913,2.885124444961548,9,5717.0,1.6561905145645142,41,9982.0
8150,0.2048288732767105,3.0831305980682373,91,5717.0,1.3026238679885864,-47,9982.0
8160,0.20502044260501862,2.854898452758789,128,5717.0,3.465474843978882,-108,9982.0
8170,0.20520661771297455,3.562878370285034,141,5717.0,1.7806059122085571,-21,9982.0
8180,0.20398826897144318,2.73439359664917,155,5717.0,2.1683034896850586,-74,9982.0
8190,0.204012930393219,-0.1667134165763855,47,5717.0,4.451320648193359,-116,9982.0
8200,0.20435145497322083,-0.16291333734989166,94,5717.0,3.0711822509765625,-102,9982.0
8210,0.20454537868499756,1.327054500579834,54,5717.0,-0.7486662268638611,-30,9982.0
8220,0.20333430171012878,0.04052334278821945,13,5717.0,0.6505034565925598,97,9982.0
8230,0.2035636603832245,-0.045269474387168884,-60,5717.0,0.10307396948337555,60,9982.0
8240,0.2038636952638626,2.918576955795288,-92,5717.0,-0.953579306602478,94,9982.0
8250,0.2040056735277176,1.2362139225006104,-105,5717.0,-0.9097579717636108,59,9982.0
8260,0.20416273176670074,1.3681089878082275,40,5717.0,1.4274801015853882,107,9982.0
8270,0.20418564975261688,1.426019549369812,-1,5717.0,3.5022616386413574,25,9982.0
8280,0.204164519906044,-0.33213549852371216,24,5717.0,3.019223213195801,-58,9982.0
8290,0.20413266122341156,-0.5818886756896973,86,5717.0,0.3536880314350128,-67,9982.0
8300,0.20414575934410095,0.36419689655303955,119,5717.0,-0.5805736780166626,-148,9982.0
8310,0.20602579414844513,-0.42968079447746277,20,5717.0,-3.2850685119628906,-34,9982.0
8320,0.2063506841659546,0.6870856285095215,-23,5717.0,-4.754184722900391,-36,9982.0
8330,0.2068054974079132,1.0606763362884521,-58,5717.0,-4.424383640289307,103,9982.0
8340,0.20722031593322754,2.0828440189361572,-86,5717.0,3.595273017883301,146,9982.0
8350,0.20625805854797363,4.518863677978516,43,5717.0,-0.2383190542459488,-27,9982.0
8360,0.20662954449653625,3.9495484828948975,88,5717.0,2.3672056198120117,-62,9982.0
8370,0.20715628564357758,5.019105434417725,184,5717.0,4.341344356536865,-14,9982.0
8380,0.20745976269245148,5.342450141906738,103,5717.0,0.49751466512680054,-18,9982.0
8390,0.20762671530246735,2.3470330238342285,41,5717.0,-3.236703395843506,-30,9982.0
8400,0.20638054609298706,1.4024946689605713,-16,5717.0,-3.0429840087890625,32,9982.0
8410,0.2069305181503296,-0.9227601289749146,-115,5717.0,-1.651015043258667,103,9982.0
8420,0.2075221687555313,-1.8246090412139893,-69,5717.0,-2.0273187160491943,64,9982.0
8430,0.20787794888019562,-2.297281503677368,-84,5717.0,-5.180447578430176,-149,9982.0
8440,0.20935218036174774,-1.718614101409912,26,5717.0,-0.5614753365516663,-168,9982.0
8450,0.20967645943164825,-3.0384509563446045,45,5717.0,-0.3154817819595337,-131,9982.0
8460,0.2098289430141449,-2.0178511142730713,102,5717.0,-0.34677931666374207,78,9982.0
8470,0.210311159491539,1.05667245388031,52,5717.0,1.5729403495788574,90,9982.0
8480,0.21205785870552063,4.059015274047852,-9,5717.0,7.577950954437256,210,9982.0
8490,0.2126360684633255,5.468386173248291,-17,5717.0,9.917851448059082,253,9982.0
8500,0.21350550651550293,6.916198253631592,15,5717.0,8.765653610229492,263,9982.0
8510,0.21494151651859283,4.454151630401611,58,5717.0,6.285915374755859,98,9982.0
8520,0.21571345627307892,3.9600539207458496,56,5717.0,9.566789627075195,53,9982.0
8530,0.21542099118232727,3.5752336978912354,155,5717.0,5.7077813148498535,-17,9982.0
8540,0.21624399721622467,4.276119709014893,138,5717.0,1.2612457275390625,-106,9982.0
8550,0.21707302331924438,4.595605373382568,172,5717.0,-0.9171066284179688,43,9982.0
8560,0.21781256794929504,6.21521520614624,74,5717.0,-3.608492851257324,-21,9982.0
8570,0.21912260353565216,6.422530651092529,-36,5717.0,-6.797770023345947,46,9982.0
8580,0.21993954479694366,2.767219305038452,-73,5717.0,-1.7190264463424683,-13,9982.0
8590,0.2206992655992508,2.8881773948669434,-80,5717.0,-6.015133857727051,-43,9982.0
8600,0.22146034240722656,-0.3725433349609375,-74,5717.0,-5.369697570800781,-82,9982.0
8610,0.22214023768901825,-1.2898343801498413,91,5717.0,-4.4834723472595215,-163,9982.0
8620,0.21911947429180145,-0.44839516282081604,15,5717.0,-5.369691371917725,-135,9982.0
8630,0.21942391991615295,-1.26847505569458,67,5717.0,-1.2969787120819092,-136,9982.0
8640,0.21974243223667145,-3.185006856918335,99,5717.0,1.2146809101104736,-50,9982.0
8650,0.22013099491596222,0.44845104217529297,83,5717.0,-1.035695195198059,-44,9982.0
8660,0.22231100499629974,-0.1606030911207199,54,5717.0,1.589136004447937,132,9982.0
8670,0.22289714217185974,0.943112850189209,-18,5717.0,5.592340469360352,127,9982.0
8680,0.22357437014579773,2.3939433097839355,-56,5717.0,5.867942810058594,272,9982.0
8690,0.22421589493751526,2.663226842880249,-129,5717.0,6.672983646392822,186,9982.0
8700,0.2249159812927246,1.079854130744934,-101,5717.0,3.8640222549438477,97,9982.0
8710,0.22556227445602417,2.455129623413086,-12,5717.0,0.24515949189662933,-47,9982.0
8720,0.22627785801887512,3.7655868530273438,-7,5717.0,-2.4639437198638916,-107,9982.0
8730,0.22674889862537384,3.955641984939575,133,5717.0,-7.974862575531006,-245,9982.0
8740,0.22739695012569427,-0.010258377529680729,106,5717.0,-6.923511028289795,-171,9982.0
8750,0.23087990283966064,-0.9257327318191528,104,5717.0,-10.371604919433594,-136,9982.0
8760,0.23162680864334106,-2.621257781982422,-64,5717.0,-9.574132919311523,-105,9982.0
8770,0.23284347355365753,-4.408606052398682,-100,5717.0,-8.472054481506348,-18,9982.0
8780,0.2338649481534958,-1.9101239442825317,-109,5717.0,-7.522998809814453,-16,9982.0
8790,0.23314796388149261,1.5039995908737183,-86,5717.0,-4.660067558288574,88,9982.0
8800,0.2341890186071396,4.566883087158203,-34,5717.0,-2.682563066482544,-2,9982.0
8810,0.23469087481498718,4.180481910705566,80,5717.0,6.096765518188477,91,9982.0
8820,0.23526787757873535,2.843623638153076,83,5717.0,7.08273983001709,33,9982.0
8830,0.23564670979976654,2.3585774898529053,99,5717.0,6.951035022735596,33,9982.0
8840,0.23547634482383728,1.7365795373916626,123,5717.0,10.720157623291016,89,9982.0
8850,0.2360474318265915,2.1710093021392822,117,5717.0,4.914778232574463,-29,9982.0
8860,0.2367580235004425,0.805353045463562,92,5717.0,3.1398086547851562,139,9982.0
8870,0.237783282995224,1.9022877216339111,-10,5717.0,-0.21729141473770142,52,9982.0
8880,0.23785068094730377,1.7471287250518799,-62,5717.0,-2.709528923034668,28,9982.0
8890,0.23859329521656036,0.7793632745742798,-52,5717.0,-4.762718200683594,-70,9982.0
8900,0.23914141952991486,-1.4055789709091187,-75,5717.0,-6.468029975891113,-121,9982.0
8910,0.23978881537914276,-2.817021131515503,-1,5717.0,-4.669110298156738,-218,9982.0
8920,0.2409609854221344,-2.8389768600463867,15,5717.0,-4.550205707550049,-117,9982.0
8930,0.24166907370090485,-3.9020650386810303,-31,5717.0,-4.260842800140381,-102,9982.0
8940,0.24228370189666748,-5.999516487121582,-96,5717.0,0.07034020125865936,54,9982.0
8950,0.24288301169872284,-4.725288391113281,-150,5717.0,-0.7162510752677917,42,9982.0
8960,0.24339161813259125,-4.836079120635986,-190,5717.0,2.083934783935547,89,9982.0
8970,0.24522486329078674,-5.092848300933838,-82,5717.0,0.5985445380210876,28,9982.0
8980,0.2455768883228302,-4.972081661224365,-73,5717.0,4.307286739349365,-96,9982.0
8990,0.2459716647863388,-2.139760732650757,52,5717.0,0.09291883558034897,-38,9982.0
9000,0.24643272161483765,-0.9249095916748047,88,5717.0,1.5901780128479004,7,9982.0
9010,0.2488689422607422,0.6936876177787781,-35,5717.0,1.4551305770874023,162,9982.0
9020,0.24940410256385803,1.6893573999404907,-23,5717.0,-1.1092678308486938,38,9982.0
9030,0.25052860379219055,1.8066191673278809,-49,5717.0,2.0503668785095215,62,9982.0
9040,0.25150957703590393,3.1811363697052,60,5717.0,2.8440616130828857,-114,9982.0
9050,0.2540142834186554,4.1091485023498535,143,5717.0,2.4836347103118896,-27,9982.0
9060,0.2547891438007355,5.078466892242432,158,5717.0,0.6381492614746094,-19,9982.0
9070,0.2556470036506653,4.714519023895264,85,5717.0,1.6463007926940918,109,9982.0
9080,0.25686344504356384,-0.10800353437662125,-120,5717.0,4.407069683074951,191,9982.0
9090,0.2585332691669464,-9.25328254699707,-264,5717.0,4.227087497711182,170,9982.0
9100,0.2621248960494995,-18.011903762817383,-423,5717.0,6.95642614364624,132,9982.0
9110,0.26293012499809265,-24.542863845825195,-471,5717.0,5.462507724761963,121,9982.0
9120,0.26448577642440796,-29.59723663330078,-459,5717.0,3.6045424938201904,-29,9982.0
9130,0.26544123888015747,-27.862680435180664,-396,5717.0,4.042105197906494,-35,9982.0
9140,0.2654244899749756,-25.87917137145996,-354,5717.0,3.349896192550659,-3,9982.0
9150,0.2664056122303009,-18.193313598632812,-201,5717.0,-2.7909388542175293,-88,9982.0
9160,0.26746219396591187,-13.179652214050293,-283,5717.0,-3.116105079650879,39,9982.0
9170,0.2682752311229706,-11.56132984161377,-242,5717.0,-0.7784834504127502,63,9982.0
9180,0.26901185512542725,-5.920902729034424,-152,5717.0,-2.098180055618286,91,9982.0
9190,0.2713471055030823,-2.6817545890808105,-67,5717.0,0.49780264496803284,117,9982.0
9200,0.2722429037094116,0.41861531138420105,-2,5717.0,2.4262139797210693,47,9982.0
9210,0.27314600348472595,2.4797964096069336,40,5717.0,2.0780532360076904,-40,9982.0
9220,0.27395299077033997,3.3659090995788574,123,5717.0,6.504950046539307,-63,9982.0
9230,0.27592483162879944,3.8451499938964844,135,5717.0,-2.9318675994873047,-78,9982.0
9240,0.27662476897239685,1.1588102579116821,133,5717.0,-0.6583077907562256,-142,9982.0
9250,0.2771904468536377,-0.534213662147522,120,5717.0,-2.590851306915283,-193,9982.0
9260,0.27775320410728455,2.184638738632202,94,5717.0,-7.450465202331543,-111,9982.0
9271,0.2800940275192261,2.1379411220550537,73,5717.0,-4.240078449249268,-131,9982.0
9280,0.2806895077228546,2.6085424423217773,36,5717.0,-5.125494956970215,-41,9982.0
9290,0.2811669707298279,4.325247764587402,18,5717.0,-3.0035922527313232,3,9982.0
9300,0.28159692883491516,4.379912853240967,91,5717.0,-3.405128002166748,-11,9982.0
9310,0.28202903270721436,6.137974262237549,40,5717.0,0.3610670566558838,8,9982.0
9320,0.28544753789901733,6.793475151062012,-10,5717.0,-0.9479557275772095,19,9982.0
9330,0.28618094325065613,4.797405242919922,26,5717.0,1.6440333127975464,-38,9982.0
9340,0.2867829501628876,4.204236030578613,107,5717.0,0.3017646074295044,-12,9982.0
9350,0.286892294883728,6.0603790283203125,70,5717.0,1.0763943195343018,9,9982.0
9360,0.29044121503829956,7.267221450805664,138,5717.0,-2.5128684043884277,-56,9982.0
9370,0.2910242974758148,5.147165775299072,94,5717.0,-8.376522064208984,-158,9982.0
9380,0.29182878136634827,5.516295909881592,53,5717.0,-11.737056732177734,-191,9982.0
9390,0.29239529371261597,3.3769171237945557,-2,5717.0,-11.528306007385254,-112,9982.0
9400,0.2930207848548889,2.8772730827331543,31,5717.0,-10.33382511138916,-208,9982.0
9410,0.2967430651187897,3.5711803436279297,63,5717.0,-13.273970603942871,-218,9982.0
9420,0.29747653007507324,2.1002578735351562,21,5717.0,-10.793128967285156,-157,9982.0
9430,0.29817748069763184,3.149533748626709,11,5717.0,-9.915103912353516,-167,9982.0
9440,0.29881981015205383,4.273660659790039,74,5717.0,-6.576480388641357,-129,9982.0
9451,0.3008343279361725,6.508445739746094,161,5717.0,-2.678755044937134,-92,9982.0
9460,0.30144402384757996,6.596187114715576,148,5717.0,2.369767665863037,-32,9982.0
9470,0.3020196557044983,5.140111923217773,99,5717.0,1.0312215089797974,-17,9982.0
9480,0.30257514119148254,4.069008827209473,66,5717.0,1.4787521362304688,-30,9982.0
9490,0.3031694293022156,4.114004611968994,63,5717.0,-3.0837907791137695,0,9982.0
9501,0.3065260648727417,3.3686001300811768,14,5717.0,-4.861241817474365,-135,9982.0
9510,0.30723837018013,0.4732096195220947,51,5717.0,-3.4173943996429443,-157,9982.0
9520,0.3079913556575775,-1.1080150604248047,28,5717.0,-5.582650661468506,-240,9982.0
9530,0.3088190257549286,-1.7964760065078735,38,5717.0,-3.0145137310028076,-239,9982.0
9540,0.3129343092441559,0.02613319456577301,49,5717.0,-4.325937747955322,-181,9982.0
9550,0.31386157870292664,0.6227064728736877,98,5717.0,-3.9257595539093018,-87,9982.0
9560,0.31477096676826477,4.63350772857666,114,5717.0,-2.587259531021118,-68,9982.0
9570,0.31566163897514343,6.456222057342529,141,5717.0,3.877997398376465,-2,9982.0
9580,0.31942808628082275,8.071885108947754,162,5717.0,5.925792217254639,32,9982.0
9590,0.32056325674057007,6.2173027992248535,98,5717.0,4.1363959312438965,36,9982.0
9600,0.32165417075157166,6.083540439605713,102,5717.0,5.624983310699463,33,9982.0
9610,0.3226143717765808,4.6381611824035645,131,5717.0,6.907516956329346,27,9982.0
9620,0.32349827885627747,3.3986713886260986,53,5717.0,4.992652416229248,59,9982.0
9630,0.32618337869644165,2.072206974029541,32,5717.0,5.133731842041016,15,9982.0
9640,0.3271973729133606,1.236363172531128,29,5717.0,2.382906913757324,47,9982.0
9650,0.32818126678466797,-0.25545966625213623,-81,5717.0,-0.7713256478309631,2,9982.0
9660,0.32908716797828674,-2.25730037689209,-54,5717.0,2.3421478271484375,-65,9982.0
9670,0.3314865529537201,-2.896017074584961,-39,5717.0,-5.795159339904785,-96,9982.0
9680,0.33235013484954834,-1.9907279014587402,-54,5717.0,-5.406432151794434,-50,9982.0
9690,0.3331838548183441,-3.8248772621154785,-81,5717.0,-4.5111894607543945,-139,9982.0
9700,0.33404964208602905,-3.071413278579712,-66,5717.0,-3.7943203449249268,-57,9982.0
9710,0.33641883730888367,-4.53533935546875,-122,5717.0,-1.3884564638137817,31,9982.0
9720,0.3371780514717102,-3.6676430702209473,-61,5717.0,2.3399136066436768,-21,9982.0
9730,0.33788466453552246,-4.711061954498291,-70,5717.0,5.303287982940674,-11,9982.0
9740,0.33857518434524536,-3.428046703338623,-68,5717.0,7.917205810546875,48,9982.0
9750,0.3392246663570404,-2.5756473541259766,16,5717.0,7.909491062164307,38,9982.0
9760,0.3412768840789795,-0.38814523816108704,33,5717.0,11.635516166687012,162,9982.0
9770,0.34183424711227417,1.8557034730911255,29,5717.0,8.151471138000488,129,9982.0
9781,0.34239476919174194,3.678936243057251,112,5717.0,4.048952102661133,38,9982.0
9790,0.3428986668586731,4.243224143981934,59,5717.0,4.574590682983398,-25,9982.0
9800,0.3475579619407654,4.61848258972168,58,5717.0,2.291496515274048,-53,9982.0
9810,0.3483906388282776,1.9124516248703003,42,5717.0,6.0674147605896,56,9982.0
9821,0.3493835926055908,-3.865548610687256,-52,5717.0,9.775459289550781,76,9982.0
9830,0.3499048948287964,-7.164409637451172,-134,5717.0,12.83278751373291,190,9982.0
9840,0.35053062438964844,-11.348589897155762,-171,5717.0,18.13037872314453,246,9982.0
9850,0.352326899766922,-14.312021255493164,-172,5717.0,22.970212936401367,283,9982.0
9860,0.3530987501144409,-14.128317832946777,-198,5717.0,20.552770614624023,324,9982.0
9870,0.35366418957710266,-12.978548049926758,-171,5717.0,22.73710823059082,348,9982.0
9881,0.35420337319374084,-8.977535247802734,-124,5717.0,18.5212459564209,183,9982.0
9890,0.35800138115882874,-6.953419208526611,-27,5717.0,13.021150588989258,107,9982.0
9901,0.35880017280578613,-3.588115692138672,29,5717.0,6.023921012878418,-53,9982.0
9910,0.359493613243103,-0.2670027017593384,78,5717.0,4.5168561935424805,-39,9982.0
9920,0.3601513206958771,4.828700065612793,121,5717.0,-1.7362957000732422,-138,9982.0
9931,0.3635193705558777,4.429856300354004,156,5717.0,-2.3959195613861084,-89,9982.0
9940,0.36427798867225647,4.144923686981201,119,5717.0,-5.4210381507873535,-136,9982.0
9950,0.3650716543197632,2.551344394683838,74,5717.0,-6.188225269317627,-211,9982.0
9960,0.3658100366592407,2.908723831176758,40,5717.0,-5.485823631286621,-146,9982.0
9970,0.36655065417289734,-2.5114989280700684,2,5717.0,-4.005633354187012,-97,9982.0
9980,0.36781808733940125,-4.151467800140381,-36,5717.0,-5.079074382781982,-111,9982.0
9990,0.3685649335384369,-5.168278694152832,-62,5717.0,-4.813043594360352,-122,9982.0
10000,0.36938026547431946,-3.5368874073028564,-49,5717.0,-5.378622531890869,-91,9982.0
10010,0.37023448944091797,-3.116213083267212,26,5717.0,-4.531374931335449,16,9982.0
10020,0.37222224473953247,0.9002534747123718,41,5717.0,-3.7876787185668945,-33,9982.0
10030,0.37313196063041687,4.371772289276123,94,5717.0,-4.04403829574585,-43,9982.0
10040,0.3740309178829193,6.225602626800537,139,5717.0,-0.9547132849693298,57,9982.0
10050,0.37488794326782227,5.876136779785156,82,5717.0,-4.670166015625,-23,9982.0
10060,0.37587621808052063,6.930866241455078,88,5717.0,-5.0605669021606445,-53,9982.0
10070,0.3777626156806946,4.928992748260498,99,5717.0,-8.03609561920166,-63,9982.0
10080,0.3786960542201996,3.2963109016418457,37,5717.0,-8.065642356872559,-104,9982.0
10090,0.3796781301498413,0.7730885148048401,-9,5717.0,-7.887006759643555,-115,9982.0
10100,0.38064759969711304,0.3170970380306244,-31,5717.0,-10.600898742675781,-75,9982.0
10110,0.382603257894516,-0.4420032501220703,-18,5717.0,-11.332841873168945,-44,9982.0
10120,0.3836440443992615,-1.6920305490493774,-34,5717.0,-11.279640197753906,-82,9982.0
10130,0.38460755348205566,-1.6437467336654663,-43,5717.0,-5.196491718292236,-44,9982.0
10140,0.38557708263397217,-0.6249471306800842,-40,5717.0,-6.635600566864014,43,9982.0
10150,0.38657256960868835,-1.5750157833099365,-68,5717.0,-2.7269539833068848,-129,9982.0
10160,0.3872067928314209,-0.7435846924781799,-39,5717.0,-7.03619384765625,-172,9982.0
10170,0.38801583647727966,0.5943643450737,47,5717.0,-7.253259181976318,-145,9982.0
10180,0.38873735070228577,0.5854002833366394,-16,5717.0,-7.195346832275391,-156,9982.0
10191,0.389500230550766,2.124366044998169,61,5717.0,-4.925441741943359,-237,9982.0
10200,0.389142781496048,3.9438157081604004,62,5717.0,-9.939289093017578,-280,9982.0
10210,0.38964512944221497,2.2014987468719482,98,5717.0,-8.054094314575195,-238,9982.0
10220,0.3900732398033142,2.256957769393921,32,5717.0,-9.727766990661621,-255,9982.0
10230,0.3905402719974518,3.137758493423462,66,5717.0,-8.499216079711914,-228,9982.0
10240,0.3901435434818268,3.1890318393707275,31,5717.0,-7.608089447021484,-207,9982.0
10250,0.3904740512371063,0.8478735089302063,61,5717.0,-5.447389125823975,-162,9982.0
10260,0.3907018005847931,-0.5190269351005554,31,5717.0,-4.228803634643555,-87,9982.0
10270,0.3909417986869812,0.18203343451023102,0,5717.0,-3.8953166007995605,-111,9982.0
10280,0.39121368527412415,-2.9809694290161133,-5,5717.0,-2.907639265060425,-124,9982.0
10290,0.39019978046417236,-3.6843278408050537,-18,5717.0,-2.1528143882751465,-94,9982.0
10300,0.39034503698349,-3.108459711074829,9,5717.0,-0.13138465583324432,-16,9982.0
10310,0.39046722650527954,-3.3946399688720703,-3,5717.0,-1.568746566772461,-76,9982.0
10320,0.3905929625034332,-2.4624269008636475,-5,5717.0,-1.221972107887268,-94,9982.0
10330,0.3912426233291626,-1.731008529663086,43,5717.0,-0.6051540970802307,-144,9982.0
10340,0.3914530873298645,-2.0662519931793213,86,5717.0,4.667840003967285,-40,9982.0
10350,0.3916279375553131,1.2196096181869507,53,5717.0,5.30216121673584,-57,9982.0
10360,0.39174017310142517,0.9633579850196838,10,5717.0,3.1477174758911133,-31,9982.0
10370,0.39301827549934387,-0.14738987386226654,46,5717.0,3.753652334213257,-33,9982.0
10380,0.3931823968887329,0.2899240255355835,-60,5717.0,4.078551769256592,-43,9982.0
10390,0.39335015416145325,-2.0626654624938965,41,5717.0,5.196832656860352,-30,9982.0
10400,0.39359334111213684,-1.9520814418792725,-91,5717.0,-0.8211848735809326,10,9982.0
10410,0.39387694001197815,-1.5980952978134155,-71,5717.0,1.5113022327423096,91,9982.0
10420,0.39379701018333435,-2.065103054046631,-109,5717.0,0.7070411443710327,86,9982.0
10430,0.3941478133201599,-1.3220996856689453,-51,5717.0,2.444519281387329,108,9982.0
10440,0.39455509185791016,1.4154789447784424,-29,5717.0,-0.432668536901474,54,9982.0
10450,0.3950515389442444,0.3351907730102539,-112,5717.0,2.3082339763641357,234,9982.0
10460,0.3973534405231476,2.2981808185577393,26,5717.0,1.8100206851959229,150,9982.0
10470,0.398071825504303,-1.1930099725723267,-61,5717.0,3.5952446460723877,83,9982.0
10480,0.3987865149974823,-0.9582533240318298,-35,5717.0,-0.5132913589477539,57,9982.0
10490,0.3995489180088043,0.3509218394756317,-35,5717.0,-0.7287157773971558,96,9982.0
10500,0.4002978205680847,-1.1590739488601685,-53,5717.0,3.410492181777954,95,9982.0
10510,0.40132251381874084,-0.8142945170402527,3,5717.0,5.934215545654297,-3,9982.0
10520,0.4021339416503906,0.5953167080879211,44,5717.0,6.100594997406006,22,9982.0
10530,0.4028231203556061,0.33887431025505066,38,5717.0,2.9057042598724365,101,9982.0
10540,0.4035395085811615,1.5386226177215576,30,5717.0,6.100941181182861,48,9982.0
10550,0.4049414098262787,1.3156812191009521,61,5717.0,5.401423454284668,-32,9982.0
10560,0.4056032598018646,1.3301606178283691,74,5717.0,3.5354232788085938,-48,9982.0
10570,0.40626195073127747,0.6430320739746094,73,5717.0,2.8496997356414795,3,9982.0
10580,0.4069035053253174,0.8036544322967529,58,5717.0,3.545168876647949,0,9982.0
10591,0.40766987204551697,0.17179715633392334,84,5717.0,3.2923688888549805,-50,9982.0
10600,0.40808528661727905,0.919693648815155,100,5717.0,4.474257946014404,-22,9982.0
10610,0.40832680463790894,-0.3150084316730499,43,5717.0,4.450225830078125,33,9982.0
10620,0.40849536657333374,0.3051888644695282,65,5717.0,7.612623691558838,-34,9982.0
10630,0.40862366557121277,1.0699907541275024,97,5717.0,3.4968979358673096,-60,9982.0
10640,0.409633606672287,1.408807396888733,102,5717.0,4.329523086547852,-50,9982.0
10650,0.4096411466598511,0.5978944897651672,93,5717.0,3.7096328735351562,-95,9982.0
10660,0.40955692529678345,3.159386157989502,73,5717.0,0.4578135311603546,-74,9982.0
10670,0.4095112979412079,1.8741393089294434,89,5717.0,0.1815510094165802,-49,9982.0
10680,0.4117007553577423,0.7395052909851074,84,5717.0,-1.3946624994277954,-208,9982.0
10690,0.41172513365745544,0.8997811079025269,65,5717.0,1.7230260372161865,-41,9982.0
10700,0.411683589220047,0.8010389804840088,51,5717.0,1.3782037496566772,-98,9982.0
10710,0.4115719199180603,-1.840243935585022,61,5717.0,0.5518273711204529,-36,9982.0
10720,0.41151192784309387,-1.6450611352920532,48,5717.0,-0.6509085893630981,-136,9982.0
10730,0.41411900520324707,-4.271953582763672,-15,5717.0,2.1076772212982178,17,9982.0
10740,0.41421905159950256,-3.0259265899658203,-26,5717.0,2.9530153274536133,-28,9982.0
10750,0.4142787754535675,-3.309192657470703,9,5717.0,3.443988800048828,-50,9982.0
10760,0.4142417311668396,-3.4634673595428467,16,5717.0,5.994933605194092,-17,9982.0
10770,0.41854897141456604,-1.1745442152023315,32,5717.0,3.8456053733825684,62,9982.0
10780,0.41876593232154846,-0.6767297983169556,26,5717.0,6.819777488708496,50,9982.0
10790,0.41897937655448914,-1.0313613414764404,66,5717.0,5.978116512298584,-36,9982.0
10800,0.4192109704017639,-1.112117052078247,121,5717.0,6.256762981414795,-39,9982.0
10810,0.41943609714508057,0.3808198571205139,3,5717.0,2.8388028144836426,31,9982.0
10820,0.4220574200153351,0.9283397197723389,53,5717.0,2.5922460556030273,-22,9982.0
10830,0.422669380903244,-0.055977944284677505,7,5717.0,2.2511892318725586,-16,9982.0
10840,0.4231482744216919,-3.418980121612549,-9,5717.0,1.7716978788375854,-55,9982.0
10851,0.42364662885665894,-3.7581262588500977,-47,5717.0,0.20122559368610382,32,9982.0
10860,0.424610435962677,-5.047645568847656,-88,5717.0,-0.13792374730110168,6,9982.0
10870,0.42553243041038513,-7.081993103027344,-206,5717.0,0.7730891108512878,28,9982.0
10880,0.4259927570819855,-11.848999977111816,-149,5717.0,1.1236902475357056,3,9982.0
10890,0.42647820711135864,-9.828752517700195,-166,5717.0,-1.288873553276062,-49,9982.0
10900,0.42863893508911133,-7.4105753898620605,-206,5717.0,-3.3581390380859375,88,9982.0
10910,0.42953169345855713,-4.461001396179199,-133,5717.0,-3.5469541549682617,11,9982.0
10920,0.4303284287452698,-2.8210220336914062,-113,5717.0,-5.514487266540527,-3,9982.0
10930,0.4313053786754608,0.6325331330299377,-79,5717.0,-8.662879943847656,-126,9982.0
10940,0.43238365650177,3.0339672565460205,26,5717.0,-9.78018856048584,-86,9982.0
10950,0.4344976246356964,2.7482807636260986,-15,5717.0,-9.491864204406738,-36,9982.0
10960,0.4356576204299927,1.3902541399002075,-7,5717.0,-10.328987121582031,-96,9982.0
10970,0.4367924630641937,-0.3888624608516693,-30,5717.0,-9.9446382522583,-108,9982.0
10980,0.43788424134254456,-0.35085374116897583,-16,5717.0,-11.039973258972168,-83,9982.0
10990,0.43939951062202454,-3.4764490127563477,-132,5717.0,-6.804793834686279,10,9982.0
11000,0.4404633045196533,-5.528070449829102,-141,5717.0,-8.010055541992188,-81,9982.0
11010,0.44146907329559326,-4.393555164337158,-81,5717.0,-4.580816745758057,-9,9982.0
11020,0.4424562156200409,-2.5418291091918945,-83,5717.0,-1.2412726879119873,90,9982.0
11030,0.44364890456199646,-2.590956926345825,-57,5717.0,-0.04645742103457451,24,9982.0
11040,0.444632351398468,-3.444559335708618,-82,5717.0,2.631035566329956,-54,9982.0
11050,0.44563522934913635,-0.4002632796764374,28,5717.0,0.17479810118675232,-34,9982.0
11060,0.4465707242488861,1.4451314210891724,34,5717.0,-0.44528618454933167,-87,9982.0
11070,0.4474077820777893,3.1882827281951904,87,5717.0,-1.4959886074066162,-143,9982.0
11080,0.44559741020202637,3.5020852088928223,93,5717.0,-0.5728687644004822,-40,9982.0
11090,0.4461648762226105,5.243706703186035,106,5717.0,0.17746661603450775,-37,9982.0
11100,0.4466882050037384,7.030757427215576,126,5717.0,-1.3922628164291382,-73,9982.0
11110,0.4471534788608551,5.711221218109131,93,5717.0,-2.586458683013916,12,9982.0
11120,0.44615355134010315,5.312010765075684,94,5717.0,-0.8469114303588867,110,9982.0
11130,0.44648024439811707,5.316102504730225,46,5717.0,-3.239689826965332,23,9982.0
11140,0.4467313885688782,4.477373123168945,50,5717.0,-0.8859781622886658,-47,9982.0
11150,0.4469318389892578,0.4280921518802643,53,5717.0,0.2496267855167389,-111,9982.0
11160,0.44713473320007324,-0.8170751333236694,-8,5717.0,-0.22423362731933594,-108,9982.0
11170,0.4456450939178467,-3.4520487785339355,-80,5717.0,0.606115996837616,-71,9982.0
11180,0.44573086500167847,-3.325402021408081,-32,5717.0,-0.1853342354297638,-76,9982.0
11190,0.4458008408546448,-3.1163277626037598,-20,5717.0,1.6838396787643433,59,9982.0
11200,0.44583940505981445,-1.6569314002990723,-33,5717.0,0.9469741582870483,120,9982.0
11210,0.4439154863357544,-1.0312999486923218,-43,5717.0,4.351696968078613,202,9982.0
11220,0.4438011646270752,-1.1932563781738281,-36,5717.0,6.431188106536865,143,9982.0
11230,0.44365590810775757,0.0802389532327652,-6,5717.0,3.024198055267334,123,9982.0
11240,0.44352829456329346,2.08009934425354,-32,5717.0,0.7136793732643127,143,9982.0
11250,0.4416191577911377,1.758705496788025,41,5717.0,-0.6514093279838562,111,9982.0
11260,0.4413977265357971,2.6131298542022705,7,5717.0,2.8171064853668213,91,9982.0
11270,0.44116729497909546,1.224345088005066,-24,5717.0,1.6837764978408813,64,9982.0
11280,0.44097772240638733,0.7098338007926941,-61,5717.0,-0.725292444229126,-54,9982.0
11290,0.44082534313201904,0.6374110579490662,4,5717.0,2.966740608215332,74,9982.0
11300,0.440371572971344,-0.7033345699310303,-12,5717.0,2.5319340229034424,160,9982.0
11310,0.4402872622013092,-0.04449434578418732,-42,5717.0,6.61355447769165,152,9982.0
11320,0.4402126371860504,-2.317981243133545,-69,5717.0,7.300717830657959,118,9982.0
11330,0.44015783071517944,-2.1512420177459717,-43,5717.0,7.499430179595947,122,9982.0
11340,0.440575510263443,-0.3566884994506836,-29,5717.0,4.673074722290039,113,9982.0
11350,0.4408470690250397,0.15579074621200562,-1,5717.0,6.852914810180664,149,9982.0
11360,0.4411797523498535,2.288205862045288,3,5717.0,8.466815948486328,130,9982.0
11370,0.44156455993652344,3.8011412620544434,3,5717.0,5.5505170822143555,159,9982.0
11381,0.44158369302749634,5.583047866821289,61,5717.0,1.9174796342849731,73,9982.0
11390,0.4420880079269409,4.943453788757324,36,5717.0,3.785039186477661,38,9982.0
11400,0.4426612854003906,1.810441493988037,-10,5717.0,-0.888126790523529,-68,9982.0
11410,0.4432157874107361,0.5437468886375427,-5,5717.0,-0.2681652307510376,-94,9982.0
11420,0.4437728524208069,2.4622557163238525,-15,5717.0,-0.7419925332069397,-72,9982.0
11430,0.4423618018627167,-0.7076494097709656,4,5717.0,-0.5731024146080017,-150,9982.0
11440,0.4428020417690277,0.27746281027793884,67,5717.0,-2.6667191982269287,-140,9982.0
11450,0.4432716965675354,2.0249216556549072,83,5717.0,-0.4816877245903015,-77,9982.0
11460,0.4437026083469391,2.8802590370178223,40,5717.0,-3.175814390182495,-37,9982.0
11470,0.4412473440170288,2.585371971130371,55,5717.0,-0.3001777231693268,-55,9982.0
11480,0.44145551323890686,3.7802553176879883,110,5717.0,2.080914258956909,-19,9982.0
11490,0.44165274500846863,2.4169301986694336,69,5717.0,0.5794591903686523,-10,9982.0
11500,0.44185304641723633,4.029347896575928,65,5717.0,1.4246031045913696,111,9982.0
11510,0.44205889105796814,4.698113918304443,54,5717.0,-1.3452138900756836,111,9982.0
11520,0.44224417209625244,3.767653465270996,19,5717.0,-1.2739572525024414,97,9982.0
11530,0.44243448972702026,2.6247150897979736,50,5717.0,0.6669076085090637,101,9982.0
11540,0.4425831437110901,2.71256422996521,32,5717.0,-1.4704891443252563,10,9982.0
11550,0.4427131414413452,2.326425313949585,-18,5717.0,-3.913722276687622,8,9982.0
11560,0.44371461868286133,-1.4748626947402954,-37,5717.0,-2.0449821949005127,-5,9982.0
11570,0.4438340961933136,-2.86331844329834,-45,5717.0,-4.017523288726807,-63,9982.0
11580,0.44395554065704346,-2.16410231590271,-73,5717.0,-3.609903335571289,-127,9982.0
11590,0.44409507513046265,-2.523946523666382,-8,5717.0,-4.334859371185303,-142,9982.0
11600,0.44337689876556396,-4.489809989929199,-55,5717.0,-2.9423270225524902,-61,9982.0
11610,0.44350889325141907,-3.42297625541687,-27,5717.0,-3.346045970916748,-123,9982.0
11620,0.44361943006515503,-3.354599714279175,-45,5717.0,-0.5264806747436523,-85,9982.0
11630,0.4437253177165985,-3.470862627029419,10,5717.0,-0.16268856823444366,-43,9982.0
11640,0.4438595473766327,-0.3815142810344696,60,5717.0,0.9556624293327332,-34,9982.0
11650,0.44208142161369324,0.41812148690223694,23,5717.0,0.8449866771697998,-24,9982.0
11660,0.442152202129364,1.0833176374435425,56,5717.0,2.226541042327881,28,9982.0
11670,0.44220516085624695,-0.6924031376838684,0,5717.0,1.1084179878234863,92,9982.0
11680,0.4422236382961273,0.824440598487854,33,5717.0,3.5341622829437256,61,9982.0
11690,0.4429440200328827,0.6932402849197388,37,5717.0,4.718193531036377,74,9982.0
11700,0.44301244616508484,-0.5207383036613464,23,5717.0,2.734755516052246,19,9982.0
11710,0.4430801570415497,-1.8758349418640137,-7,5717.0,4.818264961242676,84,9982.0
11720,0.44312769174575806,-0.8142693638801575,-49,5717.0,0.758442759513855,116,9982.0
11730,0.44313329458236694,0.4590167999267578,-29,5717.0,-0.22491303086280823,71,9982.0
11740,0.4414195418357849,-0.3175864815711975,-39,5717.0,-2.6581592559814453,-32,9982.0
11750,0.4412485659122467,-1.0582202672958374,-54,5717.0,-2.447882652282715,40,9982.0
11760,0.4411081373691559,-0.38065117597579956,-40,5717.0,-2.39318585395813,57,9982.0
11770,0.44099190831184387,-1.539005160331726,-43,5717.0,-1.2165840864181519,77,9982.0
11780,0.4408683478832245,-1.861881971359253,-116,5717.0,0.7470828294754028,109,9982.0
11790,0.4407007694244385,-2.954258918762207,-67,5717.0,-1.6940975189208984,78,9982.0
11800,0.4405595362186432,-3.0688629150390625,-128,5717.0,0.9371387958526611,67,9982.0
11810,0.4404418468475342,-3.568464756011963,-80,5717.0,0.6596760153770447,96,9982.0
11821,0.4421641528606415,-1.0201890468597412,-49,5717.0,-0.02213679626584053,79,9982.0
11830,0.44217345118522644,0.04532574489712715,-22,5717.0,2.3672285079956055,92,9982.0
11840,0.4422098398208618,-0.48284047842025757,-43,5717.0,1.728628396987915,69,9982.0
11850,0.4422251284122467,2.64926815032959,4,5717.0,-0.15508778393268585,39,9982.0
11860,0.44219911098480225,4.627833843231201,73,5717.0,-4.0973405838012695,-46,9982.0
11870,0.44369378685951233,4.427694797515869,62,5717.0,-3.214590311050415,-93,9982.0
11880,0.44372716546058655,4.065975666046143,60,5717.0,-2.838108777999878,-31,9982.0
11890,0.4437510669231415,5.074225425720215,27,5717.0,-4.224316596984863,-35,9982.0
11900,0.44379347562789917,1.3894622325897217,6,5717.0,2.7638943195343018,-61,9982.0
11910,0.44468963146209717,-0.5414213538169861,5,5717.0,0.9730512499809265,-44,9982.0
11920,0.4447394907474518,0.1061195507645607,-13,5717.0,1.829413652420044,-40,9982.0
11930,0.4447949230670929,-3.178215742111206,25,5717.0,-1.877601981163025,-230,9982.0
11940,0.44488513469696045,-1.9432772397994995,2,5717.0,-4.462026119232178,-162,9982.0
11950,0.4450235366821289,-4.380420684814453,-14,5717.0,-4.777310848236084,-101,9982.0
11960,0.44678184390068054,-3.187976121902466,-12,5717.0,-4.2586350440979,-35,9982.0
11970,0.4469897150993347,-1.4677417278289795,11,5717.0,-5.64225959777832,-134,9982.0
11980,0.44724053144454956,-0.6175805330276489,28,5717.0,-2.5074503421783447,-64,9982.0
11990,0.44748276472091675,1.0118716955184937,36,5717.0,-0.9982415437698364,-5,9982.0
12000,0.44713008403778076,0.49850812554359436,47,5717.0,-2.094931125640869,24,9982.0
12010,0.44731974601745605,0.6487035155296326,1,5717.0,-0.16866110265254974,50,9982.0
12020,0.44743362069129944,0.829989492893219,-25,5717.0,-0.8330836892127991,135,9982.0
12030,0.44746947288513184,-0.7397744655609131,-61,5717.0,-4.1539201736450195,46,9982.0
12040,0.4474542737007141,-1.8104156255722046,-77,5717.0,-4.3194379806518555,9,9982.0
12050,0.449386864900589,-2.378596305847168,-41,5717.0,-3.72157883644104,-43,9982.0
12060,0.44952037930488586,0.3093060851097107,4,5717.0,-5.990872859954834,-133,9982.0
12070,0.44968944787979126,1.1351572275161743,-12,5717.0,-4.266974925994873,-135,9982.0
12080,0.4498915672302246,1.0724104642868042,21,5717.0,-3.5449140071868896,-115,9982.0
12090,0.45053693652153015,0.4970768988132477,24,5717.0,0.3228718638420105,-52,9982.0
12100,0.4507562220096588,0.33133795857429504,18,5717.0,2.479408025741577,14,9982.0
12110,0.4509409964084625,0.6517534255981445,15,5717.0,-0.8617943525314331,26,9982.0
12120,0.4510957598686218,0.1881500780582428,7,5717.0,-0.6005089282989502,154,9982.0
12130,0.45114225149154663,0.026528451591730118,-52,5717.0,-0.24716180562973022,106,9982.0
12140,0.45128288865089417,-0.03628484532237053,-14,5717.0,-0.04074542969465256,31,9982.0
12150,0.45142653584480286,0.29613691568374634,-15,5717.0,0.2792741656303406,44,9982.0
12160,0.45156779885292053,-0.3023484945297241,-11,5717.0,0.1961345225572586,-16,9982.0
12170,0.4516935348510742,-0.8370168805122375,-1,5717.0,1.4764138460159302,-90,9982.0
12180,0.4535256326198578,-2.6174943447113037,-21,5717.0,0.7030978202819824,-63,9982.0
12190,0.4536861777305603,-2.1603200435638428,-31,5717.0,0.6549151539802551,-72,9982.0
12200,0.45380672812461853,-0.1353190541267395,5,5717.0,-0.3280273675918579,-35,9982.0
12210,0.45388999581336975,1.459662675857544,49,5717.0,-0.8585387468338013,-8,9982.0
12220,0.45437827706336975,2.7953763008117676,61,5717.0,-1.1350696086883545,94,9982.0
12230,0.45445480942726135,2.430825710296631,36,5717.0,-1.1417332887649536,100,9982.0
12240,0.4545324742794037,1.5946972370147705,-7,5717.0,0.1448720544576645,70,9982.0
12250,0.4546029567718506,0.9728766083717346,-34,5717.0,-1.8692671060562134,76,9982.0
12260,0.45478758215904236,-1.2302502393722534,5,5717.0,0.3670911490917206,-3,9982.0
12270,0.45483529567718506,-1.9995543956756592,-2,5717.0,3.71221923828125,-79,9982.0
12280,0.45485416054725647,-0.7231268882751465,9,5717.0,3.4706852436065674,-46,9982.0
12290,0.4548535943031311,-0.9312624931335449,-8,5717.0,5.954775810241699,60,9982.0
12300,0.45481371879577637,-2.4156010150909424,20,5717.0,1.8083887100219727,39,9982.0
12310,0.454830527305603,0.071373850107193,-9,5717.0,-0.12990307807922363,51,9982.0
12320,0.4547888934612274,-1.1235158443450928,-16,5717.0,-0.16605544090270996,97,9982.0
12330,0.454776793718338,-1.868823766708374,-63,5717.0,0.44354408979415894,89,9982.0
12340,0.45478954911231995,-2.9349727630615234,-40,5717.0,-0.9213226437568665,72,9982.0
12350,0.4548502564430237,-3.3118746280670166,-78,5717.0,0.6482530832290649,50,9982.0
12360,0.4547959864139557,-3.41994047164917,-62,5717.0,4.173696041107178,43,9982.0
12370,0.4546743929386139,-1.5711666345596313,-44,5717.0,2.3220508098602295,9,9982.0
12380,0.4545164108276367,-1.2801696062088013,-29,5717.0,2.4143786430358887,-67,9982.0
12390,0.45434316992759705,-3.4742934703826904,-37,5717.0,4.593937397003174,-33,9982.0
12400,0.4532092213630676,-1.770452618598938,3,5717.0,0.39802563190460205,7,9982.0
12410,0.4530012011528015,-0.26021137833595276,-8,5717.0,2.1006932258605957,70,9982.0
12420,0.4528238773345947,0.45564937591552734,52,5717.0,1.8582069873809814,100,9982.0
12430,0.45269614458084106,2.5164406299591064,30,5717.0,-1.9864226579666138,62,9982.0
12440,0.45387670397758484,2.061279058456421,19,5717.0,-4.186995029449463,-20,9982.0
12450,0.4537683427333832,2.235943555831909,-38,5717.0,-1.8128604888916016,3,9982.0
12460,0.45364493131637573,0.7255692481994629,12,5717.0,-1.171349048614502,-28,9982.0
12470,0.45349201560020447,-1.3166052103042603,-36,5717.0,2.4415812492370605,56,9982.0
12481,0.452763170003891,-1.7542898654937744,-56,5717.0,4.070514678955078,-14,9982.0
12490,0.4524797201156616,-2.4725170135498047,3,5717.0,2.5322864055633545,-95,9982.0
12500,0.452167809009552,-3.1692771911621094,-37,5717.0,3.127695083618164,-36,9982.0
12510,0.4518319368362427,-3.4805715084075928,-3,5717.0,1.5916653871536255,17,9982.0
12520,0.45150256156921387,-2.9397192001342773,-5,5717.0,-0.101474829018116,-19,9982.0
12530,0.4517878592014313,-2.177488088607788,60,5717.0,1.2251309156417847,15,9982.0
12540,0.4515116214752197,0.8209856152534485,-21,5717.0,-0.04249200224876404,60,9982.0
12550,0.45126184821128845,0.6467350721359253,38,5717.0,-0.345020055770874,84,9982.0
12560,0.45101818442344666,0.9695322513580322,-14,5717.0,1.4844059944152832,239,9982.0
12570,0.45157554745674133,1.1572890281677246,-47,5717.0,-1.1320244073867798,75,9982.0
12580,0.45139381289482117,1.3343425989151,11,5717.0,-3.0070574283599854,-65,9982.0
12590,0.45121341943740845,0.3588404953479767,-13,5717.0,-3.320787191390991,-23,9982.0
12600,0.45102885365486145,0.1482488512992859,7,5717.0,1.3840018510818481,-116,9982.0
12610,0.4508495032787323,0.7135511040687561,-2,5717.0,0.8003755807876587,19,9982.0
12620,0.4507364332675934,0.45583873987197876,54,5717.0,1.1309245824813843,-83,9982.0
12630,0.45055046677589417,1.2052363157272339,15,5717.0,-0.32038310170173645,-43,9982.0
12640,0.45035839080810547,1.8044825792312622,60,5717.0,3.286531925201416,-10,9982.0
12650,0.4501817524433136,1.6563154458999634,14,5717.0,2.0121865272521973,-11,9982.0
12660,0.4507741928100586,-1.03121018409729,-9,5717.0,1.7030457258224487,25,9982.0
12670,0.4506843090057373,-0.9118616580963135,6,5717.0,0.29194384813308716,39,9982.0
12680,0.4506329596042633,-0.9130310416221619,26,5717.0,-3.8268585205078125,24,9982.0
12690,0.4506014883518219,0.44922709465026855,27,5717.0,-4.098537445068359,78,9982.0
12701,0.45154839754104614,1.0488500595092773,-29,5717.0,-1.031718373298645,92,9982.0
12710,0.45150136947631836,2.3066906929016113,10,5717.0,-2.9876883029937744,9,9982.0
12720,0.4513952136039734,2.580808639526367,24,5717.0,-2.0898208618164062,18,9982.0
12730,0.4512535333633423,2.204909086227417,32,5717.0,0.3244287967681885,-29,9982.0
12740,0.4511043131351471,1.2281239032745361,59,5717.0,0.8633667230606079,-24,9982.0
12750,0.4517240524291992,2.5319173336029053,26,5717.0,3.0276646614074707,9,9982.0
12760,0.4516240954399109,1.3821531534194946,6,5717.0,0.17569732666015625,-16,9982.0
12770,0.45154955983161926,-0.7164703607559204,-18,5717.0,1.3885650634765625,10,9982.0
12780,0.4514673054218292,-1.4907846450805664,-5,5717.0,-3.295170545578003,-24,9982.0
12790,0.4507865011692047,-1.9072514772415161,-10,5717.0,0.7891348600387573,148,9982.0
12800,0.4506300389766693,-1.194556474685669,-50,5717.0,1.4169458150863647,71,9982.0
12810,0.4504513740539551,-1.090976595878601,-43,5717.0,-0.1121286153793335,72,9982.0
12820,0.45027780532836914,-1.3028067350387573,-41,5717.0,-1.0046663284301758,79,9982.0
12830,0.45011165738105774,-0.7777732014656067,-28,5717.0,-1.091654896736145,-86,9982.0
12840,0.44906237721443176,0.8636215329170227,8,5717.0,-1.6126823425292969,-143,9982.0
12850,0.4488376975059509,2.2289669513702393,82,5717.0,-4.668216705322266,-191,9982.0
12860,0.44860389828681946,1.6134042739868164,45,5717.0,-1.3764822483062744,-106,9982.0
12870,0.44835731387138367,2.790407180786133,33,5717.0,-2.49311900138855,-46,9982.0
12880,0.4491366147994995,3.358201026916504,43,5717.0,-3.84953236579895,29,9982.0
12890,0.4488756060600281,2.748002767562866,55,5717.0,-0.543921947479248,42,9982.0
12900,0.4485859274864197,0.15956564247608185,-23,5717.0,3.9808349609375,132,9982.0
12910,0.4482846260070801,2.2391717433929443,8,5717.0,3.987736701965332,121,9982.0
12920,0.4479925334453583,0.5759063363075256,-9,5717.0,4.070077896118164,99,9982.0
12930,0.4493687152862549,-0.3197387456893921,-57,5717.0,2.136225461959839,123,9982.0
12940,0.4491652250289917,-1.844812273979187,-24,5717.0,6.200865745544434,128,9982.0
12950,0.4489763081073761,-2.170792818069458,-53,5717.0,4.508288860321045,41,9982.0
12960,0.4487702548503876,-1.3174864053726196,21,5717.0,3.6600823402404785,-28,9982.0
12970,0.45022234320640564,0.2227535992860794,-7,5717.0,0.8563089370727539,-148,9982.0
12980,0.4500129222869873,-0.11515498906373978,10,5717.0,-0.9553560018539429,-98,9982.0
12990,0.4497981369495392,-0.6206967830657959,35,5717.0,2.9006145000457764,-27,9982.0
13000,0.4496263265609741,-0.09456044435501099,45,5717.0,1.6019086837768555,23,9982.0
13010,0.4492478370666504,2.28556752204895,23,5717.0,-1.3851454257965088,102,9982.0
13020,0.4491155743598938,1.7707605361938477,23,5717.0,2.10233998298645,117,9982.0
13030,0.4489748477935791,1.535312533378601,26,5717.0,2.7624528408050537,70,9982.0
13040,0.44883081316947937,1.5919114351272583,34,5717.0,0.7611528038978577,21,9982.0
13050,0.4486793875694275,0.6136268377304077,1,5717.0,2.416705369949341,54,9982.0
13060,0.4486554265022278,3.37516188621521,16,5717.0,-0.5111785531044006,-1,9982.0
13070,0.44851770997047424,0.5728250741958618,-3,5717.0,-1.6206536293029785,-35,9982.0
13080,0.4483848810195923,-1.0818798542022705,-41,5717.0,-3.6326098442077637,-111,9982.0
13090,0.4482424855232239,-1.287667989730835,10,5717.0,-2.273771047592163,-125,9982.0
13100,0.4487711489200592,-1.404276728630066,13,5717.0,-0.45146483182907104,-59,9982.0
13110,0.4485951066017151,-2.3464860916137695,-19,5717.0,-0.3330499231815338,-72,9982.0
13120,0.4485943019390106,-2.270286798477173,-44,5717.0,0.09681406617164612,26,9982.0
13130,0.4484119713306427,-2.0740320682525635,-15,5717.0,0.7905288338661194,92,9982.0
13141,0.44948872923851013,-0.04694955796003342,-35,5717.0,-1.2951371669769287,103,9982.0
13150,0.44948872923851013,-0.1283532977104187,-35,5717.0,2.147827625274658,137,9982.0
13160,0.4493074119091034,1.0922212600708008,10,5717.0,0.2048349827528,35,9982.0
13171,0.44912952184677124,0.713586151599884,29,5717.0,1.2489709854125977,-40,9982.0
13180,0.44898054003715515,1.501914620399475,13,5717.0,-1.7267954349517822,-69,9982.0
13190,0.4469147324562073,2.9436419010162354,24,5717.0,-0.12672069668769836,-78,9982.0
13200,0.4466809630393982,2.4150583744049072,59,5717.0,0.19297097623348236,-90,9982.0
13210,0.44644540548324585,0.1370505541563034,15,5717.0,-0.3787727653980255,-55,9982.0
13220,0.4461958706378937,1.2357500791549683,22,5717.0,-1.098508358001709,-119,9982.0
13230,0.4478989541530609,1.7968297004699707,32,5717.0,-1.4528827667236328,-21,9982.0
13240,0.44769495725631714,-0.9576724171638489,-13,5717.0,1.1776771545410156,54,9982.0
13250,0.44746142625808716,-0.578101396560669,-40,5717.0,-1.5021839141845703,159,9982.0
13260,0.4471929669380188,0.02749026194214821,-19,5717.0,-2.1387133598327637,28,9982.0
13270,0.4469347596168518,-0.46450287103652954,-47,5717.0,0.5478251576423645,28,9982.0
13280,0.4480266273021698,-1.2973592281341553,-5,5717.0,-1.4484606981277466,-18,9982.0
13290,0.44784459471702576,-0.05611605942249298,-3,5717.0,0.7056127190589905,-69,9982.0
13300,0.44765397906303406,-0.002207402838394046,43,5717.0,2.350733518600464,-45,9982.0
13310,0.447374165058136,2.0109548568725586,63,5717.0,3.5103986263275146,-23,9982.0
13320,0.44623705744743347,2.033149242401123,35,5717.0,4.334009170532227,71,9982.0
13330,0.44579294323921204,1.4722007513046265,37,5717.0,2.388780117034912,49,9982.0
13340,0.44532981514930725,1.4509400129318237,8,5717.0,4.105216979980469,135,9982.0
13350,0.4448755383491516,0.3972322642803192,-14,5717.0,2.403414726257324,65,9982.0
13360,0.4444376230239868,-0.27852240204811096,-77,5717.0,-0.24448640644550323,136,9982.0
13370,0.44543594121932983,-1.9858072996139526,-52,5717.0,0.10906021296977997,28,9982.0
13380,0.44506019353866577,-3.5191476345062256,-79,5717.0,3.2593019008636475,113,9982.0
13390,0.4446629583835602,-1.5278717279434204,-34,5717.0,-3.0350396633148193,-22,9982.0
13400,0.44424909353256226,-2.224677324295044,19,5717.0,1.8576616048812866,-129,9982.0
13410,0.4446553587913513,-0.7948898077011108,12,5717.0,0.8468042016029358,-71,9982.0
13420,0.4441578686237335,-0.0034899848978966475,1,5717.0,-1.4227532148361206,-14,9982.0
13430,0.4436579942703247,1.1253734827041626,-12,5717.0,0.13286298513412476,22,9982.0
13440,0.4431653618812561,-1.871948480606079,-57,5717.0,3.0803580284118652,193,9982.0
13450,0.4443216919898987,-1.3087689876556396,-13,5717.0,3.3600692749023438,129,9982.0
13460,0.4439156949520111,-2.666717052459717,-51,5717.0,2.689589500427246,80,9982.0
13470,0.44349464774131775,-1.6773923635482788,-95,5717.0,0.8279850482940674,120,9982.0
13480,0.4430807828903198,-2.835481882095337,-83,5717.0,-0.021603306755423546,63,9982.0
13490,0.4426734447479248,-2.007857084274292,-52,5717.0,-0.011361620388925076,120,9982.0
13500,0.4429396092891693,-0.4924391508102417,-45,5717.0,1.88295578956604,20,9982.0
13510,0.442547082901001,-2.235729217529297,-16,5717.0,0.9464671015739441,-3,9982.0
13520,0.44218093156814575,0.258164644241333,8,5717.0,0.395744651556015,-12,9982.0
13530,0.44186538457870483,2.296319007873535,54,5717.0,2.4958903789520264,-75,9982.0
13540,0.4428596496582031,1.1041536331176758,48,5717.0,4.691298484802246,-48,9982.0
13550,0.44262656569480896,0.2090948224067688,52,5717.0,1.5150784254074097,-8,9982.0
13560,0.4423840045928955,2.8137309551239014,67,5717.0,1.7227882146835327,-13,9982.0
13570,0.44210848212242126,1.5328192710876465,47,5717.0,1.965720295906067,-20,9982.0
13580,0.44113031029701233,0.06347308307886124,37,5717.0,1.8537489175796509,-51,9982.0
13590,0.44077664613723755,-0.12842120230197906,58,5717.0,-3.519930124282837,-66,9982.0
13600,0.4404066503047943,1.6279773712158203,31,5717.0,-6.40388298034668,-23,9982.0
13610,0.440015971660614,-1.06996750831604,-42,5717.0,-2.767224073410034,40,9982.0
13620,0.43959832191467285,-1.7689615488052368,-41,5717.0,-2.3347573280334473,65,9982.0
13630,0.4410580098628998,-2.532754421234131,-73,5717.0,-2.1053643226623535,32,9982.0
13640,0.44071707129478455,-1.6039371490478516,-33,5717.0,2.0890607833862305,64,9982.0
13650,0.4403856098651886,-1.2789580821990967,-43,5717.0,-0.069758839905262,10,9982.0
13660,0.4400879740715027,-0.7229118943214417,-3,5717.0,4.179291725158691,-70,9982.0
13670,0.441022127866745,0.9180786609649658,24,5717.0,3.5227036476135254,41,9982.0
13680,0.4408247768878937,1.4808087348937988,42,5717.0,3.439389705657959,1,9982.0
13690,0.44061121344566345,0.5145573616027832,3,5717.0,5.140944957733154,-55,9982.0
13700,0.4403611719608307,1.1973516941070557,38,5717.0,-0.8898065686225891,-17,9982.0
13710,0.44005173444747925,2.043583869934082,44,5717.0,-1.3218200206756592,-72,9982.0
13720,0.440067857503891,0.889432430267334,30,5717.0,-2.1478896141052246,39,9982.0
13730,0.4397640526294708,-1.197160243988037,8,5717.0,-2.813950538635254,31,9982.0
13740,0.4394865334033966,-1.023909568786621,-33,5717.0,-0.6547565460205078,76,9982.0
13750,0.43923482298851013,0.9612675309181213,4,5717.0,-3.0896763801574707,31,9982.0
13760,0.44020286202430725,-0.5121110081672668,-6,5717.0,-1.3528231382369995,26,9982.0
13770,0.44009125232696533,-0.6957245469093323,-15,5717.0,-0.3999018967151642,-72,9982.0
13780,0.43993717432022095,0.3406129479408264,37,5717.0,-0.1321328729391098,-66,9982.0
13790,0.43976250290870667,0.08790172636508942,-22,5717.0,-1.9207613468170166,-67,9982.0
13800,0.4385712146759033,-1.0181368589401245,-3,5717.0,4.072001934051514,31,9982.0
13810,0.4382607042789459,-1.2498986721038818,2,5717.0,0.683249831199646,-13,9982.0
13820,0.437919020652771,0.053524188697338104,21,5717.0,3.9376392364501953,44,9982.0
13830,0.437588095664978,0.18036186695098877,34,5717.0,4.963615894317627,171,9982.0
13840,0.437257319688797,0.4495486319065094,8,5717.0,-0.11535149812698364,74,9982.0
13850,0.4377390146255493,0.46799927949905396,-32,5717.0,2.402320146560669,129,9982.0
13860,0.4374176263809204,-0.2215566784143448,1,5717.0,0.8108260631561279,60,9982.0
13870,0.43710407614707947,1.5925142765045166,7,5717.0,-0.6561242938041687,-8,9982.0
13880,0.43678438663482666,3.1544182300567627,88,5717.0,-0.882934033870697,-132,9982.0
13890,0.4358897805213928,1.8673149347305298,70,5717.0,-1.9548792839050293,-122,9982.0
13900,0.43551865220069885,0.1594918817281723,24,5717.0,-1.8662192821502686,-146,9982.0
13910,0.4351334571838379,1.271559476852417,-12,5717.0,-3.658874750137329,-83,9982.0
13920,0.4347340166568756,-0.35983163118362427,1,5717.0,-2.7116847038269043,-117,9982.0
13930,0.434321790933609,-1.5380409955978394,-28,5717.0,-0.8026872277259827,-13,9982.0
13940,0.43576672673225403,-1.965822696685791,-14,5717.0,0.7156118750572205,152,9982.0
13950,0.43541067838668823,-2.660825490951538,-33,5717.0,5.837639808654785,184,9982.0
13960,0.43505892157554626,-1.7021664381027222,-54,5717.0,7.545027256011963,163,9982.0
13970,0.4347057640552521,-3.987616539001465,-82,5717.0,9.620523452758789,168,9982.0
13980,0.43539926409721375,-2.1187057495117188,-17,5717.0,3.7562150955200195,30,9982.0
13990,0.43510082364082336,-0.3124062120914459,47,5717.0,1.2696378231048584,-49,9982.0
14000,0.43481940031051636,-1.8653289079666138,11,5717.0,0.3528321087360382,-83,9982.0
14010,0.4345179796218872,-0.27919796109199524,6,5717.0,1.3939539194107056,-77,9982.0
14020,0.43451830744743347,0.6565995216369629,42,5717.0,-1.8782824277877808,-110,9982.0
14030,0.43423962593078613,1.3070173263549805,42,5717.0,-2.4352364540100098,-168,9982.0
14040,0.4339258670806885,2.59531307220459,57,5717.0,-3.6383345127105713,-101,9982.0
14050,0.4335421621799469,2.976755380630493,79,5717.0,-5.271130561828613,61,9982.0
14060,0.4330756366252899,2.055739641189575,5,5717.0,-3.027045965194702,75,9982.0
14070,0.4335283637046814,1.4471189975738525,-20,5717.0,0.8802717924118042,93,9982.0
14080,0.4330369830131531,-0.024576449766755104,-16,5717.0,1.930321216583252,16,9982.0
14090,0.4325568974018097,-0.9200458526611328,-12,5717.0,3.7158520221710205,70,9982.0
14100,0.4321044385433197,-0.8875221610069275,17,5717.0,3.9635815620422363,22,9982.0
14110,0.4302811622619629,-1.9452688694000244,-44,5717.0,5.681777477264404,29,9982.0
14120,0.4298414885997772,-1.8121246099472046,-21,5717.0,2.0242598056793213,-78,9982.0
14130,0.4294165372848511,-2.1370530128479004,15,5717.0,3.4150824546813965,-37,9982.0
14140,0.4289606809616089,-2.085540771484375,-5,5717.0,1.6692094802856445,-42,9982.0
14150,0.4284634590148926,-0.8153253793716431,20,5717.0,0.11288082599639893,16,9982.0
14160,0.427345871925354,-0.8172099590301514,-11,5717.0,0.04630742222070694,36,9982.0
14170,0.426731139421463,0.09287302196025848,-22,5717.0,-1.0643866062164307,0,9982.0
14180,0.4261040985584259,2.029358386993408,36,5717.0,-2.3870978355407715,47,9982.0
14190,0.42545047402381897,0.1413235366344452,3,5717.0,-0.46490609645843506,54,9982.0
14200,0.4264252185821533,0.797042727470398,17,5717.0,-2.409634828567505,107,9982.0
14210,0.4258098900318146,1.3551243543624878,-32,5717.0,-0.6685503125190735,94,9982.0
