timestamp,kalman.stateZ,gyro.x,gyro.xRaw,gyro.xVariance,gyro.y,gyro.yRaw,gyro.yVariance
0,0.30481529235839844,-0.06150280311703682,-1,6731.0,1.4345712661743164,22,9951.0
10,0.30483686923980713,-0.3539210259914398,-9,6731.0,1.8057142496109009,37,9951.0
20,0.3048688471317291,-0.6214233636856079,-9,6731.0,1.8775633573532104,28,9951.0
30,0.3048854172229767,-0.4263869822025299,0,6731.0,2.009774923324585,38,9951.0
40,0.3040189743041992,-0.36482948064804077,3,6731.0,2.4555587768554688,35,9951.0
50,0.30399248003959656,-0.31976425647735596,-1,6731.0,2.0274081230163574,34,9951.0
60,0.30403703451156616,-0.6658470034599304,-2,6731.0,1.9253617525100708,32,9951.0
70,0.3040434718132019,-0.06632068008184433,4,6731.0,2.0879642963409424,30,9951.0
80,0.3043879568576813,-0.43813368678092957,-5,6731.0,2.002042531967163,36,9951.0
90,0.3043980896472931,0.11093585193157196,10,6731.0,1.5275688171386719,32,9951.0
100,0.3044344484806061,0.6744900941848755,19,6731.0,1.3294246196746826,28,9951.0
110,0.3045031726360321,0.6291566491127014,14,6731.0,1.5039499998092651,23,9951.0
120,0.30499038100242615,0.6509974598884583,17,6731.0,1.2105085849761963,24,9951.0
130,0.30510056018829346,0.8477804660797119,19,6731.0,1.1421403884887695,18,9951.0
140,0.3052210211753845,0.3890811800956726,6,6731.0,1.1825305223464966,27,9951.0
150,0.3052750825881958,-0.33000367879867554,-1,6731.0,0.9242926836013794,18,9951.0
160,0.30531343817710876,-0.8401691317558289,-7,6731.0,1.121362566947937,17,9951.0
170,0.30436205863952637,-0.268684983253479,5,6731.0,0.7166569828987122,7,9951.0
180,0.30439111590385437,-0.20054785907268524,-16,6731.0,1.0556198358535767,26,9951.0
190,0.3043254315853119,0.6451106667518616,38,6731.0,1.2843652963638306,33,9951.0
200,0.30446937680244446,3.0260488986968994,51,6731.0,1.8795634508132935,63,9951.0
210,0.3026162385940552,2.7817513942718506,4,6731.0,0.6652739644050598,19,9951.0
220,0.30274543166160583,6.0127482414245605,95,6731.0,-9.864526748657227,-178,9951.0
230,0.30285364389419556,7.321010589599609,165,6731.0,-12.96052360534668,-311,9951.0
240,0.303010493516922,7.796431541442871,139,6731.0,-18.671142578125,-393,9951.0
250,0.3032938539981842,10.030842781066895,154,6731.0,-18.573701858520508,-246,9951.0
260,0.3031516373157501,11.74250316619873,124,6731.0,-13.238797187805176,-95,9951.0
270,0.30352577567100525,12.664458274841309,200,6731.0,0.2600281834602356,29,9951.0
280,0.303967148065567,15.83968448638916,238,6731.0,15.025816917419434,281,9951.0
290,0.30447807908058167,14.557032585144043,196,6731.0,26.964834213256836,571,9951.0
300,0.30623582005500793,10.351726531982422,180,6731.0,36.20672607421875,470,9951.0
310,0.30666670203208923,3.9818780422210693,21,6731.0,42.01673889160156,608,9951.0
320,0.30763378739356995,-1.8459584712982178,-14,6731.0,41.44013595581055,616,9951.0
330,0.30839598178863525,-7.760261058807373,-118,6731.0,34.82358169555664,356,9951.0
340,0.3070017397403717,-10.393026351928711,-177,6731.0,24.59177589416504,234,9951.0
350,0.3078015446662903,-7.007818698883057,-23,6731.0,13.132888793945312,188,9951.0
360,0.3085680902004242,-6.934349060058594,59,6731.0,9.082844734191895,72,9951.0
370,0.3091281056404114,1.427865743637085,32,6731.0,5.828235626220703,131,9951.0
380,0.3103865683078766,4.292912483215332,-15,6731.0,1.1629098653793335,135,9951.0
390,0.30940672755241394,4.351553440093994,-12,6731.0,3.577242851257324,32,9951.0
400,0.31050577759742737,3.4027819633483887,46,6731.0,4.28475284576416,192,9951.0
410,0.3121070861816406,1.05841863155365,-13,6731.0,7.3124680519104,182,9951.0
420,0.3124364912509918,-0.13361653685569763,15,6731.0,15.639440536499023,157,9951.0
430,0.31048309803009033,-3.486917495727539,-18,6731.0,22.530691146850586,243,9951.0
440,0.3113836348056793,-4.788966655731201,-42,6731.0,32.76502227783203,481,9951.0
450,0.312533438205719,-7.362215518951416,-88,6731.0,39.13379669189453,620,9951.0
460,0.3141360580921173,-5.961472034454346,-155,6731.0,45.19623565673828,733,9951.0
470,0.3159150779247284,-4.181825637817383,-61,6731.0,47.647945404052734,875,9951.0
480,0.31636375188827515,-0.8834818601608276,-37,6731.0,44.75973129272461,904,9951.0
490,0.3185032904148102,1.2474974393844604,21,6731.0,44.763702392578125,790,9951.0
500,0.32064586877822876,4.354334354400635,57,6731.0,39.89227294921875,500,9951.0
510,0.32287362217903137,4.1811065673828125,158,6731.0,33.62803649902344,297,9951.0
520,0.32633933424949646,6.428574562072754,136,6731.0,25.768959045410156,404,9951.0
530,0.3285788893699646,6.015727519989014,184,6731.0,18.857158660888672,385,9951.0
540,0.3306832015514374,7.850696086883545,154,6731.0,11.23427677154541,290,9951.0
550,0.3328333795070648,10.325709342956543,100,6731.0,6.020260334014893,166,9951.0
560,0.3344035744667053,9.502403259277344,62,6731.0,0.011719422414898872,3,9951.0
570,0.33622071146965027,8.991588592529297,77,6731.0,-4.98665189743042,-72,9951.0
580,0.33797281980514526,5.745115280151367,43,6731.0,-7.387359142303467,-108,9951.0
590,0.33963069319725037,4.757017135620117,22,6731.0,-7.845999240875244,-110,9951.0
600,0.34111061692237854,3.6614158153533936,50,6731.0,-6.003931522369385,-99,9951.0
610,0.34434959292411804,1.120054841041565,-60,6731.0,-4.406891345977783,-126,9951.0
620,0.3456662893295288,-1.485806941986084,-58,6731.0,-0.8057467341423035,-110,9951.0
630,0.346810519695282,-4.988651752471924,-44,6731.0,2.3288564682006836,7,9951.0
640,0.34767767786979675,-6.918534755706787,-65,6731.0,5.186411380767822,31,9951.0
650,0.3494628369808197,-12.227179527282715,-129,6731.0,5.099199295043945,-16,9951.0
660,0.3498609662055969,-13.984926223754883,-170,6731.0,4.314601421356201,37,9951.0
670,0.350215882062912,-7.3986101150512695,-107,6731.0,-3.9385266304016113,-33,9951.0
680,0.3503986895084381,-1.4667366743087769,46,6731.0,-8.660035133361816,-122,9951.0
690,0.3504248559474945,7.27229118347168,116,6731.0,-12.337215423583984,-159,9951.0
700,0.3524286150932312,10.668794631958008,133,6731.0,-16.768659591674805,-300,9951.0
710,0.35242125391960144,19.32640838623047,266,6731.0,-19.332225799560547,-433,9951.0
720,0.35206928849220276,25.475921630859375,430,6731.0,-17.351892471313477,-398,9951.0
730,0.3514823019504547,26.7011661529541,491,6731.0,-13.830949783325195,-267,9951.0
740,0.3510555028915405,24.23137092590332,464,6731.0,-11.199477195739746,-200,9951.0
750,0.3502693474292755,14.361859321594238,292,6731.0,-8.037930488586426,-237,9951.0
760,0.34941408038139343,0.23203140497207642,27,6731.0,-6.470667839050293,-186,9951.0
770,0.3490977883338928,-16.95087432861328,-268,6731.0,-9.123441696166992,-244,9951.0
780,0.35006436705589294,-27.85921287536621,-557,6731.0,-12.260933876037598,-101,9951.0
790,0.34925228357315063,-34.00722122192383,-644,6731.0,-14.959207534790039,-199,9951.0
800,0.34842967987060547,-30.27975845336914,-584,6731.0,-15.249956130981445,-153,9951.0
810,0.3478008210659027,-27.63465690612793,-446,6731.0,-17.610258102416992,-222,9951.0
820,0.3469683825969696,-16.64260482788086,-143,6731.0,-15.66491413116455,-301,9951.0
830,0.3467347025871277,-4.202947616577148,84,6731.0,-9.749902725219727,-202,9951.0
840,0.3458886444568634,1.5286990404129028,51,6731.0,-7.78807258605957,-92,9951.0
850,0.3451710045337677,5.577112674713135,32,6731.0,-3.4751288890838623,-29,9951.0
860,0.3443816006183624,7.233332633972168,27,6731.0,-3.1319420337677,-128,9951.0
870,0.342264860868454,5.717196464538574,98,6731.0,-3.9289333820343018,-173,9951.0
880,0.3413982391357422,7.94618558883667,182,6731.0,-4.720322608947754,-155,9951.0
890,0.340790331363678,8.096043586730957,147,6731.0,-5.913550853729248,-11,9951.0
900,0.34035706520080566,6.6251139640808105,106,6731.0,-6.8431901931762695,-52,9951.0
910,0.3399498462677002,6.406528472900391,71,6731.0,-8.536499977111816,-184,9951.0
920,0.3375348150730133,3.975682020187378,118,6731.0,-10.789473533630371,-191,9951.0
930,0.3370981216430664,1.5424180030822754,15,6731.0,-10.969887733459473,-113,9951.0
940,0.33674299716949463,-2.131964921951294,-133,6731.0,-13.621511459350586,-57,9951.0
950,0.3365156948566437,-5.770833969116211,-171,6731.0,-13.05875015258789,-161,9951.0
960,0.33456137776374817,-9.257833480834961,-74,6731.0,-13.750520706176758,-271,9951.0
970,0.33432474732398987,-8.197393417358398,-74,6731.0,-7.538120746612549,-80,9951.0
980,0.33405783772468567,-4.588651657104492,-95,6731.0,-8.600461959838867,-8,9951.0
990,0.33389613032341003,1.0935349464416504,-33,6731.0,-6.613514423370361,-31,9951.0
1000,0.33271101117134094,2.379472494125366,127,6731.0,-3.045987606048584,-106,9951.0
1010,0.33282575011253357,2.423415184020996,66,6731.0,-3.3736281394958496,-29,9951.0
1020,0.3330427408218384,2.7962865829467773,1,6731.0,-6.419312953948975,-140,9951.0
1030,0.33320608735084534,1.7613240480422974,-64,6731.0,-8.323122024536133,-152,9951.0
1040,0.33345532417297363,1.6548676490783691,91,6731.0,-8.513715744018555,-150,9951.0
1050,0.3334084451198578,-0.22123241424560547,18,6731.0,-9.661944389343262,-130,9951.0
1060,0.33367636799812317,-1.4844591617584229,-83,6731.0,-9.203585624694824,-29,9951.0
1070,0.3340182304382324,-1.6930997371673584,-106,6731.0,-4.7546491622924805,10,9951.0
1080,0.3346169888973236,-2.2339515686035156,-45,6731.0,-1.3404209613800049,-66,9951.0
1090,0.33316826820373535,-1.2253550291061401,38,6731.0,2.346334934234619,17,9951.0
1100,0.3334658145904541,-0.27427586913108826,12,6731.0,7.530911445617676,236,9951.0
1110,0.3339238166809082,2.041755437850952,-2,6731.0,8.667953491210938,309,9951.0
1120,0.3344079852104187,6.074394226074219,18,6731.0,12.302718162536621,98,9951.0
1130,0.33503472805023193,6.07551383972168,111,6731.0,12.740077018737793,181,9951.0
1140,0.3347306251525879,6.269678592681885,195,6731.0,12.126937866210938,216,9951.0
1150,0.33520299196243286,5.159286022186279,124,6731.0,9.121482849121094,175,9951.0
1160,0.3356402516365051,2.399662971496582,-19,6731.0,8.20909309387207,307,9951.0
1170,0.336051344871521,1.1345957517623901,20,6731.0,4.665424823760986,92,9951.0
1180,0.3356707692146301,-2.3661186695098877,-95,6731.0,1.9298208951950073,-27,9951.0
1190,0.33602792024612427,-3.3677966594696045,-45,6731.0,-1.737676978111267,-74,9951.0
1200,0.3362935185432434,-8.070127487182617,-52,6731.0,-0.8281834721565247,-100,9951.0
1210,0.33652883768081665,-10.157319068908691,-65,6731.0,2.616849660873413,-41,9951.0
1220,0.3372918367385864,-8.178377151489258,-90,6731.0,7.284177303314209,89,9951.0
1230,0.3374274969100952,-3.76285719871521,-75,6731.0,10.719122886657715,256,9951.0
1240,0.33763110637664795,0.40446585416793823,2,6731.0,11.423989295959473,314,9951.0
1250,0.33788636326789856,4.221514701843262,-30,6731.0,14.610280990600586,252,9951.0
1260,0.33822953701019287,6.234344482421875,118,6731.0,16.2242488861084,181,9951.0
1270,0.33750447630882263,8.590332984924316,182,6731.0,12.925399780273438,226,9951.0
1280,0.33759474754333496,8.729066848754883,234,6731.0,14.804351806640625,254,9951.0
1290,0.33765146136283875,7.2607879638671875,184,6731.0,13.221609115600586,166,9951.0
1300,0.3378003239631653,6.791743278503418,58,6731.0,11.002272605895996,237,9951.0
1310,0.3376367390155792,2.06503963470459,-33,6731.0,9.309488296508789,97,9951.0
1320,0.3372962474822998,-2.001331090927124,-127,6731.0,8.814184188842773,264,9951.0
1330,0.3370266556739807,-5.903829097747803,-106,6731.0,3.715707540512085,65,9951.0
1340,0.33657485246658325,-5.824958324432373,11,6731.0,-0.04221388325095177,9,9951.0
1350,0.33602967858314514,-5.117136001586914,62,6731.0,-1.2330222129821777,-53,9951.0
1360,0.3358558416366577,-1.279209017753601,-19,6731.0,-3.1741344928741455,47,9951.0
1370,0.33539947867393494,-0.06832786649465561,-88,6731.0,-5.018698215484619,-40,9951.0
1380,0.3349519371986389,3.4187235832214355,-56,6731.0,-2.8693785667419434,-64,9951.0
1390,0.33437392115592957,2.3130030632019043,3,6731.0,-1.711688756942749,-164,9951.0
1400,0.3359915316104889,3.4686875343322754,103,6731.0,-2.192683458328247,-86,9951.0
1410,0.3355253040790558,2.0638346672058105,50,6731.0,-0.5540403723716736,-36,9951.0
1420,0.33506059646606445,0.4097445011138916,-42,6731.0,0.6472368240356445,178,9951.0
1430,0.3345329761505127,0.39749282598495483,-87,6731.0,0.7649439573287964,115,9951.0
1440,0.3360724449157715,-1.3645495176315308,-40,6731.0,1.3769721984863281,-2,9951.0
1450,0.3355773389339447,-2.932237148284912,39,6731.0,2.587545156478882,27,9951.0
1460,0.3351975381374359,-3.139464855194092,-5,6731.0,1.9142571687698364,51,9951.0
1470,0.3347725570201874,-2.7744340896606445,-52,6731.0,-1.2258729934692383,124,9951.0
1480,0.3343527019023895,-3.106255531311035,-23,6731.0,-2.6699838638305664,-90,9951.0
1490,0.3366609811782837,-0.7254281044006348,27,6731.0,-3.371000289916992,-151,9951.0
1500,0.33642804622650146,0.6370806097984314,64,6731.0,-7.625110626220703,-93,9951.0
1510,0.33625271916389465,3.322906970977783,-25,6731.0,-6.941725730895996,-86,9951.0
1520,0.3361402451992035,0.41169893741607666,-6,6731.0,-4.8993988037109375,-127,9951.0
1530,0.3367781341075897,0.7755343317985535,3,6731.0,-2.9319844245910645,-245,9951.0
1540,0.3366454243659973,-0.8721151947975159,58,6731.0,0.8217865228652954,-137,9951.0
1550,0.3364473879337311,-0.5765693783760071,-14,6731.0,-1.0352632999420166,25,9951.0
1560,0.33623188734054565,-3.5754528045654297,-134,6731.0,-0.29765868186950684,59,9951.0
1570,0.3360675573348999,-4.243139266967773,-163,6731.0,1.9180470705032349,-35,9951.0
1580,0.33704254031181335,-6.262753009796143,-91,6731.0,0.7445321083068848,-123,9951.0
1590,0.3367592692375183,-5.056053161621094,-26,6731.0,2.1855454444885254,-78,9951.0
1600,0.3363950550556183,-2.2099645137786865,-98,6731.0,1.446352243423462,87,9951.0
1610,0.33607470989227295,-1.9274708032608032,-136,6731.0,-1.0559948682785034,94,9951.0
1620,0.33657383918762207,-2.0105085372924805,-53,6731.0,0.9155403971672058,-90,9951.0
1630,0.3363087475299835,0.8002806305885315,103,6731.0,-1.8465276956558228,-151,9951.0
1640,0.3359277546405792,3.7265565395355225,93,6731.0,-1.9840044975280762,38,9951.0
1650,0.3354586362838745,4.584839820861816,39,6731.0,-1.6499736309051514,109,9951.0
1660,0.3371359705924988,4.597786903381348,5,6731.0,-0.7921636700630188,31,9951.0
1670,0.33676379919052124,3.5698704719543457,92,6731.0,-0.3952651023864746,-50,9951.0
1680,0.33646339178085327,2.320917844772339,102,6731.0,1.5849047899246216,-64,9951.0
1690,0.33608588576316833,2.7294697761535645,62,6731.0,2.3154923915863037,132,9951.0
1700,0.33564358949661255,3.467406749725342,10,6731.0,4.041022777557373,39,9951.0
1710,0.3366268575191498,1.7058206796646118,-5,6731.0,4.882584571838379,42,9951.0
1720,0.33635300397872925,1.8529239892959595,104,6731.0,3.739934206008911,19,9951.0
1730,0.3360934257507324,0.4813770651817322,127,6731.0,3.547694444656372,7,9951.0
1740,0.33576691150665283,-0.1564745157957077,71,6731.0,1.4086172580718994,105,9951.0
1750,0.33630168437957764,1.2395614385604858,20,6731.0,0.17621782422065735,121,9951.0
1760,0.3359867036342621,1.5883641242980957,13,6731.0,0.10641437768936157,-70,9951.0
1770,0.33574461936950684,1.2290282249450684,79,6731.0,-0.3823343515396118,-86,9951.0
1780,0.3355114161968231,0.2511866092681885,130,6731.0,-2.96878719329834,-66,9951.0
1790,0.3352193832397461,0.13247844576835632,8,6731.0,-4.904751300811768,2,9951.0
1800,0.33687716722488403,-0.8699023127555847,-86,6731.0,-5.3620476722717285,1,9951.0
1810,0.33657950162887573,-0.8860296010971069,-25,6731.0,-1.946099877357483,-142,9951.0
1820,0.33633947372436523,-2.182370662689209,39,6731.0,-1.377469778060913,76,9951.0
1830,0.3361325263977051,-1.6904515027999878,41,6731.0,1.4881254434585571,92,9951.0
1840,0.3366604745388031,0.08117230236530304,-73,6731.0,3.063840627670288,147,9951.0
1850,0.3363838493824005,0.6910471320152283,-29,6731.0,5.250272750854492,112,9951.0
1860,0.33605390787124634,0.31541210412979126,25,6731.0,6.263585567474365,62,9951.0
1870,0.3357292711734772,2.2966694831848145,123,6731.0,7.5822434425354,-10,9951.0
1880,0.3374634385108948,1.4227581024169922,66,6731.0,6.2207112312316895,110,9951.0
1890,0.337199330329895,2.9912221431732178,23,6731.0,4.479697227478027,137,9951.0
1900,0.3367244601249695,1.3961272239685059,-43,6731.0,2.5321619510650635,27,9951.0
1910,0.3361511826515198,-0.9641143679618835,-82,6731.0,2.0884387493133545,-76,9951.0
1920,0.33558425307273865,-2.8093597888946533,-40,6731.0,1.2589409351348877,-85,9951.0
1930,0.33730632066726685,-1.7714126110076904,34,6731.0,-1.4453413486480713,-75,9951.0
1940,0.33682015538215637,-0.6704329252243042,19,6731.0,-4.388065814971924,16,9951.0
1950,0.3362167775630951,-0.9676075577735901,-22,6731.0,-2.4442059993743896,-24,9951.0
1960,0.33552271127700806,1.2478686571121216,-28,6731.0,2.54034686088562,-42,9951.0
1970,0.33620598912239075,-1.609459638595581,42,6731.0,2.327868938446045,29,9951.0
1980,0.3356761932373047,-3.1797068119049072,30,6731.0,5.929155349731445,48,9951.0
1990,0.3351357877254486,-4.283603668212891,-40,6731.0,4.603304862976074,220,9951.0
2000,0.3345488905906677,-4.659206390380859,-58,6731.0,3.7172062397003174,175,9951.0
2010,0.33400121331214905,-2.120649576187134,-22,6731.0,3.6447160243988037,-30,9951.0
2020,0.33473920822143555,0.526981770992279,121,6731.0,3.2032501697540283,-32,9951.0
2030,0.3343214690685272,2.4699370861053467,152,6731.0,2.739651918411255,145,9951.0
2040,0.3338715732097626,3.698575973510742,28,6731.0,3.2907297611236572,105,9951.0
2050,0.33342355489730835,3.745985984802246,35,6731.0,0.31334415078163147,3,9951.0
2060,0.3359464406967163,0.9152247905731201,43,6731.0,1.1596310138702393,-155,9951.0
2070,0.3356945216655731,-0.8459485769271851,27,6731.0,-1.3476999998092651,-61,9951.0
2080,0.33557212352752686,-1.2283436059951782,-69,6731.0,-2.6367058753967285,-14,9951.0
2090,0.335552453994751,-3.774428367614746,-140,6731.0,-0.7258229851722717,35,9951.0
2100,0.33684173226356506,-5.824711799621582,-123,6731.0,-0.5471316576004028,-190,9951.0
2110,0.3368275761604309,-5.942325592041016,-69,6731.0,-1.2858411073684692,-185,9951.0
2120,0.33684849739074707,-2.3258473873138428,1,6731.0,-2.9730420112609863,-44,9951.0
2130,0.3370455205440521,-2.6346447467803955,-26,6731.0,-3.2551891803741455,9,9951.0
2140,0.337272047996521,2.2425172328948975,-59,6731.0,-3.0775043964385986,81,9951.0
2150,0.3373944163322449,1.864351511001587,42,6731.0,-1.0904818773269653,14,9951.0
2160,0.3375551104545593,3.5780160427093506,119,6731.0,0.047726571559906006,-34,9951.0
2170,0.3377057909965515,2.1024272441864014,164,6731.0,0.7288984060287476,53,9951.0
2180,0.33797401189804077,3.453768730163574,53,6731.0,2.6224780082702637,175,9951.0
2190,0.33799129724502563,2.264774799346924,-2,6731.0,4.231419086456299,120,9951.0
2200,0.3385583162307739,1.0872819423675537,5,6731.0,2.543513298034668,57,9951.0
2210,0.338558554649353,1.879221796989441,28,6731.0,2.374687910079956,-150,9951.0
2220,0.3389279842376709,-0.12380123138427734,75,6731.0,-2.488562822341919,-159,9951.0
2230,0.3396990895271301,1.6647039651870728,26,6731.0,-0.8440040349960327,40,9951.0
2240,0.3400481939315796,2.3214669227600098,-44,6731.0,-2.9423606395721436,45,9951.0
2250,0.3400517702102661,0.6793343424797058,-49,6731.0,-2.467726707458496,43,9951.0
2260,0.34007728099823,-0.47641557455062866,-60,6731.0,-0.9592817425727844,15,9951.0
2270,0.3400680720806122,-0.12743186950683594,57,6731.0,-1.2200183868408203,-48,9951.0
2280,0.3384192883968353,0.26579269766807556,109,6731.0,-0.9942346811294556,-96,9951.0
2290,0.3381096124649048,-0.8773758411407471,134,6731.0,0.9215577840805054,22,9951.0
2300,0.337688684463501,0.03858785331249237,-31,6731.0,-0.51411372423172,107,9951.0
2310,0.3372781574726105,-0.6865954995155334,-77,6731.0,1.0678004026412964,80,9951.0
2320,0.3365165591239929,-0.07448095083236694,-89,6731.0,1.60932195186615,63,9951.0
2330,0.3359966576099396,0.8644137978553772,-8,6731.0,1.8715218305587769,-85,9951.0
2340,0.33542177081108093,-0.13873419165611267,82,6731.0,1.3704984188079834,-76,9951.0
2350,0.33492252230644226,-0.05889646336436272,-52,6731.0,-0.7457694411277771,17,9951.0
2360,0.33452585339546204,1.732377529144287,-44,6731.0,1.200422763824463,43,9951.0
2370,0.3316307067871094,-0.52058345079422,-79,6731.0,0.7348758578300476,56,9951.0
2380,0.3309682011604309,-1.1614559888839722,-83,6731.0,-0.7752920985221863,-71,9951.0
2390,0.330288290977478,-1.3525164127349854,75,6731.0,-0.3929261267185211,-55,9951.0
2400,0.3297088146209717,0.21680587530136108,70,6731.0,-1.3058182001113892,-24,9951.0
2410,0.33029109239578247,-0.2475910186767578,7,6731.0,-0.3054335117340088,131,9951.0
2420,0.3298718333244324,1.3847342729568481,-25,6731.0,0.8627668619155884,116,9951.0
2430,0.3294345736503601,1.9371775388717651,93,6731.0,2.1845245361328125,-47,9951.0
2440,0.3290770351886749,2.2981691360473633,130,6731.0,-0.137335404753685,-36,9951.0
2450,0.32885023951530457,0.09054185450077057,106,6731.0,-1.4485139846801758,23,9951.0
2460,0.3303368091583252,1.334901213645935,-82,6731.0,-2.709120035171509,109,9951.0
2470,0.33028897643089294,-0.22455842792987823,-20,6731.0,-1.735714077949524,-16,9951.0
2480,0.33035025000572205,-1.574103593826294,-19,6731.0,-2.460695505142212,-107,9951.0
2490,0.3307572305202484,-0.9979150295257568,67,6731.0,-0.424329549074173,-117,9951.0
2500,0.32938581705093384,-1.6592051982879639,-72,6731.0,-3.975665330886841,52,9951.0
2510,0.3293865919113159,-2.7960948944091797,-127,6731.0,-2.2209765911102295,17,9951.0
2520,0.32930988073349,-3.023993730545044,-117,6731.0,0.1374385803937912,-19,9951.0
2530,0.3291856348514557,-2.8981947898864746,-120,6731.0,2.386849880218506,-36,9951.0
2540,0.32906603813171387,-4.465508460998535,-10,6731.0,5.514604568481445,20,9951.0
2550,0.329057514667511,-0.8962182402610779,85,6731.0,6.313178062438965,128,9951.0
2560,0.32907143235206604,-0.41813963651657104,104,6731.0,6.152243614196777,225,9951.0
2570,0.3291001617908478,-0.35819917917251587,-33,6731.0,4.139507293701172,186,9951.0
2580,0.32913169264793396,-0.10376209020614624,-74,6731.0,5.417600154876709,22,9951.0
2590,0.32886168360710144,1.1322824954986572,5,6731.0,6.440805435180664,12,9951.0
2600,0.3290555477142334,1.107239842414856,75,6731.0,3.9264557361602783,39,9951.0
2610,0.3292882442474365,2.781416177749634,38,6731.0,2.2349252700805664,67,9951.0
2620,0.32943546772003174,1.4112906455993652,-30,6731.0,2.0675058364868164,57,9951.0
2630,0.33017370104789734,1.535661220550537,-61,6731.0,0.5048349499702454,201,9951.0
2640,0.33036431670188904,2.329899311065674,-33,6731.0,-1.5030686855316162,-140,9951.0
2650,0.3305465579032898,1.2753933668136597,58,6731.0,-0.023579014465212822,-78,9951.0
2660,0.33068257570266724,1.9121360778808594,124,6731.0,-1.2940210103988647,-84,9951.0
2670,0.3308950364589691,0.7454562783241272,86,6731.0,-0.3961228132247925,-25,9951.0
2680,0.3311598002910614,-0.3614139258861542,3,6731.0,-0.6605212092399597,-20,9951.0
2690,0.33147159218788147,-2.777902841567993,-134,6731.0,0.16944557428359985,41,9951.0
2700,0.33171871304512024,-2.9325499534606934,-116,6731.0,0.4254339337348938,-65,9951.0
2710,0.3311777114868164,-2.45393705368042,-108,6731.0,3.2491579055786133,25,9951.0
2720,0.33129918575286865,-3.201988935470581,-4,6731.0,3.2167253494262695,-14,9951.0
2730,0.3313201665878296,-0.42103639245033264,69,6731.0,4.668356895446777,84,9951.0
2740,0.33124879002571106,-0.056115344166755676,51,6731.0,5.125216960906982,97,9951.0
2750,0.3311353027820587,0.3903900980949402,4,6731.0,1.7512434720993042,70,9951.0
2760,0.33018627762794495,1.228135585784912,-24,6731.0,4.410289287567139,105,9951.0
2770,0.32997429370880127,1.440238118171692,-20,6731.0,2.910170078277588,6,9951.0
2780,0.32964205741882324,-0.21013259887695312,7,6731.0,1.0582205057144165,-135,9951.0
2790,0.329266756772995,-1.4656572341918945,22,6731.0,-2.0033035278320312,-102,9951.0
2800,0.330112099647522,-0.5864746570587158,-12,6731.0,-4.518168926239014,25,9951.0
2810,0.32987967133522034,-0.6129456162452698,-79,6731.0,-1.990693211555481,102,9951.0
2820,0.3295012414455414,0.06102103739976883,-35,6731.0,-2.0802900791168213,12,9951.0
2830,0.3290421664714813,-0.13548004627227783,34,6731.0,-1.9486443996429443,-69,9951.0
2840,0.3286333680152893,-0.9153955578804016,96,6731.0,-1.7478156089782715,-113,9951.0
2850,0.3301428258419037,-0.40283751487731934,96,6731.0,-2.1354775428771973,-93,9951.0
2860,0.32988518476486206,-0.11493180692195892,15,6731.0,-1.461284875869751,19,9951.0
2870,0.3296138644218445,0.9909651875495911,-54,6731.0,1.444158911705017,106,9951.0
2880,0.3293516933917999,2.7397570610046387,-41,6731.0,2.3245387077331543,-15,9951.0
2890,0.32947200536727905,2.9337403774261475,5,6731.0,0.8738467693328857,-87,9951.0
2900,0.3292778730392456,1.4151798486709595,42,6731.0,-1.0626035928726196,-52,9951.0
2910,0.32905957102775574,-0.20878131687641144,-32,6731.0,-1.6449793577194214,-4,9951.0
2920,0.32888397574424744,-1.891440510749817,-116,6731.0,-3.8175852298736572,77,9951.0
2930,0.32925522327423096,-1.7950775623321533,-97,6731.0,-2.7076497077941895,83,9951.0
2940,0.32926201820373535,-1.9327129125595093,-16,6731.0,-0.969560444355011,-81,9951.0
2950,0.32920828461647034,-2.218557834625244,95,6731.0,-0.20675592124462128,-115,9951.0
2960,0.32911914587020874,-1.3093057870864868,108,6731.0,0.12856213748455048,102,9951.0
2970,0.3291863799095154,0.2854672074317932,-12,6731.0,-1.5285298824310303,16,9951.0
2980,0.32883334159851074,-0.21382607519626617,-56,6731.0,-1.4596260786056519,-16,9951.0
2990,0.3290333151817322,0.44600892066955566,-44,6731.0,-1.2692450284957886,-32,9951.0
3000,0.32923346757888794,1.3884867429733276,34,6731.0,-1.6594680547714233,-84,9951.0
3010,0.32948505878448486,2.689561128616333,74,6731.0,-0.10482461005449295,-85,9951.0
3020,0.32907670736312866,2.4274463653564453,21,6731.0,-0.10811016708612442,0,9951.0
3030,0.32935625314712524,0.8430744409561157,-17,6731.0,1.4062103033065796,256,9951.0
3040,0.32948726415634155,0.16278918087482452,-11,6731.0,3.1648707389831543,168,9951.0
3050,0.32955512404441833,1.155543565750122,-26,6731.0,3.286803960800171,34,9951.0
3060,0.32967841625213623,3.8643813133239746,116,6731.0,7.6181159019470215,16,9951.0
3070,0.3295864164829254,2.476529359817505,91,6731.0,4.418999195098877,-102,9951.0
3080,0.3297830820083618,-0.05044284090399742,36,6731.0,1.5875675678253174,-27,9951.0
3090,0.32991018891334534,-1.8011287450790405,-59,6731.0,1.9730428457260132,75,9951.0
3100,0.33006390929222107,-1.8049854040145874,-156,6731.0,1.1861624717712402,173,9951.0
3110,0.33009999990463257,-2.719289541244507,-131,6731.0,1.7246311902999878,143,9951.0
3120,0.3301331698894501,-2.0673258304595947,-37,6731.0,-0.7837297916412354,-162,9951.0
3130,0.33020517230033875,-0.7475755214691162,89,6731.0,-2.6188273429870605,-213,9951.0
3140,0.3303416669368744,-0.5559925436973572,106,6731.0,-3.6615402698516846,-153,9951.0
3150,0.32875582575798035,-0.41306206583976746,10,6731.0,-1.8280404806137085,-45,9951.0
3160,0.32881027460098267,0.36204853653907776,-50,6731.0,-2.5272951126098633,63,9951.0
3170,0.3288526237010956,0.14503443241119385,-86,6731.0,-0.07842642813920975,98,9951.0
3180,0.3289474546909332,0.5411928296089172,-58,6731.0,2.7147228717803955,146,9951.0
3190,0.3290729522705078,0.3781328499317169,-31,6731.0,6.259464263916016,57,9951.0
3200,0.32788988947868347,1.276199221611023,124,6731.0,7.384496688842773,-10,9951.0
3210,0.32797086238861084,0.9274194836616516,57,6731.0,6.8981499671936035,46,9951.0
3220,0.32809698581695557,0.4755707383155823,37,6731.0,5.535626411437988,124,9951.0
3230,0.3281337022781372,1.70908522605896,-11,6731.0,0.7049493789672852,141,9951.0
3240,0.327248752117157,1.8512306213378906,-33,6731.0,-2.060197114944458,-46,9951.0
3250,0.32710567116737366,1.676901936531067,27,6731.0,-2.9549708366394043,-112,9951.0
3260,0.32706695795059204,0.9823358654975891,18,6731.0,-4.7118120193481445,-102,9951.0
3270,0.32706955075263977,-0.01841048337519169,39,6731.0,-5.629374027252197,-102,9951.0
3280,0.3270295560359955,-1.093434453010559,38,6731.0,-5.696171283721924,-81,9951.0
3290,0.3262384533882141,-0.8991097807884216,-38,6731.0,-5.912619590759277,-43,9951.0
3300,0.32622915506362915,0.6927825808525085,-105,6731.0,-5.311384201049805,52,9951.0
3310,0.3261792063713074,-0.5776732563972473,-54,6731.0,-2.0151894092559814,-34,9951.0
3320,0.3262377083301544,-1.9085466861724854,-59,6731.0,0.3997631072998047,-86,9951.0
3330,0.3247944116592407,-1.3724725246429443,34,6731.0,2.929469585418701,-67,9951.0
3340,0.32474857568740845,-0.8481259942054749,76,6731.0,4.366116523742676,-71,9951.0
3350,0.32464438676834106,-0.378659725189209,84,6731.0,1.83130943775177,-13,9951.0
3360,0.3244807720184326,-0.0194364283233881,-63,6731.0,3.5795061588287354,110,9951.0
3370,0.32457679510116577,0.38335058093070984,-77,6731.0,1.3783140182495117,118,9951.0
3380,0.3246176540851593,-0.030010979622602463,-91,6731.0,-0.6577789783477783,129,9951.0
3390,0.32460933923721313,-0.812465250492096,36,6731.0,-0.04793107882142067,-30,9951.0
3400,0.32460418343544006,-0.7973661422729492,78,6731.0,-2.524653673171997,-72,9951.0
3410,0.3247036337852478,0.7669313549995422,110,6731.0,-4.3500752449035645,85,9951.0
3420,0.3245747685432434,1.0855556726455688,57,6731.0,-5.39876127243042,-71,9951.0
3430,0.3246132433414459,1.878656029701233,-59,6731.0,-3.201099157333374,6,9951.0
3440,0.324561208486557,2.6621484756469727,-18,6731.0,-1.376778483390808,30,9951.0
3450,0.32460275292396545,-0.3702998757362366,-75,6731.0,2.4590413570404053,34,9951.0
3460,0.32407012581825256,-1.2011107206344604,27,6731.0,3.3529767990112305,52,9951.0
3470,0.324201762676239,-3.3097119331359863,33,6731.0,7.392941474914551,33,9951.0
3480,0.32431936264038086,-3.4991729259490967,63,6731.0,4.286105632781982,187,9951.0
3490,0.3244793117046356,-1.686543583869934,-16,6731.0,2.1197218894958496,49,9951.0
3500,0.324758380651474,-1.7281758785247803,-88,6731.0,4.626755237579346,23,9951.0
3510,0.32478952407836914,0.3524101674556732,-41,6731.0,1.8616931438446045,55,9951.0
3520,0.32483989000320435,1.6491948366165161,23,6731.0,0.5980070233345032,-153,9951.0
3530,0.3249337077140808,0.03919023647904396,60,6731.0,-1.387648344039917,-33,9951.0
3540,0.32504746317863464,0.6102420687675476,118,6731.0,-1.4483195543289185,29,9951.0
3550,0.3254091143608093,0.09383411705493927,101,6731.0,-2.209402322769165,43,9951.0
3560,0.32536423206329346,-0.6693145036697388,-39,6731.0,-0.49437370896339417,-13,9951.0
3570,0.32534340023994446,-1.4936989545822144,-36,6731.0,1.9718443155288696,33,9951.0
3580,0.32538148760795593,-1.7169679403305054,-103,6731.0,1.9290440082550049,21,9951.0
3590,0.3248383402824402,-3.2181520462036133,-38,6731.0,4.441442489624023,-35,9951.0
3600,0.32486462593078613,-1.8267096281051636,33,6731.0,4.704821586608887,52,9951.0
3610,0.3249010145664215,0.6684994101524353,83,6731.0,5.063556671142578,98,9951.0
3620,0.3249516785144806,0.7495682239532471,75,6731.0,3.1572399139404297,135,9951.0
3630,0.32494744658470154,1.3890482187271118,-9,6731.0,5.589789390563965,148,9951.0
3640,0.32489630579948425,2.2170662879943848,4,6731.0,4.352044582366943,49,9951.0
3650,0.32500481605529785,2.8260276317596436,37,6731.0,5.476086139678955,-86,9951.0
3660,0.32508108019828796,1.1831327676773071,61,6731.0,0.9087470173835754,-82,9951.0
3670,0.32507115602493286,1.7348787784576416,48,6731.0,-1.4495444297790527,27,9951.0
3680,0.32551124691963196,-0.07295052707195282,12,6731.0,-3.268059253692627,49,9951.0
3690,0.3255206346511841,-1.4967029094696045,-4,6731.0,-0.7489907741546631,72,9951.0
3700,0.32543426752090454,-2.7690138816833496,-94,6731.0,-1.770516276359558,20,9951.0
3710,0.32523584365844727,-3.384442090988159,-75,6731.0,-0.5922263860702515,-57,9951.0
3720,0.325004905462265,-2.077685594558716,-26,6731.0,1.2824604511260986,-109,9951.0
3730,0.324797123670578,-1.724190354347229,59,6731.0,1.4015551805496216,-22,9951.0
3740,0.3245813846588135,1.6656397581100464,49,6731.0,2.4889562129974365,0,9951.0
3750,0.3242492377758026,4.127668380737305,49,6731.0,1.8166587352752686,199,9951.0
3760,0.3239695429801941,3.325519561767578,5,6731.0,3.4751367568969727,200,9951.0
3770,0.3242647349834442,3.563190460205078,5,6731.0,0.38792893290519714,-26,9951.0
3780,0.3240739107131958,1.3895132541656494,45,6731.0,3.1691455841064453,-122,9951.0
3790,0.323784202337265,-0.24340568482875824,33,6731.0,1.992942452430725,-77,9951.0
3800,0.3235737681388855,0.6519300937652588,3,6731.0,0.7449919581413269,31,9951.0
3810,0.3240280747413635,-0.9826450943946838,-83,6731.0,1.101983904838562,59,9951.0
3820,0.32393962144851685,-3.376821994781494,30,6731.0,-0.4626169204711914,106,9951.0
3830,0.3238465189933777,-2.630214214324951,-136,6731.0,-0.37274235486984253,28,9951.0
3840,0.32379820942878723,-0.7631573677062988,-93,6731.0,-2.8475089073181152,-94,9951.0
3850,0.32378554344177246,-0.27713075280189514,-65,6731.0,-2.061894655227661,-146,9951.0
3860,0.3243234157562256,-0.3748912811279297,81,6731.0,-3.9145920276641846,-40,9951.0
3870,0.3243708312511444,-1.289171814918518,11,6731.0,-3.008413553237915,35,9951.0
3880,0.3243336081504822,0.9121257066726685,48,6731.0,-2.5183467864990234,32,9951.0
3890,0.32429245114326477,1.2113949060440063,-68,6731.0,-3.2008180618286133,-33,9951.0
3900,0.3253057301044464,3.9769322872161865,54,6731.0,0.6340116858482361,-25,9951.0
3910,0.32518160343170166,3.6130945682525635,29,6731.0,4.0610198974609375,-9,9951.0
3920,0.32494956254959106,1.7549352645874023,28,6731.0,3.0240979194641113,65,9951.0
3930,0.3247690796852112,0.17958876490592957,40,6731.0,4.070620059967041,87,9951.0
3940,0.32437872886657715,-1.3874382972717285,-20,6731.0,3.9274234771728516,68,9951.0
3950,0.3240777552127838,-1.9216315746307373,-91,6731.0,3.276282548904419,187,9951.0
3960,0.3237170875072479,-1.6410809755325317,-70,6731.0,2.501159191131592,170,9951.0
3970,0.32336971163749695,-2.5050084590911865,-22,6731.0,2.9376611709594727,-38,9951.0
3980,0.32305723428726196,-2.0100209712982178,2,6731.0,-0.2705749273300171,-202,9951.0
3990,0.32357388734817505,-2.9746253490448,22,6731.0,-1.3562743663787842,-177,9951.0
4000,0.3232038617134094,-0.3892621099948883,-14,6731.0,-6.355415344238281,-73,9951.0
4010,0.32296222448349,2.999387502670288,-11,6731.0,-6.458957195281982,9,9951.0
4020,0.3228011131286621,3.0943331718444824,-15,6731.0,-4.9907097816467285,-23,9951.0
4030,0.3235188126564026,1.8505353927612305,62,6731.0,-4.131492614746094,-62,9951.0
4040,0.323298841714859,3.1245224475860596,132,6731.0,-4.074692249298096,-114,9951.0
4050,0.3230697512626648,1.3987739086151123,123,6731.0,-1.3839623928070068,-42,9951.0
4060,0.3228619694709778,1.4652992486953735,49,6731.0,2.42287540435791,91,9951.0
4070,0.3245925009250641,-0.17678645253181458,-136,6731.0,5.372384548187256,121,9951.0
4080,0.32440298795700073,0.5412293076515198,-127,6731.0,7.38925838470459,205,9951.0
4090,0.3242455720901489,-0.13558901846408844,-49,6731.0,10.127273559570312,104,9951.0
4100,0.32408902049064636,-0.556331217288971,49,6731.0,7.508782863616943,-8,9951.0
4110,0.3239220976829529,1.772750973701477,137,6731.0,3.252847671508789,49,9951.0
4120,0.3241567313671112,2.0271456241607666,111,6731.0,0.7168892621994019,68,9951.0
4130,0.3238222301006317,1.9113136529922485,-60,6731.0,-1.7115179300308228,76,9951.0
4140,0.3236033320426941,0.16535700857639313,-73,6731.0,-3.2491250038146973,-81,9951.0
4150,0.32328638434410095,-2.3678131103515625,-90,6731.0,-3.8752987384796143,-147,9951.0
4160,0.3248343765735626,-4.727579593658447,-21,6731.0,-4.746004581451416,-151,9951.0
4170,0.3245079815387726,-2.726653575897217,-14,6731.0,-3.374302864074707,-66,9951.0
4180,0.32425758242607117,-0.6235092282295227,-14,6731.0,-2.300827741622925,36,9951.0
4190,0.3239724636077881,1.4099385738372803,0,6731.0,0.18807339668273926,163,9951.0
4200,0.32361236214637756,2.5517473220825195,93,6731.0,-1.2961403131484985,-121,9951.0
4210,0.32461079955101013,4.255560874938965,87,6731.0,-1.4306873083114624,-115,9951.0
4220,0.3244156837463379,3.3368492126464844,160,6731.0,1.8796390295028687,-108,9951.0
4230,0.3242120146751404,2.162956476211548,-4,6731.0,1.2483545541763306,117,9951.0
4240,0.32387617230415344,1.8789851665496826,-66,6731.0,3.141930103302002,78,9951.0
4250,0.3256467580795288,-0.350312203168869,-116,6731.0,2.803530216217041,99,9951.0
4260,0.3254294991493225,-0.9490196704864502,-75,6731.0,4.761524677276611,10,9951.0
4270,0.32530248165130615,-3.0272622108459473,10,6731.0,4.092021465301514,57,9951.0
4280,0.32509899139404297,-2.7251665592193604,72,6731.0,2.88291072845459,25,9951.0
4290,0.3256552219390869,-2.6087801456451416,42,6731.0,-0.9973844885826111,25,9951.0
4300,0.32548969984054565,0.7708678841590881,-55,6731.0,-1.1223422288894653,52,9951.0
4310,0.32533785700798035,-0.2673425078392029,-38,6731.0,-2.1478869915008545,-15,9951.0
4320,0.32515600323677063,0.33783429861068726,-23,6731.0,-1.8009653091430664,-174,9951.0
4330,0.3249739706516266,0.6560004353523254,60,6731.0,-0.5886276960372925,-147,9951.0
4340,0.32649049162864685,0.3413116931915283,36,6731.0,-1.4226040840148926,-68,9951.0
4350,0.3264451026916504,2.4328064918518066,-26,6731.0,-1.2078733444213867,181,9951.0
4360,0.3263850212097168,1.6570810079574585,-48,6731.0,1.3561753034591675,249,9951.0
4370,0.32625940442085266,0.47337496280670166,39,6731.0,1.0662305355072021,-31,9951.0
4380,0.32727983593940735,3.0060625076293945,110,6731.0,2.3983209133148193,45,9951.0
4390,0.32744407653808594,1.8885793685913086,108,6731.0,4.353377342224121,105,9951.0
4400,0.3276479244232178,2.546651840209961,81,6731.0,-2.4793059825897217,-23,9951.0
4410,0.3278006315231323,1.2556663751602173,-48,6731.0,1.7405905723571777,42,9951.0
4420,0.32789120078086853,-0.38465964794158936,-46,6731.0,-1.4185993671417236,-48,9951.0
4430,0.3296622931957245,-1.8841568231582642,-126,6731.0,0.43879401683807373,-92,9951.0
4440,0.329913854598999,-2.873685598373413,-22,6731.0,-1.002983808517456,-41,9951.0
4450,0.33009907603263855,-4.364382743835449,-32,6731.0,-1.652642846107483,-25,9951.0
4460,0.3302572965621948,-3.534170150756836,4,6731.0,0.5147180557250977,-143,9951.0
4470,0.3294472098350525,-4.71950626373291,-21,6731.0,2.664911985397339,-7,9951.0
4480,0.32942628860473633,-2.6991519927978516,-96,6731.0,5.762951850891113,109,9951.0
4490,0.32929638028144836,0.9179883003234863,-40,6731.0,4.291463851928711,248,9951.0
4500,0.3291785717010498,0.3355962336063385,-124,6731.0,3.816638946533203,226,9951.0
4510,0.32908564805984497,0.7840799689292908,-105,6731.0,4.301425457000732,44,9951.0
4520,0.32645174860954285,0.5614743828773499,-53,6731.0,2.8666794300079346,-55,9951.0
4530,0.32608935236930847,1.3882262706756592,30,6731.0,4.559404373168945,-91,9951.0
4540,0.3257191479206085,3.04524827003479,123,6731.0,3.436034679412842,0,9951.0
4550,0.32541847229003906,0.994734525680542,134,6731.0,0.351205974817276,-5,9951.0
4560,0.3258633613586426,0.6424440741539001,30,6731.0,-0.9561195373535156,10,9951.0
4570,0.3255521357059479,1.6278678178787231,-20,6731.0,-3.3345699310302734,-88,9951.0
4580,0.3252592086791992,2.1085357666015625,-78,6731.0,-3.865272045135498,-14,9951.0
4590,0.3249870538711548,1.3466130495071411,-52,6731.0,-2.084599494934082,-16,9951.0
4600,0.3247874677181244,-1.891005277633667,37,6731.0,-7.455104827880859,-169,9951.0
4610,0.32448506355285645,-3.0101752281188965,51,6731.0,-4.146058559417725,-152,9951.0
4620,0.3241289556026459,-0.5604163408279419,34,6731.0,-5.826122760772705,-3,9951.0
4630,0.3235894739627838,-5.350502967834473,-40,6731.0,-1.7213525772094727,77,9951.0
4640,0.3232264518737793,-0.5827724933624268,-98,6731.0,-4.554617881774902,-42,9951.0
4650,0.3221898674964905,0.4390297830104828,-111,6731.0,-1.8190219402313232,-106,9951.0
4660,0.32165753841400146,0.16511119902133942,2,6731.0,-0.9028500318527222,-21,9951.0
4670,0.321086049079895,2.4214677810668945,54,6731.0,0.7510635852813721,-23,9951.0
4680,0.32043710350990295,0.04362351819872856,73,6731.0,1.072615623474121,83,9951.0
4690,0.32184165716171265,-0.7815783619880676,-4,6731.0,-0.0814022421836853,118,9951.0
4700,0.32140475511550903,-1.69475519657135,-88,6731.0,-0.42249611020088196,25,9951.0
4710,0.32102450728416443,-1.1835899353027344,-20,6731.0,-1.1562376022338867,-79,9951.0
4720,0.3206961452960968,1.4698259830474854,52,6731.0,-2.9969780445098877,-221,9951.0
4730,0.321307510137558,2.634188652038574,85,6731.0,-5.813313961029053,-119,9951.0
4740,0.32107535004615784,3.2050445079803467,5,6731.0,-5.469960689544678,-15,9951.0
4750,0.3209429383277893,1.7801133394241333,-25,6731.0,-4.461736679077148,50,9951.0
4760,0.3208591341972351,0.7609351277351379,-15,6731.0,-6.6718645095825195,-60,9951.0
4770,0.3208211362361908,2.170898914337158,88,6731.0,-4.597204208374023,-136,9951.0
4780,0.32095593214035034,1.0180153846740723,125,6731.0,-2.0460381507873535,-22,9951.0
4790,0.3211407959461212,2.1065425872802734,90,6731.0,0.34263110160827637,81,9951.0
4800,0.3213835060596466,0.952089786529541,-56,6731.0,2.010643482208252,89,9951.0
4810,0.32165682315826416,-2.2063188552856445,-53,6731.0,4.668791770935059,30,9951.0
4820,0.32355573773384094,-3.0591952800750732,-106,6731.0,3.022461175918579,-16,9951.0
4830,0.32404834032058716,-5.23919153213501,-88,6731.0,6.307179927825928,10,9951.0
4840,0.32462406158447266,-2.7950193881988525,10,6731.0,5.983531951904297,69,9951.0
4850,0.32523804903030396,-1.4750176668167114,3,6731.0,4.96958065032959,152,9951.0
4860,0.32583364844322205,0.4005362391471863,32,6731.0,3.808859348297119,149,9951.0
4870,0.32576239109039307,0.9688883423805237,-7,6731.0,3.099714517593384,83,9951.0
4880,0.32639986276626587,1.2354103326797485,1,6731.0,1.980941891670227,5,9951.0
4890,0.3269443213939667,0.28113263845443726,-34,6731.0,3.3468151092529297,-59,9951.0
4900,0.3274590075016022,-0.3616269528865814,48,6731.0,1.1707898378372192,-46,9951.0
4910,0.32601621747016907,-0.4196673333644867,45,6731.0,1.601993203163147,-2,9951.0
4920,0.3263949751853943,0.13938258588314056,111,6731.0,0.10060407966375351,23,9951.0
4930,0.3267545998096466,0.9430633187294006,-26,6731.0,2.5522687435150146,132,9951.0
4940,0.3271264135837555,0.9680403470993042,-76,6731.0,2.705941915512085,70,9951.0
4950,0.32737061381340027,1.6075403690338135,-73,6731.0,1.7295210361480713,101,9951.0
4960,0.3277720808982849,-0.07051479816436768,-32,6731.0,1.9809600114822388,45,9951.0
4970,0.32810699939727783,1.0719268321990967,84,6731.0,4.586109161376953,68,9951.0
4980,0.32860612869262695,2.9087252616882324,141,6731.0,4.339178085327148,9,9951.0
4990,0.32894113659858704,1.3766942024230957,98,6731.0,3.901667594909668,-80,9951.0
5000,0.3283158838748932,-0.8896176815032959,-41,6731.0,3.1633076667785645,62,9951.0
5010,0.32852068543434143,-1.197757363319397,-62,6731.0,3.454636812210083,121,9951.0
5020,0.32876479625701904,-6.462630748748779,-73,6731.0,3.374652147293091,238,9951.0
5030,0.3288838863372803,-3.9219090938568115,-174,6731.0,4.540863037109375,214,9951.0
5040,0.32659009099006653,-3.6671924591064453,-128,6731.0,5.668540000915527,66,9951.0
5050,0.32658371329307556,-3.96573543548584,-127,6731.0,7.432173728942871,8,9951.0
5060,0.32659077644348145,-2.094888687133789,46,6731.0,1.8036633729934692,145,9951.0
5070,0.32656294107437134,-4.22432279586792,160,6731.0,2.394252300262451,-13,9951.0
5080,0.32650721073150635,1.7036159038543701,76,6731.0,1.07774817943573,131,9951.0
5090,0.32574883103370667,3.0910327434539795,48,6731.0,-1.1502726078033447,25,9951.0
5100,0.32590582966804504,2.6620633602142334,49,6731.0,-4.081259250640869,118,9951.0
5110,0.32587236166000366,5.517910480499268,103,6731.0,-6.007125377655029,-99,9951.0
5120,0.32610881328582764,6.088877201080322,77,6731.0,-8.188830375671387,-243,9951.0
5130,0.3270654082298279,5.082402229309082,68,6731.0,-8.357778549194336,-268,9951.0
5140,0.32720109820365906,4.847371578216553,138,6731.0,-11.577140808105469,-201,9951.0
5150,0.32762303948402405,2.2425830364227295,91,6731.0,-12.35529613494873,-214,9951.0
5160,0.32795384526252747,0.32782694697380066,27,6731.0,-12.762361526489258,-163,9951.0
5170,0.3284028172492981,-0.1315871626138687,7,6731.0,-12.350496292114258,-154,9951.0
5180,0.32731175422668457,-0.995720624923706,23,6731.0,-9.657180786132812,-67,9951.0
5190,0.32772043347358704,-2.514432668685913,-103,6731.0,-9.52968692779541,-93,9951.0
5200,0.3282277584075928,-3.0883684158325195,-171,6731.0,-10.574284553527832,-165,9951.0
5210,0.32866400480270386,-5.294958114624023,-117,6731.0,-8.257184982299805,-300,9951.0
5220,0.32872945070266724,-9.262860298156738,-79,6731.0,-6.535908222198486,-237,9951.0
5230,0.32932084798812866,-5.486985206604004,17,6731.0,-11.154296875,-83,9951.0
5240,0.32992616295814514,-5.851861953735352,57,6731.0,-9.253392219543457,-88,9951.0
5250,0.33066344261169434,-0.0483243353664875,-50,6731.0,-9.71875,-43,9951.0
5260,0.3289831876754761,1.157511830329895,66,6731.0,-10.799711227416992,-22,9951.0
5270,0.33001378178596497,4.94237756729126,13,6731.0,-7.768834114074707,-59,9951.0
5280,0.3310076594352722,6.804398536682129,-7,6731.0,-9.908228874206543,-186,9951.0
5290,0.33207967877388,2.78855562210083,0,6731.0,-9.193290710449219,-246,9951.0
5300,0.33324912190437317,0.39671874046325684,0,6731.0,-9.766369819641113,-117,9951.0
5310,0.33392858505249023,1.4506293535232544,29,6731.0,-9.569421768188477,-213,9951.0
5320,0.3351944386959076,0.08905849605798721,-37,6731.0,-9.435476303100586,-192,9951.0
5330,0.3365112543106079,6.883890151977539,140,6731.0,-8.928199768066406,-126,9951.0
5340,0.33778250217437744,8.247150421142578,234,6731.0,-9.749096870422363,-131,9951.0
5350,0.3389638364315033,9.111896514892578,191,6731.0,-8.522316932678223,-277,9951.0
5360,0.3400651216506958,14.15653133392334,262,6731.0,-9.002367973327637,-196,9951.0
5370,0.3410283923149109,17.996822357177734,362,6731.0,-9.719855308532715,-167,9951.0
5380,0.34173306822776794,20.599214553833008,395,6731.0,-4.43300724029541,-194,9951.0
5390,0.3422981798648834,18.743074417114258,262,6731.0,-1.327628493309021,-131,9951.0
5400,0.3439995348453522,5.376280307769775,1,6731.0,0.5691274404525757,-2,9951.0
5410,0.3442278504371643,-4.270103931427002,-80,6731.0,2.728404998779297,58,9951.0
5420,0.3442612886428833,-8.06734561920166,-114,6731.0,4.222133636474609,136,9951.0
5430,0.3440028131008148,-12.867097854614258,-259,6731.0,5.585729598999023,148,9951.0
5440,0.34291768074035645,-19.316911697387695,-407,6731.0,6.207164764404297,212,9951.0
5450,0.34208381175994873,-21.76793670654297,-394,6731.0,6.326530933380127,270,9951.0
5460,0.34100809693336487,-20.42345428466797,-305,6731.0,8.877727508544922,284,9951.0
5470,0.3399515151977539,-16.540945053100586,-232,6731.0,7.847140312194824,211,9951.0
5480,0.3355093002319336,-9.24848747253418,-169,6731.0,6.727575302124023,153,9951.0
5490,0.3337913155555725,-3.7375922203063965,-66,6731.0,10.096670150756836,177,9951.0
5500,0.33171045780181885,-3.1520819664001465,-56,6731.0,12.952878952026367,149,9951.0
5510,0.3299514949321747,-7.298187732696533,-106,6731.0,15.927996635437012,196,9951.0
5520,0.32744479179382324,-11.916653633117676,-8,6731.0,19.71625518798828,445,9951.0
5530,0.32421913743019104,-8.389257431030273,25,6731.0,26.164649963378906,453,9951.0
5540,0.3221588134765625,7.226395130157471,146,6731.0,34.24031066894531,639,9951.0
5550,0.32062870264053345,4.137703895568848,-48,6731.0,42.51850891113281,777,9951.0
5560,0.31915298104286194,-6.696600914001465,-177,6731.0,49.920249938964844,791,9951.0
5570,0.3163715898990631,-4.357815265655518,-8,6731.0,53.99163055419922,741,9951.0
5580,0.3157378137111664,4.76983118057251,37,6731.0,52.002140045166016,914,9951.0
5590,0.31614360213279724,0.492716521024704,23,6731.0,43.93490982055664,749,9951.0
5600,0.3166502118110657,4.2724833488464355,164,6731.0,35.49394607543945,525,9951.0
5610,0.3158907890319824,16.766603469848633,293,6731.0,19.123207092285156,298,9951.0
5620,0.3166526257991791,23.69975471496582,433,6731.0,2.6680829524993896,-80,9951.0
5630,0.3176496922969818,22.838237762451172,406,6731.0,-12.004677772521973,-198,9951.0
5640,0.31876230239868164,17.197290420532227,225,6731.0,-21.447792053222656,-363,9951.0
5650,0.31988415122032166,10.934257507324219,199,6731.0,-25.515880584716797,-601,9951.0
5660,0.32131609320640564,7.121581077575684,203,6731.0,-29.04923439025879,-516,9951.0
5670,0.322846382856369,8.015987396240234,66,6731.0,-26.498313903808594,-314,9951.0
5680,0.32374799251556396,6.240084171295166,-2,6731.0,-21.67810821533203,-291,9951.0
5690,0.32513880729675293,4.158448219299316,21,6731.0,-16.02705955505371,-323,9951.0
5700,0.3273022770881653,3.1292288303375244,69,6731.0,-11.129598617553711,-210,9951.0
5710,0.32803013920783997,0.19785398244857788,64,6731.0,-3.039860725402832,-45,9951.0
5720,0.3286682665348053,-2.3368587493896484,-10,6731.0,2.5229971408843994,69,9951.0
5730,0.32932788133621216,-0.5365530848503113,-19,6731.0,2.8737986087799072,123,9951.0
5740,0.3298473060131073,1.5537760257720947,-87,6731.0,8.659683227539062,147,9951.0
5750,0.33073997497558594,-16.841726303100586,-506,6731.0,13.645618438720703,254,9951.0
5760,0.33128708600997925,-53.013431549072266,-984,6731.0,18.49486541748047,142,9951.0
5770,0.3319789171218872,-58.5888671875,-756,6731.0,11.60538387298584,62,9951.0
5780,0.3324887156486511,-22.116222381591797,-84,6731.0,0.013127824291586876,119,9951.0
5790,0.33338698744773865,14.862839698791504,377,6731.0,-10.881003379821777,-181,9951.0
5800,0.3337401747703552,34.10113525390625,536,6731.0,-20.55948257446289,-545,9951.0
5810,0.3343590795993805,35.06569290161133,636,6731.0,-30.212541580200195,-524,9951.0
5820,0.3346478044986725,39.92570877075195,713,6731.0,-39.48986053466797,-605,9951.0
5830,0.3323708772659302,35.573760986328125,556,6731.0,-42.2929801940918,-692,9951.0
5840,0.3319834768772125,32.64537811279297,507,6731.0,-42.59219741821289,-616,9951.0
5850,0.33136820793151855,30.190378189086914,461,6731.0,-38.245643615722656,-450,9951.0
5860,0.3304581940174103,18.48099136352539,272,6731.0,-27.859298706054688,-234,9951.0
5870,0.3296425938606262,-0.4649195969104767,-97,6731.0,-14.344795227050781,-44,9951.0
5880,0.3297029733657837,-18.463769912719727,-397,6731.0,-1.8504130840301514,38,9951.0
5890,0.3286173939704895,-31.992868423461914,-585,6731.0,5.026968479156494,190,9951.0
5900,0.32746079564094543,-40.225276947021484,-717,6731.0,6.783775806427002,189,9951.0
5910,0.32601574063301086,-41.418785095214844,-705,6731.0,5.87451696395874,115,9951.0
5920,0.3245312571525574,-42.3624267578125,-647,6731.0,5.570004463195801,165,9951.0
5930,0.32392269372940063,-34.09995651245117,-559,6731.0,3.7399659156799316,54,9951.0
5940,0.32237836718559265,-26.40790367126465,-439,6731.0,1.2799978256225586,-45,9951.0
5950,0.3206014633178711,-15.380887985229492,-216,6731.0,-0.7275177836418152,-112,9951.0
5960,0.32015538215637207,-4.348688125610352,27,6731.0,-4.024516582489014,-96,9951.0
5970,0.31881269812583923,-0.8223365545272827,-20,6731.0,-6.75390100479126,35,9951.0
5980,0.31747710704803467,-1.5661019086837769,-60,6731.0,-1.9433629512786865,-101,9951.0
5990,0.3156776428222656,1.4948054552078247,43,6731.0,2.075871706008911,91,9951.0
6000,0.3146906793117523,10.243979454040527,324,6731.0,9.308126449584961,372,9951.0
6010,0.31462571024894714,22.471574783325195,409,6731.0,16.41107940673828,480,9951.0
6020,0.3139994442462921,20.003131866455078,230,6731.0,25.64653205871582,347,9951.0
6030,0.31384485960006714,11.498851776123047,152,6731.0,30.1060733795166,358,9951.0
6040,0.3136312663555145,1.7092654705047607,105,6731.0,32.53186798095703,480,9951.0
6050,0.31455233693122864,-0.9387075901031494,3,6731.0,30.916889190673828,577,9951.0
6060,0.3144349455833435,0.4643639922142029,-7,6731.0,30.020973205566406,455,9951.0
6070,0.3144032061100006,1.9723272323608398,115,6731.0,23.12225341796875,352,9951.0
6080,0.3144664764404297,6.4215545654296875,118,6731.0,20.21919822692871,360,9951.0
6090,0.3146238625049591,7.516112327575684,100,6731.0,13.6581449508667,168,9951.0
6100,0.31622400879859924,12.769458770751953,313,6731.0,8.01972770690918,48,9951.0
6110,0.31661954522132874,19.34119987487793,366,6731.0,3.2074477672576904,154,9951.0
6120,0.3172743320465088,22.489234924316406,314,6731.0,1.4897229671478271,148,9951.0
6130,0.3177220821380615,19.498634338378906,309,6731.0,2.7450976371765137,-54,9951.0
6140,0.3185308277606964,10.465423583984375,253,6731.0,3.4503109455108643,26,9951.0
6150,0.3187350332736969,1.6295857429504395,-12,6731.0,4.956277370452881,145,9951.0
6160,0.3189525306224823,-7.645104885101318,-240,6731.0,5.485381603240967,179,9951.0
6170,0.3192523717880249,-15.312483787536621,-224,6731.0,9.0462064743042,120,9951.0
6180,0.32081982493400574,-14.730569839477539,-165,6731.0,7.487026214599609,100,9951.0
6190,0.321023166179657,-12.80013656616211,-112,6731.0,7.155493259429932,192,9951.0
6200,0.3211449086666107,-9.713808059692383,-168,6731.0,6.901102066040039,261,9951.0
6210,0.3211374878883362,-9.560317039489746,-196,6731.0,6.574694633483887,145,9951.0
6220,0.3210170269012451,-7.79034423828125,-71,6731.0,5.27844762802124,-11,9951.0
6230,0.3224904239177704,-6.44177770614624,-10,6731.0,1.7930033206939697,-16,9951.0
6240,0.3225354254245758,-3.0062520503997803,-64,6731.0,-0.4448099732398987,-4,9951.0
6250,0.32244595885276794,1.6332937479019165,-16,6731.0,-2.7474448680877686,-35,9951.0
6260,0.3222484290599823,7.325837135314941,68,6731.0,-2.818740129470825,-118,9951.0
6270,0.3231501579284668,10.830458641052246,258,6731.0,-7.539844512939453,-134,9951.0
6280,0.3228919506072998,11.30102252960205,243,6731.0,-7.500467777252197,-46,9951.0
6290,0.3226031959056854,7.298627853393555,190,6731.0,-8.643278121948242,-79,9951.0
6300,0.322243332862854,3.289679527282715,32,6731.0,-7.224944114685059,-41,9951.0
6310,0.32173818349838257,-3.6328399181365967,-163,6731.0,-5.151012420654297,-13,9951.0
6320,0.32080408930778503,-8.698090553283691,-226,6731.0,-4.623537540435791,-55,9951.0
6330,0.31995826959609985,-10.870264053344727,-320,6731.0,-2.9556970596313477,8,9951.0
6340,0.3188868761062622,-13.799970626831055,-257,6731.0,-1.8261735439300537,-68,9951.0
6350,0.31765803694725037,-16.274166107177734,-193,6731.0,-2.806379556655884,-9,9951.0
6360,0.3185025751590729,-15.502756118774414,-143,6731.0,0.728675901889801,-67,9951.0
6370,0.31721460819244385,-12.1474609375,-96,6731.0,2.8873116970062256,-14,9951.0
6380,0.3165535032749176,-9.183385848999023,-135,6731.0,1.600635051727295,179,9951.0
6390,0.31539496779441833,-2.2978014945983887,-161,6731.0,4.1725592613220215,120,9951.0
6400,0.3148050308227539,-3.454206943511963,-150,6731.0,3.4992451667785645,24,9951.0
6410,0.31330621242523193,-1.238193392753601,-16,6731.0,3.532928705215454,7,9951.0
6420,0.3117367625236511,-0.4177817702293396,59,6731.0,4.769273281097412,-6,9951.0
6430,0.31034260988235474,-4.335051536560059,19,6731.0,3.0141611099243164,31,9951.0
6440,0.3087577819824219,-4.563056468963623,-66,6731.0,3.1837027072906494,31,9951.0
6450,0.3085561692714691,-2.3978819847106934,-164,6731.0,3.2419254779815674,117,9951.0
6460,0.3070494532585144,-2.293144702911377,-87,6731.0,6.819039821624756,129,9951.0
6470,0.30536162853240967,-2.5686280727386475,-25,6731.0,7.839986801147461,80,9951.0
6480,0.3037877678871155,0.8501980900764465,19,6731.0,8.108793258666992,78,9951.0
6490,0.3038013279438019,-0.20935092866420746,62,6731.0,8.823945045471191,185,9951.0
6500,0.30227214097976685,-3.04531192779541,-44,6731.0,7.663043975830078,253,9951.0
6510,0.30076107382774353,-1.5016404390335083,-100,6731.0,7.257853031158447,101,9951.0
6520,0.29973843693733215,-1.2848243713378906,-75,6731.0,9.096065521240234,-3,9951.0
6530,0.2986817955970764,-0.40153631567955017,78,6731.0,8.059593200683594,121,9951.0
6540,0.29783686995506287,4.726820945739746,124,6731.0,8.099689483642578,172,9951.0
6550,0.29680487513542175,9.184277534484863,120,6731.0,9.306761741638184,271,9951.0
6560,0.29610928893089294,12.18373966217041,202,6731.0,10.188643455505371,111,9951.0
6570,0.295370489358902,13.387640953063965,322,6731.0,6.940633773803711,37,9951.0
6580,0.2966342270374298,15.189282417297363,213,6731.0,5.098227500915527,190,9951.0
6590,0.2963758111000061,12.64958667755127,115,6731.0,7.271082401275635,-22,9951.0
6600,0.29612165689468384,6.7225236892700195,92,6731.0,5.5526814460754395,-12,9951.0
6610,0.29575973749160767,3.62176775932312,65,6731.0,4.512739658355713,93,9951.0
6620,0.29408204555511475,2.3790624141693115,-27,6731.0,4.556925296783447,166,9951.0
6630,0.2937776744365692,-0.5942592620849609,-46,6731.0,6.212916851043701,-11,9951.0
6640,0.29364779591560364,-1.9034550189971924,23,6731.0,3.7769901752471924,-16,9951.0
6650,0.29347100853919983,-2.5116398334503174,-57,6731.0,1.247806429862976,80,9951.0
6660,0.29326099157333374,-3.7735300064086914,-125,6731.0,-0.2079745978116989,-32,9951.0
6670,0.2936028242111206,-5.216827392578125,-56,6731.0,-2.0121700763702393,9,9951.0
6680,0.2932228744029999,-2.971269369125366,14,6731.0,-3.5502240657806396,-50,9951.0
6690,0.2928113639354706,-0.4269813299179077,-44,6731.0,-4.074373245239258,-11,9951.0
6700,0.29222676157951355,-1.1567437648773193,-8,6731.0,-1.052414059638977,-111,9951.0
6710,0.291014164686203,-0.6344930529594421,80,6731.0,-0.8005106449127197,-9,9951.0
6720,0.29030904173851013,2.2011218070983887,-22,6731.0,-0.05386188626289368,75,9951.0
6730,0.2895619869232178,2.483699321746826,2,6731.0,3.00634503364563,52,9951.0
6740,0.28891879320144653,1.843969702720642,67,6731.0,3.765296459197998,-29,9951.0
6750,0.28881895542144775,0.8107374906539917,86,6731.0,4.858222007751465,134,9951.0
6760,0.2880157232284546,0.7836155891418457,-67,6731.0,4.320119857788086,220,9951.0
6770,0.2869704067707062,-1.7891221046447754,-15,6731.0,6.03178596496582,-20,9951.0
6780,0.2860521674156189,-2.8967437744140625,60,6731.0,5.322207450866699,2,9951.0
6790,0.2853560447692871,-0.8226452469825745,11,6731.0,5.758681297302246,206,9951.0
6800,0.28574222326278687,2.025764226913452,-25,6731.0,8.49911117553711,259,9951.0
6810,0.2850574254989624,1.4713648557662964,59,6731.0,10.99997329711914,146,9951.0
6820,0.28439947962760925,1.1768680810928345,63,6731.0,13.295146942138672,284,9951.0
6830,0.28376954793930054,1.727637529373169,14,6731.0,12.903711318969727,339,9951.0
6840,0.284149169921875,3.6374409198760986,18,6731.0,15.128021240234375,210,9951.0
6850,0.2836010456085205,4.280654430389404,143,6731.0,15.145298957824707,176,9951.0
6860,0.28304576873779297,4.215357780456543,41,6731.0,11.780264854431152,256,9951.0
6870,0.2824794054031372,3.002987861633301,13,6731.0,8.974316596984863,205,9951.0
6880,0.282050222158432,2.1097137928009033,125,6731.0,4.074345111846924,58,9951.0
6890,0.28203311562538147,2.8632960319519043,138,6731.0,1.646876335144043,48,9951.0
6900,0.2817041575908661,5.317505359649658,49,6731.0,-0.5223195552825928,68,9951.0
6910,0.28138768672943115,6.023993015289307,105,6731.0,-3.9168550968170166,-112,9951.0
6920,0.28096428513526917,5.092514991760254,127,6731.0,-2.2813286781311035,-18,9951.0
6930,0.28120073676109314,3.7362654209136963,68,6731.0,0.1932198852300644,50,9951.0
6940,0.2807028293609619,1.2673274278640747,-28,6731.0,-1.122330665588379,-56,9951.0
6950,0.2802368998527527,-1.9544565677642822,-36,6731.0,-0.2544947564601898,-187,9951.0
6960,0.27984383702278137,-4.458195686340332,-15,6731.0,-3.588188648223877,-104,9951.0
6970,0.2794795632362366,-4.539336204528809,-70,6731.0,-3.859764814376831,-25,9951.0
6980,0.2792835831642151,-3.9732866287231445,-96,6731.0,-4.401497840881348,-8,9951.0
6990,0.2788976728916168,-3.0949504375457764,-93,6731.0,-3.4126150608062744,-120,9951.0
7000,0.2784177362918854,-1.7178840637207031,-38,6731.0,-3.1503355503082275,-117,9951.0
7010,0.27789923548698425,-1.54819655418396,15,6731.0,-2.121901750564575,-2,9951.0
7020,0.27820083498954773,-0.864804208278656,-35,6731.0,-0.8633321523666382,114,9951.0
7030,0.27778181433677673,2.0507235527038574,-47,6731.0,-0.9227455258369446,-116,9951.0
7040,0.27725332975387573,1.7861707210540771,47,6731.0,-1.9890272617340088,-67,9951.0
7050,0.27667343616485596,-0.07856922596693039,105,6731.0,-1.2003575563430786,-92,9951.0
7060,0.2768067419528961,-0.8214239478111267,84,6731.0,-0.17757467925548553,6,9951.0
7070,0.27620217204093933,-1.2257328033447266,-71,6731.0,-2.4907379150390625,26,9951.0
7080,0.27537718415260315,-3.160757303237915,-128,6731.0,-0.19148708879947662,85,9951.0
7090,0.27484431862831116,-3.5506319999694824,-162,6731.0,1.6677203178405762,-23,9951.0
7100,0.274183064699173,-3.6381094455718994,-84,6731.0,4.403936386108398,-7,9951.0
7110,0.27086684107780457,-3.455132484436035,5,6731.0,7.3624725341796875,129,9951.0
7120,0.2703445851802826,-3.33565616607666,-20,6731.0,6.129589080810547,156,9951.0
7130,0.2692781686782837,0.1295972466468811,-61,6731.0,5.196004390716553,34,9951.0
7140,0.268555611371994,-0.1115369126200676,-2,6731.0,2.103052854537964,-33,9951.0
7150,0.2681238055229187,0.39678892493247986,90,6731.0,2.4620590209960938,31,9951.0
7160,0.26718592643737793,1.9052999019622803,111,6731.0,0.04620690643787384,84,9951.0
7170,0.266340434551239,3.50419545173645,36,6731.0,-0.8401256203651428,-18,9951.0
7180,0.26541224122047424,5.042445182800293,127,6731.0,0.7353680729866028,-7,9951.0
7190,0.264791339635849,7.048783302307129,187,6731.0,2.65971302986145,153,9951.0
7200,0.26221343874931335,7.904296398162842,129,6731.0,4.412335395812988,163,9951.0
7210,0.260966032743454,6.137123107910156,45,6731.0,8.359367370605469,130,9951.0
7220,0.25988975167274475,4.083258152008057,80,6731.0,10.210121154785156,80,9951.0
7230,0.25921711325645447,2.403992176055908,124,6731.0,10.356815338134766,160,9951.0
7240,0.2566772699356079,1.6932262182235718,16,6731.0,11.889143943786621,279,9951.0
7250,0.25553593039512634,2.811965227127075,21,6731.0,12.50069808959961,123,9951.0
7260,0.25447073578834534,3.868342399597168,107,6731.0,10.494277954101562,131,9951.0
7270,0.2536323368549347,2.5392210483551025,75,6731.0,10.820313453674316,221,9951.0
7280,0.2535495460033417,-0.7689146399497986,-105,6731.0,10.306231498718262,35,9951.0
7290,0.2525278627872467,-0.875967264175415,55,6731.0,10.700854301452637,102,9951.0
7300,0.2523069679737091,-1.0639350414276123,43,6731.0,5.9813232421875,200,9951.0
7310,0.2517062723636627,1.9944177865982056,-31,6731.0,6.062600612640381,201,9951.0
7320,0.251373827457428,0.5367812514305115,101,6731.0,5.975786209106445,36,9951.0
7330,0.2517419755458832,0.7353530526161194,46,6731.0,5.109798908233643,142,9951.0
7340,0.2516925036907196,1.3815555572509766,-54,6731.0,6.7515034675598145,100,9951.0
7350,0.2517346143722534,1.7161906957626343,116,6731.0,1.8996599912643433,45,9951.0
7360,0.25187942385673523,3.2245917320251465,27,6731.0,-0.04558718204498291,109,9951.0
7370,0.2513788640499115,3.880819320678711,18,6731.0,0.7254979014396667,-17,9951.0
7380,0.25163453817367554,5.726561069488525,147,6731.0,-0.58829665184021,-75,9951.0
7390,0.25179046392440796,6.397497653961182,63,6731.0,-1.8354765176773071,54,9951.0
7400,0.2518840432167053,3.81548810005188,11,6731.0,-0.9911054372787476,-145,9951.0
7410,0.25147545337677,-0.2779557704925537,31,6731.0,-2.205732822418213,-80,9951.0
7420,0.25142285227775574,-1.4032953977584839,-27,6731.0,-0.18070286512374878,110,9951.0
7430,0.2512968182563782,-2.344569444656372,-68,6731.0,1.210893154144287,-10,9951.0
7440,0.2511953115463257,-3.0576014518737793,-11,6731.0,-1.0355565547943115,-31,9951.0
7450,0.251131147146225,-2.1168766021728516,-30,6731.0,-0.46560224890708923,71,9951.0
7460,0.2509375512599945,-0.7929932475090027,-39,6731.0,-1.7393646240234375,-108,9951.0
7470,0.2508736848831177,-1.460693120956421,72,6731.0,0.089553602039814,-127,9951.0
7480,0.2507375478744507,-0.5750951766967773,11,6731.0,-0.8696992993354797,42,9951.0
7490,0.2505650818347931,-0.7700880169868469,-57,6731.0,-2.761842966079712,-15,9951.0
7500,0.2507423162460327,-1.7481099367141724,62,6731.0,-3.835956335067749,-75,9951.0
7510,0.25050413608551025,-1.1117324829101562,-79,6731.0,-3.6971170902252197,92,9951.0
7520,0.25010472536087036,-1.5549851655960083,-134,6731.0,-4.5395965576171875,1,9951.0
7530,0.24950218200683594,-0.24658295512199402,30,6731.0,-2.2347145080566406,-63,9951.0
7540,0.24908113479614258,1.556601881980896,22,6731.0,-2.695674419403076,71,9951.0
7550,0.24769560992717743,2.7692313194274902,14,6731.0,-1.3622446060180664,-2,9951.0
7560,0.24721291661262512,2.790139675140381,126,6731.0,1.1703271865844727,-45,9951.0
7570,0.24648138880729675,3.2619078159332275,48,6731.0,1.835345983505249,66,9951.0
7580,0.24591726064682007,1.5878534317016602,-12,6731.0,4.742865562438965,182,9951.0
7590,0.24570545554161072,2.0790886878967285,21,6731.0,7.988000869750977,85,9951.0
7600,0.2450675517320633,4.7868828773498535,147,6731.0,6.392205715179443,103,9951.0
7610,0.244774729013443,5.397541522979736,70,6731.0,7.822733402252197,202,9951.0
7620,0.24404409527778625,6.508119106292725,60,6731.0,6.293131351470947,80,9951.0
7630,0.24368950724601746,6.371054649353027,204,6731.0,7.835708141326904,68,9951.0
7640,0.24344928562641144,5.308032035827637,87,6731.0,8.76122760772705,195,9951.0
7650,0.24267588555812836,6.110636234283447,9,6731.0,6.305739879608154,1,9951.0
7660,0.24199756979942322,2.481517791748047,108,6731.0,6.00275993347168,149,9951.0
7670,0.24143600463867188,-0.4509778320789337,-11,6731.0,5.614950180053711,178,9951.0
7680,0.2419234812259674,-1.0483334064483643,-70,6731.0,5.525468349456787,15,9951.0
7690,0.24159978330135345,-2.1385648250579834,30,6731.0,2.8342833518981934,-19,9951.0
7700,0.2413932830095291,-2.006193161010742,-83,6731.0,1.1935914754867554,122,9951.0
7710,0.24134789407253265,-2.3460164070129395,-62,6731.0,3.5942492485046387,-7,9951.0
7720,0.24301035702228546,-1.544941782951355,30,6731.0,0.6585716009140015,-2,9951.0
7730,0.24295011162757874,0.1478748917579651,-62,6731.0,-2.1754345893859863,44,9951.0
7740,0.2429414838552475,1.5035033226013184,8,6731.0,-3.351924419403076,-145,9951.0
7750,0.24280494451522827,-0.09119347482919693,42,6731.0,-4.0916924476623535,-34,9951.0
7760,0.24255694448947906,-0.6549639701843262,-129,6731.0,-4.425997734069824,24,9951.0
7770,0.24149177968502045,-3.416379928588867,-102,6731.0,-4.1247663497924805,-106,9951.0
7780,0.2412240207195282,-3.7325849533081055,-45,6731.0,-0.9643803238868713,-32,9951.0
7790,0.24094639718532562,-2.0705573558807373,-27,6731.0,2.0121145248413086,104,9951.0
7800,0.24081090092658997,-0.9983310699462891,-45,6731.0,3.874689817428589,-15,9951.0
7810,0.23902353644371033,2.020174026489258,2,6731.0,4.129670143127441,57,9951.0
7820,0.23874442279338837,4.069243431091309,81,6731.0,2.8686327934265137,111,9951.0
7830,0.23841238021850586,2.2322278022766113,-21,6731.0,0.8455986380577087,94,9951.0
7840,0.2380666583776474,-0.2421620488166809,-65,6731.0,1.848574161529541,-38,9951.0
7850,0.2343677431344986,-0.9200003743171692,36,6731.0,0.6707855463027954,-47,9951.0
7860,0.23365887999534607,-3.888831615447998,-89,6731.0,-0.14700444042682648,4,9951.0
7870,0.23256146907806396,-5.671151638031006,-139,6731.0,-0.002220689784735441,-76,9951.0
7880,0.2318473756313324,-8.134028434753418,-69,6731.0,2.111178159713745,16,9951.0
7890,0.23132412135601044,-7.200633525848389,-145,6731.0,4.540113925933838,140,9951.0
7900,0.23030172288417816,-8.130378723144531,-157,6731.0,6.7177324295043945,31,9951.0
7910,0.22940361499786377,-8.049020767211914,-46,6731.0,7.700355529785156,28,9951.0
7920,0.2289237082004547,-5.838568210601807,-110,6731.0,6.7077836990356445,159,9951.0
7930,0.22814950346946716,-4.094760894775391,-112,6731.0,3.7130684852600098,33,9951.0
7940,0.22624419629573822,-3.433507204055786,-39,6731.0,2.9755637645721436,125,9951.0
7950,0.22548507153987885,-4.258166313171387,-167,6731.0,3.4706759452819824,86,9951.0
7960,0.22491461038589478,-6.706974506378174,-31,6731.0,6.385855674743652,31,9951.0
7970,0.22444665431976318,-5.219221591949463,-24,6731.0,8.927007675170898,207,9951.0
7980,0.2237125188112259,-1.6887338161468506,-47,6731.0,10.249811172485352,109,9951.0
7990,0.221230149269104,-0.17209455370903015,50,6731.0,6.509051322937012,193,9951.0
8000,0.22088032960891724,0.8031615614891052,-39,6731.0,4.960368633270264,101,9951.0
8010,0.2203342318534851,-2.174180507659912,13,6731.0,4.341218948364258,-32,9951.0
8020,0.2194378823041916,-1.2973722219467163,-63,6731.0,0.5062916278839111,98,9951.0
8030,0.2169044464826584,-1.4991005659103394,-1,6731.0,1.1889053583145142,-66,9951.0
8040,0.21652008593082428,-0.14267383515834808,-54,6731.0,1.9503912925720215,135,9951.0
8050,0.21588638424873352,1.0492923259735107,-74,6731.0,9.471932411193848,119,9951.0
8060,0.21569040417671204,3.168665885925293,93,6731.0,8.857318878173828,257,9951.0
8070,0.21569779515266418,6.70306921005249,97,6731.0,12.50976276397705,188,9951.0
8080,0.21478518843650818,8.896138191223145,208,6731.0,12.805255889892578,237,9951.0
8090,0.21541447937488556,11.457818031311035,128,6731.0,15.381309509277344,257,9951.0
8100,0.21518933773040771,12.579206466674805,286,6731.0,11.651785850524902,160,9951.0
8110,0.21508152782917023,11.103109359741211,138,6731.0,13.191948890686035,85,9951.0
8120,0.21436747908592224,10.23589038848877,160,6731.0,10.803125381469727,109,9951.0
8130,0.21450147032737732,7.163476467132568,106,6731.0,8.024672508239746,170,9951.0
8140,0.2144395411014557,1.5402990579605103,15,6731.0,6.701844692230225,-20,9951.0
8150,0.21460752189159393,-0.09679198265075684,-1,6731.0,3.03007435798645,167,9951.0
8160,0.2167166769504547,-2.1097588539123535,-48,6731.0,-0.03259895741939545,21,9951.0
8170,0.2167099267244339,-0.15470971167087555,100,6731.0,-1.1367037296295166,-87,9951.0
8180,0.21696911752223969,1.7562549114227295,-37,6731.0,-2.489116907119751,-92,9951.0
8190,0.21715028584003448,-0.1925612986087799,25,6731.0,0.5075342059135437,0,9951.0
8200,0.21873317658901215,-0.0030560290906578302,25,6731.0,2.6148524284362793,64,9951.0
8210,0.2187012881040573,1.607530951499939,-50,6731.0,2.1708056926727295,13,9951.0
8220,0.21969492733478546,2.9283318519592285,110,6731.0,2.987107276916504,4,9951.0
8230,0.2199186533689499,4.831036567687988,98,6731.0,5.173851013183594,205,9951.0
8240,0.2200925201177597,4.25861120223999,-27,6731.0,7.278764247894287,167,9951.0
8250,0.21937021613121033,3.191080331802368,72,6731.0,7.077088356018066,147,9951.0
8260,0.22007377445697784,2.72644305229187,53,6731.0,4.881161212921143,157,9951.0
8270,0.22050252556800842,2.942676067352295,-3,6731.0,4.6306562423706055,92,9951.0
8280,0.2210521697998047,2.710167646408081,57,6731.0,2.465487241744995,-61,9951.0
8290,0.22120711207389832,1.0674479007720947,32,6731.0,-1.7172709703445435,78,9951.0
8300,0.22133781015872955,0.04482276737689972,-112,6731.0,-1.182790756225586,85,9951.0
8310,0.22162170708179474,-3.2146596908569336,-3,6731.0,0.2698606550693512,-102,9951.0
8320,0.2215898185968399,-5.295692443847656,15,6731.0,3.414937734603882,-21,9951.0
8330,0.22150260210037231,-4.562478542327881,-168,6731.0,0.8399853706359863,-7,9951.0
8340,0.21930654346942902,-7.712891101837158,-196,6731.0,1.5262451171875,-45,9951.0
8350,0.2192649245262146,-8.197441101074219,-31,6731.0,0.12185198813676834,14,9951.0
8360,0.21905720233917236,-7.117720603942871,-132,6731.0,-0.03549077361822128,95,9951.0
8370,0.21868641674518585,-6.281615257263184,-151,6731.0,0.6315790414810181,-35,9951.0
8380,0.21769532561302185,-7.395076274871826,-53,6731.0,0.06357485055923462,-135,9951.0
8390,0.2174810767173767,-6.867185115814209,-43,6731.0,-1.702318787574768,10,9951.0
8400,0.2170356810092926,-4.556631565093994,-124,6731.0,-0.2986887991428375,63,9951.0
8410,0.21670794486999512,-2.5107033252716064,2,6731.0,2.7716591358184814,-3,9951.0
8420,0.21630945801734924,-2.098085880279541,-18,6731.0,5.352799892425537,172,9951.0
8430,0.21493682265281677,-2.931485652923584,-52,6731.0,6.44222354888916,217,9951.0
8440,0.21442978084087372,-0.3580085039138794,-109,6731.0,9.010116577148438,62,9951.0
8450,0.21437415480613708,1.6316027641296387,93,6731.0,9.346413612365723,177,9951.0
8460,0.21435096859931946,1.3392516374588013,22,6731.0,10.002391815185547,202,9951.0
8470,0.212751567363739,1.0436562299728394,-51,6731.0,6.88555383682251,41,9951.0
8480,0.21255333721637726,-3.14213490486145,-23,6731.0,5.370340347290039,159,9951.0
8490,0.2119176834821701,-5.520835876464844,-119,6731.0,2.8232223987579346,41,9951.0
8500,0.21176475286483765,-9.697546005249023,-212,6731.0,3.0119521617889404,-47,9951.0
8510,0.2099437564611435,-10.606446266174316,-115,6731.0,0.9727046489715576,1,9951.0
8520,0.20931734144687653,-9.501374244689941,-158,6731.0,1.790968418121338,101,9951.0
8530,0.20858213305473328,-6.884377479553223,-99,6731.0,2.2089009284973145,-63,9951.0
8540,0.20780138671398163,-4.650691032409668,-38,6731.0,1.8759628534317017,29,9951.0
8550,0.20706376433372498,-0.8977156281471252,-86,6731.0,0.5655359029769897,71,9951.0
8560,0.206255704164505,-0.5894483327865601,77,6731.0,0.9524503946304321,79,9951.0
8570,0.20543457567691803,0.7658487558364868,-16,6731.0,2.8990092277526855,130,9951.0
8580,0.2048366516828537,-1.1503633260726929,-17,6731.0,4.408112525939941,-26,9951.0
8590,0.20410886406898499,-1.8657760620117188,8,6731.0,4.114826202392578,179,9951.0
8600,0.20294450223445892,-2.670262336730957,-123,6731.0,4.507025718688965,143,9951.0
8610,0.20225711166858673,-5.108954429626465,1,6731.0,3.5861213207244873,66,9951.0
8620,0.20165161788463593,-6.376370429992676,-124,6731.0,2.542830467224121,-27,9951.0
8630,0.20105698704719543,-7.5138139724731445,-107,6731.0,-0.6320369839668274,47,9951.0
8640,0.20043300092220306,-3.8073477745056152,-10,6731.0,-4.054219722747803,-5,9951.0
8650,0.20095786452293396,-1.094771385192871,-17,6731.0,-3.333012342453003,-191,9951.0
8660,0.2004089504480362,0.8083704113960266,31,6731.0,-2.955570936203003,39,9951.0
8670,0.19976523518562317,2.520493984222412,11,6731.0,-0.9546524286270142,-31,9951.0
8680,0.19914086163043976,3.4413914680480957,156,6731.0,0.7949729561805725,-22,9951.0
8690,0.200805202126503,7.704983711242676,54,6731.0,1.951917290687561,134,9951.0
8700,0.20035414397716522,7.930922031402588,169,6731.0,3.5652990341186523,19,9951.0
8710,0.19992898404598236,5.979668140411377,90,6731.0,4.003995418548584,134,9951.0
8720,0.19986481964588165,2.8495736122131348,0,6731.0,1.6315550804138184,-53,9951.0
8730,0.20135098695755005,-2.0685157775878906,22,6731.0,-0.6605803370475769,20,9951.0
8740,0.20138877630233765,-3.6702113151550293,-150,6731.0,-5.4265594482421875,-98,9951.0
8750,0.20093218982219696,-7.889965534210205,-53,6731.0,-8.217060089111328,-150,9951.0
8760,0.20090027153491974,-9.322266578674316,-185,6731.0,-10.722636222839355,-160,9951.0
8770,0.20063316822052002,-8.547894477844238,-60,6731.0,-11.306391716003418,-154,9951.0
8780,0.20399735867977142,-3.874349355697632,-12,6731.0,-10.142115592956543,-119,9951.0
8790,0.2039075791835785,1.032861590385437,-19,6731.0,-9.156049728393555,-152,9951.0
8800,0.20382404327392578,3.162557601928711,148,6731.0,-4.919410228729248,-92,9951.0
8810,0.20373281836509705,8.733790397644043,91,6731.0,-0.9900323152542114,61,9951.0
8820,0.2070675790309906,10.422187805175781,207,6731.0,1.8668586015701294,-47,9951.0
8830,0.20710429549217224,10.90588092803955,228,6731.0,2.127426862716675,82,9951.0
8840,0.2070261538028717,10.571889877319336,96,6731.0,0.9686098098754883,83,9951.0
8850,0.20694485306739807,7.964066028594971,193,6731.0,1.2556830644607544,-38,9951.0
8860,0.2069368064403534,5.786474704742432,92,6731.0,-0.5278386473655701,33,9951.0
8870,0.2118014395236969,4.507214069366455,6,6731.0,-1.492187738418579,-24,9951.0
8880,0.21227510273456573,2.8124923706054688,76,6731.0,-0.3764774203300476,-60,9951.0
8890,0.21228647232055664,2.730189323425293,55,6731.0,-0.33924317359924316,14,9951.0
8900,0.2127939760684967,3.4986073970794678,-7,6731.0,-0.7791566848754883,30,9951.0
8910,0.21415802836418152,1.8354218006134033,88,6731.0,0.6704635620117188,-109,9951.0
8920,0.21469593048095703,3.2347426414489746,68,6731.0,-2.252385139465332,35,9951.0
8930,0.21515938639640808,3.155524969100952,-9,6731.0,-0.779000997543335,68,9951.0
8940,0.2162848860025406,-0.049218639731407166,30,6731.0,-2.85359263420105,-153,9951.0
8950,0.221995547413826,-0.920291543006897,33,6731.0,-4.234392166137695,8,9951.0
8960,0.22438500821590424,-0.3391363322734833,-48,6731.0,-2.638460636138916,17,9951.0
8970,0.22453820705413818,-1.9764628410339355,-34,6731.0,-0.7754703760147095,-65,9951.0
8980,0.2249986231327057,0.21560215950012207,81,6731.0,1.2820966243743896,79,9951.0
8990,0.2256561815738678,1.954202651977539,37,6731.0,3.515626907348633,149,9951.0
9000,0.22641442716121674,1.3205080032348633,-33,6731.0,6.68934965133667,169,9951.0
9010,0.22727161645889282,0.33658143877983093,-55,6731.0,6.128504753112793,18,9951.0
9020,0.22794662415981293,-1.9418529272079468,12,6731.0,6.984609127044678,70,9951.0
9030,0.22875139117240906,-3.5493154525756836,-8,6731.0,6.340226650238037,142,9951.0
9040,0.23387403786182404,-1.4795588254928589,-122,6731.0,4.899747848510742,178,9951.0
9050,0.2348099648952484,-1.4660048484802246,-56,6731.0,1.5990891456604004,21,9951.0
9060,0.2357003539800644,-0.8201730847358704,24,6731.0,1.5381848812103271,-105,9951.0
9070,0.23678170144557953,-1.0165777206420898,18,6731.0,-1.459535837173462,-17,9951.0
9080,0.23770339787006378,0.2672261595726013,41,6731.0,-1.4771778583526611,112,9951.0
9090,0.23708069324493408,1.1194325685501099,-25,6731.0,-3.4886703491210938,-31,9951.0
9100,0.2378697246313095,-0.507810115814209,-56,6731.0,-0.06765422224998474,-143,9951.0
9110,0.238440603017807,-1.140149474143982,22,6731.0,1.227373480796814,-52,9951.0
9120,0.23912180960178375,-0.5675460696220398,65,6731.0,2.060883045196533,46,9951.0
9130,0.24069686233997345,-2.9035465717315674,-19,6731.0,2.5303308963775635,164,9951.0
9140,0.24137535691261292,-2.963374614715576,-82,6731.0,3.978563070297241,137,9951.0
9150,0.24193111062049866,-3.797991991043091,-152,6731.0,7.20853853225708,36,9951.0
9160,0.24238531291484833,-3.197632312774658,-32,6731.0,6.861387252807617,-4,9951.0
9170,0.24402251839637756,-1.985507845878601,25,6731.0,8.278366088867188,2,9951.0
9180,0.24473924934864044,-1.3168392181396484,78,6731.0,5.976511478424072,86,9951.0
9190,0.24514730274677277,0.48298630118370056,16,6731.0,3.6886465549468994,118,9951.0
9200,0.24517081677913666,-1.2855072021484375,-99,6731.0,3.1018247604370117,88,9951.0
9210,0.24602600932121277,-4.147117614746094,-193,6731.0,0.06998833268880844,33,9951.0
9220,0.24642543494701385,-7.969531536102295,-124,6731.0,-3.552433729171753,-150,9951.0
9230,0.24694137275218964,-9.028772354125977,-108,6731.0,-2.2431795597076416,-132,9951.0
9240,0.24718831479549408,-10.971403121948242,-117,6731.0,-4.149228572845459,74,9951.0
9250,0.24754194915294647,-10.805291175842285,-226,6731.0,-4.333434581756592,34,9951.0
9260,0.24947136640548706,-7.736574172973633,-236,6731.0,-4.872682094573975,-100,9951.0
9270,0.2502674460411072,-7.258776664733887,-164,6731.0,0.44241467118263245,-58,9951.0
9280,0.2505696713924408,-5.47405481338501,-10,6731.0,-1.0740820169448853,-97,9951.0
9290,0.25110870599746704,-5.055852890014648,-29,6731.0,0.6053910851478577,159,9951.0
9300,0.25150740146636963,-7.208982467651367,-147,6731.0,2.726938009262085,119,9951.0
9310,0.25206857919692993,-8.348747253417969,-239,6731.0,2.1954805850982666,173,9951.0
9320,0.2527507543563843,-9.202999114990234,-228,6731.0,0.780709981918335,6,9951.0
9330,0.2532287836074829,-9.375784873962402,-135,6731.0,1.2843334674835205,-97,9951.0
9340,0.25373345613479614,-8.586851119995117,-20,6731.0,-2.167886734008789,-79,9951.0
9350,0.252941370010376,-6.24440336227417,-29,6731.0,-1.6520150899887085,-28,9951.0
9360,0.25359731912612915,-3.2918026447296143,-139,6731.0,-6.231028079986572,24,9951.0
9370,0.2539632022380829,-3.2581145763397217,-128,6731.0,-5.884461879730225,-64,9951.0
9380,0.2544105052947998,-3.8219094276428223,-104,6731.0,-6.623234748840332,-155,9951.0
9390,0.25451186299324036,-6.356131076812744,-36,6731.0,-6.691706657409668,-178,9951.0
9400,0.2550390660762787,-4.772218227386475,20,6731.0,-4.705679893493652,-193,9951.0
9410,0.25553661584854126,-1.4026341438293457,37,6731.0,-4.637585163116455,27,9951.0
9420,0.25600722432136536,1.9061784744262695,-30,6731.0,0.745968222618103,154,9951.0
9430,0.25521472096443176,5.406190395355225,-6,6731.0,3.3525731563568115,149,9951.0
9440,0.25565487146377563,4.995097637176514,58,6731.0,3.5311355590820312,27,9951.0
9450,0.2560102939605713,4.801825523376465,98,6731.0,1.5643564462661743,-39,9951.0
9460,0.2562151849269867,3.3571527004241943,169,6731.0,4.609715461730957,104,9951.0
9470,0.25648003816604614,2.363436222076416,129,6731.0,3.0750670433044434,68,9951.0
9480,0.25529196858406067,6.567966938018799,19,6731.0,1.8646873235702515,192,9951.0
9490,0.2554985284805298,7.464314937591553,64,6731.0,0.8849689364433289,32,9951.0
9500,0.2556660771369934,6.5614705085754395,47,6731.0,2.337249994277954,-62,9951.0
9510,0.25582626461982727,3.8309154510498047,131,6731.0,0.20597319304943085,-100,9951.0
9520,0.25562623143196106,4.125156879425049,94,6731.0,-1.4044865369796753,86,9951.0
9530,0.2558082640171051,3.5850327014923096,-28,6731.0,-3.322052240371704,-16,9951.0
9540,0.2559300661087036,4.46191930770874,-15,6731.0,-0.8492270112037659,13,9951.0
9550,0.25604337453842163,3.1324169635772705,27,6731.0,0.8998761773109436,-18,9951.0
9560,0.2562596797943115,2.7584049701690674,105,6731.0,1.6013743877410889,-22,9951.0
9570,0.25673049688339233,3.627094030380249,119,6731.0,0.692635178565979,-10,9951.0
9580,0.25708499550819397,4.723165512084961,50,6731.0,1.2253161668777466,151,9951.0
9590,0.25748464465141296,4.308398723602295,37,6731.0,3.7236697673797607,43,9951.0
9600,0.25789469480514526,5.846611022949219,126,6731.0,1.7918992042541504,-52,9951.0
9610,0.2570565342903137,7.82988977432251,215,6731.0,2.513261318206787,41,9951.0
9620,0.2575319707393646,10.492037773132324,158,6731.0,0.6918407678604126,105,9951.0
9630,0.2580057680606842,9.426193237304688,91,6731.0,2.1205661296844482,70,9951.0
9640,0.258497416973114,7.444731712341309,93,6731.0,1.979114055633545,-49,9951.0
9650,0.2589668035507202,4.854654312133789,155,6731.0,-0.12125055491924286,-56,9951.0
9660,0.2595613896846771,1.1219278573989868,27,6731.0,-0.21004325151443481,42,9951.0
9670,0.2601885497570038,-0.22431452572345734,-101,6731.0,-0.08110744506120682,149,9951.0
9680,0.2608172595500946,-0.41487616300582886,-62,6731.0,-1.6713608503341675,-76,9951.0
9690,0.2613418698310852,0.4365973472595215,25,6731.0,1.6003531217575073,-68,9951.0
9700,0.2607089579105377,0.15742610394954681,54,6731.0,1.3132424354553223,26,9951.0
9710,0.2611309587955475,-0.44070199131965637,-15,6731.0,0.4431273639202118,76,9951.0
9720,0.26161643862724304,1.602073311805725,-24,6731.0,1.4518343210220337,55,9951.0
9730,0.26217982172966003,1.7913877964019775,19,6731.0,2.4171392917633057,-106,9951.0
9740,0.2605026960372925,2.5436573028564453,61,6731.0,4.560824871063232,47,9951.0
9750,0.26079100370407104,4.335573673248291,134,6731.0,2.321140766143799,156,9951.0
9760,0.2611185312271118,4.032606601715088,43,6731.0,2.087496280670166,7,9951.0
9770,0.2615293860435486,4.194126605987549,27,6731.0,0.5689197182655334,-89,9951.0
9780,0.26193198561668396,4.207636833190918,116,6731.0,-1.0365556478500366,-94,9951.0
9790,0.26237452030181885,4.5671467781066895,127,6731.0,-2.707014322280884,52,9951.0
9800,0.262708455324173,5.719981670379639,80,6731.0,-3.0799643993377686,-10,9951.0
9810,0.26296430826187134,6.584967136383057,36,6731.0,-3.240234375,-7,9951.0
9820,0.26320940256118774,4.0706071853637695,64,6731.0,-0.7740702033042908,-60,9951.0
9830,0.2641170620918274,0.9755582213401794,93,6731.0,-1.5733308792114258,-77,9951.0
9840,0.2645726501941681,1.665605902671814,40,6731.0,0.2826152741909027,85,9951.0
9850,0.2650579810142517,-1.2981277704238892,-96,6731.0,-0.14080721139907837,70,9951.0
9860,0.2655024528503418,-2.1179637908935547,-124,6731.0,1.1289721727371216,-42,9951.0
9870,0.26735973358154297,-2.656057596206665,32,6731.0,0.9700790047645569,-44,9951.0
9880,0.2677355408668518,-1.44407057762146,-46,6731.0,-0.20083999633789062,57,9951.0
9890,0.2681051790714264,-0.760927140712738,-79,6731.0,1.0249419212341309,79,9951.0
9900,0.268790066242218,-2.13271164894104,-50,6731.0,1.1070477962493896,-88,9951.0
9910,0.26932579278945923,-3.072345495223999,13,6731.0,-3.801532745361328,-131,9951.0
9920,0.269906222820282,-2.2492570877075195,6,6731.0,-6.135026454925537,-95,9951.0
9930,0.27045634388923645,-0.13440243899822235,2,6731.0,-5.738802433013916,-138,9951.0
9940,0.27109333872795105,4.419029712677002,56,6731.0,-4.4253458976745605,-142,9951.0
9950,0.27184849977493286,4.848791122436523,133,6731.0,-4.662099838256836,-93,9951.0
9960,0.2723951041698456,3.657195806503296,109,6731.0,-5.509246349334717,-116,9951.0
9970,0.2731485068798065,2.4498767852783203,29,6731.0,-4.930291175842285,9,9951.0
9980,0.273796409368515,2.3380582332611084,-43,6731.0,-2.8053719997406006,-5,9951.0
9990,0.27436184883117676,-0.591102659702301,1,6731.0,0.6566760540008545,-114,9951.0
10000,0.27643588185310364,-2.3940632343292236,6,6731.0,1.0613569021224976,-83,9951.0
10010,0.2771265208721161,-5.523925304412842,-23,6731.0,1.4930379390716553,83,9951.0
10020,0.27781862020492554,-7.089211940765381,-158,6731.0,0.7740325331687927,109,9951.0
10030,0.27829766273498535,-7.911442756652832,-185,6731.0,1.994901180267334,-14,9951.0
10040,0.278748482465744,-5.869987487792969,-97,6731.0,4.607049465179443,-20,9951.0
10050,0.2799609303474426,-3.3495819568634033,-3,6731.0,2.338111639022827,22,9951.0
10060,0.28058573603630066,-1.1573283672332764,44,6731.0,2.1730844974517822,61,9951.0
10070,0.2811470925807953,-0.043066516518592834,-41,6731.0,0.6955475211143494,137,9951.0
10080,0.28155580163002014,1.421204924583435,1,6731.0,3.2442197799682617,0,9951.0
10090,0.2838349938392639,1.9084129333496094,77,6731.0,1.0672847032546997,-108,9951.0
10100,0.2860074043273926,2.148089647293091,105,6731.0,-2.434937000274658,-74,9951.0
10110,0.2888292074203491,1.8503124713897705,33,6731.0,-2.7287259101867676,8,9951.0
10120,0.2898400127887726,3.5678794384002686,-12,6731.0,-2.46842885017395,-12,9951.0
10130,0.29191285371780396,1.1996605396270752,-11,6731.0,-0.22267641127109528,-126,9951.0
10140,0.29175007343292236,-1.3435590267181396,70,6731.0,4.786920547485352,2,9951.0
10150,0.2924073040485382,0.02598932757973671,41,6731.0,5.8287224769592285,103,9951.0
10160,0.2953128516674042,-0.4878291189670563,-20,6731.0,12.762022972106934,306,9951.0
10170,0.2963891625404358,-3.3998754024505615,-139,6731.0,19.71178436279297,412,9951.0
10180,0.29740792512893677,-8.49549388885498,-223,6731.0,23.290660858154297,450,9951.0
10190,0.29845207929611206,-12.814352989196777,-136,6731.0,20.732376098632812,206,9951.0
10200,0.29947373270988464,-12.606528282165527,-106,6731.0,18.66672706604004,282,9951.0
10210,0.30035436153411865,-11.218266487121582,-97,6731.0,16.53058433532715,271,9951.0
10220,0.3013850748538971,-7.021389007568359,-126,6731.0,11.596915245056152,290,9951.0
10230,0.30204713344573975,-4.444380283355713,-126,6731.0,8.575766563415527,177,9951.0
10240,0.30267074704170227,-1.4023505449295044,-54,6731.0,5.839893817901611,41,9951.0
10250,0.30331361293792725,0.7214357852935791,63,6731.0,3.039167642593384,-64,9951.0
10260,0.30395030975341797,2.056535243988037,70,6731.0,-1.2955758571624756,3,9951.0
10270,0.30434659123420715,5.357569217681885,24,6731.0,-6.659877300262451,-38,9951.0
10280,0.30507776141166687,5.842695236206055,41,6731.0,-8.605452537536621,-116,9951.0
10290,0.30590611696243286,4.238736152648926,86,6731.0,-9.530348777770996,-271,9951.0
10300,0.30674123764038086,0.27892404794692993,88,6731.0,-8.308716773986816,-121,9951.0
10310,0.3084350824356079,-0.6449607014656067,26,6731.0,-6.261752605438232,-39,9951.0
10320,0.3091643750667572,-1.5839331150054932,-88,6731.0,-4.920047283172607,-15,9951.0
10330,0.30988508462905884,-3.019274950027466,-140,6731.0,-3.210949420928955,35,9951.0
10340,0.3105984330177307,-2.229811906814575,-50,6731.0,0.6811951994895935,-91,9951.0
10350,0.3113887310028076,-1.6072640419006348,-48,6731.0,1.2730025053024292,-42,9951.0
10360,0.31275829672813416,-1.1297181844711304,51,6731.0,2.437150716781616,-7,9951.0
10370,0.3135730028152466,-0.07259385287761688,51,6731.0,-0.3963374197483063,29,9951.0
10380,0.3142051100730896,2.1819913387298584,8,6731.0,-7.210655212402344,-146,9951.0
10390,0.3149544596672058,1.2435694932937622,-43,6731.0,-8.494166374206543,-233,9951.0
10400,0.3162524998188019,1.4862463474273682,21,6731.0,-10.646068572998047,-283,9951.0
10410,0.3169747292995453,1.1761475801467896,108,6731.0,-12.008336067199707,-170,9951.0
10420,0.31773269176483154,2.6201725006103516,85,6731.0,-13.30899715423584,-103,9951.0
10430,0.3186160922050476,1.5444653034210205,-31,6731.0,-10.338693618774414,-109,9951.0
10440,0.31961438059806824,3.182506561279297,0,6731.0,-4.581237316131592,-115,9951.0
10450,0.32255300879478455,2.3891401290893555,-11,6731.0,-1.9092553853988647,-97,9951.0
10460,0.32347801327705383,1.9160943031311035,110,6731.0,0.9378271102905273,-56,9951.0
10470,0.3244885504245758,0.23022519052028656,62,6731.0,0.5002777576446533,21,9951.0
10480,0.3254394829273224,-1.5385936498641968,-54,6731.0,-2.6732006072998047,55,9951.0
10490,0.3259989321231842,-3.8061795234680176,-180,6731.0,-5.294632434844971,-22,9951.0
10500,0.32710710167884827,-6.0733113288879395,-137,6731.0,-8.551953315734863,-213,9951.0
10510,0.3281678259372711,-7.057820796966553,-113,6731.0,-11.80831241607666,-235,9951.0
10520,0.3293081521987915,-7.2167277336120605,13,6731.0,-14.26251220703125,-314,9951.0
10530,0.33068951964378357,-4.272724151611328,-14,6731.0,-14.293705940246582,-189,9951.0
10540,0.33169206976890564,-1.4106820821762085,-105,6731.0,-15.53138256072998,-179,9951.0
10550,0.33257803320884705,-1.4532657861709595,-88,6731.0,-12.90341567993164,-201,9951.0
10560,0.33354172110557556,-1.2768324613571167,-41,6731.0,-11.467726707458496,-199,9951.0
10570,0.3345251679420471,0.011376114562153816,41,6731.0,-8.507085800170898,-202,9951.0
10580,0.33641764521598816,1.807283878326416,150,6731.0,-7.078186511993408,-147,9951.0
10590,0.33733806014060974,3.5164198875427246,99,6731.0,-2.6383378505706787,88,9951.0
10600,0.3381582498550415,0.9410509467124939,107,6731.0,-0.9308581352233887,55,9951.0
10610,0.338879257440567,2.952211380004883,-43,6731.0,2.9119203090667725,117,9951.0
10620,0.3372984230518341,2.2999074459075928,-136,6731.0,2.4240658283233643,164,9951.0
10630,0.3376601040363312,0.4368405044078827,-39,6731.0,6.030202865600586,72,9951.0
10640,0.338024377822876,0.40221962332725525,70,6731.0,5.550142288208008,-43,9951.0
10650,0.33830633759498596,-0.6830449104309082,66,6731.0,2.471709728240967,-93,9951.0
10660,0.3393946886062622,-0.3521486520767212,103,6731.0,-1.1709363460540771,35,9951.0
10670,0.3395446836948395,1.5112392902374268,-82,6731.0,-1.2011845111846924,112,9951.0
10680,0.3398127555847168,0.4755264222621918,-25,6731.0,-2.685419797897339,48,9951.0
10690,0.3401416838169098,0.19936919212341309,38,6731.0,-2.2701168060302734,-121,9951.0
10700,0.34044715762138367,1.3131238222122192,87,6731.0,-1.7765477895736694,-109,9951.0
10710,0.34198346734046936,1.4003411531448364,77,6731.0,-1.1072254180908203,21,9951.0
10720,0.3422827124595642,2.9781665802001953,-7,6731.0,0.08159651607275009,101,9951.0
10730,0.3426036238670349,3.1459412574768066,-24,6731.0,2.210001230239868,59,9951.0
10740,0.34290382266044617,1.2910891771316528,49,6731.0,3.4991912841796875,-25,9951.0
10750,0.34545961022377014,1.1512970924377441,33,6731.0,4.6115312576293945,40,9951.0
10760,0.34596017003059387,1.0134820938110352,25,6731.0,2.5154926776885986,114,9951.0
10770,0.34648701548576355,1.6027112007141113,-41,6731.0,2.2294230461120605,37,9951.0
10780,0.3472450375556946,3.335810899734497,62,6731.0,3.3705596923828125,-19,9951.0
10790,0.34791964292526245,5.553314208984375,165,6731.0,5.075810432434082,166,9951.0
10800,0.34819474816322327,5.826369285583496,138,6731.0,5.329448699951172,129,9951.0
10810,0.34887972474098206,6.189014911651611,10,6731.0,2.134098768234253,178,9951.0
10820,0.3494510054588318,4.327485084533691,41,6731.0,3.359741687774658,-15,9951.0
10830,0.3501226603984833,2.3813939094543457,63,6731.0,0.04117452725768089,-88,9951.0
10840,0.35165777802467346,-0.0646464005112648,55,6731.0,0.9961695671081543,-29,9951.0
10850,0.3522656261920929,0.43695083260536194,-38,6731.0,-0.6325826644897461,97,9951.0
10860,0.3527831435203552,1.2428597211837769,-93,6731.0,3.166337728500366,111,9951.0
10870,0.35331690311431885,1.3705074787139893,25,6731.0,3.637737989425659,24,9951.0
10880,0.3562715947628021,-0.05382489040493965,54,6731.0,2.696498155593872,-69,9951.0
10890,0.3570435345172882,1.2983665466308594,110,6731.0,6.539762496948242,127,9951.0
10900,0.3577236533164978,2.43135142326355,-2,6731.0,3.645031690597534,158,9951.0
10910,0.35824263095855713,3.373051166534424,4,6731.0,3.8668394088745117,167,9951.0
10920,0.35871317982673645,4.548862457275391,25,6731.0,4.520408630371094,-10,9951.0
10930,0.36140331625938416,2.6918137073516846,75,6731.0,2.9468541145324707,7,9951.0
10940,0.36217573285102844,1.5348261594772339,99,6731.0,0.09034696966409683,108,9951.0
10950,0.36280545592308044,-0.5595367550849915,-16,6731.0,1.3756886720657349,70,9951.0
10960,0.36331436038017273,-0.9778843522071838,-113,6731.0,-2.082294225692749,98,9951.0
10970,0.3654094338417053,-3.1545767784118652,-112,6731.0,-4.337892532348633,-58,9951.0
10980,0.3674566447734833,-4.916449069976807,-97,6731.0,-2.204939842224121,-17,9951.0
10990,0.36823421716690063,-6.973086357116699,-18,6731.0,-0.37366393208503723,-45,9951.0
11000,0.3690283000469208,-8.371594429016113,-34,6731.0,6.673633098602295,-35,9951.0
11010,0.37035518884658813,-4.880059242248535,-50,6731.0,2.818847894668579,89,9951.0
11020,0.3714616298675537,-5.03681755065918,-172,6731.0,2.069960594177246,128,9951.0
11030,0.3725529611110687,-4.055694580078125,-37,6731.0,1.5578937530517578,108,9951.0
11040,0.37340155243873596,0.5111238360404968,-65,6731.0,1.5104453563690186,70,9951.0
11050,0.3742566704750061,4.022892475128174,-29,6731.0,1.7614468336105347,-63,9951.0
11060,0.3771408200263977,2.997634172439575,30,6731.0,1.249962568283081,-96,9951.0
11070,0.3784312903881073,3.560445785522461,24,6731.0,0.06905216723680496,-72,9951.0
11080,0.37993189692497253,-2.4095232486724854,-20,6731.0,2.1009881496429443,-35,9951.0
11090,0.3814345598220825,-12.185044288635254,-165,6731.0,7.959157943725586,101,9951.0
11100,0.3833808898925781,-20.72869110107422,-315,6731.0,15.745414733886719,124,9951.0
11110,0.3843027651309967,-27.58714485168457,-398,6731.0,17.432437896728516,290,9951.0
11120,0.3855138123035431,-30.17001724243164,-477,6731.0,23.264509201049805,266,9951.0
11130,0.386707067489624,-33.552608489990234,-456,6731.0,23.710269927978516,280,9951.0
11140,0.38784924149513245,-29.529678344726562,-448,6731.0,18.067899703979492,289,9951.0
11150,0.38946181535720825,-24.341976165771484,-358,6731.0,11.735939979553223,240,9951.0
11160,0.39062318205833435,-17.31667709350586,-350,6731.0,10.316643714904785,260,9951.0
11170,0.3917098343372345,-13.904637336730957,-235,6731.0,3.563659429550171,131,9951.0
11180,0.392752081155777,-6.677168846130371,-163,6731.0,-3.5836164951324463,-107,9951.0
11190,0.3925613462924957,-2.862647294998169,-50,6731.0,-9.094701766967773,-108,9951.0
11200,0.3933449983596802,0.08863657712936401,-10,6731.0,-8.582453727722168,-134,9951.0
11210,0.394065260887146,1.053159236907959,119,6731.0,-10.188702583312988,-198,9951.0
11220,0.39467260241508484,2.4954512119293213,120,6731.0,-6.47122049331665,-163,9951.0
11230,0.3942062556743622,5.558649063110352,120,6731.0,-3.1940131187438965,-86,9951.0
11240,0.39447227120399475,3.3215744495391846,149,6731.0,2.7460830211639404,5,9951.0
11250,0.3946087658405304,3.0628714561462402,51,6731.0,6.4566330909729,98,9951.0
11260,0.3945470452308655,4.08508825302124,142,6731.0,5.675401210784912,127,9951.0
11270,0.39451339840888977,5.743769645690918,39,6731.0,2.980945110321045,108,9951.0
11280,0.39497342705726624,7.956439971923828,73,6731.0,4.436786651611328,132,9951.0
11290,0.3949764370918274,8.28125,119,6731.0,-0.5515746474266052,-40,9951.0
11300,0.39497798681259155,7.667448997497559,151,6731.0,-1.2290928363800049,-157,9951.0
11310,0.3950716257095337,7.942751884460449,254,6731.0,-5.005987644195557,-208,9951.0
11320,0.3954215347766876,9.803535461425781,168,6731.0,-8.742805480957031,-109,9951.0
11330,0.39537569880485535,9.035324096679688,111,6731.0,-9.510534286499023,-58,9951.0
11340,0.39538800716400146,9.685883522033691,84,6731.0,-6.49089241027832,-76,9951.0
11350,0.3955775201320648,9.094086647033691,145,6731.0,-8.508979797363281,-243,9951.0
11360,0.3957618176937103,7.3537092208862305,205,6731.0,-6.017224311828613,-253,9951.0
11370,0.3962757885456085,6.299938678741455,131,6731.0,-10.6377592086792,-201,9951.0
11380,0.39637792110443115,5.298724174499512,121,6731.0,-11.497754096984863,-36,9951.0
11390,0.39657989144325256,3.6062722206115723,-16,6731.0,-3.741130828857422,0,9951.0
11400,0.3968920111656189,1.7108311653137207,-47,6731.0,-4.310947418212891,-91,9951.0
11410,0.39829590916633606,0.2093651294708252,54,6731.0,-0.9518038034439087,-65,9951.0
11420,0.39859074354171753,0.6167235970497131,76,6731.0,-1.0283700227737427,-19,9951.0
11430,0.39887502789497375,0.4448939859867096,89,6731.0,3.785653591156006,114,9951.0
11440,0.3991495668888092,8.036103248596191,37,6731.0,-1.2056134939193726,91,9951.0
11450,0.40035107731819153,8.468903541564941,137,6731.0,0.12536385655403137,-83,9951.0
11460,0.4007350206375122,13.118651390075684,268,6731.0,-4.917758464813232,-168,9951.0
11470,0.40100911259651184,15.816277503967285,294,6731.0,-8.080207824707031,-202,9951.0
11480,0.40148070454597473,15.174108505249023,235,6731.0,-16.584131240844727,-127,9951.0
11490,0.4020356833934784,13.021648406982422,139,6731.0,-16.544212341308594,-218,9951.0
11500,0.40150874853134155,8.751402854919434,105,6731.0,-14.877787590026855,-318,9951.0
11510,0.4018653929233551,5.849493503570557,133,6731.0,-13.333992958068848,-320,9951.0
11520,0.40214937925338745,3.0526652336120605,130,6731.0,-10.479084014892578,-212,9951.0
11530,0.4024960994720459,2.970256805419922,82,6731.0,-6.561461925506592,-67,9951.0
11540,0.4037073850631714,1.6329686641693115,-7,6731.0,-2.7567503452301025,71,9951.0
11550,0.40412434935569763,4.005966663360596,-39,6731.0,0.9064804315567017,105,9951.0
11560,0.4044676423072815,4.894266128540039,9,6731.0,2.1827101707458496,40,9951.0
11570,0.40480080246925354,4.750520706176758,146,6731.0,0.41233909130096436,-73,9951.0
11580,0.4052044153213501,5.613674163818359,168,6731.0,2.2648773193359375,12,9951.0
11590,0.4066108167171478,6.418516159057617,163,6731.0,1.797668218612671,40,9951.0
11600,0.40688374638557434,5.322885513305664,51,6731.0,0.14749866724014282,74,9951.0
11610,0.40723443031311035,4.546232223510742,-17,6731.0,-1.497110366821289,16,9951.0
11620,0.40769529342651367,3.0320940017700195,20,6731.0,-4.214995861053467,-35,9951.0
11630,0.4108498692512512,0.869714617729187,26,6731.0,-3.3409230709075928,-188,9951.0
11640,0.41139867901802063,-0.05736272409558296,104,6731.0,-4.767148971557617,-277,9951.0
11650,0.41205909848213196,-0.12333130836486816,67,6731.0,-6.396053791046143,-103,9951.0
11660,0.41278311610221863,-0.2760167717933655,65,6731.0,-4.291645050048828,-60,9951.0
11670,0.4134199023246765,0.23842188715934753,-49,6731.0,-3.0900630950927734,95,9951.0
11680,0.41467100381851196,3.14593768119812,-47,6731.0,-4.439755439758301,103,9951.0
11690,0.4154703915119171,4.101176738739014,-70,6731.0,-2.6317317485809326,75,9951.0
11700,0.4163370430469513,2.1386921405792236,-36,6731.0,1.7467695474624634,84,9951.0
11710,0.41717955470085144,0.07854195684194565,-30,6731.0,2.9247798919677734,22,9951.0
11720,0.41918981075286865,-2.7706315517425537,-82,6731.0,7.422832012176514,69,9951.0
11730,0.4201255738735199,-2.3518972396850586,-36,6731.0,4.474551677703857,5,9951.0
11740,0.4209877848625183,-3.322108745574951,10,6731.0,4.957081317901611,72,9951.0
11750,0.4218847453594208,-3.0421760082244873,-23,6731.0,3.3752529621124268,-11,9951.0
11760,0.42250856757164,-0.3881334662437439,91,6731.0,2.079399585723877,19,9951.0
11770,0.4233867824077606,-1.5612421035766602,66,6731.0,1.8957093954086304,-55,9951.0
11780,0.42424318194389343,-0.3007158935070038,81,6731.0,4.2662529945373535,-30,9951.0
11790,0.42512622475624084,-0.021112950518727303,39,6731.0,-1.4860776662826538,8,9951.0
11800,0.42595264315605164,1.6692527532577515,-23,6731.0,0.049528270959854126,70,9951.0
11810,0.42758727073669434,-0.695485532283783,-19,6731.0,1.3705275058746338,-19,9951.0
11820,0.42849647998809814,-0.5191683173179626,-29,6731.0,0.45009469985961914,-13,9951.0
11830,0.4293757975101471,-2.670489549636841,-91,6731.0,2.0278127193450928,1,9951.0
11840,0.43026769161224365,-4.617767810821533,-114,6731.0,6.11020565032959,198,9951.0
11850,0.42951124906539917,-6.382205486297607,-121,6731.0,7.00818395614624,255,9951.0
11860,0.43025800585746765,-6.353621482849121,-189,6731.0,4.349355220794678,108,9951.0
11870,0.43093055486679077,-8.222762107849121,-145,6731.0,6.033547401428223,127,9951.0
11880,0.4314849376678467,-7.8612380027771,-106,6731.0,4.115859508514404,122,9951.0
11890,0.432715505361557,-7.368043899536133,-188,6731.0,3.301212787628174,168,9951.0
11900,0.43314340710639954,-8.55291748046875,-184,6731.0,4.297398567199707,72,9951.0
11910,0.4335330128669739,-6.2789082527160645,-139,6731.0,0.017353037372231483,73,9951.0
11920,0.4338793158531189,-6.015530109405518,-160,6731.0,-0.913615882396698,59,9951.0
11930,0.43413424491882324,-5.415688514709473,-131,6731.0,-1.9391489028930664,39,9951.0
11940,0.4334462285041809,-6.682220458984375,-155,6731.0,-2.701772451400757,54,9951.0
11950,0.4334285855293274,-7.810836315155029,-192,6731.0,-1.1139370203018188,103,9951.0
11960,0.43326666951179504,-6.90558385848999,-197,6731.0,0.7920817732810974,147,9951.0
11970,0.43299683928489685,-8.144421577453613,-157,6731.0,0.7282111644744873,56,9951.0
11980,0.431185245513916,-5.978200435638428,-66,6731.0,1.5418510437011719,92,9951.0
11990,0.4307553768157959,-2.445474863052368,-65,6731.0,0.7572203278541565,25,9951.0
12000,0.43030574917793274,-1.2660959959030151,13,6731.0,2.1234421730041504,14,9951.0
12010,0.4297708570957184,-2.161936044692993,38,6731.0,0.9190104603767395,-32,9951.0
12020,0.42929497361183167,-1.9621832370758057,37,6731.0,0.1414743959903717,35,9951.0
12030,0.42953938245773315,-4.682162761688232,6,6731.0,0.7084380984306335,-88,9951.0
12040,0.42916205525398254,-6.200384140014648,-1,6731.0,2.303271770477295,-21,9951.0
12050,0.4288182854652405,-4.2515153884887695,-68,6731.0,-0.7175465226173401,-17,9951.0
12060,0.42855241894721985,-5.248918056488037,-119,6731.0,2.3345704078674316,74,9951.0
12070,0.4281430244445801,-6.347173690795898,-172,6731.0,3.262439489364624,142,9951.0
12080,0.42793557047843933,-4.418636798858643,-152,6731.0,1.3165279626846313,122,9951.0
12090,0.42775118350982666,-8.627704620361328,-209,6731.0,4.299897193908691,111,9951.0
12100,0.4274659752845764,-6.885372638702393,-103,6731.0,4.206916332244873,51,9951.0
12110,0.4266682267189026,-5.829935073852539,-53,6731.0,1.919897198677063,37,9951.0
12120,0.42625680565834045,-4.080412864685059,17,6731.0,2.1471500396728516,-94,9951.0
12130,0.42576736211776733,-2.767110586166382,66,6731.0,-4.149327278137207,-55,9951.0
12140,0.4252641797065735,-0.4659452736377716,-67,6731.0,-7.739015579223633,-99,9951.0
12150,0.4248310625553131,-1.9121145009994507,-122,6731.0,-3.121412754058838,64,9951.0
12160,0.42488059401512146,-0.12661734223365784,-39,6731.0,-0.6885599493980408,-143,9951.0
12170,0.4243658185005188,1.0999565124511719,107,6731.0,-1.7916258573532104,-92,9951.0
12180,0.42389458417892456,2.9880785942077637,97,6731.0,0.3219972252845764,-8,9951.0
12190,0.4235599935054779,4.180360794067383,99,6731.0,1.3802891969680786,35,9951.0
12200,0.425217866897583,1.9085707664489746,62,6731.0,1.0821144580841064,129,9951.0
12210,0.4250420331954956,2.1969571113586426,2,6731.0,1.4807791709899902,137,9951.0
12220,0.4249112010002136,0.187190443277359,-74,6731.0,1.665073275566101,80,9951.0
12230,0.4248698353767395,0.2155599743127823,-35,6731.0,-0.1204046979546547,-15,9951.0
12240,0.4248841404914856,0.1453554630279541,36,6731.0,-0.9404661655426025,139,9951.0
12250,0.42738834023475647,-2.809162139892578,16,6731.0,1.2278720140457153,30,9951.0
12260,0.42766737937927246,-3.406782865524292,-4,6731.0,-1.6335861682891846,58,9951.0
12270,0.4280126392841339,-1.4862699508666992,-30,6731.0,-2.941459894180298,39,9951.0
12280,0.4283818304538727,1.7599821090698242,-83,6731.0,-1.4043015241622925,66,9951.0
12290,0.42961829900741577,4.2757391929626465,53,6731.0,-2.0489988327026367,-36,9951.0
12300,0.4299473464488983,5.083327770233154,159,6731.0,-0.5069987177848816,-60,9951.0
12310,0.4302172362804413,7.175701141357422,173,6731.0,-0.5778504014015198,-114,9951.0
12320,0.4303942918777466,6.258360385894775,195,6731.0,0.8443649411201477,-90,9951.0
12330,0.430458664894104,3.457188844680786,97,6731.0,-1.3646230697631836,-23,9951.0
12340,0.43276089429855347,4.781260967254639,182,6731.0,-1.483665943145752,12,9951.0
12350,0.4329642355442047,-0.36101147532463074,56,6731.0,3.2778642177581787,46,9951.0
12360,0.43309342861175537,1.3341008424758911,-8,6731.0,1.9544110298156738,100,9951.0
12370,0.43320006132125854,0.8425524234771729,12,6731.0,-0.6588022112846375,-24,9951.0
12380,0.4356015622615814,2.2603800296783447,-40,6731.0,-1.0633119344711304,69,9951.0
12390,0.4357694685459137,2.0062255859375,-35,6731.0,-3.3507730960845947,1,9951.0
12400,0.43589845299720764,3.536689043045044,-38,6731.0,-4.891997337341309,-128,9951.0
12410,0.43604472279548645,1.9893378019332886,-34,6731.0,-5.138151168823242,-137,9951.0
12420,0.43762949109077454,-0.23445415496826172,30,6731.0,-3.4205899238586426,-104,9951.0
12430,0.43769553303718567,-0.00851642619818449,-2,6731.0,-2.6855456829071045,-55,9951.0
12440,0.43779879808425903,-0.6560540795326233,47,6731.0,-1.6247259378433228,-49,9951.0
12450,0.4379782974720001,0.8420282006263733,110,6731.0,-0.3032885193824768,25,9951.0
12460,0.4381695091724396,0.2778472304344177,92,6731.0,-0.02737603895366192,-28,9951.0
12470,0.44075068831443787,1.8943488597869873,83,6731.0,0.2151872217655182,117,9951.0
12480,0.44115567207336426,4.309885025024414,86,6731.0,-2.2132959365844727,-35,9951.0
12490,0.4415855407714844,4.0733323097229,-12,6731.0,-1.6635677814483643,60,9951.0
12500,0.44204843044281006,4.162169456481934,20,6731.0,-2.2337872982025146,-3,9951.0
12510,0.4438270926475525,6.0041937828063965,25,6731.0,-4.375163555145264,52,9951.0
12520,0.44425034523010254,7.947274684906006,57,6731.0,-2.576852798461914,96,9951.0
12530,0.44475507736206055,6.7194929122924805,48,6731.0,-4.976268768310547,-59,9951.0
12540,0.44531112909317017,4.576410293579102,153,6731.0,-2.5963521003723145,-90,9951.0
12550,0.44626495242118835,2.1006546020507812,11,6731.0,-3.5649123191833496,-157,9951.0
12560,0.44688907265663147,-0.16327142715454102,0,6731.0,-3.4374258518218994,-147,9951.0
12570,0.4475449323654175,-1.8549304008483887,0,6731.0,-5.231220722198486,-69,9951.0
12580,0.4481329917907715,-3.3842365741729736,-25,6731.0,-3.494037628173828,-119,9951.0
12590,0.44872575998306274,-1.9385087490081787,33,6731.0,-2.089097499847412,-120,9951.0
12600,0.45020297169685364,-0.5799450278282166,72,6731.0,-4.12030553817749,-142,9951.0
12610,0.45083087682724,1.7946617603302002,101,6731.0,-3.723565101623535,-198,9951.0
12620,0.4514942765235901,3.470435380935669,112,6731.0,-4.935933589935303,-150,9951.0
12630,0.4520150423049927,3.523714542388916,46,6731.0,-3.9965667724609375,-116,9951.0
12640,0.4518964886665344,1.9700742959976196,129,6731.0,-2.5621886253356934,-101,9951.0
12650,0.45225217938423157,2.853825330734253,81,6731.0,-2.2697789669036865,-109,9951.0
12660,0.45256948471069336,2.213538408279419,35,6731.0,1.7480610609054565,-67,9951.0
12670,0.45293331146240234,1.6283854246139526,59,6731.0,2.125253200531006,15,9951.0
12680,0.453286349773407,1.91220223903656,26,6731.0,2.912923574447632,19,9951.0
12690,0.4518727958202362,-1.019134283065796,32,6731.0,4.749072551727295,35,9951.0
12700,0.45197227597236633,0.2044209986925125,-39,6731.0,2.979740858078003,27,9951.0
12710,0.45195451378822327,-0.9006309509277344,16,6731.0,2.57637095451355,-32,9951.0
12720,0.4518667459487915,-0.3695079982280731,-36,6731.0,0.6040566563606262,66,9951.0
12730,0.4498049020767212,0.7172716856002808,-24,6731.0,-1.8406063318252563,11,9951.0
12740,0.44956153631210327,1.410094976425171,-93,6731.0,-1.5306177139282227,-22,9951.0
12750,0.44930559396743774,-1.0049833059310913,-45,6731.0,-1.7611157894134521,14,9951.0
12760,0.4489770233631134,0.12222064286470413,-64,6731.0,-2.1131975650787354,124,9951.0
12770,0.4487801194190979,0.23379097878932953,-2,6731.0,-0.5361695289611816,67,9951.0
12780,0.44846776127815247,-1.4814540147781372,-3,6731.0,1.1650111675262451,11,9951.0
12790,0.44814053177833557,-1.8009223937988281,-78,6731.0,1.3632936477661133,82,9951.0
12800,0.44787973165512085,-2.792112112045288,-71,6731.0,2.9848265647888184,16,9951.0
12810,0.44759830832481384,-4.158998012542725,1,6731.0,3.270739793777466,3,9951.0
12820,0.447425901889801,-4.2654571533203125,0,6731.0,5.374022960662842,101,9951.0
12830,0.4472842216491699,-3.2582147121429443,46,6731.0,3.9631900787353516,19,9951.0
12840,0.4472198486328125,-2.8071582317352295,44,6731.0,4.126678943634033,56,9951.0
12850,0.4472077786922455,1.0709110498428345,-35,6731.0,3.5968616008758545,103,9951.0
12860,0.44553616642951965,-0.5333231091499329,-31,6731.0,1.0037517547607422,47,9951.0
12870,0.445560485124588,-1.0751757621765137,-59,6731.0,2.047259569168091,50,9951.0
12880,0.4455518126487732,1.3732548952102661,-74,6731.0,-1.4690386056900024,60,9951.0
12890,0.44554224610328674,2.243227958679199,-37,6731.0,0.18101392686367035,-26,9951.0
12900,0.44557058811187744,2.2716007232666016,136,6731.0,-1.3958505392074585,-93,9951.0
12910,0.4436892867088318,-0.0939551368355751,19,6731.0,0.05573423206806183,-43,9951.0
12920,0.4435898959636688,2.1111204624176025,103,6731.0,2.6045572757720947,-109,9951.0
12930,0.4435751438140869,-0.39253097772598267,128,6731.0,2.1227030754089355,43,9951.0
12940,0.4435470998287201,-0.5460547804832458,-11,6731.0,5.176059246063232,101,9951.0
12950,0.44328492879867554,-2.122431755065918,2,6731.0,6.867263317108154,100,9951.0
12960,0.4432699978351593,-1.7849946022033691,-17,6731.0,3.977003574371338,145,9951.0
12970,0.44323116540908813,-1.2139413356781006,-144,6731.0,4.902512073516846,129,9951.0
12980,0.44310975074768066,-3.2614452838897705,-113,6731.0,2.350015640258789,107,9951.0
12990,0.4429214298725128,-3.43817400932312,-116,6731.0,1.292812466621399,91,9951.0
13000,0.4402088224887848,-6.286240100860596,-195,6731.0,-0.162711501121521,19,9951.0
13010,0.43963825702667236,-3.383938789367676,-126,6731.0,-1.308823585510254,-78,9951.0
13020,0.43910306692123413,-5.745649337768555,-26,6731.0,-1.8708841800689697,-53,9951.0
13030,0.438597172498703,-2.572648048400879,-49,6731.0,3.3699862957000732,-69,9951.0
13040,0.43869441747665405,-3.107891082763672,-3,6731.0,2.25791072845459,-54,9951.0
13050,0.43834754824638367,-1.6151899099349976,84,6731.0,0.8251575827598572,41,9951.0
13060,0.43804603815078735,0.5028119087219238,125,6731.0,1.6880093812942505,47,9951.0
13070,0.4376794993877411,1.8692368268966675,-30,6731.0,2.3730428218841553,124,9951.0
13080,0.4383760988712311,0.10452533513307571,-8,6731.0,3.2375340461730957,77,9951.0
13090,0.4381437301635742,1.3792859315872192,-106,6731.0,1.3228001594543457,129,9951.0
13100,0.4378439486026764,0.0927862823009491,-84,6731.0,0.45462512969970703,93,9951.0
13110,0.4375014305114746,-2.0738906860351562,-22,6731.0,0.3367761969566345,-24,9951.0
13120,0.43726861476898193,-1.9571142196655273,9,6731.0,1.3404121398925781,-28,9951.0
13130,0.43746238946914673,-3.3972485065460205,-10,6731.0,-0.055900588631629944,-18,9951.0
13140,0.4374155104160309,-1.9692695140838623,93,6731.0,2.118196725845337,34,9951.0
13150,0.43737170100212097,0.5139167308807373,54,6731.0,-4.324687480926514,11,9951.0
13160,0.4373452663421631,-0.798970639705658,-103,6731.0,-1.416507601737976,75,9951.0
13170,0.4366724193096161,-2.8401260375976562,-96,6731.0,-0.6573120355606079,60,9951.0
13180,0.43640559911727905,-1.568241834640503,-75,6731.0,0.5093147158622742,93,9951.0
13190,0.4361496865749359,-2.4416213035583496,-145,6731.0,1.247069239616394,126,9951.0
13200,0.435837060213089,-2.7162506580352783,-17,6731.0,-1.5508863925933838,-22,9951.0
13210,0.4361034035682678,-1.1733125448226929,20,6731.0,1.8644599914550781,-68,9951.0
13220,0.43594613671302795,-0.3881445825099945,70,6731.0,-1.2135353088378906,-111,9951.0
13230,0.43586084246635437,2.24592924118042,129,6731.0,-2.906714677810669,-178,9951.0
13240,0.4357512593269348,4.026268005371094,158,6731.0,-0.6823861002922058,-83,9951.0
13250,0.43566542863845825,5.364619731903076,23,6731.0,-0.839000403881073,123,9951.0
13260,0.43496227264404297,1.1722686290740967,5,6731.0,1.7833160161972046,44,9951.0
13270,0.43485352396965027,0.5563790798187256,2,6731.0,2.350349187850952,105,9951.0
13280,0.4346931278705597,0.8537017703056335,-119,6731.0,3.9209535121917725,153,9951.0
13290,0.43456870317459106,-0.21728792786598206,-60,6731.0,2.6882994174957275,33,9951.0
13300,0.4358273148536682,0.0924893319606781,7,6731.0,0.8376675844192505,61,9951.0
13310,0.43574413657188416,1.5040491819381714,-16,6731.0,-2.772921323776245,-4,9951.0
13320,0.43572798371315,-0.5340206027030945,14,6731.0,-4.3106889724731445,-178,9951.0
13330,0.43573319911956787,1.2277599573135376,118,6731.0,-4.217999458312988,-137,9951.0
13340,0.43574416637420654,2.3665895462036133,116,6731.0,-6.751926422119141,-127,9951.0
13350,0.43710219860076904,1.357877492904663,110,6731.0,-3.0044164657592773,-139,9951.0
13360,0.43723833560943604,3.2832939624786377,108,6731.0,-2.9437248706817627,-91,9951.0
13370,0.4372788369655609,3.426060914993286,28,6731.0,-1.369933009147644,-36,9951.0
13380,0.43727922439575195,2.681830644607544,46,6731.0,1.2710580825805664,16,9951.0
13390,0.43905723094940186,2.5033693313598633,24,6731.0,-0.6315508484840393,64,9951.0
13400,0.43908241391181946,1.8027615547180176,-24,6731.0,-1.3200693130493164,62,9951.0
13410,0.4391601085662842,-2.1432037353515625,-33,6731.0,-1.810900092124939,92,9951.0
13420,0.4392082691192627,-1.7547999620437622,-128,6731.0,-2.6505701541900635,82,9951.0
13430,0.440432071685791,-1.2452285289764404,-117,6731.0,-1.7133429050445557,35,9951.0
13440,0.4406373202800751,-3.679746150970459,-88,6731.0,-0.22457100450992584,116,9951.0
13450,0.44074639678001404,-0.31864190101623535,-53,6731.0,-1.3955632448196411,48,9951.0
13460,0.44085434079170227,0.5955707430839539,-36,6731.0,-3.2198543548583984,-15,9951.0
13470,0.44085097312927246,1.7413766384124756,73,6731.0,-0.6166142225265503,30,9951.0
13480,0.44173821806907654,3.385955572128296,40,6731.0,1.340000033378601,79,9951.0
13490,0.4419066905975342,4.453343391418457,65,6731.0,3.1597986221313477,-26,9951.0
13500,0.4418601989746094,4.5473456382751465,128,6731.0,0.41745731234550476,-2,9951.0
13510,0.44166839122772217,4.144260883331299,92,6731.0,1.2254408597946167,-8,9951.0
13520,0.4428688585758209,2.970964193344116,104,6731.0,-0.6058744788169861,-119,9951.0
13530,0.4425913989543915,1.2087819576263428,98,6731.0,-1.114681363105774,-96,9951.0
13540,0.442284494638443,-0.8753553032875061,10,6731.0,-1.7796196937561035,-80,9951.0
13550,0.4419610798358917,-0.4046184718608856,36,6731.0,-4.220959663391113,-193,9951.0
13560,0.441576212644577,-1.8270182609558105,50,6731.0,-4.4666056632995605,-103,9951.0
13570,0.4404495060443878,-1.8613563776016235,29,6731.0,-1.7254654169082642,-76,9951.0
13580,0.439860075712204,-0.4369823634624481,-20,6731.0,-3.224088191986084,12,9951.0
13590,0.43920841813087463,-3.7120866775512695,-30,6731.0,0.6034700274467468,-34,9951.0
13600,0.438534677028656,-3.98606014251709,-29,6731.0,1.6883150339126587,-2,9951.0
13610,0.4379540979862213,-2.7478692531585693,20,6731.0,3.063683271408081,34,9951.0
13620,0.4371320903301239,1.280045986175537,-42,6731.0,2.949671745300293,106,9951.0
13630,0.4362938702106476,-0.9868037700653076,8,6731.0,2.5712478160858154,94,9951.0
13640,0.43540358543395996,0.8827389478683472,10,6731.0,0.7515707015991211,64,9951.0
13650,0.4345366358757019,2.431765079498291,-81,6731.0,-0.08431752771139145,42,9951.0
13660,0.43641385436058044,1.3536354303359985,-84,6731.0,-0.8235785365104675,-20,9951.0
13670,0.435701847076416,2.826936960220337,71,6731.0,-4.182433128356934,-50,9951.0
13680,0.43504005670547485,1.9483932256698608,4,6731.0,-1.9717954397201538,-109,9951.0
13690,0.4344809353351593,0.923636257648468,52,6731.0,0.8808973431587219,-51,9951.0
13700,0.43695172667503357,-0.3455081284046173,77,6731.0,1.8000357151031494,-27,9951.0
13710,0.4365292191505432,-0.07922450453042984,45,6731.0,3.2367429733276367,29,9951.0
13720,0.43606823682785034,-3.6447062492370605,-7,6731.0,3.1605794429779053,20,9951.0
13730,0.4355258643627167,-3.264779806137085,-22,6731.0,-0.00702242786064744,52,9951.0
13740,0.43630707263946533,-5.634550094604492,-104,6731.0,0.4482885003089905,-2,9951.0
13750,0.43581423163414,-6.1923322677612305,-106,6731.0,0.5915840268135071,42,9951.0
13760,0.4353034198284149,-1.2527315616607666,-127,6731.0,-0.8193154335021973,-19,9951.0
13770,0.4348583519458771,0.25571614503860474,-60,6731.0,-0.8348752856254578,22,9951.0
13780,0.4344962537288666,1.0335606336593628,66,6731.0,-2.053255558013916,-94,9951.0
13790,0.43641576170921326,-1.1088535785675049,-8,6731.0,0.6995437741279602,-92,9951.0
13800,0.43615615367889404,2.2337448596954346,59,6731.0,-1.3733128309249878,-91,9951.0
13810,0.4359270930290222,3.7701241970062256,139,6731.0,0.6046741008758545,-43,9951.0
13820,0.43565186858177185,4.219481945037842,115,6731.0,1.1898316144943237,17,9951.0
13830,0.43943917751312256,3.9198319911956787,146,6731.0,1.3802076578140259,31,9951.0
13840,0.43941107392311096,1.580862283706665,58,6731.0,1.0031187534332275,-40,9951.0
13850,0.43942567706108093,-1.0406968593597412,-19,6731.0,2.6854088306427,12,9951.0
13860,0.4394489824771881,-0.006106582935899496,-32,6731.0,-1.421821117401123,-40,9951.0
13870,0.4424719214439392,-2.0849268436431885,-67,6731.0,1.1182149648666382,-9,9951.0
13880,0.4426915645599365,-3.534078359603882,-75,6731.0,-0.7444058656692505,16,9951.0
13890,0.4428531229496002,-2.9139668941497803,-24,6731.0,-2.7231454849243164,-39,9951.0
13900,0.4430190324783325,-1.2177268266677856,-64,6731.0,-2.650320291519165,-2,9951.0
13910,0.44322675466537476,-1.1088029146194458,1,6731.0,-2.102576494216919,-10,9951.0
13920,0.44580337405204773,0.253042608499527,-37,6731.0,-3.957657814025879,-6,9951.0
13930,0.4462013840675354,1.1387087106704712,-31,6731.0,-2.5026187896728516,20,9951.0
13940,0.44660913944244385,0.8936246037483215,-13,6731.0,-4.12647008895874,4,9951.0
13950,0.4469974935054779,3.1340324878692627,0,6731.0,-3.7318990230560303,-20,9951.0
13960,0.4471898078918457,0.8032429218292236,3,6731.0,-4.666731357574463,-42,9951.0
13970,0.4474332332611084,-1.7954437732696533,-91,6731.0,-2.6046135425567627,25,9951.0
13980,0.44768446683883667,-2.6855504512786865,-68,6731.0,-3.3829877376556396,-24,9951.0
13990,0.44784361124038696,-3.3596396446228027,-42,6731.0,-1.3741687536239624,137,9951.0
14000,0.4479336738586426,-1.3378150463104248,-77,6731.0,-1.0120515823364258,88,9951.0
14010,0.44999179244041443,-1.3269126415252686,-13,6731.0,2.7230238914489746,-7,9951.0
14020,0.4501567780971527,1.918991208076477,40,6731.0,1.8404228687286377,48,9951.0
14030,0.45027104020118713,3.3835866451263428,71,6731.0,2.956800699234009,-97,9951.0
14040,0.45035094022750854,2.510699510574341,69,6731.0,-1.240285038948059,-53,9951.0
14050,0.45025762915611267,2.333669662475586,16,6731.0,-2.150913715362549,-97,9951.0
14060,0.45028358697891235,-0.8138898015022278,-26,6731.0,-2.6152713298797607,-144,9951.0
14070,0.4502882659435272,-1.4876158237457275,-30,6731.0,-3.761979103088379,-67,9951.0
14080,0.450194776058197,-4.6942901611328125,-55,6731.0,-1.6874396800994873,-7,9951.0
14090,0.45081815123558044,-4.318222522735596,-23,6731.0,-1.236352801322937,-122,9951.0
14100,0.450637549161911,-3.593651533126831,-21,6731.0,0.5581746697425842,-81,9951.0
14110,0.4503767788410187,-2.717984676361084,-13,6731.0,-0.1125628724694252,-66,9951.0
14120,0.45007622241973877,-2.484182834625244,-19,6731.0,2.1141505241394043,-59,9951.0
14130,0.4497196674346924,-3.0322630405426025,-29,6731.0,1.027531385421753,-34,9951.0
14140,0.4486124515533447,-3.176203489303589,-25,6731.0,4.2625932693481445,-27,9951.0
14150,0.44811198115348816,-3.1525588035583496,-24,6731.0,1.7859739065170288,-47,9951.0
14160,0.44758695363998413,-3.7917068004608154,-27,6731.0,1.3376078605651855,-32,9951.0
14170,0.44703733921051025,-2.919367790222168,0,6731.0,0.18693993985652924,-105,9951.0
14180,0.44627413153648376,-2.9347732067108154,-24,6731.0,-1.2068519592285156,-91,9951.0
14190,0.44560667872428894,-2.953087091445923,-10,6731.0,-1.1693557500839233,-102,9951.0
14200,0.4448668658733368,-2.05782413482666,8,6731.0,-2.7682156562805176,-105,9951.0
14210,0.44412851333618164,-1.102772831916809,36,6731.0,-0.8922296762466431,-70,9951.0
14220,0.4433654248714447,-1.2014614343643188,21,6731.0,0.8734153509140015,-111,9951.0
