timestamp,kalman.stateZ,gyro.x,gyro.xRaw,gyro.xVariance,gyro.y,gyro.yRaw,gyro.yVariance
0,0.3019338548183441,-0.6805896759033203,-22,7950.0,11.01222038269043,198,9965.0
10,0.3019600808620453,-3.199671506881714,-54,7950.0,12.336282730102539,205,9965.0
20,0.3019135296344757,-4.022210121154785,-64,7950.0,12.871521949768066,211,9965.0
30,0.30191147327423096,-3.7134997844696045,-59,7950.0,12.278680801391602,189,9965.0
40,0.3019498884677887,-3.8900933265686035,-56,7950.0,10.465180397033691,166,9965.0
50,0.30229422450065613,-1.023838996887207,-11,7950.0,7.110341548919678,75,9965.0
60,0.3023443818092346,1.1358234882354736,37,7950.0,-1.3206000328063965,-62,9965.0
70,0.30249282717704773,7.209808826446533,125,7950.0,-16.1251220703125,-337,9965.0
80,0.30283278226852417,9.431167602539062,128,7950.0,-32.89834213256836,-571,9965.0
90,0.3031030297279358,13.778338432312012,207,7950.0,-56.68080520629883,-991,9965.0
100,0.3034251928329468,12.050862312316895,193,7950.0,-73.50324249267578,-1285,9965.0
110,0.303577721118927,7.182064056396484,91,7950.0,-91.11837768554688,-1527,9965.0
120,0.3035045862197876,3.9462578296661377,48,7950.0,-101.61779022216797,-1625,9965.0
130,0.30334633588790894,2.6477739810943604,71,7950.0,-94.53783416748047,-1498,9965.0
140,0.30583351850509644,1.2714306116104126,3,7950.0,-81.6026611328125,-1381,9965.0
150,0.3063344359397888,1.124890923500061,-19,7950.0,-63.9756965637207,-1007,9965.0
160,0.3063603639602661,-0.21684470772743225,-90,7950.0,-43.687416076660156,-565,9965.0
170,0.30685392022132874,-1.4508697986602783,-123,7950.0,-20.704172134399414,-251,9965.0
180,0.3080284595489502,-0.353950172662735,-24,7950.0,4.330477237701416,179,9965.0
190,0.3100752830505371,3.276588201522827,149,7950.0,29.13913917541504,456,9965.0
200,0.3110446035861969,9.67162036895752,195,7950.0,49.48297119140625,855,9965.0
210,0.3117530643939972,9.064611434936523,237,7950.0,62.254005432128906,1244,9965.0
220,0.31210052967071533,7.783417224884033,53,7950.0,67.87026977539062,1263,9965.0
230,0.31195127964019775,4.000896453857422,-21,7950.0,64.40023803710938,1031,9965.0
240,0.3123500645160675,5.145273685455322,-11,7950.0,49.749427795410156,754,9965.0
250,0.31305453181266785,4.521441459655762,41,7950.0,37.89933776855469,571,9965.0
260,0.31357166171073914,4.668911457061768,213,7950.0,14.977272033691406,257,9965.0
270,0.3102506101131439,1.037527322769165,126,7950.0,-7.048157691955566,-191,9965.0
280,0.310832142829895,-5.436393737792969,-160,7950.0,-24.918794631958008,-487,9965.0
290,0.3113505244255066,-11.274948120117188,-313,7950.0,-41.445796966552734,-816,9965.0
300,0.3117983341217041,-15.690921783447266,-268,7950.0,-50.11763000488281,-965,9965.0
310,0.3123036026954651,-16.849367141723633,-214,7950.0,-52.55194091796875,-869,9965.0
320,0.309637188911438,-10.560498237609863,-143,7950.0,-53.986934661865234,-853,9965.0
330,0.30974867939949036,-7.8400654792785645,-25,7950.0,-48.5222282409668,-770,9965.0
340,0.3106943964958191,-0.36136436462402344,70,7950.0,-40.11603546142578,-600,9965.0
350,0.3114565312862396,5.7668256759643555,151,7950.0,-21.616300582885742,-307,9965.0
360,0.3126565217971802,10.043929100036621,195,7950.0,-4.612460613250732,21,9965.0
370,0.3137384057044983,9.115437507629395,226,7950.0,17.48896598815918,300,9965.0
380,0.31476229429244995,8.940571784973145,158,7950.0,36.23141860961914,579,9965.0
390,0.31554698944091797,6.8496880531311035,165,7950.0,47.85053634643555,801,9965.0
400,0.31684038043022156,2.6231131553649902,1,7950.0,48.60087585449219,742,9965.0
410,0.31809377670288086,-0.3178732693195343,148,7950.0,35.443443298339844,564,9965.0
420,0.3189896047115326,1.8441574573516846,36,7950.0,16.32195472717285,292,9965.0
430,0.3197917938232422,-1.3465522527694702,-29,7950.0,10.961766242980957,202,9965.0
440,0.3206697702407837,-2.3384766578674316,-198,7950.0,10.715049743652344,282,9965.0
450,0.31806057691574097,-7.08189058303833,-197,7950.0,10.676432609558105,87,9965.0
460,0.3186381161212921,-9.855351448059082,-158,7950.0,5.219723701477051,-29,9965.0
470,0.31910592317581177,-3.077831983566284,-8,7950.0,6.700252532958984,-58,9965.0
480,0.3196021318435669,8.436724662780762,267,7950.0,7.435072422027588,69,9965.0
490,0.3199456036090851,15.02254867553711,276,7950.0,12.840559005737305,235,9965.0
500,0.31814324855804443,17.171293258666992,367,7950.0,15.130410194396973,398,9965.0
510,0.3182523250579834,11.832058906555176,191,7950.0,9.888513565063477,243,9965.0
520,0.31833964586257935,2.8231308460235596,84,7950.0,6.490842342376709,104,9965.0
530,0.3184046745300293,-0.8643741011619568,-138,7950.0,1.0938166379928589,98,9965.0
540,0.31664109230041504,-5.191614627838135,-157,7950.0,-4.264781475067139,-97,9965.0
550,0.3165762722492218,-8.42286491394043,-167,7950.0,-10.060342788696289,-248,9965.0
560,0.31666287779808044,-10.152256965637207,-237,7950.0,-23.95754623413086,-543,9965.0
570,0.3168182969093323,-10.305054664611816,-133,7950.0,-30.131067276000977,-509,9965.0
580,0.3165837824344635,-12.421148300170898,-208,7950.0,-29.48920249938965,-588,9965.0
590,0.3170490562915802,-10.067130088806152,-50,7950.0,-27.15617561340332,-398,9965.0
600,0.31745266914367676,-6.163074970245361,-37,7950.0,-21.809999465942383,-206,9965.0
610,0.31798025965690613,-1.757511854171753,21,7950.0,-11.85627555847168,-78,9965.0
620,0.31838375329971313,3.2894127368927,132,7950.0,-0.513799786567688,141,9965.0
630,0.3182911276817322,9.827484130859375,95,7950.0,0.7857930660247803,22,9965.0
640,0.31869983673095703,13.851822853088379,289,7950.0,-10.884832382202148,-251,9965.0
650,0.31899625062942505,18.80022430419922,224,7950.0,-16.17828369140625,-356,9965.0
660,0.3193439543247223,17.823163986206055,256,7950.0,-0.9179663062095642,11,9965.0
670,0.3184431493282318,15.402613639831543,291,7950.0,12.776335716247559,159,9965.0
680,0.3185169994831085,10.572503089904785,148,7950.0,15.044675827026367,189,9965.0
690,0.3185447156429291,5.253999710083008,150,7950.0,16.929370880126953,312,9965.0
700,0.3183957636356354,-4.117148399353027,-84,7950.0,18.02374839782715,426,9965.0
710,0.31764352321624756,-18.265724182128906,-392,7950.0,17.796146392822266,321,9965.0
720,0.3171364665031433,-25.598115921020508,-432,7950.0,13.070171356201172,191,9965.0
730,0.31657952070236206,-24.129262924194336,-461,7950.0,3.710498809814453,0,9965.0
740,0.31599658727645874,-20.687767028808594,-240,7950.0,1.2753325700759888,38,9965.0
750,0.31550613045692444,-13.315709114074707,-146,7950.0,-1.3431645631790161,74,9965.0
760,0.3137248754501343,-2.936415195465088,-54,7950.0,-1.5870920419692993,-69,9965.0
770,0.313366562128067,8.594135284423828,178,7950.0,-8.161508560180664,-235,9965.0
780,0.313274621963501,15.806097984313965,259,7950.0,-21.107929229736328,-414,9965.0
790,0.3136350214481354,18.6850643157959,330,7950.0,-34.2188720703125,-493,9965.0
800,0.3129345774650574,15.979130744934082,175,7950.0,-41.96148681640625,-723,9965.0
810,0.3136447072029114,9.254250526428223,59,7950.0,-42.249351501464844,-837,9965.0
820,0.31424325704574585,-1.1298710107803345,-2,7950.0,-37.263458251953125,-503,9965.0
830,0.314711332321167,-12.626594543457031,-154,7950.0,-25.27838706970215,-295,9965.0
840,0.3160039186477661,-21.181190490722656,-372,7950.0,-11.389049530029297,-129,9965.0
850,0.31669071316719055,-20.066591262817383,-362,7950.0,4.422262668609619,192,9965.0
860,0.3176143169403076,-14.335074424743652,-243,7950.0,15.59016227722168,244,9965.0
870,0.3182418644428253,-7.241859436035156,-168,7950.0,18.579538345336914,188,9965.0
880,0.31885668635368347,-1.1950181722640991,54,7950.0,17.228147506713867,251,9965.0
890,0.31992170214653015,3.6760239601135254,123,7950.0,14.06612777709961,273,9965.0
900,0.3205590546131134,1.5261409282684326,-7,7950.0,18.80116081237793,431,9965.0
910,0.32104820013046265,2.113217830657959,23,7950.0,28.8055477142334,474,9965.0
920,0.32141420245170593,3.6224892139434814,-21,7950.0,34.77540969848633,429,9965.0
930,0.32185444235801697,1.691831111907959,139,7950.0,35.9697151184082,628,9965.0
940,0.32188594341278076,2.37931227684021,18,7950.0,27.58112335205078,459,9965.0
950,0.3217097818851471,5.296245098114014,90,7950.0,12.936810493469238,-4,9965.0
960,0.322055846452713,10.531527519226074,260,7950.0,-5.845463275909424,-146,9965.0
970,0.32167237997055054,20.351316452026367,380,7950.0,-15.30136489868164,-199,9965.0
980,0.31924203038215637,34.31425476074219,602,7950.0,-18.655733108520508,-341,9965.0
990,0.31836703419685364,36.511199951171875,564,7950.0,-18.146093368530273,-330,9965.0
1000,0.31820955872535706,26.69506072998047,341,7950.0,-12.910297393798828,-123,9965.0
1010,0.31735220551490784,5.443080425262451,-55,7950.0,-0.2387472242116928,86,9965.0
1020,0.3170328736305237,-18.84320831298828,-453,7950.0,4.759954452514648,38,9965.0
1030,0.3168686032295227,-35.67375564575195,-692,7950.0,4.45170259475708,74,9965.0
1040,0.31685373187065125,-42.913551330566406,-631,7950.0,1.8485188484191895,101,9965.0
1050,0.31694406270980835,-38.66334533691406,-610,7950.0,-2.044286012649536,-138,9965.0
1060,0.31726986169815063,-24.723718643188477,-254,7950.0,-2.775082588195801,-131,9965.0
1070,0.31646400690078735,-5.813097953796387,103,7950.0,-4.50420618057251,39,9965.0
1080,0.31700021028518677,9.147753715515137,124,7950.0,-8.197184562683105,-234,9965.0
1090,0.3176569938659668,11.042801856994629,137,7950.0,-6.218345642089844,-27,9965.0
1100,0.3184095323085785,8.430088996887207,122,7950.0,3.720557689666748,219,9965.0
1110,0.3193122148513794,3.8276610374450684,22,7950.0,14.318643569946289,274,9965.0
1120,0.3201327323913574,2.766340494155884,106,7950.0,19.169219970703125,133,9965.0
1130,0.3208993971347809,4.445487022399902,121,7950.0,21.66620445251465,327,9965.0
1140,0.32169851660728455,1.2641783952713013,4,7950.0,21.203388214111328,511,9965.0
1150,0.3223269581794739,0.6478283405303955,-100,7950.0,18.641164779663086,154,9965.0
1160,0.3231342136859894,-0.40717896819114685,12,7950.0,18.380390167236328,249,9965.0
1170,0.3238842487335205,-1.877541184425354,18,7950.0,14.913018226623535,364,9965.0
1180,0.324526309967041,-1.7895748615264893,-163,7950.0,18.59903907775879,214,9965.0
1190,0.325021356344223,0.6590756177902222,104,7950.0,11.341724395751953,136,9965.0
1200,0.32677391171455383,8.51358413696289,221,7950.0,-2.4063291549682617,-25,9965.0
1210,0.32700634002685547,21.7032470703125,323,7950.0,-14.435552597045898,-412,9965.0
1220,0.3270256817340851,33.34427261352539,647,7950.0,-19.07477569580078,-251,9965.0
1230,0.32680389285087585,37.91274642944336,636,7950.0,-15.526213645935059,-191,9965.0
1240,0.3263654410839081,30.70118522644043,315,7950.0,-15.009696006774902,-274,9965.0
1250,0.3259045481681824,8.082494735717773,9,7950.0,-16.3124942779541,-397,9965.0
1260,0.32541021704673767,-18.01907730102539,-364,7950.0,-17.1916446685791,-227,9965.0
1270,0.3246660828590393,-41.21243667602539,-729,7950.0,-15.370268821716309,-201,9965.0
1280,0.3243512213230133,-50.915374755859375,-875,7950.0,-13.708910942077637,-163,9965.0
1290,0.32369524240493774,-46.09861373901367,-639,7950.0,-9.543773651123047,-140,9965.0
1300,0.3235700726509094,-27.198081970214844,-288,7950.0,-0.9780029654502869,5,9965.0
1310,0.32315707206726074,1.9564212560653687,113,7950.0,10.646516799926758,120,9965.0
1320,0.32324057817459106,30.092924118041992,679,7950.0,16.682830810546875,294,9965.0
1330,0.32303497195243835,47.04927444458008,821,7950.0,16.141508102416992,352,9965.0
1340,0.32294318079948425,45.68836975097656,613,7950.0,16.231307983398438,133,9965.0
1350,0.3228614926338196,31.987152099609375,449,7950.0,11.623854637145996,89,9965.0
1360,0.3226928412914276,16.97641372680664,240,7950.0,-2.2820534706115723,-77,9965.0
1370,0.32341253757476807,0.266427218914032,-86,7950.0,-19.553367614746094,-448,9965.0
1380,0.3240285813808441,-11.949605941772461,-215,7950.0,-35.15958023071289,-592,9965.0
1390,0.3242851197719574,-23.620197296142578,-361,7950.0,-29.529260635375977,-274,9965.0
1400,0.32469674944877625,-30.22351837158203,-495,7950.0,-16.065834045410156,-166,9965.0
1410,0.32503530383110046,-28.97092628479004,-533,7950.0,-3.101255178451538,-161,9965.0
1420,0.32617947459220886,-21.407020568847656,-304,7950.0,5.703431129455566,76,9965.0
1430,0.32615208625793457,-9.761512756347656,-52,7950.0,8.267448425292969,330,9965.0
1440,0.3264352083206177,3.716470718383789,64,7950.0,9.20037841796875,129,9965.0
1450,0.32614564895629883,9.648893356323242,238,7950.0,6.433831691741943,191,9965.0
1460,0.3247606158256531,18.00079345703125,340,7950.0,11.370893478393555,184,9965.0
1470,0.3239864110946655,25.359643936157227,419,7950.0,13.64205551147461,41,9965.0
1480,0.3230728507041931,29.732725143432617,505,7950.0,10.9830904006958,232,9965.0
1490,0.32185012102127075,26.9355525970459,431,7950.0,12.766515731811523,267,9965.0
1500,0.32230159640312195,16.269649505615234,167,7950.0,13.877439498901367,155,9965.0
1510,0.3211961090564728,0.7393207550048828,-26,7950.0,8.171720504760742,191,9965.0
1520,0.32039952278137207,-17.648757934570312,-411,7950.0,-3.4441421031951904,-154,9965.0
1530,0.3195295035839081,-30.554672241210938,-588,7950.0,-23.035051345825195,-559,9965.0
1540,0.31888437271118164,-34.97318649291992,-438,7950.0,-39.52704620361328,-586,9965.0
1550,0.31924009323120117,-26.828514099121094,-378,7950.0,-46.77037048339844,-800,9965.0
1560,0.31879672408103943,-10.293350219726562,-123,7950.0,-44.71780776977539,-732,9965.0
1570,0.31931272149086,2.2986934185028076,105,7950.0,-34.413856506347656,-461,9965.0
1580,0.31991031765937805,11.801013946533203,120,7950.0,-14.826275825500488,-276,9965.0
1590,0.3208434283733368,14.399300575256348,181,7950.0,1.4643067121505737,21,9965.0
1600,0.3215565085411072,11.368521690368652,266,7950.0,13.20285701751709,365,9965.0
1610,0.3223440647125244,3.37776255607605,24,7950.0,24.235492706298828,528,9965.0
1620,0.3230947256088257,-8.235774993896484,-273,7950.0,26.93375015258789,422,9965.0
1630,0.3238483667373657,-12.28181266784668,-226,7950.0,27.635583877563477,379,9965.0
1640,0.3228553533554077,-9.866639137268066,-82,7950.0,21.249719619750977,391,9965.0
1650,0.32337358593940735,-4.037103176116943,-101,7950.0,14.0419282913208,177,9965.0
1660,0.3237745761871338,-0.9953106641769409,36,7950.0,9.415103912353516,134,9965.0
1670,0.32417261600494385,8.361673355102539,177,7950.0,3.4956185817718506,73,9965.0
1680,0.32387062907218933,17.485248565673828,303,7950.0,2.3226473331451416,-11,9965.0
1690,0.3239000737667084,18.866886138916016,326,7950.0,-0.7820507287979126,24,9965.0
1700,0.3238299787044525,9.471654891967773,42,7950.0,-6.080153942108154,-88,9965.0
1710,0.32384008169174194,-1.4996395111083984,-113,7950.0,-3.4598989486694336,-153,9965.0
1720,0.3229273855686188,-10.034383773803711,-71,7950.0,-7.456957817077637,-105,9965.0
1730,0.32264798879623413,-14.994220733642578,-227,7950.0,-12.287193298339844,-173,9965.0
1740,0.3222929835319519,-16.313247680664062,-334,7950.0,-16.636157989501953,-422,9965.0
1750,0.32212311029434204,-11.690184593200684,-82,7950.0,-13.196640968322754,-140,9965.0
1760,0.32184654474258423,0.1302453577518463,148,7950.0,-9.341172218322754,56,9965.0
1770,0.32089963555336,10.299165725708008,199,7950.0,-8.769429206848145,-181,9965.0
1780,0.32065868377685547,13.93311882019043,150,7950.0,-7.1280670166015625,-139,9965.0
1790,0.3209720551967621,8.0941743850708,108,7950.0,3.672407865524292,38,9965.0
1800,0.32131537795066833,1.3732808828353882,60,7950.0,5.08290433883667,218,9965.0
1810,0.31964680552482605,-1.9984660148620605,-65,7950.0,3.8872737884521484,55,9965.0
1820,0.3201662003993988,-5.097325325012207,-174,7950.0,2.239219903945923,-148,9965.0
1830,0.32074281573295593,-3.2723636627197266,0,7950.0,-1.6993408203125,-70,9965.0
1840,0.32148122787475586,0.21843834221363068,53,7950.0,-7.429487705230713,20,9965.0
1850,0.3219815194606781,0.6121657490730286,34,7950.0,-9.761296272277832,-143,9965.0
1860,0.32270559668540955,0.9688326716423035,-51,7950.0,-6.126563549041748,-267,9965.0
1870,0.3235480785369873,-0.03273271024227142,-25,7950.0,3.8601694107055664,27,9965.0
1880,0.32434019446372986,-5.696909427642822,-33,7950.0,13.572253227233887,373,9965.0
1890,0.3251715898513794,-9.729944229125977,-144,7950.0,27.421222686767578,676,9965.0
1900,0.3248087465763092,-6.86667013168335,-130,7950.0,35.80756759643555,469,9965.0
1910,0.325126051902771,3.799776315689087,79,7950.0,37.3475227355957,561,9965.0
1920,0.32523149251937866,10.213753700256348,263,7950.0,40.71759033203125,855,9965.0
1930,0.32525408267974854,11.753947257995605,189,7950.0,41.3748664855957,609,9965.0
1940,0.32353687286376953,9.963232040405273,65,7950.0,30.848901748657227,410,9965.0
1950,0.3235013484954834,1.0356661081314087,-27,7950.0,16.55418586730957,270,9965.0
1960,0.32323554158210754,-15.159831047058105,-341,7950.0,6.092932224273682,22,9965.0
1970,0.32303881645202637,-27.211997985839844,-452,7950.0,-6.287435054779053,-135,9965.0
1980,0.3229111433029175,-26.855777740478516,-433,7950.0,-14.757883071899414,-191,9965.0
1990,0.3218749165534973,-16.741230010986328,-171,7950.0,-17.16655921936035,-379,9965.0
2000,0.32200437784194946,2.330336809158325,123,7950.0,-24.094738006591797,-375,9965.0
2010,0.3222411572933197,17.54507827758789,275,7950.0,-32.80419158935547,-681,9965.0
2020,0.32262998819351196,24.502573013305664,425,7950.0,-40.0869026184082,-598,9965.0
2030,0.3219255805015564,23.34235191345215,453,7950.0,-36.99660873413086,-504,9965.0
2040,0.3233572542667389,15.638086318969727,160,7950.0,-24.062055587768555,-340,9965.0
2050,0.3233073055744171,7.259064197540283,-2,7950.0,-6.2234320640563965,-162,9965.0
2060,0.3247445821762085,-2.321817398071289,-48,7950.0,12.034253120422363,207,9965.0
2070,0.32314082980155945,-8.331533432006836,-47,7950.0,23.417922973632812,534,9965.0
2080,0.3249506652355194,-7.612555503845215,-78,7950.0,22.894899368286133,394,9965.0
2090,0.3249373435974121,-4.906402111053467,-210,7950.0,19.591501235961914,245,9965.0
2100,0.3259451389312744,-8.86518383026123,-177,7950.0,31.017478942871094,522,9965.0
2110,0.3269098103046417,-5.415018081665039,1,7950.0,36.123878479003906,671,9965.0
2120,0.32677534222602844,-1.4059337377548218,-23,7950.0,31.35060691833496,445,9965.0
2130,0.32744598388671875,4.5182881355285645,54,7950.0,21.71471405029297,273,9965.0
2140,0.32790324091911316,7.137406349182129,258,7950.0,0.8957211375236511,-19,9965.0
2150,0.3284434676170349,10.551929473876953,108,7950.0,-22.489511489868164,-542,9965.0
2160,0.3241875469684601,13.158296585083008,239,7950.0,-36.64694595336914,-602,9965.0
2170,0.32319194078445435,17.748798370361328,372,7950.0,-41.498802185058594,-627,9965.0
2180,0.3231915533542633,21.44805335998535,300,7950.0,-36.15071487426758,-543,9965.0
2190,0.3216383755207062,17.762096405029297,216,7950.0,-28.15828514099121,-502,9965.0
2200,0.32207605242729187,1.3565703630447388,-41,7950.0,-12.421302795410156,-153,9965.0
2210,0.31926944851875305,-17.324539184570312,-318,7950.0,-3.47957444190979,13,9965.0
2220,0.3193569481372833,-33.892433166503906,-630,7950.0,-2.778167486190796,49,9965.0
2230,0.31813210248947144,-37.64406204223633,-693,7950.0,-1.0317720174789429,-141,9965.0
2240,0.3181251585483551,-33.95232391357422,-508,7950.0,3.6198906898498535,53,9965.0
2250,0.3171573579311371,-16.236021041870117,-104,7950.0,5.569247722625732,176,9965.0
2260,0.31704702973365784,-0.8608790040016174,-89,7950.0,1.8693442344665527,-127,9965.0
2270,0.3172961175441742,7.992706298828125,175,7950.0,-10.459878921508789,-213,9965.0
2280,0.3178866505622864,8.953166007995605,159,7950.0,-19.73575210571289,-247,9965.0
2290,0.31796857714653015,8.634404182434082,105,7950.0,-23.722169876098633,-462,9965.0
2300,0.3188522458076477,9.18720531463623,150,7950.0,-24.374202728271484,-398,9965.0
2310,0.3199250400066376,10.197922706604004,212,7950.0,-24.378543853759766,-340,9965.0
2320,0.32109910249710083,13.145328521728516,196,7950.0,-23.0200138092041,-329,9965.0
2330,0.3227272033691406,10.342792510986328,100,7950.0,-15.825665473937988,-228,9965.0
2340,0.32198405265808105,-2.9362411499023438,-131,7950.0,-3.4932873249053955,17,9965.0
2350,0.3231617212295532,-20.06466293334961,-327,7950.0,15.280152320861816,402,9965.0
2360,0.3242920935153961,-22.98778533935547,-233,7950.0,28.820154190063477,594,9965.0
2370,0.32548415660858154,-12.24060344696045,-281,7950.0,33.32139587402344,516,9965.0
2380,0.3266293406486511,-7.4683613777160645,-94,7950.0,34.932411193847656,516,9965.0
2390,0.32738280296325684,-1.4717539548873901,119,7950.0,25.559228897094727,430,9965.0
2400,0.3279631435871124,5.1720075607299805,22,7950.0,14.871528625488281,101,9965.0
2410,0.3284095227718353,10.209020614624023,200,7950.0,6.3458099365234375,31,9965.0
2420,0.3287499248981476,17.141544342041016,404,7950.0,-3.316305637359619,21,9965.0
2430,0.3259887397289276,25.162338256835938,415,7950.0,-2.933394432067871,-71,9965.0
2440,0.3256397247314453,29.04286766052246,488,7950.0,3.4844796657562256,37,9965.0
2450,0.3251309096813202,29.111385345458984,485,7950.0,6.585020542144775,70,9965.0
2460,0.324558824300766,20.146940231323242,229,7950.0,7.587512016296387,151,9965.0
2470,0.3224923014640808,8.730640411376953,68,7950.0,3.469292163848877,-17,9965.0
2480,0.3224135935306549,-2.7489280700683594,-108,7950.0,-4.2665863037109375,-59,9965.0
2490,0.3218575716018677,-12.737600326538086,-211,7950.0,-9.10623550415039,-165,9965.0
2500,0.3214374780654907,-21.398616790771484,-365,7950.0,-11.883705139160156,-149,9965.0
2510,0.3189345598220825,-26.43130874633789,-536,7950.0,-11.882866859436035,-244,9965.0
2520,0.31874963641166687,-33.52627944946289,-567,7950.0,-6.9154052734375,-86,9965.0
2530,0.31885209679603577,-30.122665405273438,-392,7950.0,-1.7477494478225708,26,9965.0
2540,0.3192616105079651,-18.35101318359375,-213,7950.0,2.827486515045166,80,9965.0
2550,0.3199591636657715,-5.085965633392334,-36,7950.0,1.1884715557098389,-72,9965.0
2560,0.3190803527832031,3.1268460750579834,51,7950.0,0.8429793119430542,52,9965.0
2570,0.3199264109134674,-1.8395202159881592,-77,7950.0,11.286155700683594,276,9965.0
2580,0.3208372890949249,-12.818395614624023,-270,7950.0,16.511932373046875,346,9965.0
2590,0.3216283321380615,-23.196420669555664,-412,7950.0,13.57247543334961,206,9965.0
2600,0.3214421570301056,-27.327089309692383,-431,7950.0,10.147689819335938,109,9965.0
2610,0.3219926655292511,-18.98200798034668,-198,7950.0,13.732365608215332,274,9965.0
2620,0.3227646052837372,-1.2893980741500854,48,7950.0,16.282899856567383,256,9965.0
2630,0.32322418689727783,19.309120178222656,409,7950.0,16.936767578125,314,9965.0
2640,0.3233700394630432,38.71261978149414,710,7950.0,13.846718788146973,168,9965.0
2650,0.3236652910709381,53.49382781982422,917,7950.0,12.36131477355957,197,9965.0
2660,0.3239176571369171,59.326602935791016,934,7950.0,9.708287239074707,241,9965.0
2670,0.32369181513786316,50.11569595336914,717,7950.0,9.42844009399414,18,9965.0
2680,0.3235449492931366,29.934722900390625,421,7950.0,7.0437703132629395,137,9965.0
2690,0.3232102692127228,6.085748195648193,70,7950.0,6.636810779571533,200,9965.0
2700,0.32305505871772766,-14.797823905944824,-385,7950.0,1.4541772603988647,47,9965.0
2710,0.3226316571235657,-33.97283172607422,-699,7950.0,-8.096837997436523,-349,9965.0
2720,0.32238906621932983,-43.69511795043945,-677,7950.0,-20.00874900817871,-274,9965.0
2730,0.32048678398132324,-43.1994514465332,-619,7950.0,-23.263200759887695,-333,9965.0
2740,0.31999537348747253,-34.01812744140625,-613,7950.0,-21.9090518951416,-456,9965.0
2750,0.3196240961551666,-17.265419006347656,-162,7950.0,-18.996658325195312,-259,9965.0
2760,0.32036536931991577,3.4468517303466797,240,7950.0,-13.296496391296387,-49,9965.0
2770,0.3207499086856842,24.96439552307129,382,7950.0,-9.273114204406738,-97,9965.0
2780,0.3196665644645691,36.0467414855957,598,7950.0,-7.977299213409424,-235,9965.0
2790,0.3202105760574341,37.904476165771484,682,7950.0,-14.405210494995117,-223,9965.0
2800,0.32072189450263977,32.811824798583984,527,7950.0,-20.28972816467285,-247,9965.0
2810,0.321306049823761,24.70171356201172,273,7950.0,-21.60013771057129,-291,9965.0
2820,0.3222521245479584,14.609447479248047,60,7950.0,-10.6336088180542,-123,9965.0
2830,0.32285237312316895,-1.8145447969436646,-110,7950.0,-0.6443098783493042,-145,9965.0
2840,0.32358798384666443,-4.47011661529541,15,7950.0,7.816704273223877,189,9965.0
2850,0.3242000341415405,3.5422866344451904,124,7950.0,21.783658981323242,437,9965.0
2860,0.32434654235839844,1.0220118761062622,74,7950.0,33.67840576171875,714,9965.0
2870,0.3245191276073456,-7.1576619148254395,-186,7950.0,38.92292785644531,674,9965.0
2880,0.324569970369339,-18.62529754638672,-507,7950.0,41.73912811279297,503,9965.0
2890,0.3244926631450653,-36.735477447509766,-635,7950.0,37.634090423583984,580,9965.0
2900,0.32422369718551636,-38.590660095214844,-504,7950.0,28.458890914916992,519,9965.0
2910,0.32328760623931885,-28.339134216308594,-472,7950.0,13.924301147460938,2,9965.0
2920,0.32297343015670776,-10.385978698730469,29,7950.0,-7.266000747680664,-209,9965.0
2930,0.322550505399704,9.464487075805664,270,7950.0,-33.2983512878418,-637,9965.0
2940,0.3221501111984253,24.4722957611084,425,7950.0,-53.4073600769043,-1092,9965.0
2950,0.321035236120224,30.782255172729492,543,7950.0,-65.89915466308594,-955,9965.0
2960,0.32049670815467834,27.952251434326172,490,7950.0,-59.298587799072266,-839,9965.0
2970,0.3204358220100403,17.93514633178711,173,7950.0,-39.092926025390625,-501,9965.0
2980,0.3205297589302063,-1.1300618648529053,-184,7950.0,-13.030086517333984,-117,9965.0
2990,0.32106563448905945,-20.345012664794922,-406,7950.0,13.060480117797852,295,9965.0
3000,0.32135194540023804,-29.182825088500977,-459,7950.0,33.298553466796875,627,9965.0
3010,0.32186058163642883,-24.09927749633789,-315,7950.0,39.924407958984375,689,9965.0
3020,0.32240819931030273,-12.262948989868164,-119,7950.0,35.50831985473633,508,9965.0
3030,0.32332342863082886,-0.7997249960899353,-90,7950.0,21.84540367126465,196,9965.0
3040,0.3228510320186615,1.507948637008667,19,7950.0,5.13332462310791,32,9965.0
3050,0.32351285219192505,-7.525106430053711,-129,7950.0,-2.0718486309051514,-101,9965.0
3060,0.32420599460601807,-18.463762283325195,-417,7950.0,1.1042777299880981,-38,9965.0
3070,0.32466626167297363,-22.028236389160156,-334,7950.0,-9.565584182739258,-161,9965.0
3080,0.32498106360435486,-14.300540924072266,-123,7950.0,-13.317407608032227,-64,9965.0
3090,0.32435929775238037,-4.75980281829834,-126,7950.0,-8.866238594055176,-250,9965.0
3100,0.32432278990745544,6.634828090667725,130,7950.0,-6.548295021057129,-122,9965.0
3110,0.32412412762641907,12.592769622802734,317,7950.0,-4.241339206695557,115,9965.0
3120,0.32376930117607117,18.748083114624023,267,7950.0,2.0628063678741455,57,9965.0
3130,0.3231707513332367,19.6416072845459,257,7950.0,13.954166412353516,150,9965.0
3140,0.3225940763950348,18.3929443359375,397,7950.0,17.54471778869629,362,9965.0
3150,0.3220078647136688,16.676502227783203,271,7950.0,18.403188705444336,426,9965.0
3160,0.321292519569397,11.435201644897461,19,7950.0,20.962604522705078,142,9965.0
3170,0.31961312890052795,-1.5151501893997192,-69,7950.0,14.8710298538208,210,9965.0
3180,0.3188735246658325,-12.621092796325684,-171,7950.0,5.2716851234436035,170,9965.0
3190,0.318154901266098,-15.532051086425781,-339,7950.0,-7.548516750335693,-208,9965.0
3200,0.31747204065322876,-11.718505859375,-151,7950.0,-19.815261840820312,-449,9965.0
3210,0.3169647753238678,-5.5793657302856445,-80,7950.0,-26.28965950012207,-388,9965.0
3220,0.3171415328979492,0.5483687520027161,21,7950.0,-22.667564392089844,-334,9965.0
3230,0.31698739528656006,6.229225158691406,141,7950.0,-17.736576080322266,-157,9965.0
3240,0.31718751788139343,11.275843620300293,203,7950.0,-12.721956253051758,-218,9965.0
3250,0.31759634613990784,15.14903736114502,179,7950.0,-6.079008102416992,-197,9965.0
3260,0.31956717371940613,14.126416206359863,254,7950.0,-5.028144836425781,-110,9965.0
3270,0.3202971816062927,12.740424156188965,258,7950.0,-8.712642669677734,-10,9965.0
3280,0.32123053073883057,6.688253402709961,34,7950.0,-8.97225284576416,-125,9965.0
3290,0.32195910811424255,-7.037664413452148,-242,7950.0,-0.7531091570854187,-156,9965.0
3300,0.32274070382118225,-24.599044799804688,-469,7950.0,2.840787887573242,53,9965.0
3310,0.3232753574848175,-43.62611389160156,-631,7950.0,5.297454357147217,166,9965.0
3320,0.3237561881542206,-45.64567565917969,-714,7950.0,3.3251020908355713,111,9965.0
3330,0.32392483949661255,-43.5953254699707,-745,7950.0,5.190118789672852,-126,9965.0
3340,0.32492679357528687,-27.37746810913086,-261,7950.0,0.8292008638381958,42,9965.0
3350,0.3238508403301239,-7.783117294311523,-31,7950.0,2.0075554847717285,102,9965.0
3360,0.323640376329422,14.052042961120605,259,7950.0,9.328102111816406,162,9965.0
3370,0.3233097791671753,31.16683578491211,636,7950.0,16.654294967651367,379,9965.0
3380,0.322820782661438,38.6077766418457,605,7950.0,24.39190101623535,354,9965.0
3390,0.32100552320480347,37.62857437133789,602,7950.0,21.79506492614746,444,9965.0
3400,0.32026994228363037,30.461336135864258,452,7950.0,15.79351806640625,187,9965.0
3410,0.3192478120326996,20.79922866821289,256,7950.0,7.273125648498535,9,9965.0
3420,0.3181510269641876,5.260733127593994,147,7950.0,-5.818831443786621,-22,9965.0
3430,0.31805652379989624,-4.6668171882629395,-113,7950.0,-19.420381546020508,-286,9965.0
3440,0.31735116243362427,-11.737631797790527,-245,7950.0,-25.358755111694336,-560,9965.0
3450,0.3164202570915222,-4.4802751541137695,-20,7950.0,-21.994443893432617,-316,9965.0
3460,0.31567078828811646,4.5111799240112305,96,7950.0,-11.818401336669922,-21,9965.0
3470,0.3151923418045044,6.383910179138184,114,7950.0,1.4060198068618774,41,9965.0
3480,0.317047119140625,6.034311771392822,111,7950.0,9.06770133972168,120,9965.0
3490,0.3171289265155792,2.5193774700164795,105,7950.0,8.953134536743164,160,9965.0
3500,0.31779637932777405,-0.4875246286392212,-98,7950.0,-1.0817077159881592,-32,9965.0
3510,0.3183101415634155,-8.117597579956055,-238,7950.0,-9.062322616577148,-288,9965.0
3520,0.3185366988182068,-18.926925659179688,-270,7950.0,-4.174440383911133,-29,9965.0
3530,0.31913483142852783,-22.996334075927734,-285,7950.0,7.964779376983643,316,9965.0
3540,0.3197014629840851,-21.613283157348633,-416,7950.0,18.9422664642334,351,9965.0
3550,0.3200626075267792,-14.822334289550781,-263,7950.0,18.211200714111328,103,9965.0
3560,0.320242315530777,-4.101661205291748,57,7950.0,9.76001262664795,236,9965.0
3570,0.3208163380622864,7.367895126342773,215,7950.0,5.474513530731201,51,9965.0
3580,0.32114410400390625,21.356287002563477,314,7950.0,1.7137935161590576,-77,9965.0
3590,0.3211546242237091,26.027915954589844,474,7950.0,-0.8534386157989502,-3,9965.0
3600,0.3211142420768738,25.618043899536133,465,7950.0,-2.827327251434326,-64,9965.0
3610,0.32018882036209106,24.983551025390625,361,7950.0,-1.1822775602340698,-59,9965.0
3620,0.31983980536460876,18.54985809326172,290,7950.0,1.6561315059661865,75,9965.0
3630,0.3195511996746063,7.915871620178223,34,7950.0,1.0690336227416992,21,9965.0
3640,0.31897544860839844,-3.606886386871338,-204,7950.0,-1.6951640844345093,-267,9965.0
3650,0.3184225559234619,-16.947538375854492,-324,7950.0,-8.017244338989258,-169,9965.0
3660,0.31882309913635254,-24.0673770904541,-310,7950.0,-9.216761589050293,56,9965.0
3670,0.3182623088359833,-19.25037384033203,-279,7950.0,-2.048654556274414,-6,9965.0
3680,0.31799033284187317,-7.927783966064453,-67,7950.0,1.2568275928497314,-137,9965.0
3690,0.31783732771873474,0.814497709274292,67,7950.0,-2.9945228099823,13,9965.0
3700,0.3175280690193176,4.717707633972168,149,7950.0,-5.365904331207275,-139,9965.0
3710,0.3177322447299957,7.571807861328125,87,7950.0,-8.521268844604492,-285,9965.0
3720,0.3180878758430481,4.816793918609619,25,7950.0,-12.313943862915039,-228,9965.0
3730,0.31857967376708984,4.120221138000488,196,7950.0,-18.563560485839844,-232,9965.0
3740,0.31906846165657043,5.19429349899292,110,7950.0,-23.782886505126953,-424,9965.0
3750,0.31962043046951294,5.590409755706787,23,7950.0,-19.642173767089844,-332,9965.0
3760,0.32020270824432373,3.598165273666382,-25,7950.0,2.240734338760376,212,9965.0
3770,0.32094159722328186,2.5803074836730957,80,7950.0,24.233924865722656,492,9965.0
3780,0.3216829299926758,1.484443187713623,109,7950.0,43.503807067871094,842,9965.0
3790,0.3232455253601074,-1.8860434293746948,-69,7950.0,47.90694808959961,817,9965.0
3800,0.323554664850235,-5.044201374053955,-191,7950.0,37.67607498168945,516,9965.0
3810,0.32381877303123474,-6.147202014923096,-117,7950.0,22.682353973388672,348,9965.0
3820,0.32419607043266296,-11.535435676574707,-129,7950.0,4.163183212280273,-50,9965.0
3830,0.32366037368774414,-19.02863311767578,-459,7950.0,-8.55125617980957,-293,9965.0
3840,0.32360875606536865,-26.20472526550293,-419,7950.0,-20.12775993347168,-317,9965.0
3850,0.3234928846359253,-26.349470138549805,-357,7950.0,-25.70981216430664,-244,9965.0
3860,0.32329684495925903,-18.98601722717285,-313,7950.0,-25.231571197509766,-322,9965.0
3870,0.32076287269592285,-5.9493255615234375,4,7950.0,-15.372385025024414,-206,9965.0
3880,0.3210725486278534,11.80584716796875,306,7950.0,-10.672067642211914,-279,9965.0
3890,0.3208296298980713,25.28972053527832,354,7950.0,-7.347518444061279,-228,9965.0
3900,0.3206775188446045,31.71718406677246,557,7950.0,-8.20473575592041,-84,9965.0
3910,0.32068297266960144,33.584754943847656,575,7950.0,-9.819268226623535,-104,9965.0
3920,0.31848078966140747,24.90925407409668,322,7950.0,-7.498634338378906,-171,9965.0
3930,0.3185795545578003,10.438630104064941,61,7950.0,-3.832801580429077,-116,9965.0
3940,0.3189096748828888,-5.305693626403809,-111,7950.0,-1.1871973276138306,179,9965.0
3950,0.3193760812282562,-13.87436294555664,-203,7950.0,4.16065788269043,85,9965.0
3960,0.3195825517177582,-14.490900039672852,-254,7950.0,5.83983039855957,-45,9965.0
3970,0.3201417326927185,-11.198575019836426,-211,7950.0,1.6619529724121094,-6,9965.0
3980,0.32067248225212097,-9.594088554382324,-134,7950.0,-3.6566171646118164,86,9965.0
3990,0.32114535570144653,-15.02990436553955,-306,7950.0,-0.9676523208618164,111,9965.0
4000,0.32151755690574646,-24.911861419677734,-407,7950.0,8.082392692565918,39,9965.0
4010,0.32163211703300476,-28.99383544921875,-422,7950.0,11.525589942932129,191,9965.0
4020,0.32193875312805176,-15.035614967346191,-177,7950.0,9.517351150512695,174,9965.0
4030,0.3221990466117859,4.375151634216309,197,7950.0,11.272577285766602,95,9965.0
4040,0.3226854205131531,22.49985122680664,440,7950.0,10.469504356384277,99,9965.0
4050,0.3220427334308624,34.093162536621094,556,7950.0,0.7862703800201416,48,9965.0
4060,0.32197877764701843,38.212257385253906,583,7950.0,-5.54821252822876,-209,9965.0
4070,0.3216702342033386,34.07243728637695,558,7950.0,-5.2206292152404785,-12,9965.0
4080,0.3211733400821686,24.44420623779297,419,7950.0,3.0934038162231445,169,9965.0
4090,0.319471538066864,12.101601600646973,104,7950.0,10.520537376403809,221,9965.0
4100,0.31864240765571594,-2.0938994884490967,-152,7950.0,15.779119491577148,128,9965.0
4110,0.31809550523757935,-12.282666206359863,-223,7950.0,13.858463287353516,198,9965.0
4120,0.31727689504623413,-18.970212936401367,-233,7950.0,6.997685432434082,280,9965.0
4130,0.31664419174194336,-17.204647064208984,-278,7950.0,1.6421051025390625,-33,9965.0
4140,0.31591737270355225,-13.047773361206055,-247,7950.0,-5.6871490478515625,-258,9965.0
4150,0.315683513879776,-13.781877517700195,-147,7950.0,-16.80851936340332,-228,9965.0
4160,0.3156198263168335,-13.426435470581055,-179,7950.0,-22.468523025512695,-372,9965.0
4170,0.31566092371940613,-12.001952171325684,-183,7950.0,-22.93785858154297,-439,9965.0
4180,0.3158503472805023,-8.547182083129883,-83,7950.0,-18.665958404541016,-245,9965.0
4190,0.3161950707435608,-2.950556993484497,-62,7950.0,-13.102051734924316,-202,9965.0
4200,0.31652793288230896,2.9392459392547607,75,7950.0,-12.961355209350586,-188,9965.0
4210,0.31697261333465576,6.8848371505737305,158,7950.0,-10.062477111816406,-190,9965.0
4220,0.31751468777656555,11.669681549072266,215,7950.0,-10.572806358337402,-1,9965.0
4230,0.31836915016174316,9.421289443969727,92,7950.0,0.8470574617385864,113,9965.0
4240,0.3190286457538605,-0.7105709910392761,-68,7950.0,16.949562072753906,271,9965.0
4250,0.31967583298683167,-5.084411144256592,-122,7950.0,27.12239646911621,476,9965.0
4260,0.3200708329677582,-8.694665908813477,-96,7950.0,33.23355484008789,580,9965.0
4270,0.3205528259277344,-6.059604644775391,-35,7950.0,34.069419860839844,587,9965.0
4280,0.3205936551094055,6.289928436279297,139,7950.0,29.26927375793457,370,9965.0
4290,0.3204156458377838,14.047405242919922,335,7950.0,20.24721908569336,336,9965.0
4300,0.3201807141304016,13.857029914855957,109,7950.0,8.076090812683105,158,9965.0
4310,0.32159751653671265,7.243430137634277,65,7950.0,-0.03207017108798027,-194,9965.0
4320,0.3210999667644501,4.53602933883667,181,7950.0,-3.6572203636169434,21,9965.0
4330,0.32057633996009827,8.019679069519043,126,7950.0,-2.1656930446624756,2,9965.0
4340,0.31987667083740234,8.752703666687012,70,7950.0,-2.0255627632141113,-132,9965.0
4350,0.31908997893333435,6.271480083465576,156,7950.0,-4.913144588470459,-97,9965.0
4360,0.31985199451446533,0.9701040387153625,-1,7950.0,-9.252717018127441,-35,9965.0
4370,0.31914129853248596,-1.9354288578033447,-78,7950.0,-16.581462860107422,-298,9965.0
4380,0.31848716735839844,-5.316854000091553,-134,7950.0,-21.68458366394043,-547,9965.0
4390,0.31793493032455444,-9.359695434570312,-130,7950.0,-20.877120971679688,-319,9965.0
4400,0.31811848282814026,-10.347894668579102,-127,7950.0,-15.869484901428223,-120,9965.0
4410,0.3180099129676819,-15.929224014282227,-347,7950.0,-7.209774017333984,-22,9965.0
4420,0.318055123090744,-22.641592025756836,-402,7950.0,-1.2525311708450317,-156,9965.0
4430,0.3182087540626526,-21.671974182128906,-296,7950.0,1.8201613426208496,78,9965.0
4440,0.31836003065109253,-13.003496170043945,-122,7950.0,2.450914144515991,78,9965.0
4450,0.31843289732933044,0.22278933227062225,44,7950.0,-2.3153629302978516,-55,9965.0
4460,0.31884968280792236,11.19914436340332,207,7950.0,-11.070868492126465,-304,9965.0
4470,0.31927376985549927,16.556068420410156,348,7950.0,-18.304182052612305,-287,9965.0
4480,0.31978756189346313,16.709030151367188,268,7950.0,-11.77077865600586,-80,9965.0
4490,0.32036155462265015,11.774927139282227,184,7950.0,8.40023422241211,194,9965.0
4500,0.32093191146850586,7.069452285766602,91,7950.0,25.224830627441406,433,9965.0
4510,0.3213968276977539,1.261397123336792,2,7950.0,33.9942626953125,551,9965.0
4520,0.32187125086784363,-7.194207668304443,-208,7950.0,34.526588439941406,563,9965.0
4530,0.3224213719367981,-13.126503944396973,-194,7950.0,25.559053421020508,380,9965.0
4540,0.3224394619464874,-10.97870922088623,-95,7950.0,21.52933692932129,414,9965.0
4550,0.3222290575504303,-1.2335704565048218,-49,7950.0,12.887024879455566,123,9965.0
4560,0.3224039673805237,11.012720108032227,262,7950.0,-1.5464057922363281,-39,9965.0
4570,0.32220324873924255,22.53459358215332,465,7950.0,-9.853668212890625,-93,9965.0
4580,0.32144197821617126,27.917278289794922,328,7950.0,-16.21908187866211,-431,9965.0
4590,0.3211272060871124,17.618844985961914,183,7950.0,-23.10247802734375,-404,9965.0
4600,0.32075726985931396,-5.2471394538879395,-65,7950.0,-23.25204849243164,-254,9965.0
4610,0.3205117881298065,-20.961048126220703,-439,7950.0,-21.5513973236084,-287,9965.0
4620,0.3189735412597656,-26.247880935668945,-517,7950.0,-21.063404083251953,-476,9965.0
4630,0.31871020793914795,-19.128644943237305,-188,7950.0,-20.260358810424805,-320,9965.0
4640,0.31841379404067993,-0.9487057328224182,70,7950.0,-16.715564727783203,-178,9965.0
4650,0.31856992840766907,6.290274620056152,95,7950.0,-7.321627616882324,-57,9965.0
4660,0.31834009289741516,10.971007347106934,175,7950.0,-0.37414613366127014,-4,9965.0
4670,0.31851404905319214,10.022547721862793,201,7950.0,2.2462399005889893,48,9965.0
4680,0.3187953233718872,8.44214153289795,88,7950.0,-1.7996814250946045,-4,9965.0
4690,0.31931328773498535,7.062697410583496,71,7950.0,-8.765532493591309,-271,9965.0
4700,0.3199874460697174,0.3693825304508209,17,7950.0,-5.225747108459473,-11,9965.0
4710,0.3211420178413391,-9.4268798828125,-124,7950.0,11.391977310180664,365,9965.0
4720,0.3219066858291626,-12.287124633789062,-194,7950.0,19.876140594482422,449,9965.0
4730,0.32250985503196716,-11.734753608703613,-280,7950.0,30.39997100830078,354,9965.0
4740,0.32298174500465393,-8.297494888305664,-155,7950.0,28.508712768554688,319,9965.0
4750,0.3231772482395172,-4.645762920379639,26,7950.0,19.091243743896484,484,9965.0
4760,0.32338517904281616,-1.4235740900039673,-31,7950.0,15.349925994873047,226,9965.0
4770,0.32349008321762085,-0.47342514991760254,-22,7950.0,14.562414169311523,106,9965.0
4780,0.32345426082611084,0.61189866065979,10,7950.0,12.89660358428955,303,9965.0
4790,0.3233951926231384,1.0050721168518066,-4,7950.0,12.71341323852539,130,9965.0
4800,0.32100123167037964,5.744016170501709,102,7950.0,6.530577182769775,152,9965.0
4810,0.3206057846546173,7.733755111694336,117,7950.0,0.7020789384841919,0,9965.0
4820,0.32032451033592224,4.849775314331055,60,7950.0,-9.743617057800293,-219,9965.0
4830,0.3200073838233948,3.930966377258301,130,7950.0,-16.825119018554688,-229,9965.0
4840,0.3189747631549835,3.5601742267608643,-4,7950.0,-26.774967193603516,-429,9965.0
4850,0.3186262249946594,-1.0234910249710083,-98,7950.0,-29.35750961303711,-566,9965.0
4860,0.3183754086494446,-7.633010387420654,-46,7950.0,-25.462982177734375,-346,9965.0
4870,0.31823092699050903,-8.578435897827148,-83,7950.0,-15.521994590759277,-127,9965.0
4880,0.31822705268859863,-1.3676245212554932,-55,7950.0,-5.3665337562561035,-146,9965.0
4890,0.3193960189819336,9.13862419128418,173,7950.0,4.463259696960449,26,9965.0
4900,0.31993433833122253,20.581283569335938,484,7950.0,4.972209930419922,199,9965.0
4910,0.320576012134552,23.37160873413086,347,7950.0,1.0065146684646606,31,9965.0
4920,0.32128632068634033,18.860450744628906,182,7950.0,-9.370016098022461,-314,9965.0
4930,0.32160285115242004,10.96782112121582,147,7950.0,-21.241558074951172,-475,9965.0
4940,0.32233405113220215,1.5572420358657837,-1,7950.0,-24.02362632751465,-297,9965.0
4950,0.32290416955947876,-10.785161018371582,-140,7950.0,-13.829815864562988,-79,9965.0
4960,0.3236982226371765,-13.841229438781738,-267,7950.0,3.475975751876831,214,9965.0
4970,0.32307741045951843,-13.99929141998291,-282,7950.0,18.856063842773438,292,9965.0
4980,0.3232053220272064,-11.554198265075684,-214,7950.0,25.649490356445312,407,9965.0
4990,0.32307448983192444,-8.031982421875,-55,7950.0,28.35704803466797,586,9965.0
5000,0.3228180408477783,-5.966477870941162,-48,7950.0,26.84641456604004,437,9965.0
5010,0.32210540771484375,-7.469735622406006,-228,7950.0,25.464405059814453,317,9965.0
5020,0.3212788999080658,-12.17050552368164,-208,7950.0,18.772459030151367,207,9965.0
5030,0.320355623960495,-16.505268096923828,-204,7950.0,3.7377007007598877,155,9965.0
5040,0.3194662630558014,-14.8526611328125,-305,7950.0,-5.009729385375977,-227,9965.0
5050,0.318490594625473,-8.792230606079102,-69,7950.0,-12.874361038208008,-205,9965.0
5060,0.3176012337207794,-0.49403443932533264,65,7950.0,-15.635767936706543,-173,9965.0
5070,0.3169138431549072,4.426432132720947,30,7950.0,-14.611933708190918,-370,9965.0
5080,0.3164733648300171,15.632524490356445,310,7950.0,-18.539539337158203,-276,9965.0
5090,0.3162957429885864,22.343908309936523,365,7950.0,-19.541433334350586,-339,9965.0
5100,0.31622323393821716,20.75928497314453,281,7950.0,-21.01725959777832,-315,9965.0
5110,0.3171995282173157,11.64936637878418,227,7950.0,-18.239482879638672,-240,9965.0
5120,0.31773385405540466,1.7016451358795166,-4,7950.0,-14.248250961303711,-141,9965.0
5130,0.3184361159801483,-3.1756808757781982,-173,7950.0,-5.729272365570068,-253,9965.0
5140,0.31913334131240845,-6.805224895477295,-163,7950.0,0.14658965170383453,-12,9965.0
5150,0.31990548968315125,-7.587590217590332,-47,7950.0,2.75362229347229,139,9965.0
5160,0.3206620514392853,-4.876260280609131,-10,7950.0,6.4033918380737305,101,9965.0
5170,0.32145100831985474,-0.7533541917800903,-27,7950.0,4.3944993019104,72,9965.0
5180,0.3223065733909607,0.5208801627159119,9,7950.0,9.103599548339844,181,9965.0
5190,0.32342851161956787,3.711690902709961,62,7950.0,19.106395721435547,403,9965.0
5200,0.32418641448020935,3.0307931900024414,41,7950.0,29.260807037353516,436,9965.0
5210,0.3247198760509491,2.8412601947784424,18,7950.0,30.228261947631836,445,9965.0
5220,0.32496240735054016,3.2688095569610596,102,7950.0,29.540149688720703,610,9965.0
5230,0.3251529932022095,0.5185462832450867,-29,7950.0,28.440624237060547,442,9965.0
5240,0.3245835602283478,-5.135324001312256,-208,7950.0,21.923677444458008,221,9965.0
5250,0.3241496980190277,-11.256525039672852,-81,7950.0,14.604898452758789,275,9965.0
5260,0.32373255491256714,-6.355698108673096,-67,7950.0,3.8544914722442627,75,9965.0
5270,0.3233342468738556,0.0034516858868300915,-24,7950.0,-6.546972751617432,-309,9965.0
5280,0.32205480337142944,9.460415840148926,291,7950.0,-20.10444450378418,-273,9965.0
5290,0.3215421438217163,14.926565170288086,263,7950.0,-29.630905151367188,-477,9965.0
5300,0.3210294842720032,11.076602935791016,45,7950.0,-32.34934616088867,-717,9965.0
5310,0.3205952048301697,3.686572790145874,50,7950.0,-35.12672805786133,-556,9965.0
5320,0.3197689354419708,-2.3326337337493896,29,7950.0,-30.263267517089844,-301,9965.0
5330,0.3194623589515686,-5.825373649597168,-78,7950.0,-16.685884475708008,-112,9965.0
5340,0.31928908824920654,-7.050535202026367,-210,7950.0,2.115809917449951,26,9965.0
5350,0.31932395696640015,-12.326141357421875,-300,7950.0,20.77625846862793,321,9965.0
5360,0.31967344880104065,-15.029364585876465,-172,7950.0,33.71110153198242,585,9965.0
5370,0.3189924955368042,-11.53498649597168,-145,7950.0,35.69878387451172,680,9965.0
5380,0.3193032443523407,-5.940615653991699,-94,7950.0,27.823780059814453,333,9965.0
5390,0.3198530673980713,2.4135563373565674,50,7950.0,8.736702919006348,85,9965.0
5400,0.3203749358654022,9.551469802856445,153,7950.0,-12.74810791015625,-356,9965.0
5410,0.3209436535835266,11.671676635742188,226,7950.0,-31.422731399536133,-547,9965.0
5420,0.32134222984313965,9.0202054977417,190,7950.0,-30.04869270324707,-403,9965.0
5430,0.32174330949783325,12.625274658203125,123,7950.0,-21.255895614624023,-326,9965.0
5440,0.322033554315567,13.650750160217285,168,7950.0,-14.49797534942627,-313,9965.0
5450,0.322162389755249,7.7436065673828125,183,7950.0,-9.578666687011719,-216,9965.0
5460,0.32327693700790405,-2.619248151779175,-1,7950.0,-5.370025634765625,105,9965.0
5470,0.32328107953071594,-6.756655216217041,-150,7950.0,1.7657899856567383,72,9965.0
5480,0.3231409192085266,-7.479430675506592,-164,7950.0,12.618367195129395,196,9965.0
5490,0.32289260625839233,-6.612783432006836,-73,7950.0,24.44942855834961,379,9965.0
5500,0.3234889507293701,-4.912865161895752,-30,7950.0,33.64499282836914,644,9965.0
5510,0.32293885946273804,-2.6380577087402344,-8,7950.0,39.6376838684082,702,9965.0
5520,0.3222033679485321,0.0941348746418953,74,7950.0,33.72886276245117,434,9965.0
5530,0.3213769793510437,3.884674549102783,56,7950.0,18.15207862854004,278,9965.0
5540,0.32074984908103943,1.5481489896774292,-107,7950.0,1.251499891281128,-189,9965.0
5550,0.3200671076774597,-6.818270683288574,-77,7950.0,-16.361793518066406,-293,9965.0
5560,0.3194275498390198,-14.213346481323242,-211,7950.0,-32.3252067565918,-526,9965.0
5570,0.3189307451248169,-13.012103080749512,-242,7950.0,-38.62432861328125,-768,9965.0
5580,0.31856071949005127,-1.7622228860855103,55,7950.0,-38.977970123291016,-575,9965.0
5590,0.31884676218032837,7.1696977615356445,152,7950.0,-30.157424926757812,-334,9965.0
5600,0.3191288709640503,13.427244186401367,212,7950.0,-15.970301628112793,-193,9965.0
5610,0.319336473941803,10.244673728942871,205,7950.0,0.42901501059532166,154,9965.0
5620,0.3199956715106964,2.2571427822113037,47,7950.0,15.366907119750977,405,9965.0
5630,0.3224315941333771,-6.615394592285156,-254,7950.0,27.05938148498535,467,9965.0
5640,0.32331231236457825,-14.208415031433105,-306,7950.0,31.549806594848633,409,9965.0
5650,0.3242916762828827,-13.392073631286621,-164,7950.0,24.923974990844727,278,9965.0
5660,0.32554376125335693,-12.437572479248047,-163,7950.0,10.54522705078125,90,9965.0
5670,0.3269040286540985,-11.477559089660645,-282,7950.0,-1.77815580368042,-217,9965.0
5680,0.32772910594940186,-12.41434097290039,-165,7950.0,-9.897225379943848,-75,9965.0
5690,0.3297012746334076,-12.932415962219238,-115,7950.0,-4.2647576332092285,-33,9965.0
5700,0.331834614276886,2.46559476852417,4,7950.0,-1.9841163158416748,-190,9965.0
5710,0.3341849148273468,16.457422256469727,335,7950.0,-3.0008299350738525,76,9965.0
5720,0.33557263016700745,20.052833557128906,380,7950.0,-0.07102156430482864,17,9965.0
5730,0.33784177899360657,23.07052230834961,292,7950.0,-3.783998727798462,-142,9965.0
5740,0.3398815095424652,18.073392868041992,239,7950.0,-12.199933052062988,-212,9965.0
5750,0.34186020493507385,12.469557762145996,180,7950.0,-13.78834342956543,-366,9965.0
5760,0.34291207790374756,6.4943037033081055,168,7950.0,-8.08392333984375,14,9965.0
5770,0.3442957103252411,4.432599067687988,139,7950.0,0.0820157453417778,82,9965.0
5780,0.3456980884075165,7.1022629737854,-16,7950.0,2.8110086917877197,-44,9965.0
5790,0.3470006287097931,5.348086833953857,100,7950.0,-3.354445219039917,-78,9965.0
5800,0.3479461669921875,7.2178263664245605,41,7950.0,-10.802090644836426,-359,9965.0
5810,0.35074201226234436,5.988269805908203,164,7950.0,-23.13698959350586,-459,9965.0
5820,0.35126394033432007,4.723255157470703,117,7950.0,-32.2421989440918,-449,9965.0
5830,0.3516676425933838,0.1008349359035492,-5,7950.0,-34.837467193603516,-516,9965.0
5840,0.35184338688850403,-6.7163214683532715,-104,7950.0,-32.345767974853516,-385,9965.0
5850,0.3538018763065338,-12.000758171081543,-333,7950.0,-23.341238021850586,-268,9965.0
5860,0.3536316156387329,-19.566579818725586,-388,7950.0,-16.379283905029297,-320,9965.0
5870,0.3533868193626404,-24.348649978637695,-390,7950.0,-16.97360610961914,-306,9965.0
5880,0.353056937456131,-24.126733779907227,-423,7950.0,-20.89539337158203,-546,9965.0
5890,0.3538530170917511,-16.18680763244629,-190,7950.0,-30.669065475463867,-507,9965.0
5900,0.35369086265563965,-13.538352012634277,-146,7950.0,-29.85907554626465,-363,9965.0
5910,0.3534248173236847,-8.522665977478027,-159,7950.0,-32.7277946472168,-524,9965.0
5920,0.35323408246040344,-1.0333911180496216,55,7950.0,-26.074256896972656,-404,9965.0
5930,0.35321441292762756,14.605746269226074,291,7950.0,-15.561563491821289,-219,9965.0
5940,0.3536824584007263,23.0775089263916,364,7950.0,2.269737958908081,57,9965.0
5950,0.35354939103126526,20.217830657958984,279,7950.0,22.8696346282959,414,9965.0
5960,0.3532179594039917,11.215428352355957,191,7950.0,39.86898422241211,719,9965.0
5970,0.3526862859725952,-0.3372660279273987,-21,7950.0,51.684513092041016,979,9965.0
5980,0.3515205681324005,-10.350227355957031,-141,7950.0,66.52041625976562,1244,9965.0
5990,0.3511280417442322,-12.074437141418457,-306,7950.0,68.604736328125,1116,9965.0
6000,0.35067909955978394,-14.829427719116211,-258,7950.0,64.01161193847656,960,9965.0
6010,0.3506585955619812,-10.411520004272461,-6,7950.0,50.02619552612305,857,9965.0
6020,0.35008588433265686,-1.6218641996383667,-96,7950.0,32.862300872802734,378,9965.0
6030,0.3451198935508728,4.934958457946777,111,7950.0,8.380882263183594,31,9965.0
6040,0.34510642290115356,10.175551414489746,211,7950.0,-18.346311569213867,-361,9965.0
6050,0.3450085520744324,11.233817100524902,94,7950.0,-41.43777847290039,-860,9965.0
6060,0.34497925639152527,8.773455619812012,141,7950.0,-48.3374137878418,-707,9965.0
6070,0.33859142661094666,2.7777597904205322,63,7950.0,-39.09825897216797,-559,9965.0
6080,0.3386427164077759,-6.05520486831665,-189,7950.0,-23.29524803161621,-259,9965.0
6090,0.3387428820133209,-14.434694290161133,-287,7950.0,-1.2272722721099854,-14,9965.0
6100,0.33939310908317566,-15.473910331726074,-210,7950.0,15.293258666992188,325,9965.0
6110,0.3365826904773712,-9.77916145324707,-138,7950.0,23.161653518676758,475,9965.0
6120,0.3370116353034973,-5.615599155426025,-30,7950.0,30.85738754272461,507,9965.0
6130,0.33754289150238037,-2.673651933670044,-88,7950.0,33.5411491394043,514,9965.0
6140,0.33821502327919006,-3.0698940753936768,-46,7950.0,28.50441551208496,513,9965.0
6150,0.3391968905925751,-4.15645694732666,-23,7950.0,27.239288330078125,438,9965.0
6160,0.33575260639190674,0.514032781124115,20,7950.0,25.036420822143555,329,9965.0
6170,0.3366527259349823,1.3801683187484741,62,7950.0,30.439146041870117,576,9965.0
6180,0.33756911754608154,10.87840747833252,250,7950.0,34.48814010620117,675,9965.0
6190,0.33833712339401245,20.697723388671875,365,7950.0,35.746673583984375,485,9965.0
6200,0.33682939410209656,26.420732498168945,442,7950.0,34.97056579589844,574,9965.0
6210,0.3369491994380951,25.34446144104004,472,7950.0,26.121782302856445,410,9965.0
6220,0.33736398816108704,23.531898498535156,298,7950.0,13.529501914978027,159,9965.0
6230,0.33702391386032104,20.329023361206055,330,7950.0,0.12836669385433197,-147,9965.0
6240,0.3365243971347809,15.91691780090332,253,7950.0,-14.653338432312012,-235,9965.0
6250,0.3339269161224365,7.5956854820251465,35,7950.0,-27.773427963256836,-505,9965.0
6260,0.33327221870422363,-3.692516565322876,-189,7950.0,-42.946197509765625,-791,9965.0
6270,0.33238741755485535,-16.186635971069336,-312,7950.0,-48.155818939208984,-794,9965.0
6280,0.33137694001197815,-21.580665588378906,-441,7950.0,-39.5206184387207,-611,9965.0
6290,0.33221060037612915,-21.56197166442871,-336,7950.0,-23.224702835083008,-181,9965.0
6300,0.3315906822681427,-16.90776252746582,-195,7950.0,-3.612569570541382,121,9965.0
6310,0.33072203397750854,-15.51956558227539,-220,7950.0,15.157788276672363,367,9965.0
6320,0.329836905002594,-13.71638298034668,-325,7950.0,25.68916893005371,356,9965.0
6330,0.32890552282333374,-11.146761894226074,-211,7950.0,18.224767684936523,212,9965.0
6340,0.3286873400211334,-8.000121116638184,-106,7950.0,0.9164265394210815,34,9965.0
6350,0.3278423547744751,-9.299371719360352,-191,7950.0,-14.971282005310059,-348,9965.0
6360,0.3269397020339966,-17.096189498901367,-278,7950.0,-22.45282554626465,-320,9965.0
6370,0.3261324167251587,-23.12744903564453,-434,7950.0,-28.343828201293945,-535,9965.0
6380,0.32474619150161743,-25.537765502929688,-375,7950.0,-39.756221771240234,-675,9965.0
6390,0.32359933853149414,-19.714082717895508,-194,7950.0,-44.505706787109375,-522,9965.0
6400,0.3222089111804962,-3.5177927017211914,-85,7950.0,-34.873680114746094,-586,9965.0
6410,0.3206954896450043,11.390092849731445,211,7950.0,-21.361085891723633,-274,9965.0
6420,0.3194468915462494,24.48716926574707,511,7950.0,0.5223156809806824,185,9965.0
6430,0.31801867485046387,30.351808547973633,456,7950.0,28.633466720581055,548,9965.0
6440,0.3166012167930603,22.420818328857422,330,7950.0,44.513912200927734,704,9965.0
6450,0.315022349357605,6.837615966796875,86,7950.0,44.660850524902344,820,9965.0
6460,0.3133712112903595,-10.820612907409668,-272,7950.0,31.68863296508789,415,9965.0
6470,0.31322434544563293,-19.748056411743164,-297,7950.0,12.77026081085205,241,9965.0
6480,0.3117451071739197,-18.101892471313477,-401,7950.0,-5.245181083679199,-300,9965.0
6490,0.3101397454738617,-16.002525329589844,-160,7950.0,-18.564048767089844,-330,9965.0
6500,0.30860504508018494,-5.483753204345703,-72,7950.0,-24.214879989624023,-502,9965.0
6510,0.30423247814178467,6.305374622344971,238,7950.0,-22.433652877807617,-168,9965.0
6520,0.30292919278144836,15.784838676452637,295,7950.0,-8.053667068481445,-12,9965.0
6530,0.30182138085365295,18.768260955810547,335,7950.0,11.779191970825195,295,9965.0
6540,0.3012193739414215,18.361204147338867,339,7950.0,27.201913833618164,601,9965.0
6550,0.3005758225917816,12.944938659667969,132,7950.0,34.39309310913086,447,9965.0
6560,0.3000198304653168,10.099457740783691,203,7950.0,25.28632164001465,401,9965.0
6570,0.29958227276802063,10.828216552734375,125,7950.0,10.375096321105957,-117,9965.0
6580,0.299239844083786,10.180534362792969,273,7950.0,-9.775264739990234,-207,9965.0
6590,0.2989688813686371,9.088604927062988,103,7950.0,-22.148540496826172,-426,9965.0
6600,0.29704877734184265,4.018289566040039,31,7950.0,-27.332651138305664,-428,9965.0
6610,0.2965638041496277,-3.2672812938690186,-32,7950.0,-18.895626068115234,-90,9965.0
6620,0.29594022035598755,-9.997130393981934,-280,7950.0,-12.690136909484863,-105,9965.0
6630,0.2949810326099396,-24.089977264404297,-468,7950.0,2.9831130504608154,61,9965.0
6640,0.294247031211853,-30.02689552307129,-434,7950.0,23.168710708618164,563,9965.0
6650,0.2933913767337799,-18.56332015991211,-292,7950.0,40.07752227783203,643,9965.0
6660,0.2922365665435791,2.629343271255493,134,7950.0,50.793983459472656,892,9965.0
6670,0.2912750542163849,24.969402313232422,491,7950.0,58.004695892333984,872,9965.0
6680,0.29026201367378235,38.07111740112305,748,7950.0,57.49528503417969,1030,9965.0
6690,0.2912587821483612,40.72310256958008,699,7950.0,53.27523422241211,727,9965.0
6700,0.2901017665863037,33.47447204589844,590,7950.0,38.799495697021484,692,9965.0
6710,0.289610892534256,25.977182388305664,304,7950.0,20.441726684570312,196,9965.0
6720,0.28845152258872986,17.615903854370117,306,7950.0,4.412960529327393,87,9965.0
6730,0.2859909236431122,11.518080711364746,58,7950.0,-12.02929401397705,-364,9965.0
6740,0.28450095653533936,3.2200629711151123,63,7950.0,-23.73968505859375,-318,9965.0
6750,0.28291791677474976,-8.353163719177246,-246,7950.0,-31.103504180908203,-668,9965.0
6760,0.2813006341457367,-18.39805793762207,-351,7950.0,-31.313610076904297,-499,9965.0
6770,0.2783016860485077,-25.4676513671875,-449,7950.0,-25.147693634033203,-244,9965.0
6780,0.2768881022930145,-30.167814254760742,-541,7950.0,-9.811643600463867,-259,9965.0
6790,0.2759220004081726,-30.80310821533203,-441,7950.0,1.300805687904358,76,9965.0
6800,0.2742236852645874,-23.03288459777832,-362,7950.0,13.239594459533691,152,9965.0
6810,0.2735922336578369,-12.758962631225586,-111,7950.0,18.781396865844727,311,9965.0
6820,0.2712271809577942,0.7067243456840515,97,7950.0,21.831769943237305,329,9965.0
6830,0.2706419825553894,15.020112991333008,309,7950.0,21.09579086303711,343,9965.0
6840,0.269882470369339,23.628856658935547,441,7950.0,19.634689331054688,374,9965.0
6850,0.26961278915405273,29.468080520629883,472,7950.0,20.594282150268555,264,9965.0
6860,0.2698775827884674,33.42436218261719,589,7950.0,19.033849716186523,397,9965.0
6870,0.2697974145412445,33.558494567871094,495,7950.0,20.488361358642578,160,9965.0
6880,0.26894840598106384,27.3365421295166,433,7950.0,16.233701705932617,258,9965.0
6890,0.26870694756507874,13.955843925476074,120,7950.0,17.783605575561523,426,9965.0
6900,0.2679383158683777,-3.241670608520508,-202,7950.0,24.287141799926758,269,9965.0
6910,0.2681885063648224,-21.171756744384766,-420,7950.0,27.337892532348633,468,9965.0
6920,0.26715248823165894,-35.98819351196289,-624,7950.0,24.074121475219727,436,9965.0
6930,0.2665878236293793,-41.07294845581055,-689,7950.0,22.19294548034668,188,9965.0
6940,0.26642531156539917,-42.57497787475586,-700,7950.0,10.518641471862793,165,9965.0
6950,0.265763521194458,-36.78804397583008,-638,7950.0,0.40792426466941833,-22,9965.0
6960,0.2642461955547333,-30.852689743041992,-521,7950.0,-1.957374095916748,-42,9965.0
6970,0.2638455033302307,-25.14100456237793,-336,7950.0,-0.0005280206096358597,67,9965.0
6980,0.26289454102516174,-15.453229904174805,-249,7950.0,1.5767226219177246,-47,9965.0
6990,0.26188743114471436,-4.859864711761475,-31,7950.0,1.993127465248108,147,9965.0
7000,0.26039689779281616,2.4795615673065186,-42,7950.0,4.722240447998047,-49,9965.0
7010,0.2593434154987335,-0.454148530960083,0,7950.0,4.534235954284668,187,9965.0
7020,0.2584807574748993,-5.180751800537109,-158,7950.0,3.369142532348633,33,9965.0
7030,0.2569679617881775,-15.879063606262207,-268,7950.0,2.7941315174102783,145,9965.0
7040,0.2558841109275818,-23.923673629760742,-386,7950.0,2.945261001586914,107,9965.0
7050,0.2547094523906708,-25.139358520507812,-449,7950.0,4.173131465911865,-16,9965.0
7060,0.2534986138343811,-22.273588180541992,-310,7950.0,3.7217907905578613,186,9965.0
7070,0.25279366970062256,-17.199867248535156,-288,7950.0,4.322530746459961,-17,9965.0
7080,0.251433402299881,-14.812738418579102,-173,7950.0,5.64067268371582,200,9965.0
7090,0.2505544126033783,-10.698664665222168,-232,7950.0,6.363481044769287,-24,9965.0
7100,0.2493124008178711,-11.570170402526855,-131,7950.0,5.8784613609313965,160,9965.0
7110,0.2483331561088562,-11.822509765625,-278,7950.0,5.940803527832031,63,9965.0
7120,0.24780532717704773,-13.806910514831543,-144,7950.0,10.696812629699707,248,9965.0
7130,0.24690304696559906,-11.435272216796875,-240,7950.0,13.411365509033203,185,9965.0
7140,0.24620388448238373,-8.36606502532959,-67,7950.0,14.167855262756348,204,9965.0
7150,0.24555149674415588,-0.8759539723396301,-16,7950.0,7.108373165130615,57,9965.0
7160,0.24540656805038452,4.611010551452637,76,7950.0,-2.28916597366333,-103,9965.0
7170,0.24593335390090942,5.299063205718994,103,7950.0,-8.286213874816895,-110,9965.0
7180,0.24557259678840637,4.285444736480713,26,7950.0,-8.968208312988281,-205,9965.0
7190,0.2450617551803589,6.673785209655762,160,7950.0,-4.79176664352417,-6,9965.0
7200,0.24491716921329498,9.119935035705566,105,7950.0,-2.338121175765991,-23,9965.0
7210,0.24562811851501465,10.131138801574707,191,7950.0,2.0332632064819336,14,9965.0
7220,0.2450883686542511,12.912254333496094,240,7950.0,5.496814727783203,104,9965.0
7230,0.24511142075061798,20.12078094482422,328,7950.0,7.404721736907959,103,9965.0
7240,0.24458499252796173,28.79037094116211,508,7950.0,6.76869010925293,181,9965.0
7250,0.2439187914133072,28.272157669067383,371,7950.0,8.44091796875,129,9965.0
7260,0.24451729655265808,22.9271240234375,399,7950.0,13.192028999328613,288,9965.0
7270,0.24415868520736694,13.980901718139648,171,7950.0,15.214078903198242,282,9965.0
7280,0.24369363486766815,-3.2998437881469727,-169,7950.0,15.230363845825195,202,9965.0
7290,0.24319516122341156,-18.25551986694336,-335,7950.0,6.51673698425293,161,9965.0
7300,0.2436983585357666,-26.726417541503906,-497,7950.0,-2.53659987449646,-152,9965.0
7310,0.24339605867862701,-31.403303146362305,-470,7950.0,-11.480955123901367,-115,9965.0
7320,0.24296517670154572,-28.236703872680664,-529,7950.0,-12.694513320922852,-330,9965.0
7330,0.24273423850536346,-21.03017234802246,-257,7950.0,-15.180715560913086,-231,9965.0
7340,0.2438165545463562,-7.455195426940918,-99,7950.0,-17.059907913208008,-280,9965.0
7350,0.24347226321697235,2.4996652603149414,75,7950.0,-16.385910034179688,-293,9965.0
7360,0.2434641271829605,3.612189531326294,81,7950.0,-11.910696983337402,-94,9965.0
7370,0.24334946274757385,-0.9848467111587524,-34,7950.0,-5.862893581390381,-136,9965.0
7380,0.2434498816728592,-4.614193439483643,-82,7950.0,8.5911283493042,305,9965.0
7390,0.2450491040945053,-5.625462532043457,-161,7950.0,18.276708602905273,227,9965.0
7400,0.24512693285942078,-8.204442024230957,-104,7950.0,19.507932662963867,407,9965.0
7410,0.24514101445674896,-11.571722984313965,-219,7950.0,16.357431411743164,100,9965.0
7420,0.2451608031988144,-10.831674575805664,-175,7950.0,7.782243728637695,139,9965.0
7430,0.24790282547473907,-6.432971000671387,-47,7950.0,3.078195810317993,-19,9965.0
7440,0.24840153753757477,1.9527071714401245,22,7950.0,-2.6574172973632812,-160,9965.0
7450,0.24867619574069977,11.136112213134766,276,7950.0,-8.879303932189941,-116,9965.0
7460,0.24904631078243256,18.524953842163086,301,7950.0,-17.981063842773438,-363,9965.0
7470,0.24946017563343048,27.710290908813477,561,7950.0,-24.572189331054688,-369,9965.0
7480,0.2532837688922882,34.27580261230469,527,7950.0,-28.174474716186523,-485,9965.0
7490,0.2537367641925812,39.3336181640625,671,7950.0,-27.8702449798584,-312,9965.0
7500,0.2545812726020813,42.74346160888672,666,7950.0,-18.92125701904297,-273,9965.0
7510,0.2554308772087097,41.253021240234375,725,7950.0,-6.215602874755859,54,9965.0
7520,0.2550739645957947,39.27116775512695,534,7950.0,5.869539260864258,160,9965.0
7530,0.2556741237640381,29.420591354370117,437,7950.0,16.602432250976562,317,9965.0
7540,0.25588369369506836,17.535274505615234,228,7950.0,20.24200439453125,496,9965.0
7550,0.25690457224845886,3.8015811443328857,-47,7950.0,22.76534652709961,253,9965.0
7560,0.25726479291915894,-6.880770683288574,-71,7950.0,17.702348709106445,306,9965.0
7570,0.25863760709762573,-11.234692573547363,-176,7950.0,9.044013977050781,163,9965.0
7580,0.25901731848716736,-11.35554027557373,-189,7950.0,-4.38922119140625,-172,9965.0
7590,0.25920698046684265,-11.201742172241211,-215,7950.0,-16.2187557220459,-225,9965.0
7600,0.2593095600605011,-10.113780975341797,-210,7950.0,-23.777782440185547,-592,9965.0
7610,0.2611512541770935,-8.30551528930664,-84,7950.0,-31.705772399902344,-458,9965.0
7620,0.2611410915851593,-8.236920356750488,-142,7950.0,-31.68840217590332,-524,9965.0
7630,0.26130175590515137,-8.278164863586426,-77,7950.0,-22.307025909423828,-312,9965.0
7640,0.2614695727825165,-8.059332847595215,-108,7950.0,-4.322474956512451,86,9965.0
7650,0.2617931067943573,-10.641357421875,-224,7950.0,12.62148380279541,156,9965.0
7660,0.2621780335903168,-14.024548530578613,-193,7950.0,25.995771408081055,548,9965.0
7670,0.26218941807746887,-9.756416320800781,-145,7950.0,34.767333984375,574,9965.0
7680,0.2620665431022644,2.825606107711792,208,7950.0,36.15776062011719,626,9965.0
7690,0.26172956824302673,14.306452751159668,205,7950.0,29.140668869018555,297,9965.0
7700,0.26400330662727356,21.37288475036621,475,7950.0,12.544296264648438,251,9965.0
7710,0.26377496123313904,27.030824661254883,347,7950.0,-0.5935481786727905,-145,9965.0
7720,0.26357337832450867,23.994062423706055,454,7950.0,-10.224895477294922,-97,9965.0
7730,0.26302433013916016,16.20225715637207,168,7950.0,-16.14948844909668,-329,9965.0
7740,0.2639307975769043,1.9019232988357544,69,7950.0,-22.23931312561035,-282,9965.0
7750,0.26351460814476013,-9.447359085083008,-237,7950.0,-24.528886795043945,-556,9965.0
7760,0.26287326216697693,-17.864126205444336,-262,7950.0,-19.086013793945312,-197,9965.0
7770,0.2621137499809265,-16.830991744995117,-242,7950.0,-13.948528289794922,-284,9965.0
7780,0.26352012157440186,-9.857170104980469,-127,7950.0,-8.936091423034668,-67,9965.0
7790,0.2631249725818634,-5.523322582244873,-90,7950.0,-2.544696092605591,-65,9965.0
7800,0.2626371383666992,-3.0262069702148438,14,7950.0,3.350548267364502,167,9965.0
7810,0.2622806131839752,2.727463722229004,19,7950.0,10.128518104553223,71,9965.0
7820,0.26203641295433044,5.5337653160095215,153,7950.0,8.572200775146484,255,9965.0
7830,0.2622373104095459,9.443097114562988,155,7950.0,7.581517696380615,9,9965.0
7840,0.26238352060317993,12.013178825378418,215,7950.0,3.3040008544921875,121,9965.0
7850,0.262477844953537,11.343050956726074,134,7950.0,3.1461358070373535,29,9965.0
7860,0.2626393139362335,5.558260917663574,117,7950.0,2.1558663845062256,135,9965.0
7870,0.2635960876941681,-3.971550226211548,-196,7950.0,1.9826533794403076,-72,9965.0
7880,0.2637012004852295,-21.45207977294922,-375,7950.0,1.4779359102249146,94,9965.0
7890,0.2637566924095154,-31.864959716796875,-549,7950.0,-0.9892483949661255,-123,9965.0
7900,0.2637336552143097,-32.269500732421875,-535,7950.0,-4.625307083129883,-25,9965.0
7910,0.2639080584049225,-22.74922752380371,-346,7950.0,-5.6542463302612305,-168,9965.0
7920,0.2647235691547394,-7.7181830406188965,31,7950.0,-4.420395374298096,111,9965.0
7930,0.26481834053993225,9.849555015563965,186,7950.0,7.455358028411865,59,9965.0
7940,0.26505473256111145,23.060993194580078,467,7950.0,11.752825736999512,255,9965.0
7950,0.26521214842796326,24.656326293945312,315,7950.0,12.790130615234375,144,9965.0
7960,0.26429784297943115,19.03329849243164,333,7950.0,12.493568420410156,291,9965.0
7970,0.26424360275268555,9.161916732788086,68,7950.0,15.009638786315918,195,9965.0
7980,0.2641627788543701,3.206934928894043,83,7950.0,14.842913627624512,331,9965.0
7990,0.26396679878234863,1.2714530229568481,-49,7950.0,14.286131858825684,175,9965.0
8000,0.26421138644218445,2.8893933296203613,94,7950.0,9.170394897460938,232,9965.0
8010,0.26404815912246704,2.2570972442626953,25,7950.0,-4.0706024169921875,-242,9965.0
8020,0.2640686333179474,2.0535848140716553,47,7950.0,-21.076980590820312,-289,9965.0
8030,0.2640414535999298,-0.9953680634498596,-90,7950.0,-32.34059143066406,-653,9965.0
8040,0.26401713490486145,-1.8589729070663452,63,7950.0,-41.33359909057617,-546,9965.0
8050,0.26348426938056946,0.2701285779476166,7,7950.0,-44.595611572265625,-826,9965.0
8060,0.2632278800010681,3.5166208744049072,54,7950.0,-42.67620086669922,-649,9965.0
8070,0.263467013835907,2.345933675765991,77,7950.0,-29.317241668701172,-368,9965.0
8080,0.26311835646629333,1.1081098318099976,-37,7950.0,-8.109922409057617,-100,9965.0
8090,0.26269853115081787,0.1066695973277092,13,7950.0,15.349295616149902,420,9965.0
8100,0.2627352178096771,-0.534275233745575,37,7950.0,37.29618453979492,763,9965.0
8110,0.2628454566001892,4.377641201019287,74,7950.0,56.03202819824219,921,9965.0
8120,0.2629376947879791,9.069753646850586,205,7950.0,59.67812728881836,1004,9965.0
8130,0.26282012462615967,15.347895622253418,226,7950.0,47.900909423828125,613,9965.0
8140,0.2632136642932892,17.61380386352539,257,7950.0,25.974458694458008,320,9965.0
8150,0.2635858952999115,16.040042877197266,195,7950.0,-0.5433663725852966,-167,9965.0
8160,0.2636715769767761,5.170519828796387,-16,7950.0,-22.055448532104492,-490,9965.0
8170,0.2637234926223755,-8.584309577941895,-261,7950.0,-32.27159881591797,-516,9965.0
8180,0.26315149664878845,-20.680580139160156,-372,7950.0,-33.040096282958984,-470,9965.0
8190,0.263093501329422,-25.862186431884766,-431,7950.0,-29.54765510559082,-601,9965.0
8200,0.2629973292350769,-27.983701705932617,-406,7950.0,-29.5342960357666,-404,9965.0
8210,0.262920081615448,-27.203908920288086,-419,7950.0,-21.159027099609375,-328,9965.0
8220,0.2627732753753662,-20.627769470214844,-238,7950.0,-10.442805290222168,-20,9965.0
8230,0.2636655569076538,-12.617406845092773,-194,7950.0,3.080216646194458,81,9965.0
8240,0.26410502195358276,-2.6238343715667725,93,7950.0,14.260794639587402,178,9965.0
8250,0.2644692361354828,6.966095924377441,196,7950.0,16.550207138061523,319,9965.0
8260,0.2647877633571625,15.017803192138672,286,7950.0,14.194170951843262,218,9965.0
8270,0.262775719165802,20.135353088378906,359,7950.0,12.32137393951416,193,9965.0
8280,0.26303809881210327,20.310955047607422,270,7950.0,7.048918724060059,12,9965.0
8290,0.2633199989795685,16.274391174316406,263,7950.0,-1.6991312503814697,62,9965.0
8300,0.26368385553359985,7.879754066467285,54,7950.0,-8.116852760314941,-287,9965.0
8310,0.26386430859565735,-1.5409328937530518,-19,7950.0,-14.75808334350586,-153,9965.0
8320,0.26448705792427063,-12.165265083312988,-301,7950.0,-10.986127853393555,-214,9965.0
8330,0.26529210805892944,-25.436248779296875,-445,7950.0,-2.422468662261963,0,9965.0
8340,0.2661327123641968,-35.20147705078125,-637,7950.0,6.485174179077148,147,9965.0
8350,0.2668963074684143,-38.19853973388672,-585,7950.0,7.15716552734375,75,9965.0
8360,0.2677174508571625,-31.149118423461914,-509,7950.0,-0.7852845788002014,-104,9965.0
8370,0.2686946988105774,-20.6634521484375,-234,7950.0,-10.746138572692871,-121,9965.0
8380,0.2703114151954651,-9.77618408203125,-176,7950.0,-9.226869583129883,-203,9965.0
8390,0.27142366766929626,6.703680515289307,280,7950.0,-2.043560028076172,131,9965.0
8400,0.2728821337223053,24.848936080932617,412,7950.0,14.20468807220459,210,9965.0
8410,0.2742648422718048,38.22978210449219,754,7950.0,19.194509506225586,387,9965.0
8420,0.2755962014198303,45.410057067871094,658,7950.0,10.087133407592773,-19,9965.0
8430,0.2769356071949005,42.05156707763672,703,7950.0,-3.437178611755371,-50,9965.0
8440,0.2779778838157654,34.78437423706055,531,7950.0,-10.773990631103516,-232,9965.0
8450,0.27816182374954224,23.968212127685547,270,7950.0,-7.972834587097168,-154,9965.0
8460,0.2793314754962921,14.039397239685059,262,7950.0,-2.4574058055877686,62,9965.0
8470,0.280621200799942,11.138423919677734,99,7950.0,2.8022139072418213,57,9965.0
8480,0.2805817723274231,5.1692352294921875,27,7950.0,6.057589054107666,17,9965.0
8490,0.28245025873184204,-3.64778733253479,-76,7950.0,3.259274959564209,148,9965.0
8500,0.28244033455848694,-10.853285789489746,-306,7950.0,-5.250665187835693,-214,9965.0
8510,0.2843397557735443,-18.937570571899414,-315,7950.0,-12.217219352722168,-218,9965.0
8520,0.2843717336654663,-21.114675521850586,-334,7950.0,-13.09115219116211,-198,9965.0
8530,0.28549396991729736,-21.226964950561523,-383,7950.0,-12.673412322998047,-321,9965.0
8540,0.2855314314365387,-16.982982635498047,-216,7950.0,-14.109411239624023,-192,9965.0
8550,0.28697341680526733,-10.129262924194336,-105,7950.0,-12.441658973693848,-201,9965.0
8560,0.28691479563713074,-2.550204038619995,-79,7950.0,-7.006946563720703,-138,9965.0
8570,0.28780853748321533,4.106960296630859,185,7950.0,2.0138068199157715,180,9965.0
8580,0.28682225942611694,10.502889633178711,114,7950.0,11.349992752075195,164,9965.0
8590,0.287380188703537,7.032895088195801,113,7950.0,18.953943252563477,367,9965.0
8600,0.2879343628883362,3.039144515991211,86,7950.0,28.406763076782227,491,9965.0
8610,0.288399338722229,9.325871467590332,105,7950.0,33.22098922729492,575,9965.0
8620,0.2885311543941498,12.58871841430664,303,7950.0,27.71221923828125,475,9965.0
8630,0.28873419761657715,13.208334922790527,144,7950.0,11.103264808654785,47,9965.0
8640,0.2894270122051239,6.934842109680176,119,7950.0,-9.595727920532227,-241,9965.0
8650,0.289421021938324,-0.6142683625221252,-114,7950.0,-30.695369720458984,-558,9965.0
8660,0.2896287441253662,-8.64253044128418,-78,7950.0,-39.55434799194336,-589,9965.0
8670,0.28981709480285645,-12.821044921875,-284,7950.0,-41.599063873291016,-707,9965.0
8680,0.2898719906806946,-10.906635284423828,-87,7950.0,-33.540435791015625,-353,9965.0
8690,0.29050254821777344,-4.366195201873779,-66,7950.0,-16.890884399414062,-325,9965.0
8700,0.29065728187561035,5.636571884155273,146,7950.0,-0.9492740631103516,127,9965.0
8710,0.29094019532203674,15.72758960723877,299,7950.0,16.337984085083008,283,9965.0
8720,0.29131558537483215,24.461580276489258,410,7950.0,30.090478897094727,521,9965.0
8730,0.29166391491889954,24.040639877319336,430,7950.0,34.90031433105469,542,9965.0
8740,0.29208189249038696,16.70425033569336,153,7950.0,28.622617721557617,366,9965.0
8750,0.2915113568305969,8.819116592407227,175,7950.0,16.689485549926758,259,9965.0
8760,0.2921374440193176,-0.5648304224014282,-152,7950.0,4.595645427703857,-88,9965.0
8770,0.29279452562332153,-5.654863357543945,-9,7950.0,-10.308537483215332,-191,9965.0
8780,0.29329270124435425,-8.802986145019531,-202,7950.0,-23.813892364501953,-521,9965.0
8790,0.2938879132270813,-11.539191246032715,-175,7950.0,-31.79488182067871,-484,9965.0
8800,0.2934301495552063,-14.760835647583008,-239,7950.0,-32.16292953491211,-459,9965.0
8810,0.2939915359020233,-19.440723419189453,-370,7950.0,-24.603391647338867,-448,9965.0
8820,0.29448193311691284,-23.818836212158203,-370,7950.0,-19.476871490478516,-207,9965.0
8830,0.2947808802127838,-25.525772094726562,-404,7950.0,-5.635583877563477,31,9965.0
8840,0.2965553402900696,-18.935298919677734,-273,7950.0,16.93492889404297,392,9965.0
8850,0.29725149273872375,-12.380416870117188,-66,7950.0,33.6536865234375,637,9965.0
8860,0.29799729585647583,0.6578311324119568,0,7950.0,42.14474105834961,621,9965.0
8870,0.29858654737472534,13.021279335021973,345,7950.0,37.52808380126953,644,9965.0
8880,0.2992606461048126,21.76075553894043,362,7950.0,29.82622528076172,372,9965.0
8890,0.30095455050468445,23.459869384765625,397,7950.0,17.029691696166992,262,9965.0
8900,0.3017367124557495,18.489574432373047,216,7950.0,4.793517589569092,33,9965.0
8910,0.302126407623291,9.350761413574219,177,7950.0,-2.0671253204345703,-122,9965.0
8920,0.302590936422348,1.3444030284881592,-21,7950.0,-10.540677070617676,-212,9965.0
8930,0.301982581615448,-6.824652671813965,-133,7950.0,-15.542631149291992,-283,9965.0
8940,0.3022753894329071,-13.367738723754883,-126,7950.0,-15.397972106933594,-211,9965.0
8950,0.3026176989078522,-16.018747329711914,-347,7950.0,-11.66826057434082,-203,9965.0
8960,0.30288365483283997,-17.259952545166016,-175,7950.0,-9.025054931640625,-118,9965.0
8970,0.3046008050441742,-8.712265014648438,-172,7950.0,-7.492672920227051,-104,9965.0
8980,0.30516329407691956,-0.051067885011434555,48,7950.0,-5.481212615966797,-93,9965.0
8990,0.30558282136917114,7.671869277954102,159,7950.0,0.06885280460119247,80,9965.0
9000,0.30607229471206665,11.015077590942383,158,7950.0,5.169203281402588,12,9965.0
9010,0.3066037893295288,10.018311500549316,206,7950.0,7.463303089141846,206,9965.0
9020,0.30859410762786865,2.9029645919799805,-24,7950.0,7.595894813537598,80,9965.0
9030,0.3095591068267822,-3.986494779586792,-47,7950.0,5.006869792938232,59,9965.0
9040,0.3104779124259949,-8.033391952514648,-178,7950.0,-2.0442564487457275,47,9965.0
9050,0.3115537762641907,-16.2978515625,-327,7950.0,-9.421829223632812,-255,9965.0
9060,0.3131166696548462,-21.15406608581543,-307,7950.0,-17.080028533935547,-163,9965.0
9070,0.3142490088939667,-22.585006713867188,-405,7950.0,-21.1954288482666,-455,9965.0
9080,0.3154330849647522,-19.42207908630371,-273,7950.0,-17.922353744506836,-177,9965.0
9090,0.31655439734458923,-12.100007057189941,-103,7950.0,-1.4461222887039185,73,9965.0
9100,0.31671249866485596,1.9617758989334106,21,7950.0,20.045610427856445,320,9965.0
9110,0.3181439936161041,16.358240127563477,395,7950.0,28.259143829345703,536,9965.0
9120,0.3194029629230499,31.886201858520508,523,7950.0,23.63774871826172,257,9965.0
9130,0.32054704427719116,42.06409454345703,762,7950.0,13.689106941223145,277,9965.0
9140,0.3216921389102936,39.969539642333984,594,7950.0,5.276524543762207,5,9965.0
9150,0.3223511576652527,26.794797897338867,321,7950.0,-1.0543385744094849,-56,9965.0
9160,0.32337504625320435,7.563436985015869,84,7950.0,-6.006457328796387,2,9965.0
9170,0.3240859806537628,-10.628300666809082,-251,7950.0,-11.690437316894531,-284,9965.0
9180,0.32504215836524963,-20.447490692138672,-340,7950.0,-20.659183502197266,-351,9965.0
9190,0.324697881937027,-23.511629104614258,-344,7950.0,-25.202430725097656,-369,9965.0
9200,0.3253334164619446,-20.108234405517578,-340,7950.0,-21.73140525817871,-424,9965.0
9210,0.32616639137268066,-10.697226524353027,-127,7950.0,-13.843389511108398,-194,9965.0
9220,0.326820969581604,-3.0914371013641357,22,7950.0,-7.8055243492126465,-38,9965.0
9230,0.32755228877067566,5.0421671867370605,77,7950.0,-0.1935749650001526,7,9965.0
9240,0.3245505392551422,15.979419708251953,302,7950.0,12.526837348937988,228,9965.0
9250,0.32499268651008606,17.798412322998047,264,7950.0,21.769269943237305,483,9965.0
9260,0.32536906003952026,16.48492431640625,186,7950.0,23.02098846435547,255,9965.0
9270,0.3257997930049896,15.57083797454834,304,7950.0,12.574480056762695,243,9965.0
9280,0.3238022029399872,11.272811889648438,133,7950.0,1.8989067077636719,-23,9965.0
9290,0.3241497874259949,4.502309322357178,-3,7950.0,-11.687506675720215,-295,9965.0
9300,0.3245426416397095,-3.0534002780914307,-58,7950.0,-22.446826934814453,-294,9965.0
9310,0.32474079728126526,-7.443458080291748,-199,7950.0,-23.86290740966797,-413,9965.0
9320,0.3234238028526306,-14.292351722717285,-261,7950.0,-16.246328353881836,-244,9965.0
9330,0.3233658969402313,-21.910961151123047,-418,7950.0,-7.129852771759033,39,9965.0
9340,0.3232263922691345,-35.10725021362305,-651,7950.0,2.279977798461914,-72,9965.0
9350,0.3230699896812439,-38.75413131713867,-589,7950.0,4.405822277069092,231,9965.0
9360,0.32267826795578003,-32.303653717041016,-454,7950.0,12.670974731445312,167,9965.0
9370,0.31898337602615356,-14.333080291748047,-70,7950.0,15.75859546661377,367,9965.0
9380,0.31819793581962585,5.404349327087402,187,7950.0,17.778242111206055,130,9965.0
9390,0.31762635707855225,25.8259334564209,563,7950.0,15.737914085388184,376,9965.0
9400,0.3168833553791046,37.492767333984375,589,7950.0,13.210413932800293,76,9965.0
9410,0.3152318000793457,40.02505874633789,669,7950.0,4.201747894287109,-4,9965.0
9420,0.31436043977737427,29.752269744873047,271,7950.0,-11.943453788757324,-392,9965.0
9430,0.3139333724975586,9.721207618713379,103,7950.0,-31.09288787841797,-408,9965.0
9440,0.31329086422920227,-4.135062217712402,-168,7950.0,-28.73433494567871,-457,9965.0
9450,0.31281813979148865,-11.37490463256836,-170,7950.0,-15.718158721923828,-95,9965.0
9460,0.31301426887512207,-12.31291389465332,-230,7950.0,-8.808409690856934,-155,9965.0
9470,0.31266215443611145,-10.596755981445312,-97,7950.0,-0.9894713759422302,49,9965.0
9480,0.31232595443725586,-6.676244735717773,-146,7950.0,-1.62277090549469,-138,9965.0
9490,0.3122105002403259,-2.7847957611083984,-16,7950.0,-6.516355037689209,19,9965.0
9500,0.31166234612464905,-0.40907853841781616,-79,7950.0,-7.520442962646484,-197,9965.0
9510,0.3116489052772522,0.02733956091105938,63,7950.0,-6.966787815093994,-1,9965.0
9520,0.3121775686740875,6.706015586853027,103,7950.0,7.323423385620117,215,9965.0
9530,0.3125573992729187,8.717405319213867,177,7950.0,21.858572006225586,432,9965.0
9540,0.31374141573905945,6.220714569091797,28,7950.0,28.407625198364258,421,9965.0
9550,0.3142552971839905,7.381455421447754,251,7950.0,23.24361228942871,362,9965.0
9560,0.314980149269104,12.156996726989746,157,7950.0,14.331528663635254,65,9965.0
9570,0.31540170311927795,7.586811065673828,143,7950.0,4.782558917999268,113,9965.0
9580,0.31583550572395325,-0.20477978885173798,-137,7950.0,1.8609415292739868,-20,9965.0
9590,0.3161329925060272,-10.154202461242676,-138,7950.0,-0.601453423500061,39,9965.0
9600,0.31653785705566406,-13.505611419677734,-257,7950.0,-1.5008190870285034,-54,9965.0
9610,0.3169441819190979,-10.910032272338867,-185,7950.0,0.43037018179893494,85,9965.0
9620,0.3173356056213379,-10.217095375061035,-209,7950.0,6.812668323516846,164,9965.0
9630,0.3189309537410736,-10.798589706420898,-112,7950.0,10.938153266906738,177,9965.0
9640,0.3193027079105377,-9.569579124450684,-176,7950.0,3.403442859649658,53,9965.0
9650,0.31962841749191284,-6.1750969886779785,-96,7950.0,-6.2809157371521,-212,9965.0
9660,0.32013988494873047,-0.4301585257053375,49,7950.0,-14.672440528869629,-244,9965.0
9670,0.32060059905052185,3.9301764965057373,7,7950.0,-18.65824317932129,-365,9965.0
9680,0.32237714529037476,8.789133071899414,228,7950.0,-16.127370834350586,-125,9965.0
9690,0.3229632079601288,12.515625953674316,184,7950.0,-11.091675758361816,-237,9965.0
9700,0.32366082072257996,13.376372337341309,196,7950.0,-8.896491050720215,-90,9965.0
9710,0.3244364857673645,11.380228042602539,148,7950.0,-5.927461624145508,-43,9965.0
9720,0.3255270719528198,2.417747974395752,-35,7950.0,-1.8277040719985962,-87,9965.0
9730,0.3263308107852936,-3.540438413619995,-28,7950.0,0.5160472989082336,86,9965.0
9740,0.32718712091445923,-6.607015609741211,-168,7950.0,4.807209491729736,-58,9965.0
9750,0.3280724883079529,-7.429403781890869,-116,7950.0,5.793027877807617,167,9965.0
9760,0.32858261466026306,-5.767678737640381,-44,7950.0,14.32069206237793,283,9965.0
9770,0.329384446144104,1.2027071714401245,-51,7950.0,25.303245544433594,398,9965.0
9780,0.33018699288368225,4.225870132446289,139,7950.0,27.203296661376953,556,9965.0
9790,0.33086901903152466,4.507091999053955,2,7950.0,23.581663131713867,224,9965.0
9800,0.3314535319805145,-0.69399493932724,-17,7950.0,9.29949951171875,212,9965.0
9810,0.3328305780887604,-4.849339962005615,-132,7950.0,-2.0748822689056396,-125,9965.0
9820,0.33307570219039917,-7.011532306671143,-44,7950.0,-8.974793434143066,-106,9965.0
9830,0.33318331837654114,-4.147440433502197,-149,7950.0,-10.783156394958496,-270,9965.0
9840,0.33312955498695374,-4.551089286804199,-11,7950.0,-8.120473861694336,-45,9965.0
9850,0.33468055725097656,-4.153862953186035,-108,7950.0,-0.5232589840888977,-33,9965.0
9860,0.3346328139305115,1.1602513790130615,117,7950.0,0.9210288524627686,101,9965.0
9870,0.3346325159072876,11.306962013244629,217,7950.0,1.9330626726150513,-71,9965.0
9880,0.3345668911933899,17.99201774597168,333,7950.0,1.359903335571289,27,9965.0
9890,0.3366931080818176,27.494922637939453,502,7950.0,-0.07069413363933563,-7,9965.0
9900,0.3368465304374695,30.356170654296875,420,7950.0,-8.468575477600098,-281,9965.0
9910,0.3368617594242096,16.01113510131836,211,7950.0,-20.904157638549805,-285,9965.0
9920,0.3371645212173462,-6.301723957061768,-296,7950.0,-24.354736328125,-425,9965.0
9930,0.3374224305152893,-30.515918731689453,-594,7950.0,-21.141143798828125,-290,9965.0
9940,0.33882251381874084,-45.456600189208984,-700,7950.0,-9.444310188293457,-40,9965.0
9950,0.33930960297584534,-46.840087890625,-776,7950.0,1.2556532621383667,-51,9965.0
9960,0.339983731508255,-36.304100036621094,-479,7950.0,3.398191452026367,162,9965.0
9970,0.34072887897491455,-16.796810150146484,-197,7950.0,7.512120723724365,47,9965.0
9980,0.34196826815605164,0.9370937347412109,147,7950.0,7.144548416137695,181,9965.0
9990,0.34314727783203125,13.99205207824707,229,7950.0,7.281991481781006,31,9965.0
10000,0.3444582521915436,16.163888931274414,299,7950.0,5.708230972290039,101,9965.0
10010,0.3457702100276947,13.723061561584473,159,7950.0,-5.888390064239502,-126,9965.0
10020,0.34710556268692017,8.401056289672852,134,7950.0,-12.39548110961914,-229,9965.0
10030,0.3478171229362488,3.5349254608154297,57,7950.0,-11.41023063659668,-167,9965.0
10040,0.3489297032356262,-1.3404031991958618,-148,7950.0,-5.609145164489746,-126,9965.0
10050,0.34989917278289795,-10.885372161865234,-158,7950.0,1.5647119283676147,221,9965.0
10060,0.3507373332977295,-17.148853302001953,-400,7950.0,13.065561294555664,167,9965.0
10070,0.34968632459640503,-22.575172424316406,-330,7950.0,18.429758071899414,350,9965.0
10080,0.3502047061920166,-17.86969566345215,-254,7950.0,13.956480026245117,172,9965.0
10090,0.3506116271018982,-1.4722480773925781,142,7950.0,2.3924293518066406,-16,9965.0
10100,0.35116493701934814,21.958763122558594,490,7950.0,-10.518919944763184,-285,9965.0
10110,0.3515157699584961,46.53269577026367,903,7950.0,-18.366334915161133,-386,9965.0
10120,0.3523612320423126,59.77293014526367,1055,7950.0,-24.65997314453125,-326,9965.0
10130,0.3523622155189514,61.60519790649414,929,7950.0,-14.270180702209473,-228,9965.0
10140,0.3534720242023468,47.09796905517578,667,7950.0,0.45309367775917053,22,9965.0
10150,0.35379183292388916,20.051799774169922,183,7950.0,8.23788070678711,234,9965.0
10160,0.3538389801979065,-13.367244720458984,-415,7950.0,6.41213321685791,139,9965.0
10170,0.35466480255126953,-39.36699676513672,-763,7950.0,1.682214617729187,-74,9965.0
10180,0.3550197184085846,-55.922733306884766,-928,7950.0,-0.9986779689788818,-55,9965.0
10190,0.35530006885528564,-61.6600227355957,-917,7950.0,-4.765115737915039,30,9965.0
10200,0.3546454906463623,-51.95214080810547,-803,7950.0,-6.884657859802246,-175,9965.0
10210,0.3549306094646454,-31.49013328552246,-374,7950.0,-1.5115762948989868,103,9965.0
10220,0.35569730401039124,-5.006027698516846,23,7950.0,6.739656925201416,88,9965.0
10230,0.3561210036277771,22.845706939697266,477,7950.0,18.8072452545166,383,9965.0
10240,0.35661059617996216,42.62771224975586,799,7950.0,22.535829544067383,359,9965.0
10250,0.35619792342185974,56.852691650390625,938,7950.0,17.124757766723633,203,9965.0
10260,0.3564732074737549,53.272151947021484,859,7950.0,11.229583740234375,221,9965.0
10270,0.35661643743515015,39.48948669433594,581,7950.0,3.6024010181427,-23,9965.0
10280,0.35702618956565857,18.704133987426758,195,7950.0,-5.746968746185303,-175,9965.0
10290,0.35680633783340454,-1.1901307106018066,-106,7950.0,-8.831035614013672,-16,9965.0
10300,0.3569470942020416,-18.980224609375,-464,7950.0,-9.059682846069336,-233,9965.0
10310,0.3570929169654846,-39.347076416015625,-620,7950.0,-17.903057098388672,-250,9965.0
10320,0.3571253716945648,-47.69638442993164,-817,7950.0,-24.20133399963379,-522,9965.0
10330,0.3581825792789459,-43.634517669677734,-625,7950.0,-22.88567352294922,-253,9965.0
10340,0.35819748044013977,-29.654071807861328,-438,7950.0,-13.181487083435059,-223,9965.0
10350,0.35893309116363525,-7.383258819580078,85,7950.0,-2.180467367172241,112,9965.0
10360,0.3590531051158905,18.192960739135742,332,7950.0,7.227066993713379,21,9965.0
10370,0.3591945171356201,28.600635528564453,479,7950.0,15.219667434692383,390,9965.0
10380,0.3591606616973877,20.067537307739258,240,7950.0,24.369571685791016,362,9965.0
10390,0.35940414667129517,5.180226802825928,48,7950.0,21.313356399536133,309,9965.0
10400,0.3597221374511719,-6.081290245056152,-159,7950.0,8.027533531188965,5,9965.0
10410,0.3601885139942169,-10.931076049804688,-175,7950.0,-5.9552106857299805,-73,9965.0
10420,0.3612649142742157,-20.39211654663086,-390,7950.0,-13.016148567199707,-337,9965.0
10430,0.36188140511512756,-30.99941635131836,-513,7950.0,-18.368837356567383,-220,9965.0
10440,0.36250555515289307,-38.345970153808594,-714,7950.0,-17.192550659179688,-392,9965.0
10450,0.3630550801753998,-44.490875244140625,-679,7950.0,-16.07642936706543,-157,9965.0
10460,0.3634922504425049,-44.00856018066406,-795,7950.0,-14.109874725341797,-312,9965.0
10470,0.3629037141799927,-38.689273834228516,-485,7950.0,-12.04654312133789,-94,9965.0
10480,0.3637693524360657,-9.698088645935059,-3,7950.0,-1.927686333656311,1,9965.0
10490,0.36454707384109497,26.464906692504883,579,7950.0,11.925929069519043,241,9965.0
10500,0.3653641939163208,54.373043060302734,1011,7950.0,17.954442977905273,379,9965.0
10510,0.36628633737564087,63.447052001953125,929,7950.0,20.181438446044922,324,9965.0
10520,0.36682865023612976,54.319488525390625,926,7950.0,25.09311294555664,487,9965.0
10530,0.36729979515075684,44.05451202392578,631,7950.0,23.120317459106445,276,9965.0
10540,0.3676074743270874,34.60676956176758,556,7950.0,15.964982986450195,294,9965.0
10550,0.36704039573669434,27.806838989257812,417,7950.0,6.864085674285889,72,9965.0
10560,0.3672772943973541,20.072383880615234,298,7950.0,-0.6307322382926941,-40,9965.0
10570,0.36749497056007385,15.69294548034668,286,7950.0,-3.3566362857818604,9,9965.0
10580,0.3676827847957611,13.212968826293945,135,7950.0,-11.608022689819336,-297,9965.0
10590,0.36807653307914734,4.237372875213623,35,7950.0,-18.423736572265625,-251,9965.0
10600,0.3697932958602905,-11.181526184082031,-284,7950.0,-18.606046676635742,-232,9965.0
10610,0.3702108561992645,-32.84669494628906,-629,7950.0,-12.038284301757812,-196,9965.0
10620,0.370625376701355,-45.79879379272461,-705,7950.0,-5.4787797927856445,46,9965.0
10630,0.37126556038856506,-46.0491828918457,-769,7950.0,0.36529991030693054,-3,9965.0
10640,0.37225058674812317,-37.40736770629883,-526,7950.0,6.762491703033447,148,9965.0
10650,0.37278178334236145,-22.515043258666992,-317,7950.0,8.535500526428223,137,9965.0
10660,0.3735646605491638,-3.672921895980835,35,7950.0,10.84117603302002,195,9965.0
10670,0.37435659766197205,15.300514221191406,268,7950.0,8.972579002380371,204,9965.0
10680,0.3752795159816742,25.000572204589844,421,7950.0,6.945529937744141,103,9965.0
10690,0.37570369243621826,19.748353958129883,299,7950.0,4.606204032897949,94,9965.0
10700,0.376640260219574,8.582199096679688,58,7950.0,2.3394646644592285,-42,9965.0
10710,0.37756994366645813,2.5163474082946777,113,7950.0,0.8614920377731323,58,9965.0
10720,0.37843558192253113,5.629934310913086,38,7950.0,-1.8237470388412476,-78,9965.0
10730,0.3787423074245453,11.257185935974121,323,7950.0,-4.168124675750732,-92,9965.0
10740,0.37943705916404724,17.41537857055664,337,7950.0,-9.765814781188965,-209,9965.0
10750,0.380061537027359,22.735681533813477,324,7950.0,-11.474678039550781,-225,9965.0
10760,0.3805600702762604,15.742161750793457,279,7950.0,-7.175528526306152,87,9965.0
10770,0.38096773624420166,5.442905902862549,-16,7950.0,3.8580899238586426,117,9965.0
10780,0.3792414665222168,-4.978388786315918,-119,7950.0,15.146881103515625,261,9965.0
10790,0.3793235719203949,-11.72989559173584,-185,7950.0,19.82012939453125,428,9965.0
10800,0.379331111907959,-8.99868392944336,-164,7950.0,21.736772537231445,300,9965.0
10810,0.37926018238067627,0.6277631521224976,158,7950.0,14.884103775024414,178,9965.0
10820,0.37995797395706177,21.832761764526367,432,7950.0,1.6941397190093994,-29,9965.0
10830,0.3799645006656647,49.03956604003906,869,7950.0,-10.269925117492676,-136,9965.0
10840,0.37997475266456604,61.140533447265625,1084,7950.0,-11.626888275146484,-133,9965.0
10850,0.37992510199546814,55.63090896606445,751,7950.0,-17.020206451416016,-369,9965.0
10860,0.3777470886707306,30.6455078125,358,7950.0,-21.656843185424805,-381,9965.0
10870,0.3776390850543976,-3.3453786373138428,-169,7950.0,-21.783090591430664,-261,9965.0
10880,0.37766602635383606,-32.351844787597656,-638,7950.0,-19.028827667236328,-245,9965.0
10890,0.37746337056159973,-52.8964729309082,-1052,7950.0,-8.097663879394531,-139,9965.0
10900,0.3775441646575928,-67.65065002441406,-1080,7950.0,4.380682468414307,89,9965.0
10910,0.376024067401886,-59.903236389160156,-846,7950.0,9.358916282653809,219,9965.0
10920,0.37630462646484375,-37.380348205566406,-547,7950.0,17.089380264282227,290,9965.0
10930,0.37625882029533386,-18.74313735961914,-183,7950.0,24.647336959838867,491,9965.0
10940,0.37636253237724304,-6.244328498840332,-106,7950.0,23.93130111694336,335,9965.0
10950,0.3767842650413513,13.3785400390625,388,7950.0,20.94551658630371,394,9965.0
10960,0.37692734599113464,31.853870391845703,506,7950.0,13.350192070007324,61,9965.0
10970,0.3771105408668518,38.73052215576172,623,7950.0,-3.675401210784912,-35,9965.0
10980,0.3772944211959839,34.71563720703125,486,7950.0,-23.01749610900879,-506,9965.0
10990,0.37538018822669983,23.902034759521484,412,7950.0,-30.347314834594727,-453,9965.0
11000,0.3753485679626465,7.548189163208008,20,7950.0,-26.584272384643555,-380,9965.0
11010,0.3753684163093567,-4.843958854675293,-183,7950.0,-17.931425094604492,-268,9965.0
11020,0.37539392709732056,-19.306324005126953,-272,7950.0,-3.5088307857513428,90,9965.0
11030,0.3754722476005554,-31.57453155517578,-603,7950.0,11.320450782775879,195,9965.0
11040,0.3729744851589203,-36.285125732421875,-615,7950.0,17.122920989990234,319,9965.0
11050,0.3729904294013977,-33.06855392456055,-469,7950.0,22.960172653198242,429,9965.0
11060,0.37294915318489075,-21.567195892333984,-370,7950.0,24.173250198364258,338,9965.0
11070,0.37299174070358276,-8.779067039489746,-40,7950.0,20.719608306884766,372,9965.0
11080,0.3699681758880615,-0.8612196445465088,-46,7950.0,16.419845581054688,140,9965.0
11090,0.36990904808044434,6.552492141723633,193,7950.0,7.713167190551758,166,9965.0
11100,0.3700585961341858,10.941424369812012,145,7950.0,-5.881915092468262,-251,9965.0
11110,0.37021616101264954,13.496597290039062,311,7950.0,-14.142765045166016,-159,9965.0
11120,0.3704300820827484,14.382251739501953,158,7950.0,-15.166960716247559,-280,9965.0
11130,0.3693631887435913,9.330214500427246,199,7950.0,-12.383942604064941,-130,9965.0
11140,0.3696441054344177,-1.507785677909851,-118,7950.0,-2.337454080581665,28,9965.0
11150,0.36991751194000244,-15.120354652404785,-296,7950.0,15.745209693908691,311,9965.0
11160,0.3702028691768646,-21.418533325195312,-331,7950.0,25.406675338745117,442,9965.0
11170,0.3690459430217743,-18.837556838989258,-351,7950.0,21.708959579467773,303,9965.0
11180,0.3690279424190521,-3.9258933067321777,128,7950.0,18.813030242919922,374,9965.0
11190,0.3690434992313385,15.49562931060791,222,7950.0,19.4353084564209,206,9965.0
11200,0.3688916862010956,25.989124298095703,518,7950.0,15.705409049987793,321,9965.0
11210,0.36804986000061035,31.722732543945312,468,7950.0,4.852698802947998,-46,9965.0
11220,0.3677669167518616,26.507200241088867,415,7950.0,-7.918776035308838,-70,9965.0
11230,0.36730891466140747,14.670963287353516,129,7950.0,-12.152060508728027,-246,9965.0
11240,0.36682525277137756,4.872674942016602,114,7950.0,-14.173198699951172,-158,9965.0
11250,0.3663683831691742,-1.4433194398880005,-127,7950.0,-6.652470588684082,-148,9965.0
11260,0.36482125520706177,-10.349997520446777,-191,7950.0,-5.458895206451416,-116,9965.0
11270,0.3644191026687622,-14.027982711791992,-224,7950.0,-9.90896224975586,-140,9965.0
11280,0.36405813694000244,-11.45998477935791,-174,7950.0,-11.77394962310791,-224,9965.0
11290,0.36370041966438293,-3.411097764968872,-34,7950.0,-5.910518169403076,70,9965.0
11300,0.3628872334957123,-1.228588581085205,-60,7950.0,8.688627243041992,135,9965.0
11310,0.36273887753486633,-7.988633155822754,-102,7950.0,16.821754455566406,323,9965.0
11320,0.3627002537250519,-14.857552528381348,-339,7950.0,15.442376136779785,175,9965.0
11330,0.36279231309890747,-19.55211639404297,-288,7950.0,7.361510753631592,163,9965.0
11340,0.3629072308540344,-22.427459716796875,-458,7950.0,0.8076211810112,-144,9965.0
11350,0.36202535033226013,-22.94011688232422,-308,7950.0,-6.3439788818359375,-77,9965.0
11360,0.36229199171066284,-16.943016052246094,-300,7950.0,-15.241268157958984,-307,9965.0
11370,0.3626936972141266,-13.1478910446167,-96,7950.0,-16.6394100189209,-180,9965.0
11380,0.3631002604961395,-8.927602767944336,-202,7950.0,-10.973908424377441,-222,9965.0
11390,0.362931489944458,-8.41415023803711,-114,7950.0,-6.672013282775879,-76,9965.0
11400,0.3633764684200287,-10.947758674621582,-220,7950.0,-6.225627422332764,-159,9965.0
11410,0.3639400899410248,-7.587668418884277,-58,7950.0,0.8367549777030945,151,9965.0
11420,0.36454033851623535,-0.09998378157615662,-22,7950.0,9.311765670776367,178,9965.0
11430,0.36509624123573303,2.624811887741089,128,7950.0,23.17888069152832,487,9965.0
11440,0.3655685484409332,12.566601753234863,274,7950.0,27.473247528076172,370,9965.0
11450,0.3660855293273926,26.498416900634766,545,7950.0,20.163990020751953,263,9965.0
11460,0.3665820360183716,34.0495491027832,479,7950.0,0.20281469821929932,-191,9965.0
11470,0.3669958710670471,29.64307403564453,444,7950.0,-15.96010971069336,-341,9965.0
11480,0.36803728342056274,18.475194931030273,322,7950.0,-27.215614318847656,-434,9965.0
11490,0.3682538866996765,3.9418883323669434,-50,7950.0,-30.712574005126953,-529,9965.0
11500,0.36859753727912903,-10.700343132019043,-120,7950.0,-26.349706649780273,-298,9965.0
11510,0.36890238523483276,-15.93852710723877,-313,7950.0,-16.437570571899414,-337,9965.0
11520,0.369069367647171,-15.173492431640625,-241,7950.0,-11.464517593383789,-121,9965.0
11530,0.36932626366615295,-15.400727272033691,-208,7950.0,-7.231498718261719,-104,9965.0
11540,0.3696177303791046,-6.451016426086426,-150,7950.0,-5.244944095611572,-99,9965.0
11550,0.3699430823326111,-2.800002098083496,20,7950.0,-8.490195274353027,-51,9965.0
11560,0.3703455328941345,-3.8478074073791504,-148,7950.0,-8.212632179260254,-99,9965.0
11570,0.3706591725349426,-3.453054666519165,32,7950.0,1.904689073562622,209,9965.0
11580,0.3711942136287689,1.20154869556427,32,7950.0,16.453495025634766,202,9965.0
11590,0.3718593418598175,5.765716552734375,143,7950.0,25.410846710205078,530,9965.0
11600,0.37261468172073364,7.3953938484191895,132,7950.0,25.322006225585938,368,9965.0
11610,0.3736814856529236,8.970381736755371,195,7950.0,18.25988006591797,316,9965.0
11620,0.3746313154697418,10.951306343078613,146,7950.0,5.379021167755127,-87,9965.0
11630,0.37564465403556824,6.773411273956299,154,7950.0,-7.492880344390869,-100,9965.0
11640,0.37670356035232544,7.0080342292785645,105,7950.0,-16.067777633666992,-341,9965.0
11650,0.3747637867927551,5.460814952850342,104,7950.0,-25.69863510131836,-419,9965.0
11660,0.37551093101501465,-3.93159818649292,-118,7950.0,-21.194345474243164,-287,9965.0
11670,0.3761523962020874,-21.273651123046875,-459,7950.0,-13.272163391113281,-273,9965.0
11680,0.376759797334671,-29.73542022705078,-431,7950.0,-5.107069492340088,71,9965.0
11690,0.37717223167419434,-21.846498489379883,-364,7950.0,3.835937023162842,-20,9965.0
11700,0.3766472041606903,-7.132334232330322,13,7950.0,8.411921501159668,241,9965.0
11710,0.3768485188484192,9.794048309326172,198,7950.0,10.413323402404785,124,9965.0
11720,0.37698131799697876,22.499433517456055,481,7950.0,10.551949501037598,265,9965.0
11730,0.37700119614601135,29.19597625732422,410,7950.0,11.712121963500977,105,9965.0
11740,0.3766057789325714,28.620014190673828,504,7950.0,6.451450347900391,145,9965.0
11750,0.3765089511871338,29.241424560546875,460,7950.0,-2.2739508152008057,-241,9965.0
11760,0.37642472982406616,31.333576202392578,573,7950.0,-12.224963188171387,-161,9965.0
11770,0.37621980905532837,34.20517349243164,486,7950.0,-18.06939125061035,-345,9965.0
11780,0.3759910762310028,25.80642318725586,435,7950.0,-15.097314834594727,-213,9965.0
11790,0.3744993209838867,10.043105125427246,61,7950.0,-8.171793937683105,-23,9965.0
11800,0.37410685420036316,-9.671245574951172,-279,7950.0,7.180603504180908,139,9965.0
11810,0.37370365858078003,-29.870092391967773,-487,7950.0,17.733787536621094,356,9965.0
11820,0.3732920289039612,-45.43317794799805,-836,7950.0,18.757184982299805,167,9965.0
11830,0.37297770380973816,-50.60492706298828,-738,7950.0,11.174324989318848,228,9965.0
11840,0.3727424144744873,-42.6488037109375,-658,7950.0,-2.682076930999756,-169,9965.0
11850,0.3724372386932373,-29.839637756347656,-360,7950.0,-17.979049682617188,-300,9965.0
11860,0.37241092324256897,-14.584684371948242,-164,7950.0,-28.421470642089844,-405,9965.0
11870,0.3720833957195282,-3.691789150238037,-101,7950.0,-31.52592658996582,-609,9965.0
11880,0.37215012311935425,-2.9597208499908447,8,7950.0,-26.935087203979492,-249,9965.0
11890,0.3722415566444397,-6.286592960357666,-189,7950.0,-15.800395011901855,-274,9965.0
11900,0.3723226487636566,-6.825223445892334,-25,7950.0,-1.9591729640960693,146,9965.0
11910,0.3724464774131775,3.1490859985351562,71,7950.0,15.184191703796387,224,9965.0
11920,0.372438907623291,16.497041702270508,400,7950.0,27.937536239624023,572,9965.0
11930,0.37275734543800354,33.0204963684082,586,7950.0,38.29604721069336,617,9965.0
11940,0.3729332685470581,42.77684783935547,756,7950.0,40.756961822509766,598,9965.0
11950,0.37311938405036926,41.719058990478516,682,7950.0,33.233394622802734,562,9965.0
11960,0.3741435706615448,31.2919921875,390,7950.0,23.389049530029297,305,9965.0
11970,0.37413057684898376,12.966171264648438,181,7950.0,11.584187507629395,215,9965.0
11980,0.3742828667163849,0.8496366143226624,-97,7950.0,-0.18595369160175323,-267,9965.0
11990,0.3741840124130249,-6.059349060058594,-18,7950.0,-19.649654388427734,-328,9965.0
12000,0.3742126524448395,-5.217840194702148,-130,7950.0,-32.66220474243164,-651,9965.0
12010,0.37314730882644653,0.06416282057762146,64,7950.0,-42.270042419433594,-611,9965.0
12020,0.3729891777038574,1.9068807363510132,-23,7950.0,-45.88262939453125,-788,9965.0
12030,0.37282034754753113,1.1779979467391968,101,7950.0,-40.32255172729492,-485,9965.0
12040,0.37268897891044617,-1.5347942113876343,-143,7950.0,-21.913862228393555,-331,9965.0
12050,0.3731721043586731,-10.58098316192627,-172,7950.0,0.15481559932231903,176,9965.0
12060,0.3730998933315277,-16.121023178100586,-274,7950.0,18.88736915588379,396,9965.0
12070,0.37308385968208313,-15.035343170166016,-167,7950.0,31.481813430786133,582,9965.0
12080,0.37313395738601685,-7.267816543579102,-97,7950.0,33.552242279052734,329,9965.0
12090,0.37326931953430176,3.324082136154175,193,7950.0,22.892986297607422,397,9965.0
12100,0.37383171916007996,12.94311237335205,149,7950.0,11.058835983276367,87,9965.0
12110,0.3742115795612335,9.593475341796875,131,7950.0,-7.434460639953613,-177,9965.0
12120,0.374663770198822,-3.5193235874176025,-116,7950.0,-18.90393829345703,-382,9965.0
12130,0.3751254379749298,-10.488326072692871,-123,7950.0,-16.98787498474121,-173,9965.0
12140,0.3758419156074524,-9.43336009979248,-141,7950.0,-6.856888771057129,-89,9965.0
12150,0.37632986903190613,0.8378610014915466,83,7950.0,3.388488292694092,50,9965.0
12160,0.3767707347869873,15.01895523071289,353,7950.0,5.757587432861328,158,9965.0
12170,0.3771620988845825,28.665462493896484,468,7950.0,9.051755905151367,63,9965.0
12180,0.378875732421875,31.403602600097656,600,7950.0,15.939362525939941,336,9965.0
12190,0.3792025148868561,25.552217483520508,325,7950.0,23.528963088989258,313,9965.0
12200,0.3795599639415741,12.266541481018066,196,7950.0,24.21445655822754,493,9965.0
12210,0.37964895367622375,3.4756200313568115,14,7950.0,12.1448392868042,52,9965.0
12220,0.3798559904098511,-3.7995479106903076,4,7950.0,-5.515272617340088,-197,9965.0
12230,0.3811292052268982,-6.933785438537598,-180,7950.0,-24.14366912841797,-529,9965.0
12240,0.3812495768070221,-5.014274597167969,26,7950.0,-36.45576477050781,-556,9965.0
12250,0.3812457323074341,5.89678430557251,82,7950.0,-35.4593391418457,-641,9965.0
12260,0.3812263309955597,9.050515174865723,164,7950.0,-26.530120849609375,-330,9965.0
12270,0.3819059133529663,6.765913009643555,119,7950.0,-4.991328716278076,80,9965.0
12280,0.38202089071273804,3.1922924518585205,-40,7950.0,19.338382720947266,277,9965.0
12290,0.3822219967842102,-5.702531337738037,-102,7950.0,31.650768280029297,644,9965.0
12300,0.38248521089553833,-15.724679946899414,-354,7950.0,35.23390579223633,486,9965.0
12310,0.38362613320350647,-16.533111572265625,-195,7950.0,25.163267135620117,369,9965.0
12320,0.38401365280151367,-8.904349327087402,-133,7950.0,6.8122944831848145,-55,9965.0
12330,0.38460370898246765,-1.6692379713058472,20,7950.0,-18.523372650146484,-312,9965.0
12340,0.38503554463386536,2.396130084991455,64,7950.0,-38.87422561645508,-726,9965.0
12350,0.38543981313705444,5.867822170257568,166,7950.0,-38.99542999267578,-601,9965.0
12360,0.38598719239234924,10.141118049621582,161,7950.0,-27.257328033447266,-309,9965.0
12370,0.3865308463573456,6.774020671844482,57,7950.0,-9.584174156188965,-159,9965.0
12380,0.38681188225746155,1.3781033754348755,19,7950.0,8.567377090454102,254,9965.0
12390,0.38706138730049133,-6.742398262023926,-164,7950.0,23.54689598083496,459,9965.0
12400,0.38783955574035645,-13.230390548706055,-286,7950.0,36.92892074584961,560,9965.0
12410,0.3877352476119995,-13.25383472442627,-211,7950.0,39.141571044921875,787,9965.0
12420,0.38750386238098145,-11.605682373046875,-232,7950.0,41.4051513671875,631,9965.0
12430,0.38709551095962524,-10.948259353637695,-107,7950.0,39.30356979370117,643,9965.0
12440,0.3866978585720062,-9.071952819824219,-173,7950.0,25.024168014526367,333,9965.0
12450,0.3860325515270233,-6.7837395668029785,-42,7950.0,4.5122971534729,-44,9965.0
12460,0.38548505306243896,-1.3123291730880737,44,7950.0,-21.3128719329834,-388,9965.0
12470,0.3849804699420929,4.087581634521484,3,7950.0,-44.292945861816406,-851,9965.0
12480,0.3843931257724762,4.725370407104492,190,7950.0,-48.31515884399414,-612,9965.0
12490,0.3851650059223175,9.964516639709473,161,7950.0,-26.833335876464844,-474,9965.0
12500,0.3845810890197754,11.960779190063477,254,7950.0,-3.2083280086517334,82,9965.0
12510,0.3841809034347534,6.357431888580322,28,7950.0,20.06789779663086,440,9965.0
12520,0.3838622272014618,-9.312906265258789,-251,7950.0,31.301828384399414,518,9965.0
12530,0.3841586410999298,-20.955726623535156,-312,7950.0,30.334606170654297,510,9965.0
12540,0.38384291529655457,-19.970857620239258,-329,7950.0,18.30457878112793,174,9965.0
12550,0.383637011051178,-16.327226638793945,-241,7950.0,-1.8919239044189453,-82,9965.0
12560,0.38368603587150574,-3.537989377975464,-8,7950.0,-19.78995704650879,-350,9965.0
12570,0.38370099663734436,7.613478660583496,162,7950.0,-27.29532241821289,-544,9965.0
12580,0.3850005865097046,8.823175430297852,139,7950.0,-22.84125518798828,-315,9965.0
12590,0.3851338028907776,4.105037212371826,46,7950.0,-11.602910041809082,-115,9965.0
12600,0.3852815330028534,-4.110086441040039,-139,7950.0,-3.939552068710327,-40,9965.0
12610,0.385273814201355,-17.00775909423828,-328,7950.0,-1.1731094121932983,26,9965.0
12620,0.38636085391044617,-30.40076446533203,-641,7950.0,1.7033545970916748,-36,9965.0
12630,0.38632550835609436,-39.979007720947266,-626,7950.0,8.843636512756348,273,9965.0
12640,0.386107474565506,-34.716796875,-517,7950.0,14.139451026916504,210,9965.0
12650,0.38577622175216675,-18.777740478515625,-148,7950.0,16.93369483947754,324,9965.0
12660,0.3853704035282135,-2.954393148422241,-44,7950.0,14.532254219055176,230,9965.0
12670,0.38640502095222473,8.490893363952637,168,7950.0,11.12017822265625,90,9965.0
12680,0.385985791683197,15.03083324432373,298,7950.0,1.7714310884475708,7,9965.0
12690,0.38555094599723816,15.06775951385498,150,7950.0,-13.63010311126709,-418,9965.0
12700,0.38502049446105957,8.3426513671875,164,7950.0,-31.506593704223633,-467,9965.0
12710,0.3850741386413574,-2.499302864074707,-160,7950.0,-39.34054946899414,-711,9965.0
12720,0.3845409154891968,-12.405881881713867,-178,7950.0,-26.383773803710938,-270,9965.0
12730,0.3841474950313568,-18.28359603881836,-338,7950.0,-6.403651714324951,-16,9965.0
12740,0.38384178280830383,-11.416117668151855,-37,7950.0,14.771688461303711,414,9965.0
12750,0.38361024856567383,4.746079921722412,148,7950.0,23.807058334350586,239,9965.0
12760,0.38326019048690796,18.106578826904297,290,7950.0,18.503419876098633,314,9965.0
12770,0.3832903206348419,20.69349479675293,238,7950.0,3.1774473190307617,6,9965.0
12780,0.38346827030181885,12.846625328063965,178,7950.0,-10.680403709411621,-240,9965.0
12790,0.3835929036140442,-1.3095242977142334,-173,7950.0,-23.088899612426758,-380,9965.0
12800,0.38477927446365356,-22.53298568725586,-429,7950.0,-22.147354125976562,-294,9965.0
12810,0.38501647114753723,-38.158809661865234,-637,7950.0,-14.860652923583984,-244,9965.0
12820,0.3853488862514496,-46.89128494262695,-788,7950.0,-5.4428935050964355,-61,9965.0
12830,0.3855171501636505,-49.54362869262695,-859,7950.0,0.35375094413757324,-57,9965.0
12840,0.38567599654197693,-53.49977111816406,-813,7950.0,2.3905458450317383,130,9965.0
12850,0.38568609952926636,-44.96358871459961,-679,7950.0,3.176753282546997,36,9965.0
12860,0.3866462707519531,-17.054841995239258,-95,7950.0,6.311750411987305,40,9965.0
12870,0.386835515499115,14.297019004821777,449,7950.0,9.727179527282715,320,9965.0
12880,0.387068510055542,44.53318405151367,805,7950.0,18.59898567199707,317,9965.0
12890,0.3881891369819641,66.14464569091797,1132,7950.0,22.540908813476562,292,9965.0
12900,0.3882998824119568,70.38111877441406,1229,7950.0,19.15949249267578,368,9965.0
12910,0.3886416554450989,67.38056182861328,976,7950.0,7.12097692489624,19,9965.0
12920,0.38865095376968384,53.37579345703125,839,7950.0,-5.9252448081970215,-58,9965.0
12930,0.39058345556259155,33.26294708251953,423,7950.0,-15.837428092956543,-396,9965.0
12940,0.3909684121608734,10.522071838378906,114,7950.0,-20.909378051757812,-255,9965.0
12950,0.39139288663864136,-13.108006477355957,-343,7950.0,-20.981578826904297,-331,9965.0
12960,0.391525536775589,-32.12098693847656,-517,7950.0,-16.68558120727539,-228,9965.0
12970,0.3906516432762146,-30.952280044555664,-433,7950.0,-12.11120891571045,-157,9965.0
12980,0.3907058537006378,-18.320446014404297,-254,7950.0,-2.586771011352539,-3,9965.0
12990,0.3908456861972809,-6.732637882232666,-74,7950.0,7.694864273071289,212,9965.0
13000,0.3910224735736847,-4.744008541107178,-101,7950.0,18.83541488647461,326,9965.0
13010,0.39120131731033325,-1.4583499431610107,59,7950.0,20.47859764099121,326,9965.0
13020,0.38975316286087036,4.9571428298950195,62,7950.0,14.066365242004395,130,9965.0
13030,0.3899826407432556,9.341416358947754,170,7950.0,2.5757558345794678,84,9965.0
13040,0.3902311623096466,8.425399780273438,86,7950.0,-2.127269983291626,-55,9965.0
13050,0.3904833197593689,1.1134668588638306,-20,7950.0,-1.8477281332015991,104,9965.0
13060,0.3896389901638031,-8.180447578430176,-180,7950.0,3.9781761169433594,41,9965.0
13070,0.3898933529853821,-19.161985397338867,-345,7950.0,8.786157608032227,146,9965.0
13080,0.39009177684783936,-26.50734519958496,-458,7950.0,6.5705132484436035,110,9965.0
13090,0.3901199996471405,-21.761035919189453,-304,7950.0,2.301863431930542,-22,9965.0
13100,0.39011090993881226,-5.787527561187744,42,7950.0,1.8432652950286865,171,9965.0
13110,0.38912343978881836,13.732807159423828,241,7950.0,6.947700023651123,2,9965.0
13120,0.38904717564582825,27.243770599365234,554,7950.0,7.27703332901001,178,9965.0
13130,0.38885679841041565,35.823307037353516,595,7950.0,5.448082447052002,47,9965.0
13140,0.38849711418151855,40.51552963256836,698,7950.0,3.6357202529907227,55,9965.0
13150,0.38898196816444397,38.94538879394531,607,7950.0,3.133587121963501,33,9965.0
13160,0.3883923888206482,32.8304557800293,477,7950.0,2.0267601013183594,143,9965.0
13170,0.38771504163742065,22.963205337524414,356,7950.0,-1.1139464378356934,-64,9965.0
13180,0.3869941830635071,15.798835754394531,225,7950.0,-5.7109599113464355,-107,9965.0
13190,0.38730528950691223,14.979915618896484,226,7950.0,-7.533986568450928,-63,9965.0
13200,0.3865455687046051,23.52957534790039,482,7950.0,3.453925848007202,193,9965.0
13210,0.3858505189418793,20.743389129638672,237,7950.0,19.44110107421875,264,9965.0
13220,0.3851746618747711,8.45797348022461,96,7950.0,26.605039596557617,551,9965.0
13230,0.38488003611564636,-10.888863563537598,-338,7950.0,21.254396438598633,160,9965.0
13240,0.3850158452987671,-27.35358428955078,-435,7950.0,8.7377347946167,177,9965.0
13250,0.3847772181034088,-36.642147064208984,-668,7950.0,-2.9610166549682617,-188,9965.0
13260,0.3845894932746887,-36.438350677490234,-519,7950.0,-17.239341735839844,-283,9965.0
13270,0.38445088267326355,-29.543357849121094,-487,7950.0,-29.79546546936035,-596,9965.0
13280,0.38311222195625305,-21.78852081298828,-239,7950.0,-32.002685546875,-431,9965.0
13290,0.38299012184143066,-15.18412971496582,-258,7950.0,-23.292068481445312,-390,9965.0
13300,0.3830837309360504,-9.87919807434082,-92,7950.0,-10.454277992248535,36,9965.0
13310,0.38310346007347107,-6.108169078826904,-119,7950.0,6.827003002166748,130,9965.0
13320,0.3831450641155243,0.8403486013412476,146,7950.0,20.305618286132812,467,9965.0
13330,0.38197973370552063,13.886475563049316,234,7950.0,23.294246673583984,327,9965.0
13340,0.3820796012878418,25.26045036315918,476,7950.0,17.479049682617188,269,9965.0
13350,0.38211047649383545,30.290077209472656,441,7950.0,8.339111328125,70,9965.0
13360,0.38206547498703003,29.04126739501953,474,7950.0,-2.092078924179077,-55,9965.0
13370,0.3814198076725006,20.752286911010742,258,7950.0,-4.8535614013671875,-118,9965.0
13380,0.38106822967529297,3.7615702152252197,-42,7950.0,2.2233712673187256,104,9965.0
13390,0.3806728422641754,-14.429718017578125,-412,7950.0,11.317840576171875,161,9965.0
13400,0.3803432285785675,-26.7745418548584,-443,7950.0,13.549566268920898,276,9965.0
13410,0.3799514174461365,-30.631322860717773,-524,7950.0,8.955151557922363,14,9965.0
13420,0.3790645897388458,-27.61783790588379,-373,7950.0,-1.231521725654602,-141,9965.0
13430,0.3786291480064392,-13.719732284545898,-182,7950.0,-13.295368194580078,-302,9965.0
13440,0.3781963884830475,-0.7369765639305115,47,7950.0,-21.78618049621582,-430,9965.0
13450,0.3776615560054779,11.001415252685547,241,7950.0,-25.57720184326172,-321,9965.0
13460,0.3785289525985718,19.55828857421875,273,7950.0,-29.621023178100586,-519,9965.0
13470,0.3780722916126251,19.85713005065918,364,7950.0,-19.823923110961914,-164,9965.0
13480,0.3778548538684845,18.04452133178711,242,7950.0,-2.7825725078582764,-30,9965.0
13490,0.377663254737854,12.201810836791992,167,7950.0,11.784453392028809,190,9965.0
13500,0.3769746422767639,-0.35855937004089355,-61,7950.0,9.513440132141113,189,9965.0
13510,0.37696248292922974,-10.761009216308594,-185,7950.0,4.264969825744629,-5,9965.0
13520,0.3770148754119873,-11.606905937194824,-167,7950.0,-1.2815126180648804,-30,9965.0
13530,0.37709033489227295,-2.98121976852417,-58,7950.0,-5.781632423400879,-89,9965.0
13540,0.37723299860954285,12.08597183227539,317,7950.0,-10.993592262268066,-216,9965.0
13550,0.3764433264732361,27.141857147216797,447,7950.0,-12.8185453414917,-318,9965.0
13560,0.3764552175998688,40.0882453918457,757,7950.0,-8.904539108276367,28,9965.0
13570,0.37645044922828674,47.72771072387695,752,7950.0,5.008703708648682,173,9965.0
13580,0.37652847170829773,41.07830810546875,582,7950.0,24.191171646118164,381,9965.0
13590,0.37696072459220886,19.994909286499023,277,7950.0,36.47412109375,673,9965.0
13600,0.37702280282974243,-7.072992324829102,-227,7950.0,41.040523529052734,637,9965.0
13610,0.37732404470443726,-36.4346809387207,-773,7950.0,29.889577865600586,323,9965.0
13620,0.3772781789302826,-61.678260803222656,-1005,7950.0,18.649580001831055,368,9965.0
13630,0.3770292103290558,-67.57318115234375,-1157,7950.0,14.331287384033203,188,9965.0
13640,0.37694811820983887,-63.57978439331055,-853,7950.0,8.5628662109375,166,9965.0
13650,0.3769814074039459,-47.46437454223633,-721,7950.0,-1.4561541080474854,-155,9965.0
13660,0.3767057955265045,-26.371681213378906,-323,7950.0,-15.214655876159668,-234,9965.0
13670,0.37646156549453735,-6.473028659820557,-107,7950.0,-25.864625930786133,-477,9965.0
13680,0.37714678049087524,6.780144691467285,172,7950.0,-30.634550094604492,-530,9965.0
13690,0.3769594430923462,10.338454246520996,137,7950.0,-25.141408920288086,-351,9965.0
13700,0.37677597999572754,3.6890413761138916,68,7950.0,-8.97675609588623,-59,9965.0
13710,0.3768472671508789,-2.435211658477783,-72,7950.0,12.258902549743652,178,9965.0
13720,0.37619706988334656,-2.4254846572875977,9,7950.0,24.411352157592773,462,9965.0
13730,0.3763490617275238,2.296842098236084,-51,7950.0,23.66114616394043,396,9965.0
13740,0.37656721472740173,1.0929700136184692,62,7950.0,11.542588233947754,207,9965.0
13750,0.37684497237205505,-3.2081544399261475,-121,7950.0,-1.1804081201553345,-181,9965.0
13760,0.3771558403968811,-6.2070207595825195,-101,7950.0,-10.409553527832031,-91,9965.0
13770,0.3778047561645508,-11.209495544433594,-292,7950.0,-14.258243560791016,-318,9965.0
13780,0.3781106472015381,-16.39031410217285,-226,7950.0,-15.77149772644043,-142,9965.0
13790,0.3784538209438324,-24.19122314453125,-452,7950.0,-5.973771095275879,-106,9965.0
13800,0.37876686453819275,-26.109912872314453,-407,7950.0,3.447211980819702,112,9965.0
13810,0.3776094317436218,-22.123964309692383,-310,7950.0,8.262042999267578,40,9965.0
13820,0.37773820757865906,-6.386874675750732,21,7950.0,9.526244163513184,256,9965.0
13830,0.377829372882843,16.06333351135254,270,7950.0,10.927560806274414,68,9965.0
13840,0.3779827058315277,29.612138748168945,575,7950.0,5.983963489532471,199,9965.0
13850,0.37761548161506653,32.653839111328125,436,7950.0,1.9540040493011475,3,9965.0
13860,0.37751007080078125,26.551715850830078,491,7950.0,4.843198299407959,185,9965.0
13870,0.3776494562625885,12.9357328414917,82,7950.0,7.210719585418701,-11,9965.0
13880,0.3773796558380127,3.926246166229248,74,7950.0,4.745323181152344,117,9965.0
13890,0.3771072328090668,2.357841968536377,1,7950.0,0.13033360242843628,-12,9965.0
13900,0.376947283744812,0.15478181838989258,19,7950.0,-0.7555363774299622,-76,9965.0
13910,0.37634456157684326,-0.9310429692268372,-37,7950.0,-0.8003214001655579,-28,9965.0
13920,0.37570133805274963,2.043999433517456,62,7950.0,-7.192291259765625,-149,9965.0
13930,0.37505263090133667,9.822742462158203,264,7950.0,-20.509910583496094,-387,9965.0
13940,0.3750119209289551,22.937915802001953,426,7950.0,-28.32326316833496,-489,9965.0
13950,0.3745186924934387,28.839385986328125,442,7950.0,-26.402427673339844,-300,9965.0
13960,0.3742014467716217,19.803943634033203,188,7950.0,-13.637343406677246,-169,9965.0
13970,0.373886376619339,-4.0914177894592285,-178,7950.0,9.140734672546387,321,9965.0
13980,0.37394118309020996,-26.03740882873535,-529,7950.0,25.64745330810547,456,9965.0
13990,0.3740343749523163,-35.455482482910156,-597,7950.0,29.098819732666016,462,9965.0
14000,0.37409690022468567,-35.091983795166016,-501,7950.0,16.629419326782227,154,9965.0
14010,0.3742453455924988,-23.942052841186523,-281,7950.0,-0.9674012660980225,-110,9965.0
14020,0.3746326267719269,-9.583642959594727,-149,7950.0,-20.1574649810791,-342,9965.0
14030,0.3763377070426941,-1.290717601776123,83,7950.0,-32.3193244934082,-470,9965.0
14040,0.3767918050289154,4.582695960998535,30,7950.0,-33.29253005981445,-511,9965.0
14050,0.3773106634616852,4.919999122619629,110,7950.0,-17.70400619506836,-235,9965.0
14060,0.37794190645217896,7.118968963623047,162,7950.0,3.5359907150268555,236,9965.0
14070,0.37846535444259644,5.721846103668213,19,7950.0,24.58611297607422,412,9965.0
14080,0.3770993649959564,1.8303296566009521,65,7950.0,34.764503479003906,638,9965.0
14090,0.3774385452270508,-1.5085515975952148,-79,7950.0,33.55586242675781,495,9965.0
