timestamp,kalman.stateZ,gyro.x,gyro.xRaw,gyro.xVariance,gyro.y,gyro.yRaw,gyro.yVariance
0,0.2646351456642151,-0.6129757761955261,-5,5897.0,-1.8273783922195435,-25,9950.0
10,0.2646414339542389,0.10471588373184204,5,5897.0,-2.3010053634643555,-37,9950.0
20,0.26307952404022217,0.8788985013961792,25,5897.0,-2.707061529159546,-44,9950.0
30,0.2630373537540436,1.2439175844192505,23,5897.0,-2.9762659072875977,-51,9950.0
40,0.26299333572387695,1.3435084819793701,16,5897.0,-3.428656578063965,-50,9950.0
50,0.2629290521144867,0.22279570996761322,2,5897.0,-3.3077642917633057,-48,9950.0
60,0.26354286074638367,-0.336180716753006,-11,5897.0,-3.368760824203491,-51,9950.0
70,0.263491153717041,-0.677575945854187,-15,5897.0,-3.623979091644287,-56,9950.0
80,0.26343852281570435,-0.6780335307121277,-17,5897.0,-3.7687432765960693,-60,9950.0
90,0.26341086626052856,-0.7182732820510864,-5,5897.0,-3.7031772136688232,-60,9950.0
100,0.26338404417037964,0.102152518928051,0,5897.0,-3.8494479656219482,-60,9950.0
110,0.26184019446372986,0.5346835255622864,7,5897.0,-3.5590741634368896,-53,9950.0
120,0.2617778182029724,0.32790714502334595,8,5897.0,-3.4562878608703613,-54,9950.0
130,0.26166173815727234,-0.1647109091281891,2,5897.0,-3.0566301345825195,-44,9950.0
140,0.2615469694137573,-0.1566472202539444,-3,5897.0,-2.974477767944336,-37,9950.0
150,0.26272478699684143,-0.589633584022522,-12,5897.0,-2.4288599491119385,-36,9950.0
160,0.26265913248062134,-0.5055975317955017,-10,5897.0,-1.768656611442566,-29,9950.0
170,0.2626616954803467,-0.40249180793762207,-4,5897.0,-1.7072302103042603,-19,9950.0
180,0.26263126730918884,-0.16182060539722443,-8,5897.0,-1.0248481035232544,-12,9950.0
190,0.26257607340812683,0.029065614566206932,-2,5897.0,-0.8185038566589355,-9,9950.0
200,0.26543089747428894,0.5384718775749207,13,5897.0,-0.14416328072547913,1,9950.0
210,0.2656542956829071,0.5359865427017212,12,5897.0,0.40330594778060913,12,9950.0
220,0.2657378017902374,0.7811887264251709,14,5897.0,0.570389986038208,19,9950.0
230,0.26584717631340027,1.0906827449798584,20,5897.0,0.8676648139953613,16,9950.0
240,0.2658996880054474,0.6135355234146118,6,5897.0,0.945286214351654,26,9950.0
250,0.266068696975708,0.27617955207824707,4,5897.0,0.8562479019165039,16,9950.0
260,0.26623013615608215,1.3404542207717896,46,5897.0,0.1966240555047989,5,9950.0
270,0.2663891613483429,2.439446210861206,26,5897.0,-1.7352149486541748,-36,9950.0
280,0.2666736841201782,4.114473819732666,87,5897.0,-5.198347091674805,-127,9950.0
290,0.2669009268283844,5.050094127655029,56,5897.0,-13.68729019165039,-232,9950.0
300,0.26710888743400574,6.196052551269531,103,5897.0,-21.171749114990234,-428,9950.0
310,0.26728180050849915,4.263543128967285,71,5897.0,-31.807565689086914,-583,9950.0
320,0.26742979884147644,4.221808433532715,56,5897.0,-42.20106506347656,-765,9950.0
330,0.26654884219169617,1.8288909196853638,46,5897.0,-50.15501403808594,-887,9950.0
340,0.26684921979904175,0.4001580774784088,17,5897.0,-56.504913330078125,-942,9950.0
350,0.26685720682144165,0.496479332447052,-7,5897.0,-59.591121673583984,-925,9950.0
360,0.26682865619659424,1.2249846458435059,-20,5897.0,-57.346439361572266,-889,9950.0
370,0.26521748304367065,0.9283462166786194,5,5897.0,-54.226863861083984,-892,9950.0
380,0.26519984006881714,0.22644850611686707,-11,5897.0,-41.91042709350586,-554,9950.0
390,0.2655228078365326,1.1442519426345825,38,5897.0,-25.353801727294922,-397,9950.0
400,0.265666127204895,-1.488538146018982,-43,5897.0,-13.351670265197754,-195,9950.0
410,0.265619158744812,-1.5562454462051392,-17,5897.0,-0.24567289650440216,73,9950.0
420,0.2650217115879059,-0.9540600180625916,48,5897.0,11.630146980285645,261,9950.0
430,0.26505041122436523,0.2833639085292816,39,5897.0,22.560161590576172,475,9950.0
440,0.2653801143169403,1.751037359237671,26,5897.0,31.688350677490234,409,9950.0
450,0.26596829295158386,3.8177454471588135,56,5897.0,34.20903015136719,539,9950.0
460,0.26597151160240173,4.338630676269531,25,5897.0,32.23093032836914,633,9950.0
470,0.26603060960769653,3.95644474029541,28,5897.0,29.80655860900879,521,9950.0
480,0.2661476135253906,4.34968376159668,22,5897.0,22.374759674072266,458,9950.0
490,0.26625117659568787,1.7170145511627197,48,5897.0,15.42320442199707,242,9950.0
500,0.26660650968551636,2.6417369842529297,51,5897.0,8.89955997467041,150,9950.0
510,0.2667328119277954,1.4411553144454956,116,5897.0,2.358319044113159,-24,9950.0
520,0.2670276165008545,0.2990979850292206,49,5897.0,-4.49950647354126,-164,9950.0
530,0.2672933340072632,0.4178663492202759,105,5897.0,-9.771093368530273,-155,9950.0
540,0.26737576723098755,0.7131151556968689,110,5897.0,-13.236409187316895,-281,9950.0
550,0.2687530219554901,0.7714557647705078,41,5897.0,-12.97426700592041,-158,9950.0
560,0.26903897523880005,0.9060198664665222,46,5897.0,-12.15971565246582,-116,9950.0
570,0.2695130705833435,-0.1821814626455307,-76,5897.0,-5.9699015617370605,-24,9950.0
580,0.2701312005519867,0.8846988677978516,-53,5897.0,-2.9220893383026123,128,9950.0
590,0.26950836181640625,-0.6351860761642456,-25,5897.0,6.142417907714844,85,9950.0
600,0.2700624465942383,0.49168747663497925,10,5897.0,13.479093551635742,227,9950.0
610,0.27063676714897156,-2.574671745300293,2,5897.0,18.031476974487305,354,9950.0
620,0.27112579345703125,-4.72884464263916,-138,5897.0,23.812761306762695,395,9950.0
630,0.2713913321495056,-4.363545894622803,-153,5897.0,25.163055419921875,521,9950.0
640,0.27139201760292053,-7.3190388679504395,-107,5897.0,26.6673641204834,513,9950.0
650,0.2718217670917511,-7.419493675231934,-99,5897.0,27.52503204345703,343,9950.0
660,0.27213481068611145,-6.662172794342041,-109,5897.0,26.06031608581543,280,9950.0
670,0.2724454700946808,-5.1759209632873535,-87,5897.0,20.094072341918945,384,9950.0
680,0.2724977433681488,-1.1266447305679321,-74,5897.0,10.757464408874512,350,9950.0
690,0.27283668518066406,-0.14866633713245392,-36,5897.0,7.373617649078369,181,9950.0
700,0.2730880081653595,1.1018097400665283,16,5897.0,2.435438394546509,-123,9950.0
710,0.2733343839645386,3.4295051097869873,108,5897.0,-3.243591547012329,-181,9950.0
720,0.27300477027893066,4.368273735046387,143,5897.0,-10.425501823425293,-164,9950.0
730,0.27328017354011536,5.257020950317383,62,5897.0,-12.819133758544922,-127,9950.0
740,0.2734578251838684,5.20540189743042,2,5897.0,-10.706968307495117,-236,9950.0
750,0.2736174166202545,3.3534841537475586,-2,5897.0,-10.458503723144531,-128,9950.0
760,0.2739129066467285,-0.6063240170478821,58,5897.0,-10.4231538772583,-121,9950.0
770,0.2745593190193176,-3.82772159576416,-117,5897.0,-2.80153489112854,-46,9950.0
780,0.2749393582344055,-5.569909572601318,-165,5897.0,-0.7060928344726562,-46,9950.0
790,0.2753347158432007,-8.269927024841309,-38,5897.0,3.0783963203430176,-60,9950.0
800,0.2756876051425934,-5.359901428222656,-10,5897.0,5.832141399383545,88,9950.0
810,0.2766610383987427,-3.905349016189575,-110,5897.0,7.559066295623779,163,9950.0
820,0.2767345607280731,-2.833972454071045,-81,5897.0,7.151578903198242,162,9950.0
830,0.276790589094162,-1.7476770877838135,29,5897.0,4.629134654998779,61,9950.0
840,0.276902437210083,-0.3024109899997711,40,5897.0,2.2313811779022217,14,9950.0
850,0.27699023485183716,1.0974681377410889,-32,5897.0,1.787828803062439,-36,9950.0
860,0.2770856022834778,1.935680866241455,14,5897.0,-2.272420883178711,-61,9950.0
870,0.2771320641040802,2.5173513889312744,104,5897.0,-7.946826934814453,-111,9950.0
880,0.27708524465560913,3.214461326599121,47,5897.0,-11.427934646606445,-96,9950.0
890,0.2769729495048523,2.496259927749634,-20,5897.0,-12.113931655883789,-222,9950.0
900,0.27611878514289856,1.6296780109405518,39,5897.0,-14.090936660766602,-321,9950.0
910,0.27604708075523376,-0.16795115172863007,43,5897.0,-16.54544448852539,-209,9950.0
920,0.27609965205192566,-0.12331563979387283,-19,5897.0,-16.420330047607422,-197,9950.0
930,0.27603286504745483,0.44557875394821167,10,5897.0,-11.604166984558105,-278,9950.0
940,0.27572256326675415,0.54344242811203,51,5897.0,-10.752761840820312,-215,9950.0
950,0.2757318913936615,0.6378526091575623,-25,5897.0,-10.397366523742676,-39,9950.0
960,0.27559608221054077,-0.009090131148695946,-15,5897.0,-8.730927467346191,-100,9950.0
970,0.27528244256973267,-0.7136081457138062,62,5897.0,-5.778112411499023,-199,9950.0
980,0.2751327157020569,0.8005269765853882,-11,5897.0,-5.779153347015381,-81,9950.0
990,0.27456459403038025,2.155194044113159,1,5897.0,-6.2634806632995605,0,9950.0
1000,0.27443021535873413,2.867042064666748,88,5897.0,-4.162103652954102,-92,9950.0
1010,0.27427351474761963,3.497633457183838,64,5897.0,-3.8798749446868896,-99,9950.0
1020,0.27409687638282776,4.216462135314941,-21,5897.0,-5.0100202560424805,-39,9950.0
1030,0.2740824222564697,2.806863784790039,67,5897.0,-7.461322784423828,-120,9950.0
1040,0.2742241322994232,0.5757544636726379,81,5897.0,-6.516829967498779,-111,9950.0
1050,0.2742049992084503,1.4270457029342651,51,5897.0,-6.251535892486572,-76,9950.0
1060,0.27410566806793213,-0.327276349067688,-63,5897.0,-7.233613014221191,-12,9950.0
1070,0.27271583676338196,-1.87493097782135,-22,5897.0,-8.902846336364746,-180,9950.0
1080,0.27248117327690125,-3.109456777572632,-1,5897.0,-11.57097339630127,-145,9950.0
1090,0.2722300887107849,-2.0523645877838135,-44,5897.0,-10.8987455368042,-142,9950.0
1100,0.27197450399398804,-1.9151318073272705,-33,5897.0,-10.44764232635498,-305,9950.0
1110,0.2717828154563904,-1.8423621654510498,12,5897.0,-11.836706161499023,-148,9950.0
1120,0.2725648880004883,-1.305877923965454,-59,5897.0,-13.525568962097168,-122,9950.0
1130,0.27273136377334595,-0.4731218218803406,30,5897.0,-11.477391242980957,-203,9950.0
1140,0.27279502153396606,2.1289103031158447,65,5897.0,-7.772878170013428,-128,9950.0
1150,0.27287328243255615,2.2940990924835205,3,5897.0,-5.117794036865234,-184,9950.0
1160,0.27188634872436523,1.267826795578003,74,5897.0,-2.667555332183838,-68,9950.0
1170,0.2720699608325958,0.8586313724517822,-41,5897.0,-0.5691949129104614,109,9950.0
1180,0.27236777544021606,0.3776741623878479,40,5897.0,3.5854785442352295,125,9950.0
1190,0.2726275622844696,-0.4662085175514221,-28,5897.0,5.455711364746094,187,9950.0
1200,0.2729281485080719,-0.07608155906200409,-3,5897.0,8.08554744720459,65,9950.0
1210,0.2713801860809326,-0.566431999206543,-17,5897.0,10.150651931762695,146,9950.0
1220,0.27172061800956726,-1.548283338546753,-54,5897.0,11.763823509216309,105,9950.0
1230,0.27206170558929443,-0.7276498079299927,18,5897.0,9.116659164428711,164,9950.0
1240,0.2725418508052826,-0.1709662675857544,-55,5897.0,6.859345436096191,151,9950.0
1250,0.27316930890083313,0.8351817727088928,61,5897.0,4.201128005981445,145,9950.0
1260,0.27368175983428955,2.1465375423431396,-28,5897.0,2.18556547164917,171,9950.0
1270,0.27413055300712585,2.4162189960479736,54,5897.0,0.22580383718013763,115,9950.0
1280,0.27456769347190857,2.641472339630127,-21,5897.0,-0.6509857177734375,133,9950.0
1290,0.27343252301216125,1.159839153289795,34,5897.0,-0.08538759499788284,155,9950.0
1300,0.27384528517723083,1.1029157638549805,0,5897.0,3.8946473598480225,184,9950.0
1310,0.27419066429138184,-0.969214677810669,23,5897.0,5.710888862609863,125,9950.0
1320,0.2746754586696625,-1.3729451894760132,-48,5897.0,9.190258026123047,136,9950.0
1330,0.2754017412662506,-4.0019073486328125,-23,5897.0,12.148538589477539,177,9950.0
1340,0.275223046541214,-3.004948854446411,-12,5897.0,14.310087203979492,99,9950.0
1350,0.2759699821472168,-1.753861427307129,-42,5897.0,14.41480827331543,226,9950.0
1360,0.2768406867980957,-1.7092479467391968,30,5897.0,14.586795806884766,95,9950.0
1370,0.27738502621650696,-1.504643440246582,-75,5897.0,13.396615028381348,197,9950.0
1380,0.27724501490592957,-2.1760199069976807,15,5897.0,13.085367202758789,237,9950.0
1390,0.2779948115348816,-1.278320074081421,-17,5897.0,14.011869430541992,286,9950.0
1400,0.27878057956695557,0.8681285977363586,-38,5897.0,12.01555061340332,355,9950.0
1410,0.27972403168678284,0.6033403277397156,-39,5897.0,15.494400024414062,318,9950.0
1420,0.28005948662757874,4.773324489593506,13,5897.0,13.32217025756836,242,9950.0
1430,0.28073588013648987,0.12906110286712646,-83,5897.0,11.571134567260742,357,9950.0
1440,0.28176867961883545,-1.5069451332092285,-49,5897.0,15.242595672607422,281,9950.0
1450,0.2826816141605377,-0.1596619188785553,-49,5897.0,11.476747512817383,187,9950.0
1460,0.28349000215530396,-1.3915280103683472,-25,5897.0,12.323315620422363,234,9950.0
1470,0.2842985987663269,-0.6425479054450989,66,5897.0,12.3573579788208,29,9950.0
1480,0.28517961502075195,-2.177187919616699,10,5897.0,8.447145462036133,-18,9950.0
1490,0.28602081537246704,1.9031180143356323,94,5897.0,6.936657905578613,194,9950.0
1500,0.28681954741477966,0.607268750667572,126,5897.0,8.42969036102295,215,9950.0
1510,0.28688254952430725,2.084259510040283,-47,5897.0,7.390970230102539,134,9950.0
1520,0.28768718242645264,1.4870251417160034,-95,5897.0,8.182685852050781,166,9950.0
1530,0.2883383333683014,2.696157455444336,46,5897.0,10.235453605651855,154,9950.0
1540,0.289298415184021,2.6961302757263184,135,5897.0,10.79798412322998,127,9950.0
1550,0.2902247905731201,4.61469841003418,188,5897.0,11.778443336486816,195,9950.0
1560,0.2914244830608368,6.342428207397461,113,5897.0,10.817900657653809,278,9950.0
1570,0.2923802137374878,7.1219892501831055,-27,5897.0,9.23451042175293,153,9950.0
1580,0.2934666872024536,4.358962535858154,25,5897.0,6.953606605529785,-16,9950.0
1590,0.29467839002609253,2.2629756927490234,124,5897.0,4.251673221588135,45,9950.0
1600,0.2942172884941101,0.9879576563835144,81,5897.0,0.6405698657035828,10,9950.0
1610,0.2951330244541168,-0.5722960829734802,-14,5897.0,0.23822958767414093,97,9950.0
1620,0.2961638569831848,-1.3926295042037964,-25,5897.0,-3.180891275405884,-38,9950.0
1630,0.2972319424152374,-2.66795015335083,8,5897.0,-1.2410519123077393,-252,9950.0
1640,0.2982371151447296,-3.5843310356140137,27,5897.0,-2.105802059173584,-75,9950.0
1650,0.29899951815605164,-1.1353038549423218,-42,5897.0,-1.5384182929992676,52,9950.0
1660,0.2997182309627533,-1.7719292640686035,-88,5897.0,-0.11532022058963776,55,9950.0
1670,0.3004933297634125,-0.2389928251504898,-46,5897.0,0.918178379535675,-12,9950.0
1680,0.301276296377182,0.5834394097328186,-20,5897.0,-3.1243703365325928,3,9950.0
1690,0.30193275213241577,1.4337923526763916,42,5897.0,0.09366581588983536,24,9950.0
1700,0.3025762438774109,1.7893996238708496,77,5897.0,1.0771547555923462,125,9950.0
1710,0.3031943738460541,3.0883517265319824,-7,5897.0,-2.539616346359253,61,9950.0
1720,0.30378931760787964,3.673964738845825,-37,5897.0,-0.026153258979320526,51,9950.0
1730,0.30304932594299316,1.6519516706466675,5,5897.0,1.8418757915496826,-1,9950.0
1740,0.30362778902053833,3.1323318481445312,110,5897.0,1.2779592275619507,-13,9950.0
1750,0.3042212724685669,2.6352591514587402,157,5897.0,2.3280327320098877,1,9950.0
1760,0.30474212765693665,1.9428528547286987,135,5897.0,2.2441508769989014,29,9950.0
1770,0.3051757514476776,-0.5206854343414307,-59,5897.0,2.8878865242004395,138,9950.0
1780,0.30611225962638855,2.049306631088257,-99,5897.0,2.0781900882720947,55,9950.0
1790,0.3065338730812073,1.530800223350525,-54,5897.0,-0.3769620954990387,81,9950.0
1800,0.3068977892398834,0.11946775764226913,22,5897.0,-0.4743745028972626,49,9950.0
1810,0.30723270773887634,0.6053277850151062,85,5897.0,-2.612269639968872,-115,9950.0
1820,0.307659775018692,1.9801498651504517,137,5897.0,-5.08864164352417,-205,9950.0
1830,0.307862251996994,2.344740867614746,138,5897.0,-3.342400550842285,-174,9950.0
1840,0.3079065978527069,2.682011127471924,10,5897.0,-5.481605529785156,-108,9950.0
1850,0.30782198905944824,2.1224844455718994,-93,5897.0,-6.996330261230469,9,9950.0
1860,0.30776694416999817,1.1195924282073975,-46,5897.0,-6.599142074584961,49,9950.0
1870,0.3081885874271393,-1.5087071657180786,-52,5897.0,-5.423657417297363,-22,9950.0
1880,0.30802133679389954,-1.557105541229248,-15,5897.0,-6.947656631469727,-159,9950.0
1890,0.3077540993690491,-1.3747477531433105,22,5897.0,-5.5841145515441895,-279,9950.0
1900,0.3075047731399536,-0.6074848771095276,-17,5897.0,-5.6208648681640625,-229,9950.0
1910,0.3070448935031891,2.069350242614746,37,5897.0,-2.960423707962036,-48,9950.0
1920,0.30649426579475403,4.0136213302612305,65,5897.0,-6.017579078674316,-20,9950.0
1930,0.30597084760665894,3.791985273361206,95,5897.0,-3.9865450859069824,76,9950.0
1940,0.305391401052475,5.608275413513184,32,5897.0,-6.500349998474121,-44,9950.0
1950,0.30519700050354004,5.3278913497924805,41,5897.0,-7.618961811065674,-171,9950.0
1960,0.3044533133506775,3.6212427616119385,57,5897.0,-6.993746280670166,-308,9950.0
1970,0.3038623332977295,0.5703972578048706,57,5897.0,-9.370538711547852,-216,9950.0
1980,0.30319923162460327,1.559035062789917,4,5897.0,-13.62342643737793,-181,9950.0
1990,0.3025225102901459,-2.3850269317626953,-107,5897.0,-9.893592834472656,19,9950.0
2000,0.30274757742881775,-4.350511074066162,-124,5897.0,-7.125734329223633,19,9950.0
2010,0.3021487891674042,-4.167794704437256,-116,5897.0,-10.018604278564453,-138,9950.0
2020,0.30164918303489685,-5.212253093719482,16,5897.0,-8.474333763122559,-148,9950.0
2030,0.3012177646160126,-4.886803150177002,-5,5897.0,-8.108471870422363,-80,9950.0
2040,0.30077001452445984,-4.356225967407227,-62,5897.0,-5.775202751159668,50,9950.0
2050,0.3003396689891815,-2.7838821411132812,-126,5897.0,-6.546371936798096,-62,9950.0
2060,0.3000197112560272,-0.2860018312931061,-3,5897.0,-8.983965873718262,-250,9950.0
2070,0.2997682988643646,1.6541860103607178,98,5897.0,-6.873414993286133,-278,9950.0
2080,0.3009077310562134,2.2341649532318115,55,5897.0,-9.145573616027832,-91,9950.0
2090,0.3007297217845917,2.2683417797088623,-26,5897.0,-6.604572772979736,-117,9950.0
2100,0.3005189895629883,0.7880032062530518,-14,5897.0,-6.620699882507324,-203,9950.0
2110,0.30034399032592773,-1.2677154541015625,14,5897.0,-7.037307262420654,-163,9950.0
2120,0.300243616104126,-5.7787251472473145,-104,5897.0,-2.4047389030456543,70,9950.0
2130,0.3009515702724457,-1.0514174699783325,-103,5897.0,-4.231258869171143,19,9950.0
2140,0.30106985569000244,-2.5166025161743164,-75,5897.0,-2.004678726196289,-67,9950.0
2150,0.30121320486068726,-3.098604202270508,-26,5897.0,0.7245972752571106,-90,9950.0
2160,0.3013816475868225,-2.003168821334839,-29,5897.0,2.834900379180908,121,9950.0
2170,0.30212506651878357,0.20549464225769043,-85,5897.0,2.537738084793091,123,9950.0
2180,0.3024141192436218,0.39733898639678955,-62,5897.0,3.247107982635498,113,9950.0
2190,0.3028027415275574,-1.7170119285583496,-12,5897.0,7.431881427764893,-43,9950.0
2200,0.3032416105270386,1.550493597984314,53,5897.0,6.192044258117676,127,9950.0
2210,0.3036032021045685,3.2891950607299805,38,5897.0,6.049458980560303,161,9950.0
2220,0.3040456473827362,5.268270492553711,52,5897.0,7.026514530181885,190,9950.0
2230,0.3042983114719391,3.542440414428711,55,5897.0,6.736747741699219,42,9950.0
2240,0.30457642674446106,2.695894241333008,84,5897.0,3.9242618083953857,101,9950.0
2250,0.30492067337036133,-1.481057047843933,21,5897.0,3.585333824157715,199,9950.0
2260,0.30679595470428467,-1.6179715394973755,-88,5897.0,3.008592367172241,162,9950.0
2270,0.30723848938941956,-1.390606164932251,-30,5897.0,2.6604249477386475,-35,9950.0
2280,0.3076303005218506,-2.050870895385742,56,5897.0,4.655268669128418,-96,9950.0
2290,0.30809950828552246,-1.503200650215149,58,5897.0,2.7739486694335938,40,9950.0
2300,0.30798500776290894,0.046986378729343414,-46,5897.0,5.895364284515381,115,9950.0
2310,0.3085707128047943,0.41273462772369385,-54,5897.0,5.154606342315674,215,9950.0
2320,0.309152752161026,2.4348320960998535,-47,5897.0,6.317148685455322,24,9950.0
2330,0.30965501070022583,1.7203127145767212,54,5897.0,10.186532974243164,48,9950.0
2340,0.310115784406662,2.6729321479797363,55,5897.0,6.492274284362793,52,9950.0
2350,0.310329794883728,2.0559747219085693,37,5897.0,3.0823795795440674,109,9950.0
2360,0.31080394983291626,1.3674664497375488,-5,5897.0,3.050722360610962,128,9950.0
2370,0.31123611330986023,2.0934576988220215,48,5897.0,1.8946318626403809,25,9950.0
2380,0.31158992648124695,2.215174436569214,-23,5897.0,2.34061336517334,-102,9950.0
2390,0.31114810705184937,-0.3093315064907074,32,5897.0,-1.2922906875610352,-135,9950.0
2400,0.3113524317741394,-0.17245590686798096,41,5897.0,-1.8819652795791626,-63,9950.0
2410,0.311563640832901,-0.5134170651435852,-65,5897.0,-3.483405113220215,26,9950.0
2420,0.3117142915725708,-1.5838112831115723,-89,5897.0,-3.505586862564087,148,9950.0
2430,0.3117437958717346,-2.927057981491089,-64,5897.0,0.7060605883598328,31,9950.0
2440,0.31100231409072876,-2.1554911136627197,32,5897.0,1.6257028579711914,34,9950.0
2450,0.31092599034309387,-2.1628236770629883,76,5897.0,4.72702169418335,-11,9950.0
2460,0.3108274042606354,-0.5744557976722717,46,5897.0,0.09654878079891205,54,9950.0
2470,0.310630738735199,1.1409319639205933,-30,5897.0,2.842806816101074,84,9950.0
2480,0.31140047311782837,2.617185592651367,-32,5897.0,2.7447309494018555,-18,9950.0
2490,0.31117305159568787,0.8501681089401245,-13,5897.0,3.4406702518463135,-30,9950.0
2500,0.3109710216522217,0.8117929697036743,73,5897.0,-0.47747305035591125,-149,9950.0
2510,0.31073594093322754,-0.6720870733261108,2,5897.0,0.999091386795044,46,9950.0
2520,0.3121430575847626,0.10110334306955338,-19,5897.0,-0.7063963413238525,107,9950.0
2530,0.31185054779052734,0.2549172043800354,-92,5897.0,-3.7832908630371094,36,9950.0
2540,0.311555951833725,0.9096060991287231,43,5897.0,-1.8822028636932373,-60,9950.0
2550,0.31131434440612793,0.5575375556945801,45,5897.0,-1.635907530784607,-121,9950.0
2560,0.31103959679603577,-1.1330864429473877,62,5897.0,-0.5021131634712219,82,9950.0
2570,0.31117716431617737,-1.5262237787246704,-54,5897.0,-1.7764426469802856,54,9950.0
2580,0.31074437499046326,-2.317338228225708,-4,5897.0,-2.573253870010376,44,9950.0
2590,0.31030356884002686,-4.048707008361816,-12,5897.0,-0.39198148250579834,-147,9950.0
2600,0.3098902106285095,-1.6131433248519897,44,5897.0,-1.0254453420639038,30,9950.0
2610,0.3093089759349823,-0.363098680973053,-10,5897.0,0.03647330775856972,36,9950.0
2620,0.30886104702949524,1.213255763053894,-74,5897.0,-2.547319173812866,42,9950.0
2630,0.30837908387184143,2.220407724380493,45,5897.0,-2.398350715637207,-200,9950.0
2640,0.3078705370426178,1.7911489009857178,108,5897.0,-3.8152620792388916,-95,9950.0
2650,0.3074103891849518,1.4412291049957275,37,5897.0,-7.334677219390869,-66,9950.0
2660,0.30849066376686096,1.265883445739746,-39,5897.0,-4.626348495483398,2,9950.0
2670,0.3083147704601288,0.2917171120643616,8,5897.0,-3.117485284805298,-175,9950.0
2680,0.3081742525100708,-2.237177848815918,41,5897.0,-0.9032706618309021,35,9950.0
2690,0.30801060795783997,-2.1522812843322754,-37,5897.0,-1.496566891670227,71,9950.0
2700,0.3082923889160156,-1.6099803447723389,-151,5897.0,-1.5640203952789307,114,9950.0
2710,0.3081490695476532,-1.1229498386383057,-24,5897.0,0.975836455821991,-73,9950.0
2720,0.30808785557746887,-1.2984453439712524,39,5897.0,1.3759015798568726,-12,9950.0
2730,0.3081437945365906,-0.26365968585014343,-9,5897.0,1.3467994928359985,55,9950.0
2740,0.3081900179386139,1.1927658319473267,-79,5897.0,3.7106852531433105,84,9950.0
2750,0.3083728551864624,1.1937775611877441,32,5897.0,2.0840671062469482,-108,9950.0
2760,0.30858516693115234,2.1532819271087646,114,5897.0,6.684804439544678,67,9950.0
2770,0.30873411893844604,4.259592533111572,90,5897.0,1.8756452798843384,70,9950.0
2780,0.3088429570198059,2.4994146823883057,-18,5897.0,1.1424345970153809,71,9950.0
2790,0.3086715638637543,0.3318905234336853,37,5897.0,3.2177531719207764,-129,9950.0
2800,0.3087995648384094,-1.0066829919815063,53,5897.0,1.0343737602233887,42,9950.0
2810,0.3089338541030884,-1.5927029848098755,-104,5897.0,-0.27947843074798584,49,9950.0
2820,0.3090475797653198,-0.9732260704040527,-103,5897.0,-0.5364400744438171,-2,9950.0
2830,0.3098786473274231,-1.2151215076446533,-6,5897.0,3.5935325622558594,-117,9950.0
2840,0.3100022077560425,-1.8133095502853394,24,5897.0,2.774954319000244,-13,9950.0
2850,0.31016895174980164,0.9511690139770508,-34,5897.0,-1.2321962118148804,65,9950.0
2860,0.3104318678379059,1.9820895195007324,-23,5897.0,-2.7154247760772705,-48,9950.0
2870,0.31051984429359436,1.0298415422439575,34,5897.0,-0.6033731698989868,-124,9950.0
2880,0.3109689950942993,0.25703251361846924,20,5897.0,1.2356799840927124,39,9950.0
2890,0.3114033639431,-1.1540939807891846,-38,5897.0,2.8443198204040527,131,9950.0
2900,0.31176257133483887,-0.4292069971561432,-69,5897.0,4.133780479431152,106,9950.0
2910,0.31206831336021423,-0.21684622764587402,-53,5897.0,6.949828624725342,9,9950.0
2920,0.3115297853946686,-1.5054851770401,-10,5897.0,5.738378524780273,56,9950.0
2930,0.3118729889392853,-0.6792154908180237,-34,5897.0,4.969015598297119,112,9950.0
2940,0.3122854232788086,0.7568838000297546,-71,5897.0,2.2613167762756348,93,9950.0
2950,0.3126439154148102,0.18174751102924347,9,5897.0,7.110544204711914,17,9950.0
2960,0.3137374222278595,1.6725572347640991,76,5897.0,5.322990417480469,-14,9950.0
2970,0.31398165225982666,0.36972546577453613,2,5897.0,8.013254165649414,187,9950.0
2980,0.3142176866531372,-0.10274416208267212,-34,5897.0,5.077669143676758,182,9950.0
2990,0.31450316309928894,0.6306915283203125,-41,5897.0,2.072002410888672,140,9950.0
3000,0.3148394525051117,2.9097795486450195,69,5897.0,3.8332858085632324,-14,9950.0
3010,0.31432774662971497,3.7486412525177,78,5897.0,5.294962406158447,21,9950.0
3020,0.3144311308860779,1.846567988395691,153,5897.0,2.0995864868164062,55,9950.0
3030,0.3144218623638153,0.46024230122566223,-10,5897.0,1.4812933206558228,104,9950.0
3040,0.31437361240386963,-0.12982523441314697,-116,5897.0,1.1799421310424805,91,9950.0
3050,0.31459036469459534,-1.1740695238113403,-81,5897.0,1.7011502981185913,-143,9950.0
3060,0.31454524397850037,-1.615210771560669,13,5897.0,-0.9169883131980896,-144,9950.0
3070,0.31435418128967285,-1.7525895833969116,18,5897.0,-3.1248574256896973,-39,9950.0
3080,0.3140353560447693,-0.7503767013549805,-86,5897.0,-3.229663133621216,-83,9950.0
3090,0.31377577781677246,-1.288824439048767,-20,5897.0,-1.6521779298782349,-101,9950.0
3100,0.31338781118392944,-1.3850252628326416,27,5897.0,-0.3253587484359741,-125,9950.0
3110,0.3129885792732239,-0.706538736820221,29,5897.0,-1.749748945236206,4,9950.0
3120,0.3125620186328888,0.7363758087158203,-58,5897.0,2.2253305912017822,52,9950.0
3130,0.3120958209037781,0.5137225985527039,-40,5897.0,0.2182844877243042,-9,9950.0
3140,0.3127126395702362,1.11641526222229,75,5897.0,1.790420651435852,-155,9950.0
3150,0.31221258640289307,0.6143682599067688,85,5897.0,2.372851848602295,33,9950.0
3160,0.31175312399864197,2.491997003555298,-19,5897.0,0.815998375415802,17,9950.0
3170,0.3113875091075897,1.3271764516830444,3,5897.0,1.6547600030899048,-26,9950.0
3180,0.3122381567955017,-1.1743178367614746,53,5897.0,1.4838950634002686,-99,9950.0
3190,0.31204262375831604,-0.8823065757751465,27,5897.0,-0.2662586271762848,54,9950.0
3200,0.31177836656570435,-1.5718258619308472,-108,5897.0,-0.1656760424375534,42,9950.0
3210,0.3114345073699951,-1.979004144668579,11,5897.0,-3.1640427112579346,-152,9950.0
3220,0.3110332190990448,-3.676863431930542,19,5897.0,-2.8452110290527344,5,9950.0
3230,0.3133842945098877,-1.742200493812561,-86,5897.0,-4.622552394866943,6,9950.0
3240,0.3131513297557831,-1.025672435760498,-55,5897.0,-6.165595531463623,-130,9950.0
3250,0.3129640221595764,0.49304690957069397,105,5897.0,-4.591168403625488,-86,9950.0
3260,0.3128400444984436,1.1359221935272217,4,5897.0,-4.137106895446777,78,9950.0
3270,0.3124123215675354,1.5291228294372559,-38,5897.0,0.8261504173278809,-5,9950.0
3280,0.31232526898384094,0.8218964338302612,40,5897.0,-0.8157817125320435,-77,9950.0
3290,0.3122107684612274,0.9650061726570129,58,5897.0,0.830346941947937,20,9950.0
3300,0.3120829164981842,0.19377291202545166,-24,5897.0,2.9201979637145996,136,9950.0
3310,0.31394293904304504,-0.8067892789840698,-14,5897.0,6.3307318687438965,-45,9950.0
3320,0.3139020502567291,-0.03416081517934799,87,5897.0,5.232577323913574,48,9950.0
3330,0.3138187527656555,1.1470911502838135,-29,5897.0,2.5878055095672607,54,9950.0
3340,0.31376928091049194,1.4203119277954102,5,5897.0,-1.3759609460830688,-71,9950.0
3350,0.31380510330200195,0.39139652252197266,90,5897.0,-2.8661766052246094,-133,9950.0
3360,0.3143136501312256,1.4008666276931763,39,5897.0,-4.426292419433594,48,9950.0
3370,0.31441789865493774,-0.021963737905025482,-92,5897.0,-2.939328193664551,54,9950.0
3380,0.3146025538444519,-0.4870559871196747,33,5897.0,-0.9013669490814209,-120,9950.0
3390,0.31482407450675964,-1.3790913820266724,10,5897.0,-2.412187099456787,-2,9950.0
3400,0.316983699798584,-1.7418103218078613,-81,5897.0,-0.05779490992426872,74,9950.0
3410,0.3172655403614044,-0.9712246060371399,-39,5897.0,1.3794947862625122,-47,9950.0
3420,0.31749051809310913,-1.8338444232940674,69,5897.0,4.449102401733398,-1,9950.0
3430,0.3176817297935486,0.6749088168144226,-1,5897.0,2.159040927886963,115,9950.0
3440,0.31791040301322937,1.0928539037704468,-22,5897.0,3.560279607772827,112,9950.0
3450,0.31809869408607483,-0.788330614566803,19,5897.0,3.182399272918701,-66,9950.0
3460,0.31829744577407837,0.14437277615070343,59,5897.0,2.647063970565796,72,9950.0
3470,0.3185116946697235,1.6817371845245361,-54,5897.0,2.71313738822937,166,9950.0
3480,0.3186895549297333,1.950658917427063,-21,5897.0,2.1420416831970215,68,9950.0
3490,0.3193267583847046,0.5191785097122192,75,5897.0,3.8334929943084717,-8,9950.0
3500,0.3193918466567993,2.1006720066070557,68,5897.0,1.5492339134216309,80,9950.0
3510,0.3194190263748169,2.9172580242156982,-9,5897.0,1.1407928466796875,92,9950.0
3520,0.31944596767425537,2.901494264602661,9,5897.0,-0.7541088461875916,-44,9950.0
3530,0.31970658898353577,1.0619926452636719,82,5897.0,0.08434473723173141,-124,9950.0
3540,0.31980809569358826,0.03868895024061203,34,5897.0,-0.9177969694137573,88,9950.0
3550,0.31991034746170044,-0.37263223528862,-48,5897.0,0.8976651430130005,54,9950.0
3560,0.31993964314460754,-1.3628736734390259,-37,5897.0,-0.017978381365537643,19,9950.0
3570,0.31985655426979065,-0.49188196659088135,41,5897.0,-1.6811537742614746,-22,9950.0
3580,0.32021310925483704,-0.34776178002357483,-3,5897.0,3.7420194149017334,114,9950.0
3590,0.3201952874660492,-1.7717833518981934,-63,5897.0,5.206243515014648,149,9950.0
3600,0.32022348046302795,0.15748544037342072,-25,5897.0,2.240009069442749,39,9950.0
3610,0.3202071785926819,2.192352294921875,55,5897.0,2.30049729347229,-41,9950.0
3620,0.3212985098361969,1.3539090156555176,43,5897.0,-0.01128032710403204,39,9950.0
3630,0.32116347551345825,0.2374810427427292,-44,5897.0,-0.7273830771446228,70,9950.0
3640,0.3209274113178253,0.5446274876594543,-31,5897.0,-1.6769722700119019,-36,9950.0
3650,0.32067108154296875,-2.2580907344818115,36,5897.0,1.7821377515792847,-73,9950.0
3660,0.32044553756713867,-1.9384145736694336,-7,5897.0,0.30195945501327515,26,9950.0
3670,0.3200730085372925,-2.877260684967041,-21,5897.0,-2.7182438373565674,-14,9950.0
3680,0.3198929727077484,-1.5284092426300049,-116,5897.0,-6.080821990966797,84,9950.0
3690,0.31966546177864075,-2.1732163429260254,-35,5897.0,-2.476666212081909,-192,9950.0
3700,0.3193437159061432,-1.5620136260986328,86,5897.0,-4.503698348999023,-84,9950.0
3710,0.31880900263786316,1.3064700365066528,-1,5897.0,-4.923555850982666,7,9950.0
3720,0.31838181614875793,-0.29655054211616516,-36,5897.0,-1.9147286415100098,-15,9950.0
3730,0.3179629147052765,0.5677379369735718,37,5897.0,-1.9228147268295288,-95,9950.0
3740,0.31763365864753723,1.138579249382019,39,5897.0,0.3953441381454468,113,9950.0
3750,0.31919753551483154,0.10272670537233353,-57,5897.0,0.10925906151533127,98,9950.0
3760,0.3190917670726776,0.2658819556236267,12,5897.0,2.26236891746521,-25,9950.0
3770,0.3189427852630615,-0.19846050441265106,21,5897.0,1.8969472646713257,-44,9950.0
3780,0.3187674283981323,0.10726723819971085,-47,5897.0,-0.9857556223869324,-4,9950.0
3790,0.31851381063461304,0.2083526998758316,-96,5897.0,-2.3635149002075195,6,9950.0
3800,0.3192230463027954,-2.225421905517578,-9,5897.0,-1.3859045505523682,-168,9950.0
3810,0.3189711570739746,-2.8421316146850586,-30,5897.0,-2.415517807006836,79,9950.0
3820,0.31884074211120605,-0.30708757042884827,-86,5897.0,-3.2914838790893555,-32,9950.0
3830,0.3187767565250397,0.9956088662147522,26,5897.0,-4.079782485961914,-133,9950.0
3840,0.31891950964927673,0.4569392204284668,74,5897.0,0.6072109341621399,-112,9950.0
3850,0.3190457820892334,2.00730562210083,37,5897.0,2.2577080726623535,110,9950.0
3860,0.3191303610801697,3.1345396041870117,-6,5897.0,0.4966588318347931,-9,9950.0
3870,0.3191651701927185,3.4031894207000732,121,5897.0,2.5690014362335205,-50,9950.0
3880,0.3190939128398895,0.4087109863758087,-7,5897.0,3.225865364074707,93,9950.0
3890,0.31909435987472534,0.36036115884780884,-59,5897.0,2.9975175857543945,93,9950.0
3900,0.31905725598335266,-2.158642292022705,-43,5897.0,6.331143379211426,-37,9950.0
3910,0.3190805912017822,-0.3304976224899292,51,5897.0,0.6115963459014893,-8,9950.0
3920,0.31918296217918396,0.5174565315246582,-24,5897.0,0.2614839971065521,98,9950.0
3930,0.3193087875843048,-0.13786357641220093,-13,5897.0,1.3080748319625854,-82,9950.0
3940,0.3195023238658905,-0.913555383682251,47,5897.0,1.732164978981018,-19,9950.0
3950,0.31971272826194763,-1.2609596252441406,-22,5897.0,3.238098621368408,77,9950.0
3960,0.3199029266834259,-0.41754183173179626,-75,5897.0,0.8760234713554382,99,9950.0
3970,0.3196256756782532,-0.20926618576049805,33,5897.0,0.37960678339004517,-104,9950.0
3980,0.31971296668052673,-1.1901713609695435,86,5897.0,2.7016141414642334,74,9950.0
3990,0.31974583864212036,2.2444281578063965,-25,5897.0,0.48708125948905945,58,9950.0
4000,0.3197544515132904,2.638132095336914,56,5897.0,1.003298044204712,-33,9950.0
4010,0.31978175044059753,2.3065497875213623,94,5897.0,1.5725349187850952,54,9950.0
4020,0.3207564651966095,2.2648348808288574,63,5897.0,1.4555439949035645,131,9950.0
4030,0.32093119621276855,1.681322455406189,-36,5897.0,1.8825945854187012,45,9950.0
4040,0.3211284577846527,-0.6541709899902344,27,5897.0,2.031442642211914,-48,9950.0
4050,0.3213008642196655,-1.664987564086914,10,5897.0,1.800227165222168,112,9950.0
4060,0.3208639919757843,-1.6547572612762451,-67,5897.0,-1.395532250404358,54,9950.0
4070,0.3208494782447815,-3.7696011066436768,-67,5897.0,1.8115956783294678,9,9950.0
4080,0.3208308219909668,-0.30724209547042847,19,5897.0,2.9496779441833496,-19,9950.0
4090,0.3208131194114685,-0.7896260619163513,-12,5897.0,2.946589946746826,96,9950.0
4100,0.3212983310222626,-0.7769648432731628,-84,5897.0,3.80623722076416,45,9950.0
4110,0.3214264214038849,-2.196932792663574,27,5897.0,4.510997772216797,-90,9950.0
4120,0.32163211703300476,-0.4992271959781647,37,5897.0,2.262873649597168,36,9950.0
4130,0.3218243420124054,0.5899428725242615,14,5897.0,1.3181536197662354,128,9950.0
4140,0.32195284962654114,1.0196346044540405,49,5897.0,3.8801629543304443,-75,9950.0
4150,0.3224121332168579,0.6014792323112488,113,5897.0,1.9095525741577148,34,9950.0
4160,0.32240232825279236,1.7436991930007935,-12,5897.0,3.2611706256866455,152,9950.0
4170,0.32236069440841675,1.9426181316375732,12,5897.0,2.9882216453552246,79,9950.0
4180,0.322331041097641,0.9176708459854126,68,5897.0,-3.202561855316162,-48,9950.0
4190,0.32340139150619507,0.5178363919258118,-9,5897.0,-0.8955550789833069,51,9950.0
4200,0.3235149681568146,-1.3382648229599,-89,5897.0,1.3408023118972778,86,9950.0
4210,0.3236273229122162,-1.7739927768707275,-54,5897.0,0.63249272108078,-84,9950.0
4220,0.3236998915672302,-1.3766294717788696,43,5897.0,1.152434229850769,17,9950.0
4230,0.32368984818458557,-1.495927333831787,-45,5897.0,0.1714874505996704,93,9950.0
4240,0.3220774829387665,0.4179689586162567,-32,5897.0,-0.5015772581100464,-33,9950.0
4250,0.3218421936035156,1.0699976682662964,82,5897.0,3.718736410140991,-124,9950.0
4260,0.3216206729412079,-0.44152340292930603,99,5897.0,1.229517936706543,89,9950.0
4270,0.32144951820373535,2.986041784286499,-13,5897.0,2.1920976638793945,59,9950.0
4280,0.3240428566932678,1.8752912282943726,36,5897.0,1.9445511102676392,-59,9950.0
4290,0.32415634393692017,-0.1046258807182312,46,5897.0,1.4246704578399658,23,9950.0
4300,0.32427409291267395,-0.8584280014038086,-23,5897.0,2.291555643081665,112,9950.0
4310,0.32433760166168213,-0.8722467422485352,-100,5897.0,-1.297464370727539,-32,9950.0
4320,0.32432448863983154,-1.4402275085449219,44,5897.0,-4.7492194175720215,-107,9950.0
4330,0.32451024651527405,-2.2472128868103027,7,5897.0,-5.6675238609313965,-156,9950.0
4340,0.3243888020515442,-2.7608530521392822,-97,5897.0,-3.3105740547180176,20,9950.0
4350,0.32423219084739685,-1.887354850769043,-55,5897.0,-4.285700798034668,-115,9950.0
4360,0.3240838646888733,-2.265667200088501,39,5897.0,-5.844012260437012,-111,9950.0
4370,0.3227422535419464,-1.2214393615722656,-18,5897.0,-6.614120006561279,-21,9950.0
4380,0.32262587547302246,-2.812955141067505,-69,5897.0,2.7058260440826416,56,9950.0
4390,0.322567343711853,-2.922231435775757,-37,5897.0,8.202116012573242,54,9950.0
4400,0.3226344883441925,1.4677711725234985,82,5897.0,11.075373649597168,196,9950.0
4410,0.3232611119747162,4.57513427734375,39,5897.0,10.160176277160645,304,9950.0
4420,0.3234347999095917,2.5365488529205322,64,5897.0,12.227066040039062,48,9950.0
4430,0.32359641790390015,3.73036527633667,130,5897.0,6.611666679382324,110,9950.0
4440,0.3237340450286865,6.938263416290283,28,5897.0,-1.4260880947113037,-9,9950.0
4450,0.32382145524024963,7.5567946434021,121,5897.0,-6.025783061981201,-230,9950.0
4460,0.32424044609069824,10.858633041381836,209,5897.0,-13.993951797485352,-182,9950.0
4470,0.3244422674179077,12.943819999694824,195,5897.0,-21.346805572509766,-306,9950.0
4480,0.3245663642883301,9.916162490844727,114,5897.0,-21.80669593811035,-364,9950.0
4490,0.32468166947364807,5.834382057189941,70,5897.0,-23.97724723815918,-534,9950.0
4500,0.3260307013988495,0.906740665435791,66,5897.0,-20.33258628845215,-324,9950.0
4510,0.32618656754493713,-4.482644081115723,-90,5897.0,-16.665882110595703,-184,9950.0
4520,0.32601848244667053,-3.7734200954437256,-88,5897.0,-5.1884918212890625,21,9950.0
4530,0.32572951912879944,-0.6815950274467468,-22,5897.0,0.8981241583824158,-15,9950.0
4540,0.32525739073753357,-1.099582314491272,68,5897.0,6.40132999420166,101,9950.0
4550,0.3247933089733124,-5.980592727661133,-104,5897.0,13.933656692504883,322,9950.0
4560,0.3241623044013977,-15.92664909362793,-371,5897.0,20.420499801635742,381,9950.0
4570,0.3236996531486511,-25.69875144958496,-496,5897.0,16.23293685913086,219,9950.0
4580,0.3229134678840637,-29.325904846191406,-440,5897.0,10.138700485229492,75,9950.0
4590,0.32097169756889343,-26.990999221801758,-444,5897.0,1.630445122718811,93,9950.0
4600,0.3200645446777344,-24.277698516845703,-487,5897.0,0.0705040842294693,18,9950.0
4610,0.31905919313430786,-21.913015365600586,-390,5897.0,-2.9327807426452637,-184,9950.0
4620,0.3178722560405731,-24.350013732910156,-319,5897.0,-6.793797492980957,-201,9950.0
4630,0.31776973605155945,-24.790842056274414,-422,5897.0,-4.391848087310791,-36,9950.0
4640,0.31685924530029297,-26.823774337768555,-429,5897.0,1.2707316875457764,175,9950.0
4650,0.3153887689113617,-9.936834335327148,-186,5897.0,13.675793647766113,291,9950.0
4660,0.3145633637905121,-20.15054702758789,-353,5897.0,20.365936279296875,270,9950.0
4670,0.31157568097114563,-37.96225357055664,-626,5897.0,26.242259979248047,506,9950.0
4680,0.3147141933441162,-43.61784744262695,-763,5897.0,29.760662078857422,580,9950.0
4690,0.3138604462146759,-44.975643157958984,-730,5897.0,31.350004196166992,415,9950.0
4700,0.31329819560050964,-40.9189338684082,-614,5897.0,28.175443649291992,489,9950.0
4710,0.3110397756099701,-38.445987701416016,-680,5897.0,23.466760635375977,379,9950.0
4720,0.31240835785865784,-33.85184860229492,-495,5897.0,20.094438552856445,272,9950.0
4730,0.3114878833293915,-30.882431030273438,-486,5897.0,18.815439224243164,458,9950.0
4740,0.31075501441955566,-27.066017150878906,-424,5897.0,20.53640365600586,277,9950.0
4750,0.3086116909980774,-22.46396255493164,-318,5897.0,24.139558792114258,450,9950.0
4760,0.31367892026901245,-13.542611122131348,-215,5897.0,25.32774543762207,399,9950.0
4770,0.3130520284175873,-7.458126544952393,-79,5897.0,29.74921226501465,555,9950.0
4780,0.3126176595687866,-4.145839691162109,-114,5897.0,32.19011688232422,482,9950.0
4790,0.31107640266418457,-8.993324279785156,-178,5897.0,33.7347297668457,692,9950.0
4800,0.31069937348365784,-9.358656883239746,-174,5897.0,30.848186492919922,380,9950.0
4810,0.3179646134376526,-10.256490707397461,-135,5897.0,33.19265365600586,623,9950.0
4820,0.3187495172023773,-11.206925392150879,-247,5897.0,36.02090835571289,528,9950.0
4830,0.31814247369766235,-5.843042373657227,42,5897.0,36.89104461669922,610,9950.0
4840,0.3188457190990448,-2.9440176486968994,-53,5897.0,35.51716613769531,638,9950.0
4850,0.3255399167537689,0.5617053508758545,127,5897.0,34.376991271972656,465,9950.0
4860,0.32622936367988586,4.774299621582031,89,5897.0,28.2408504486084,548,9950.0
4870,0.3264210522174835,5.427688121795654,108,5897.0,26.243223190307617,331,9950.0
4880,0.32714250683784485,6.87856388092041,175,5897.0,19.60970687866211,328,9950.0
4890,0.32746437191963196,8.636737823486328,112,5897.0,17.742706298828125,338,9950.0
4900,0.3290313482284546,8.752713203430176,132,5897.0,15.917510986328125,200,9950.0
4910,0.3289295732975006,6.6958489418029785,151,5897.0,13.096576690673828,254,9950.0
4920,0.32918867468833923,8.370035171508789,45,5897.0,12.501625061035156,341,9950.0
4930,0.3300964832305908,8.405081748962402,116,5897.0,15.985034942626953,157,9950.0
4940,0.33034583926200867,7.046186447143555,190,5897.0,17.344074249267578,278,9950.0
4950,0.3303173780441284,8.702123641967773,248,5897.0,14.504265785217285,333,9950.0
4960,0.32991155982017517,9.80855941772461,142,5897.0,13.876296043395996,307,9950.0
4970,0.3300321698188782,9.51252555847168,95,5897.0,15.918875694274902,109,9950.0
4980,0.3304455578327179,10.220564842224121,225,5897.0,15.342710494995117,162,9950.0
4990,0.330675333738327,11.160943031311035,266,5897.0,12.22400951385498,160,9950.0
5000,0.32997721433639526,12.626374244689941,233,5897.0,10.82646369934082,315,9950.0
5010,0.3291354179382324,17.846973419189453,236,5897.0,3.940561294555664,145,9950.0
5020,0.32858479022979736,17.909395217895508,254,5897.0,5.205236434936523,101,9950.0
5030,0.3241930902004242,18.66604995727539,373,5897.0,5.561631679534912,-9,9950.0
5040,0.3229159414768219,17.068471908569336,313,5897.0,7.702122688293457,181,9950.0
5050,0.3216356635093689,17.673860549926758,236,5897.0,6.704102516174316,179,9950.0
5060,0.32078513503074646,18.49586296081543,238,5897.0,6.81492280960083,159,9950.0
5070,0.3165433406829834,18.60685920715332,283,5897.0,10.958196640014648,9,9950.0
5080,0.31462782621383667,18.12474250793457,352,5897.0,8.645245552062988,159,9950.0
5090,0.31388047337532043,18.46158218383789,291,5897.0,9.043837547302246,303,9950.0
5100,0.3123146891593933,17.752300262451172,228,5897.0,13.198208808898926,154,9950.0
5110,0.3106539249420166,17.215932846069336,304,5897.0,12.439483642578125,75,9950.0
5120,0.30377957224845886,13.858879089355469,227,5897.0,8.814165115356445,123,9950.0
5130,0.30200931429862976,12.675728797912598,168,5897.0,9.27862548828125,247,9950.0
5140,0.3002612888813019,13.357966423034668,227,5897.0,9.28658390045166,75,9950.0
5150,0.29916319251060486,12.93310260772705,247,5897.0,6.500035285949707,175,9950.0
5160,0.2915439307689667,16.300607681274414,228,5897.0,7.970779895782471,84,9950.0
5170,0.2898787260055542,18.629051208496094,416,5897.0,5.544078826904297,60,9950.0
5180,0.28819891810417175,15.887280464172363,206,5897.0,4.465385437011719,180,9950.0
5190,0.28680700063705444,11.234418869018555,127,5897.0,1.7935906648635864,5,9950.0
5200,0.27927905321121216,8.453460693359375,121,5897.0,1.2067961692810059,62,9950.0
5210,0.27786704897880554,6.063028812408447,112,5897.0,-1.0212467908859253,-76,9950.0
5220,0.27659693360328674,5.501463413238525,97,5897.0,5.229213714599609,134,9950.0
5230,0.27521565556526184,5.874816417694092,91,5897.0,1.3852217197418213,-56,9950.0
5240,0.27350306510925293,6.064654350280762,107,5897.0,-0.1498975306749344,64,9950.0
5250,0.2709522545337677,10.072931289672852,190,5897.0,-3.7969861030578613,-32,9950.0
5260,0.2703019976615906,12.971903800964355,160,5897.0,-3.829345703125,-3,9950.0
5270,0.26991304755210876,13.394632339477539,244,5897.0,0.2193906158208847,13,9950.0
5280,0.26906782388687134,7.7911295890808105,87,5897.0,1.4903693199157715,13,9950.0
5290,0.26840531826019287,7.352424621582031,134,5897.0,-0.4144335091114044,86,9950.0
5300,0.26821088790893555,5.231718063354492,86,5897.0,-0.7015093564987183,-115,9950.0
5310,0.2685184180736542,5.967522144317627,68,5897.0,-2.673527479171753,67,9950.0
5320,0.2686593532562256,2.448739528656006,136,5897.0,-5.998711109161377,-156,9950.0
5330,0.2689572870731354,5.705688953399658,10,5897.0,-10.762359619140625,-101,9950.0
5340,0.2705655097961426,6.945068836212158,228,5897.0,-12.76403522491455,-197,9950.0
5350,0.27161622047424316,11.811020851135254,145,5897.0,-15.269076347351074,-312,9950.0
5360,0.27287769317626953,11.354212760925293,240,5897.0,-11.620088577270508,-64,9950.0
5370,0.27434220910072327,12.390215873718262,136,5897.0,-12.137894630432129,-243,9950.0
5380,0.27783554792404175,9.126916885375977,206,5897.0,-9.82921028137207,-186,9950.0
5390,0.2795791029930115,6.8625102043151855,8,5897.0,-9.7633695602417,-133,9950.0
5400,0.28203681111335754,6.683829307556152,150,5897.0,-9.350467681884766,-236,9950.0
5410,0.28435346484184265,5.154067039489746,67,5897.0,-8.835410118103027,-92,9950.0
5420,0.28977376222610474,6.429425239562988,94,5897.0,-10.607501983642578,-241,9950.0
5430,0.292412668466568,4.992098331451416,165,5897.0,-13.194442749023438,-274,9950.0
5440,0.29513469338417053,8.938714981079102,89,5897.0,-16.145612716674805,-202,9950.0
5450,0.29790621995925903,10.294464111328125,128,5897.0,-17.910877227783203,-338,9950.0
5460,0.30107927322387695,11.887927055358887,260,5897.0,-21.736835479736328,-469,9950.0
5470,0.3063068985939026,15.982297897338867,385,5897.0,-20.501434326171875,-445,9950.0
5480,0.30947768688201904,18.975820541381836,401,5897.0,-19.957725524902344,-417,9950.0
5490,0.3124430775642395,23.448625564575195,484,5897.0,-21.55855941772461,-367,9950.0
5500,0.3153977394104004,24.657745361328125,443,5897.0,-18.44635009765625,-367,9950.0
5510,0.32195818424224854,22.472475051879883,390,5897.0,-19.56052017211914,-334,9950.0
5520,0.32497289776802063,19.36762237548828,306,5897.0,-15.150874137878418,-271,9950.0
5530,0.3281771242618561,14.33483600616455,211,5897.0,-14.626070022583008,-155,9950.0
5540,0.33112531900405884,10.547967910766602,150,5897.0,-12.521767616271973,-142,9950.0
5550,0.3339248299598694,5.033614635467529,80,5897.0,-12.32154369354248,-77,9950.0
5560,0.33709731698036194,1.0624914169311523,14,5897.0,-8.268330574035645,-183,9950.0
5570,0.3395715355873108,-4.270565509796143,-71,5897.0,-4.8495073318481445,-255,9950.0
5580,0.34184983372688293,-6.05242395401001,-114,5897.0,-11.93535041809082,-138,9950.0
5590,0.34394264221191406,-9.032920837402344,-216,5897.0,-8.492695808410645,-168,9950.0
5600,0.3455955386161804,-8.987305641174316,-134,5897.0,-8.911612510681152,-50,9950.0
5610,0.34727758169174194,-8.026851654052734,-83,5897.0,-6.165363788604736,-199,9950.0
5620,0.34875255823135376,-9.244487762451172,-133,5897.0,-6.654160499572754,-135,9950.0
5630,0.350029319524765,-7.562314987182617,-165,5897.0,-6.21147346496582,-71,9950.0
5640,0.35006946325302124,-7.083374977111816,-76,5897.0,-2.962395668029785,-7,9950.0
5650,0.3508729040622711,-7.8974289894104,-93,5897.0,-2.431264638900757,-115,9950.0
5660,0.3514339327812195,-7.068207263946533,-203,5897.0,-3.432793378829956,21,9950.0
5670,0.35176798701286316,-9.411052703857422,-141,5897.0,-1.366287350654602,19,9950.0
5680,0.3518516421318054,-8.58156967163086,-108,5897.0,-2.162226676940918,4,9950.0
5690,0.3520224690437317,-11.136701583862305,-226,5897.0,0.42491206526756287,-121,9950.0
5700,0.3516848385334015,-13.986846923828125,-276,5897.0,-3.764705181121826,7,9950.0
5710,0.3513025641441345,-18.57086181640625,-300,5897.0,-2.717603921890259,-70,9950.0
5720,0.3506483733654022,-21.134117126464844,-326,5897.0,-7.158422470092773,-95,9950.0
5730,0.35052117705345154,-21.51165199279785,-400,5897.0,-2.532945156097412,-130,9950.0
5740,0.3494568467140198,-21.836315155029297,-378,5897.0,-6.309877872467041,64,9950.0
5750,0.34822195768356323,-23.154130935668945,-386,5897.0,-0.33108749985694885,3,9950.0
5760,0.3467954993247986,-24.32350730895996,-362,5897.0,0.7358115315437317,84,9950.0
5770,0.3452814817428589,-23.270679473876953,-375,5897.0,3.1340372562408447,-72,9950.0
5780,0.3451108932495117,-24.645132064819336,-460,5897.0,5.04154109954834,92,9950.0
5790,0.34341904520988464,-22.191144943237305,-386,5897.0,2.9718425273895264,86,9950.0
5800,0.3415871262550354,-22.23271369934082,-359,5897.0,3.2910079956054688,22,9950.0
5810,0.3397405743598938,-21.22100067138672,-331,5897.0,1.173417091369629,-66,9950.0
5820,0.3372177481651306,-19.046722412109375,-247,5897.0,0.01948770135641098,22,9950.0
5830,0.33511197566986084,-18.48428726196289,-255,5897.0,-1.6823557615280151,38,9950.0
5840,0.33296069502830505,-17.04845428466797,-276,5897.0,-5.809541702270508,35,9950.0
5850,0.33070138096809387,-16.54604721069336,-308,5897.0,-3.959285020828247,68,9950.0
5860,0.3282683789730072,-15.154166221618652,-260,5897.0,-5.741186141967773,42,9950.0
5870,0.3260963559150696,-12.063237190246582,-219,5897.0,-3.884155750274658,107,9950.0
5880,0.3239445090293884,-9.597663879394531,-206,5897.0,-3.736974000930786,66,9950.0
5890,0.3217735290527344,-8.102461814880371,-230,5897.0,-2.4213762283325195,86,9950.0
5900,0.31968677043914795,-12.580268859863281,-239,5897.0,0.21576453745365143,71,9950.0
5910,0.3171790838241577,-13.54384994506836,-248,5897.0,-3.357299327850342,17,9950.0
5920,0.315168172121048,-14.998885154724121,-166,5897.0,2.0699870586395264,-76,9950.0
5930,0.3132108747959137,-16.27419662475586,-222,5897.0,2.7702219486236572,140,9950.0
5940,0.3113318383693695,-10.019521713256836,-200,5897.0,-1.0379077196121216,91,9950.0
5950,0.31038638949394226,-6.916059970855713,-132,5897.0,-2.165794849395752,-52,9950.0
5960,0.30900153517723083,-1.7589634656906128,41,5897.0,-0.2747640907764435,12,9950.0
5970,0.30802232027053833,2.250955820083618,8,5897.0,2.693594217300415,180,9950.0
5980,0.3070620000362396,2.223621129989624,-48,5897.0,8.434660911560059,171,9950.0
5990,0.30849653482437134,1.4783525466918945,70,5897.0,11.047537803649902,234,9950.0
6000,0.30795133113861084,-1.6276519298553467,-80,5897.0,8.184558868408203,263,9950.0
6010,0.30756476521492004,-1.9667799472808838,-19,5897.0,9.35110855102539,32,9950.0
6020,0.3073939383029938,-2.6795880794525146,-2,5897.0,6.329165935516357,180,9950.0
6030,0.30723387002944946,0.5193037390708923,-44,5897.0,3.9787614345550537,122,9950.0
6040,0.30990517139434814,4.6196746826171875,159,5897.0,5.926720142364502,86,9950.0
6050,0.3101390302181244,8.533120155334473,115,5897.0,5.2164306640625,153,9950.0
6060,0.3104945421218872,8.106861114501953,135,5897.0,4.001598358154297,67,9950.0
6070,0.3108947277069092,9.301244735717773,236,5897.0,6.077173233032227,67,9950.0
6080,0.3127036392688751,12.108975410461426,175,5897.0,4.004994869232178,147,9950.0
6090,0.31335365772247314,11.495721817016602,139,5897.0,4.900496482849121,90,9950.0
6100,0.31414204835891724,12.235053062438965,246,5897.0,4.12106990814209,-8,9950.0
6110,0.3151158392429352,12.603922843933105,293,5897.0,3.3536651134490967,67,9950.0
6120,0.31618329882621765,14.59768295288086,186,5897.0,2.2475528717041016,121,9950.0
6130,0.31855788826942444,12.951508522033691,154,5897.0,3.0663723945617676,23,9950.0
6140,0.3198238015174866,12.92202091217041,229,5897.0,1.520654559135437,-37,9950.0
6150,0.3210604786872864,11.530277252197266,214,5897.0,2.637005090713501,-27,9950.0
6160,0.3222726881504059,10.76703929901123,264,5897.0,4.9561662673950195,116,9950.0
6170,0.3267529010772705,14.152681350708008,241,5897.0,7.144876003265381,170,9950.0
6180,0.3282662332057953,14.57694149017334,242,5897.0,9.461760520935059,334,9950.0
6190,0.32973355054855347,16.78043556213379,206,5897.0,11.780072212219238,233,9950.0
6200,0.3311397135257721,16.13434410095215,214,5897.0,10.328082084655762,261,9950.0
6210,0.3325325548648834,14.582053184509277,171,5897.0,7.378546237945557,122,9950.0
6220,0.3348323106765747,12.634298324584961,193,5897.0,9.185261726379395,152,9950.0
6230,0.33600571751594543,11.235879898071289,193,5897.0,4.869128227233887,49,9950.0
6240,0.3370956480503082,9.04467487335205,138,5897.0,1.7238564491271973,-49,9950.0
6250,0.338070809841156,7.936004161834717,154,5897.0,-0.29830190539360046,-111,9950.0
6260,0.33889058232307434,9.484147071838379,171,5897.0,-2.9966800212860107,-119,9950.0
6270,0.3396015763282776,8.968687057495117,157,5897.0,-2.2632174491882324,-47,9950.0
6280,0.3401859402656555,8.87159252166748,102,5897.0,0.37160253524780273,138,9950.0
6290,0.3406309187412262,9.620133399963379,182,5897.0,0.18301540613174438,-4,9950.0
6300,0.34149426221847534,7.370951175689697,170,5897.0,1.620132327079773,-60,9950.0
6310,0.34178394079208374,5.810230255126953,119,5897.0,1.3925830125808716,-126,9950.0
6320,0.34191039204597473,4.283812522888184,94,5897.0,5.317819118499756,129,9950.0
6330,0.3419419825077057,2.6115477085113525,68,5897.0,2.660236120223999,87,9950.0
6340,0.3418421745300293,2.808260917663574,133,5897.0,4.315891265869141,-23,9950.0
6350,0.3433245122432709,2.3573038578033447,81,5897.0,4.044145584106445,56,9950.0
6360,0.34309759736061096,2.9919111728668213,16,5897.0,4.079185485839844,195,9950.0
6370,0.34277886152267456,-1.1155431270599365,-47,5897.0,1.8619134426116943,57,9950.0
6380,0.34236595034599304,-4.190409183502197,-39,5897.0,4.428677558898926,-19,9950.0
6390,0.34286025166511536,-6.329173564910889,-114,5897.0,6.4279303550720215,90,9950.0
6400,0.3423057496547699,-5.935367584228516,-96,5897.0,1.2778478860855103,3,9950.0
6410,0.3416289687156677,-7.388129711151123,-152,5897.0,1.7847776412963867,49,9950.0
6420,0.34086623787879944,-5.186978340148926,-119,5897.0,-0.588324248790741,-93,9950.0
6430,0.340054452419281,-6.108127593994141,-130,5897.0,0.46010470390319824,-89,9950.0
6440,0.34123826026916504,-8.947518348693848,-202,5897.0,-7.661847114562988,-39,9950.0
6450,0.3403923511505127,-8.57270622253418,-169,5897.0,-2.0083820819854736,-18,9950.0
6460,0.33954983949661255,-10.604032516479492,-197,5897.0,3.78983736038208,49,9950.0
6470,0.3386068046092987,-10.499836921691895,-188,5897.0,2.572038412094116,-52,9950.0
6480,0.3381110429763794,-11.7667875289917,-206,5897.0,1.4812493324279785,-84,9950.0
6490,0.3370513319969177,-11.646890640258789,-205,5897.0,1.6606464385986328,-17,9950.0
6500,0.3360544741153717,-10.931497573852539,-193,5897.0,-1.5780277252197266,-34,9950.0
6510,0.3349522650241852,-8.811494827270508,-156,5897.0,-4.452206611633301,9,9950.0
6520,0.3347208499908447,-7.711194038391113,-135,5897.0,-2.7427680492401123,3,9950.0
6530,0.3337574601173401,-7.118019104003906,-150,5897.0,-5.130146503448486,-50,9950.0
6540,0.3327678143978119,-8.486418724060059,-151,5897.0,-3.262181282043457,-17,9950.0
6550,0.33183401823043823,-8.90245246887207,-169,5897.0,-2.430244207382202,-21,9950.0
6560,0.33091434836387634,-6.615234375,-153,5897.0,-3.227703094482422,7,9950.0
6570,0.33045199513435364,-7.745988845825195,-130,5897.0,-5.053118705749512,-39,9950.0
6580,0.329561710357666,-8.244588851928711,-145,5897.0,-1.8897219896316528,27,9950.0
6590,0.3287367522716522,-9.170076370239258,-185,5897.0,-3.249941825866699,-49,9950.0
6600,0.32793548703193665,-9.947694778442383,-168,5897.0,0.37896543741226196,9,9950.0
6610,0.32913681864738464,-7.0395636558532715,-135,5897.0,-2.9300785064697266,19,9950.0
6620,0.32844990491867065,-4.457622051239014,-126,5897.0,-4.070083141326904,55,9950.0
6630,0.32784178853034973,-5.540825843811035,-148,5897.0,-4.036679267883301,47,9950.0
6640,0.3271257281303406,-4.626768589019775,-146,5897.0,-1.328783392906189,167,9950.0
6650,0.32643353939056396,-2.867532968521118,-123,5897.0,-1.880230188369751,97,9950.0
6660,0.3260729908943176,-3.212376594543457,-96,5897.0,2.2229230403900146,-7,9950.0
6670,0.32553938031196594,-1.1075369119644165,-55,5897.0,-3.556149482727051,-125,9950.0
6680,0.32510367035865784,-0.5333424806594849,36,5897.0,-7.522719383239746,-164,9950.0
6690,0.32481569051742554,-1.6767405271530151,21,5897.0,-6.109426021575928,-180,9950.0
6700,0.32673874497413635,-2.637669324874878,25,5897.0,-6.0856757164001465,-158,9950.0
6710,0.3266834020614624,-0.13632623851299286,31,5897.0,-4.475234508514404,-114,9950.0
6720,0.32662615180015564,-1.2853447198867798,25,5897.0,0.3452627956867218,-71,9950.0
6730,0.32687416672706604,0.6412785053253174,68,5897.0,-2.7264487743377686,-38,9950.0
6740,0.3270316421985626,2.4304592609405518,27,5897.0,-6.982999801635742,-28,9950.0
6750,0.3272882401943207,0.7171441912651062,18,5897.0,-1.5751718282699585,97,9950.0
6760,0.3275989890098572,3.2344257831573486,7,5897.0,-1.9830199480056763,103,9950.0
6770,0.3278330862522125,3.980552911758423,14,5897.0,-0.626272976398468,61,9950.0
6780,0.32798030972480774,5.056738376617432,68,5897.0,-5.905044078826904,5,9950.0
6790,0.32901567220687866,3.811290979385376,52,5897.0,-3.6028025150299072,53,9950.0
6800,0.32952675223350525,4.149682998657227,75,5897.0,-5.073883056640625,-50,9950.0
6810,0.3300117552280426,5.127964973449707,23,5897.0,-6.459804058074951,91,9950.0
6820,0.33053237199783325,4.569602012634277,-9,5897.0,-4.6627397537231445,-68,9950.0
6830,0.33294978737831116,3.1871676445007324,43,5897.0,-4.120660305023193,-8,9950.0
6840,0.33345088362693787,4.198789119720459,52,5897.0,-3.331819534301758,41,9950.0
6850,0.3339834213256836,5.0557146072387695,33,5897.0,0.3912484049797058,124,9950.0
6860,0.3345125913619995,2.996314287185669,32,5897.0,1.8424558639526367,75,9950.0
6870,0.33502018451690674,4.159862041473389,45,5897.0,3.868922710418701,160,9950.0
6880,0.33548277616500854,4.967015266418457,48,5897.0,5.164265155792236,149,9950.0
6890,0.3358774781227112,4.287661075592041,29,5897.0,4.1955366134643555,117,9950.0
6900,0.33618512749671936,5.693232536315918,23,5897.0,4.717061519622803,94,9950.0
6910,0.3364572823047638,4.131433963775635,56,5897.0,2.7592885494232178,21,9950.0
6920,0.3372611999511719,3.387519359588623,71,5897.0,0.8422948718070984,-54,9950.0
6930,0.33751043677330017,2.7097649574279785,93,5897.0,0.2297254055738449,-85,9950.0
6940,0.3376848101615906,3.501960039138794,43,5897.0,0.06393461674451828,-71,9950.0
6950,0.3377669155597687,4.184525489807129,73,5897.0,-2.2122442722320557,20,9950.0
6960,0.3397934138774872,6.080370903015137,112,5897.0,-3.3754565715789795,-11,9950.0
6970,0.3399125337600708,7.117722988128662,86,5897.0,0.5971601009368896,96,9950.0
6980,0.34002405405044556,5.111893177032471,27,5897.0,5.018338680267334,176,9950.0
6990,0.3401559591293335,3.1506497859954834,52,5897.0,3.0411391258239746,162,9950.0
7000,0.3403031527996063,4.984164237976074,79,5897.0,3.631648540496826,108,9950.0
7010,0.34102675318717957,3.896221399307251,73,5897.0,5.443058967590332,45,9950.0
7020,0.3410623371601105,2.87960147857666,74,5897.0,7.401178359985352,70,9950.0
7030,0.3410496413707733,5.454257488250732,61,5897.0,5.700586318969727,50,9950.0
7040,0.34099724888801575,1.3084858655929565,-2,5897.0,5.626819610595703,-14,9950.0
7050,0.3428773581981659,0.750697135925293,-16,5897.0,1.1285523176193237,-24,9950.0
7060,0.34287747740745544,0.8258987069129944,-15,5897.0,-1.7730379104614258,12,9950.0
7070,0.34285613894462585,0.9106056094169617,-12,5897.0,-2.73826003074646,56,9950.0
7080,0.3427954316139221,0.9117956161499023,19,5897.0,-3.979470729827881,12,9950.0
7090,0.3442825376987457,1.8847377300262451,5,5897.0,-4.187901496887207,19,9950.0
7100,0.3442195951938629,1.5013049840927124,-16,5897.0,3.4569332599639893,42,9950.0
7110,0.344105064868927,0.25743207335472107,0,5897.0,2.5456998348236084,32,9950.0
7120,0.3439299762248993,0.7092332243919373,30,5897.0,3.366591453552246,-2,9950.0
7130,0.343720406293869,-2.419569730758667,-3,5897.0,4.711688995361328,42,9950.0
7140,0.34405192732810974,-2.058065891265869,-47,5897.0,3.766427755355835,49,9950.0
7150,0.3437763452529907,-3.514554977416992,-66,5897.0,4.881678104400635,74,9950.0
7160,0.3434405028820038,-4.450893402099609,-64,5897.0,2.611140251159668,88,9950.0
7170,0.3431265652179718,-6.55681037902832,-113,5897.0,2.9067983627319336,74,9950.0
7180,0.34176966547966003,-3.987469434738159,-99,5897.0,-2.2549688816070557,62,9950.0
7190,0.34134745597839355,-2.736222743988037,-79,5897.0,-3.8091349601745605,58,9950.0
7200,0.3409349024295807,-3.221923351287842,-58,5897.0,-4.826335430145264,-10,9950.0
7210,0.34046462178230286,-3.8158531188964844,-77,5897.0,-6.514767169952393,1,9950.0
7220,0.34143075346946716,-2.0907845497131348,-61,5897.0,-5.29533576965332,24,9950.0
7230,0.3409745693206787,-0.6719910502433777,-59,5897.0,-3.73085355758667,60,9950.0
7240,0.3404957354068756,-3.278419017791748,-41,5897.0,-1.6241415739059448,68,9950.0
7250,0.3400110602378845,-3.5767624378204346,-56,5897.0,2.6061904430389404,82,9950.0
7260,0.3394787907600403,-6.052038669586182,-67,5897.0,4.137330532073975,45,9950.0
7270,0.3393396735191345,-5.718230724334717,-95,5897.0,4.394824504852295,76,9950.0
7280,0.33879584074020386,-4.146096229553223,-46,5897.0,4.827697277069092,67,9950.0
7290,0.3382687568664551,-3.6824638843536377,-33,5897.0,3.037925958633423,14,9950.0
7300,0.33768701553344727,-3.1287083625793457,-49,5897.0,5.066775798797607,59,9950.0
7310,0.33817246556282043,-2.622680187225342,-29,5897.0,1.006473422050476,34,9950.0
7320,0.33764562010765076,-1.9343816041946411,22,5897.0,0.5824604034423828,-33,9950.0
7330,0.3371838331222534,0.1606174260377884,20,5897.0,-0.9287696480751038,18,9950.0
7340,0.33664625883102417,0.685837984085083,-51,5897.0,-3.775446653366089,24,9950.0
7350,0.33609941601753235,-0.4500829577445984,-75,5897.0,-1.837171196937561,29,9950.0
7360,0.33692628145217896,0.28896820545196533,-50,5897.0,-2.6434547901153564,24,9950.0
7370,0.3364715874195099,-0.2342892587184906,-82,5897.0,-3.0801665782928467,13,9950.0
7380,0.3360356390476227,-2.449676036834717,-61,5897.0,0.8990541100502014,109,9950.0
7390,0.33561500906944275,-0.3911503553390503,-80,5897.0,0.08811648935079575,94,9950.0
7400,0.33707374334335327,-2.5175232887268066,-85,5897.0,1.2960137128829956,90,9950.0
7410,0.3368377089500427,-2.608138084411621,-101,5897.0,3.0979812145233154,126,9950.0
7420,0.3366551697254181,-1.5729337930679321,-70,5897.0,2.510188341140747,104,9950.0
7430,0.33663058280944824,-1.5356335639953613,-85,5897.0,0.17394526302814484,146,9950.0
7440,0.3382042646408081,-3.523667573928833,-105,5897.0,3.7958552837371826,121,9950.0
7450,0.33821505308151245,-0.503436267375946,-75,5897.0,1.60317063331604,182,9950.0
7460,0.3382270038127899,2.9054641723632812,35,5897.0,2.3079919815063477,144,9950.0
7470,0.3382759690284729,4.630646705627441,44,5897.0,4.457258701324463,132,9950.0
7480,0.33838871121406555,7.179127216339111,79,5897.0,3.1389739513397217,69,9950.0
7490,0.33953118324279785,5.785772323608398,79,5897.0,2.1907570362091064,7,9950.0
7500,0.33982938528060913,3.0532758235931396,34,5897.0,-0.16109058260917664,2,9950.0
7510,0.3401801288127899,2.9563746452331543,40,5897.0,-2.1683778762817383,-20,9950.0
7520,0.34054601192474365,0.886112630367279,4,5897.0,-4.2675323486328125,35,9950.0
7530,0.34130406379699707,-1.9694455862045288,-27,5897.0,-2.3257336616516113,30,9950.0
7540,0.34163543581962585,-1.8861079216003418,-106,5897.0,0.559978187084198,103,9950.0
7550,0.3419944941997528,0.43001747131347656,-57,5897.0,-4.118897438049316,50,9950.0
7560,0.3423546254634857,2.0723283290863037,7,5897.0,-3.535356283187866,29,9950.0
7570,0.34268149733543396,2.315549850463867,23,5897.0,-3.414106845855713,-9,9950.0
7580,0.3429866135120392,2.648252010345459,47,5897.0,-1.1647058725357056,5,9950.0
7590,0.34323957562446594,5.9491682052612305,78,5897.0,-1.4662799835205078,-7,9950.0
7600,0.34349218010902405,5.478748321533203,75,5897.0,0.8212617039680481,-24,9950.0
7610,0.3437243700027466,5.3845534324646,54,5897.0,1.8607896566390991,-36,9950.0
7620,0.34471091628074646,4.046969890594482,61,5897.0,-2.6911377906799316,-94,9950.0
7630,0.344896525144577,0.7269383668899536,3,5897.0,-1.944078803062439,11,9950.0
7640,0.34503456950187683,-1.2418922185897827,-52,5897.0,-2.00639009475708,8,9950.0
7650,0.34512245655059814,-2.3744940757751465,-66,5897.0,-2.564671039581299,-4,9950.0
7660,0.3454446494579315,-2.496103525161743,-64,5897.0,-1.9042584896087646,-21,9950.0
7670,0.34540536999702454,-2.8427155017852783,-77,5897.0,-2.521596670150757,18,9950.0
7680,0.3453577756881714,-1.0185961723327637,-4,5897.0,-3.9996871948242188,-124,9950.0
7690,0.34530678391456604,-0.89744633436203,44,5897.0,-0.20984302461147308,-76,9950.0
7700,0.34525877237319946,1.696018099784851,75,5897.0,-0.17970998585224152,-64,9950.0
7710,0.34667834639549255,1.2011326551437378,67,5897.0,-2.7879321575164795,-13,9950.0
7720,0.3466130197048187,3.962895154953003,80,5897.0,0.416766494512558,15,9950.0
7730,0.34647390246391296,-0.4218284487724304,8,5897.0,2.881274938583374,116,9950.0
7740,0.346257746219635,-0.7010467648506165,-32,5897.0,-0.2860795557498932,111,9950.0
7750,0.3482843339443207,0.1415109932422638,-12,5897.0,-1.7280021905899048,87,9950.0
7760,0.3481457531452179,-0.9108059406280518,-72,5897.0,-1.8643145561218262,64,9950.0
7770,0.3479827642440796,-2.829399347305298,-54,5897.0,-1.6434906721115112,-44,9950.0
7780,0.34781399369239807,-4.2413506507873535,-55,5897.0,-1.7096107006072998,-36,9950.0
7790,0.34762948751449585,-3.710963487625122,-80,5897.0,-3.776446580886841,-118,9950.0
7800,0.34603968262672424,-3.6433212757110596,-68,5897.0,-1.689202904701233,-58,9950.0
7810,0.3457823097705841,-3.5320377349853516,-60,5897.0,0.7984598875045776,-30,9950.0
7820,0.34550270438194275,-3.028855085372925,-58,5897.0,-2.670961380004883,23,9950.0
7830,0.3451778292655945,-1.6898369789123535,-37,5897.0,2.0527193546295166,95,9950.0
7840,0.34565699100494385,-0.3346802592277527,-8,5897.0,2.9023587703704834,95,9950.0
7850,0.3453007638454437,0.19682462513446808,0,5897.0,0.6239371299743652,90,9950.0
7860,0.3448956310749054,0.3939635455608368,-10,5897.0,1.1318371295928955,51,9950.0
7870,0.34446024894714355,0.3702569901943207,-21,5897.0,-1.1956077814102173,44,9950.0
7880,0.34287258982658386,-0.0392145961523056,-12,5897.0,-0.2984054386615753,34,9950.0
7890,0.34236574172973633,0.17886437475681305,12,5897.0,-0.7953110933303833,-83,9950.0
7900,0.3418649435043335,0.08164869248867035,-57,5897.0,7.758727550506592,26,9950.0
7910,0.341327428817749,0.6328964829444885,5,5897.0,2.5727334022521973,22,9950.0
7920,0.3407765030860901,0.7550813555717468,-36,5897.0,3.6843152046203613,51,9950.0
7930,0.34249645471572876,-0.29467839002609253,-5,5897.0,-0.3813883066177368,-53,9950.0
7940,0.34210124611854553,-1.6770886182785034,30,5897.0,0.8940036296844482,-56,9950.0
7950,0.3416711688041687,-1.991787314414978,53,5897.0,0.8024235367774963,-50,9950.0
7960,0.34122341871261597,-1.752343773841858,42,5897.0,5.724909782409668,46,9950.0
7970,0.34161749482154846,-2.028362512588501,14,5897.0,6.650424003601074,58,9950.0
7980,0.34122276306152344,-2.8105380535125732,7,5897.0,4.878468990325928,29,9950.0
7990,0.34088486433029175,-2.2449429035186768,-23,5897.0,5.429367542266846,29,9950.0
8000,0.34055274724960327,-1.1506526470184326,-7,5897.0,2.196348190307617,-19,9950.0
8010,0.34166428446769714,-1.6147675514221191,2,5897.0,2.145814895629883,-6,9950.0
8020,0.3414679765701294,0.12196514010429382,43,5897.0,2.572197437286377,54,9950.0
8030,0.34129393100738525,-0.38063517212867737,21,5897.0,2.731778621673584,-3,9950.0
8040,0.34115102887153625,0.5549742579460144,-3,5897.0,2.9912467002868652,-8,9950.0
8050,0.34101632237434387,2.659796953201294,48,5897.0,1.7221615314483643,1,9950.0
8060,0.3417541980743408,1.5100492238998413,33,5897.0,2.8870675563812256,70,9950.0
8070,0.34177008271217346,2.8602640628814697,17,5897.0,3.027414321899414,6,9950.0
8080,0.3417823314666748,-0.036031581461429596,12,5897.0,1.9161127805709839,-32,9950.0
8090,0.3418145775794983,0.6737540364265442,65,5897.0,-1.282823920249939,-93,9950.0
8100,0.34191542863845825,-1.359779715538025,11,5897.0,-0.9559109807014465,-75,9950.0
8110,0.34199774265289307,-2.4422221183776855,-26,5897.0,0.4429197907447815,-20,9950.0
8120,0.34213265776634216,-2.5480170249938965,-19,5897.0,0.9344769716262817,-67,9950.0
8130,0.3422403335571289,0.7668882012367249,43,5897.0,-1.588184118270874,-51,9950.0
8140,0.3423694968223572,2.8740627765655518,39,5897.0,-2.420902967453003,-131,9950.0
8150,0.34349626302719116,3.5838639736175537,75,5897.0,-1.272889494895935,-116,9950.0
8160,0.3436397612094879,3.9668893814086914,84,5897.0,-1.0294501781463623,-152,9950.0
8170,0.34388262033462524,4.031778335571289,89,5897.0,-2.634366750717163,-65,9950.0
8180,0.3440799415111542,5.992064476013184,70,5897.0,-0.8675104975700378,6,9950.0
8190,0.34530672430992126,6.163039207458496,124,5897.0,-0.05809052288532257,6,9950.0
8200,0.34546980261802673,5.636900901794434,106,5897.0,1.3393869400024414,57,9950.0
8210,0.3456062078475952,4.106112480163574,41,5897.0,-0.626779317855835,105,9950.0
8220,0.3456907272338867,4.193815231323242,40,5897.0,-0.8615483641624451,66,9950.0
8230,0.345756858587265,3.063131093978882,57,5897.0,-5.953344345092773,64,9950.0
8240,0.34586769342422485,2.5623817443847656,65,5897.0,-3.563126564025879,-46,9950.0
8250,0.3458651602268219,1.4162598848342896,61,5897.0,-2.552882194519043,-132,9950.0
8260,0.34585630893707275,1.319163203239441,23,5897.0,-2.525867462158203,-83,9950.0
8270,0.3457852005958557,0.8267558813095093,49,5897.0,-0.39180323481559753,-68,9950.0
8280,0.345839262008667,0.6928554773330688,21,5897.0,0.17077893018722534,4,9950.0
8290,0.34573569893836975,1.2825371026992798,13,5897.0,2.773963689804077,79,9950.0
8300,0.34561121463775635,-0.455390065908432,-27,5897.0,4.0620012283325195,131,9950.0
8310,0.34547489881515503,0.044981949031353,-30,5897.0,5.6684651374816895,171,9950.0
8320,0.34672465920448303,-0.8266412615776062,-53,5897.0,4.50855827331543,132,9950.0
8330,0.3466340899467468,-2.054561138153076,-52,5897.0,3.696479558944702,87,9950.0
8340,0.34653761982917786,-2.097593307495117,-54,5897.0,3.225503921508789,91,9950.0
8350,0.3463965356349945,-1.755118489265442,-51,5897.0,-0.7069016695022583,-20,9950.0
8360,0.3462175130844116,-2.5551106929779053,-4,5897.0,0.22310593724250793,-60,9950.0
8370,0.3463955819606781,-1.2839078903198242,0,5897.0,1.1099474430084229,-70,9950.0
8380,0.3461756706237793,-0.438010573387146,47,5897.0,-1.0133994817733765,-91,9950.0
8390,0.34593600034713745,0.2265433669090271,53,5897.0,-1.6638987064361572,-82,9950.0
8400,0.34569215774536133,2.5973434448242188,96,5897.0,-2.859011650085449,-101,9950.0
8410,0.3467823565006256,2.0779459476470947,63,5897.0,-2.464298963546753,-7,9950.0
8420,0.346576452255249,2.900296926498413,47,5897.0,-0.6298397183418274,48,9950.0
8430,0.3463381230831146,0.9966983199119568,5,5897.0,-1.2601481676101685,96,9950.0
8440,0.3460913300514221,0.9300582408905029,-38,5897.0,-1.5126539468765259,43,9950.0
8450,0.34583619236946106,-1.9968209266662598,-65,5897.0,1.182572603225708,124,9950.0
8460,0.34600508213043213,-2.100837469100952,-81,5897.0,-0.6416430473327637,36,9950.0
8470,0.34577256441116333,-2.871706008911133,-49,5897.0,-1.96816885471344,25,9950.0
8480,0.34552350640296936,-2.1995468139648438,-42,5897.0,-4.137864112854004,-55,9950.0
8490,0.34529396891593933,-2.6471667289733887,-77,5897.0,-5.985522747039795,-70,9950.0
8500,0.34699368476867676,-4.106674671173096,-54,5897.0,-2.8722753524780273,-66,9950.0
8510,0.34684598445892334,-4.183825492858887,-20,5897.0,-0.48389050364494324,-68,9950.0
8520,0.3466930687427521,-1.566283941268921,-19,5897.0,1.8318194150924683,-14,9950.0
8530,0.3465560972690582,0.48609060049057007,-10,5897.0,-0.5299180746078491,-47,9950.0
8540,0.34628018736839294,0.029265500605106354,52,5897.0,2.132718324661255,-114,9950.0
8550,0.3461478352546692,-0.13416939973831177,39,5897.0,-0.7978372573852539,-140,9950.0
8560,0.34602534770965576,0.4238361120223999,38,5897.0,0.9114819169044495,-146,9950.0
8570,0.3458732068538666,1.5314712524414062,77,5897.0,-1.5095804929733276,-118,9950.0
8580,0.3457663655281067,0.8143572211265564,45,5897.0,2.8720953464508057,-73,9950.0
8590,0.3469633460044861,0.5866519808769226,39,5897.0,1.245581030845642,40,9950.0
8600,0.3468754291534424,-2.5018820762634277,-52,5897.0,0.6222325563430786,8,9950.0
8610,0.34681785106658936,-4.217957496643066,-68,5897.0,-0.45614612102508545,79,9950.0
8620,0.3467555046081543,-5.675507068634033,-121,5897.0,-0.32676342129707336,87,9950.0
8630,0.34602275490760803,-4.977020263671875,-159,5897.0,-2.273024082183838,116,9950.0
8640,0.3458488881587982,-5.3442230224609375,-111,5897.0,-1.855423927307129,74,9950.0
8650,0.3456153869628906,-5.595256805419922,-85,5897.0,-5.260181427001953,38,9950.0
8660,0.34539908170700073,-1.5117741823196411,-32,5897.0,-4.259814739227295,22,9950.0
8670,0.34662285447120667,1.0479792356491089,15,5897.0,-4.822082042694092,-33,9950.0
8680,0.34645938873291016,2.108229160308838,9,5897.0,-1.4069446325302124,0,9950.0
8690,0.3463071584701538,2.360236883163452,28,5897.0,-1.1642653942108154,29,9950.0
8700,0.3461783826351166,2.704225778579712,34,5897.0,-0.7578088045120239,-31,9950.0
8710,0.3460560441017151,2.3155078887939453,41,5897.0,2.6174254417419434,-75,9950.0
8720,0.3463320732116699,0.9739815592765808,72,5897.0,2.3331797122955322,-130,9950.0
8730,0.34620654582977295,-0.3518989086151123,72,5897.0,0.817030668258667,-86,9950.0
8740,0.3460896909236908,-0.5169684886932373,21,5897.0,0.046114470809698105,-77,9950.0
8750,0.34599220752716064,-1.4131993055343628,18,5897.0,-2.422889471054077,-109,9950.0
8760,0.34595319628715515,-3.9175965785980225,-22,5897.0,-3.330045223236084,-130,9950.0
8770,0.34587791562080383,-2.1956026554107666,-15,5897.0,-2.4778242111206055,-73,9950.0
8780,0.3457631468772888,-1.6288402080535889,-31,5897.0,-0.4260825216770172,-70,9950.0
8790,0.3456130921840668,-0.5544508695602417,-30,5897.0,-2.006544589996338,18,9950.0
8800,0.345426082611084,-0.22152628004550934,-1,5897.0,-1.1092215776443481,35,9950.0
8810,0.34544163942337036,1.7694965600967407,58,5897.0,1.069109320640564,83,9950.0
8820,0.34520775079727173,1.9709274768829346,23,5897.0,2.28139328956604,84,9950.0
8830,0.34491389989852905,2.3206894397735596,30,5897.0,3.179948568344116,133,9950.0
8840,0.34455662965774536,1.5453306436538696,38,5897.0,3.6039438247680664,167,9950.0
8850,0.3449016213417053,1.7508375644683838,-9,5897.0,4.626697063446045,147,9950.0
8860,0.34456074237823486,0.10020231455564499,-36,5897.0,3.119615316390991,38,9950.0
8870,0.34426045417785645,-2.002041816711426,-78,5897.0,2.1607375144958496,79,9950.0
8880,0.34396305680274963,-2.8376736640930176,-53,5897.0,1.0883421897888184,-11,9950.0
8890,0.34364888072013855,-0.887118935585022,-55,5897.0,0.7293012142181396,-42,9950.0
8900,0.34467828273773193,0.22091154754161835,-65,5897.0,0.7165490984916687,-69,9950.0
8910,0.3444386124610901,0.3582848310470581,-11,5897.0,-2.264380931854248,-55,9950.0
8920,0.3442608714103699,-0.1869240552186966,4,5897.0,-2.0847277641296387,-92,9950.0
8930,0.3441466987133026,-1.6391206979751587,59,5897.0,5.697847366333008,-49,9950.0
8940,0.345657616853714,-0.4895026981830597,72,5897.0,1.7603998184204102,-28,9950.0
8950,0.34567564725875854,-0.7694875001907349,45,5897.0,6.631239891052246,22,9950.0
8960,0.3456668555736542,0.9636825919151306,46,5897.0,0.010744635947048664,26,9950.0
8970,0.3456806540489197,0.5584843158721924,-1,5897.0,3.5197153091430664,-113,9950.0
8980,0.3473464548587799,-0.20534354448318481,46,5897.0,1.2645004987716675,-124,9950.0
8990,0.34746992588043213,-1.3338412046432495,35,5897.0,-1.7298858165740967,-162,9950.0
9000,0.34755727648735046,-0.22466374933719635,16,5897.0,-0.16107459366321564,-90,9950.0
9010,0.3476318418979645,1.2906454801559448,32,5897.0,1.0604279041290283,-11,9950.0
9020,0.3476964831352234,2.237637996673584,68,5897.0,2.1829848289489746,61,9950.0
9030,0.3482725918292999,3.8875041007995605,55,5897.0,5.029376983642578,127,9950.0
9040,0.34836629033088684,2.315241575241089,20,5897.0,2.6319382190704346,110,9950.0
9050,0.34847578406333923,3.7646501064300537,10,5897.0,2.171865224838257,188,9950.0
9060,0.34857240319252014,2.5004870891571045,26,5897.0,0.11102182418107986,147,9950.0
9070,0.35036373138427734,1.5122815370559692,55,5897.0,1.914472222328186,88,9950.0
9080,0.35053378343582153,1.2000017166137695,12,5897.0,2.499171018600464,16,9950.0
9090,0.35066890716552734,0.9515222311019897,12,5897.0,3.0971431732177734,-7,9950.0
9100,0.35075101256370544,0.0435713529586792,3,5897.0,2.3704679012298584,-92,9950.0
9110,0.3520105481147766,-0.4021202027797699,18,5897.0,1.7874890565872192,-104,9950.0
9120,0.3521038293838501,0.5568068027496338,8,5897.0,2.699815034866333,-67,9950.0
9130,0.35214298963546753,4.741665363311768,46,5897.0,-0.05006292089819908,-11,9950.0
9140,0.3521505892276764,4.140374183654785,71,5897.0,-0.7151665091514587,73,9950.0
9150,0.3521242141723633,4.2505598068237305,70,5897.0,0.6745752692222595,84,9950.0
9160,0.3524473309516907,3.0125644207000732,-17,5897.0,2.66801118850708,69,9950.0
9170,0.3524029552936554,3.9390182495117188,24,5897.0,-1.016071081161499,-21,9950.0
9180,0.35233399271965027,1.5763092041015625,47,5897.0,1.1494293212890625,-16,9950.0
9190,0.35223284363746643,1.1480083465576172,54,5897.0,-1.9928025007247925,-115,9950.0
9200,0.35164523124694824,-1.1006501913070679,-1,5897.0,-2.8193023204803467,-19,9950.0
9210,0.3514210879802704,0.37052619457244873,27,5897.0,1.0957579612731934,53,9950.0
9220,0.3511775732040405,1.1540281772613525,43,5897.0,-0.5248573422431946,70,9950.0
9230,0.35088837146759033,0.6380598545074463,13,5897.0,0.3789439797401428,72,9950.0
9240,0.3505609333515167,1.5959700345993042,42,5897.0,1.4229512214660645,37,9950.0
9250,0.35075801610946655,1.7639371156692505,48,5897.0,1.4860122203826904,-48,9950.0
9260,0.35040485858917236,0.8900651931762695,35,5897.0,2.1665749549865723,-32,9950.0
9270,0.3500552177429199,1.752639651298523,26,5897.0,3.8347837924957275,3,9950.0
9280,0.34969818592071533,0.7204949259757996,-8,5897.0,2.460005283355713,1,9950.0
9290,0.3499745726585388,0.586163341999054,-16,5897.0,-1.1097947359085083,15,9950.0
9300,0.3495377004146576,-2.5306005477905273,-70,5897.0,0.8232529163360596,66,9950.0
9310,0.3490792512893677,-4.54563045501709,-86,5897.0,-1.5118516683578491,35,9950.0
9320,0.34853634238243103,-4.608036518096924,-115,5897.0,-2.397803544998169,26,9950.0
9330,0.34872370958328247,-4.65172004699707,-115,5897.0,-1.3171429634094238,40,9950.0
9340,0.34814950823783875,-7.012616157531738,-138,5897.0,-0.3941558003425598,14,9950.0
9350,0.34757664799690247,-5.9365668296813965,-100,5897.0,-1.8630738258361816,-24,9950.0
9360,0.3470294773578644,-3.4443178176879883,-24,5897.0,-1.3208324909210205,-95,9950.0
9370,0.3465021550655365,-0.9749365448951721,9,5897.0,-2.113104820251465,-41,9950.0
9380,0.34720227122306824,-3.263150215148926,6,5897.0,-1.423296332359314,-41,9950.0
9390,0.3467788100242615,-3.512333393096924,-26,5897.0,1.920335292816162,-72,9950.0
9400,0.3463574945926666,-3.3673365116119385,-60,5897.0,0.3314085900783539,-47,9950.0
9410,0.34595754742622375,-3.955901622772217,-59,5897.0,-1.0210630893707275,-92,9950.0
9420,0.34809279441833496,-5.882404804229736,-74,5897.0,-0.5050364136695862,-174,9950.0
9430,0.34792473912239075,-6.728322982788086,-53,5897.0,-0.9428169131278992,-156,9950.0
9440,0.3477967381477356,-6.624016284942627,-31,5897.0,-3.222914218902588,-178,9950.0
9450,0.34770217537879944,-3.1783764362335205,20,5897.0,-1.0234249830245972,-143,9950.0
9460,0.3476216197013855,-2.334625244140625,24,5897.0,-0.6725519299507141,-36,9950.0
9470,0.34810271859169006,-0.04883711040019989,29,5897.0,-1.5823417901992798,-86,9950.0
9480,0.34810343384742737,-0.7669904828071594,24,5897.0,-1.6057486534118652,-69,9950.0
9490,0.34811878204345703,1.164289116859436,27,5897.0,0.7232621908187866,-57,9950.0
9500,0.3481390178203583,0.9112934470176697,21,5897.0,1.5221513509750366,-66,9950.0
9510,0.348086953163147,2.549833059310913,22,5897.0,-4.877896785736084,-19,9950.0
9520,0.3480904996395111,0.04031774774193764,0,5897.0,3.3713622093200684,-5,9950.0
9530,0.3481072187423706,1.7040023803710938,8,5897.0,-1.062696099281311,115,9950.0
9540,0.34810906648635864,-2.4134726524353027,-17,5897.0,2.6382369995117188,93,9950.0
9550,0.3480672538280487,-1.1004271507263184,-25,5897.0,-1.829854965209961,108,9950.0
9560,0.348317414522171,-0.5911303162574768,-31,5897.0,0.27934029698371887,41,9950.0
9570,0.34810158610343933,0.005463823210448027,4,5897.0,-2.8071160316467285,10,9950.0
9580,0.34782034158706665,0.4291999340057373,52,5897.0,1.3975105285644531,42,9950.0
9590,0.34752780199050903,3.2704315185546875,28,5897.0,0.27037328481674194,56,9950.0
9600,0.3483283817768097,2.830012559890747,61,5897.0,0.10006958991289139,-32,9950.0
9610,0.34805798530578613,3.670170307159424,68,5897.0,0.12454137206077576,-19,9950.0
9620,0.34776318073272705,3.743647575378418,69,5897.0,-1.218408465385437,-54,9950.0
9630,0.3474484086036682,3.3125267028808594,42,5897.0,0.663667619228363,-87,9950.0
9640,0.3485930860042572,0.7179102897644043,46,5897.0,0.5968124866485596,-100,9950.0
9650,0.3483085334300995,-0.10864201933145523,24,5897.0,-0.4281804859638214,-75,9950.0
9660,0.3480042815208435,-2.177841901779175,-30,5897.0,-1.2858054637908936,-37,9950.0
9670,0.3477105498313904,-1.7074658870697021,-43,5897.0,2.0441534519195557,11,9950.0
9680,0.3474331796169281,-1.0706456899642944,-6,5897.0,0.502231240272522,-14,9950.0
9690,0.3489917814731598,-2.1444590091705322,21,5897.0,4.931587219238281,79,9950.0
9700,0.3488466441631317,0.13942193984985352,-29,5897.0,1.8490524291992188,61,9950.0
9710,0.3487268090248108,0.9401057362556458,-2,5897.0,3.2806665897369385,104,9950.0
9720,0.34861791133880615,1.5522785186767578,-13,5897.0,2.3206095695495605,121,9950.0
9730,0.34909769892692566,0.987661600112915,-15,5897.0,1.5331312417984009,55,9950.0
9740,0.3490399122238159,2.736553907394409,23,5897.0,0.9432060122489929,102,9950.0
9750,0.3489304184913635,3.0813512802124023,45,5897.0,-2.2402517795562744,36,9950.0
9760,0.34875744581222534,4.3521246910095215,54,5897.0,-0.24416483938694,74,9950.0
9770,0.3502311408519745,1.6960703134536743,65,5897.0,0.14037923514842987,27,9950.0
9780,0.35008975863456726,2.128359317779541,12,5897.0,1.3014779090881348,-20,9950.0
9790,0.34994226694107056,0.8671114444732666,21,5897.0,2.8748738765716553,39,9950.0
9800,0.3498069941997528,2.0138750076293945,51,5897.0,0.9210698008537292,-39,9950.0
9810,0.34960421919822693,2.0837128162384033,26,5897.0,1.0200417041778564,-91,9950.0
9820,0.35185495018959045,2.3711252212524414,43,5897.0,0.1211269423365593,-51,9950.0
9830,0.3517179787158966,2.1135993003845215,42,5897.0,-1.3218369483947754,-105,9950.0
9840,0.35156771540641785,3.277351140975952,46,5897.0,-2.1841273307800293,-48,9950.0
9850,0.35139140486717224,3.0422005653381348,93,5897.0,-5.207903861999512,-50,9950.0
9860,0.35308927297592163,1.683326244354248,41,5897.0,-0.6223198771476746,18,9950.0
9870,0.3530077338218689,2.178630828857422,24,5897.0,-3.362337112426758,33,9950.0
9880,0.35293346643447876,1.5606329441070557,14,5897.0,-7.869180679321289,-40,9950.0
9890,0.35285070538520813,0.9798250794410706,10,5897.0,-1.9344383478164673,10,9950.0
9900,0.35275527834892273,0.14604903757572174,6,5897.0,1.4975098371505737,-31,9950.0
9910,0.355145663022995,-0.7663259506225586,41,5897.0,3.809431314468384,-35,9950.0
9920,0.35513821244239807,-0.5071045160293579,17,5897.0,2.8989920616149902,-85,9950.0
9930,0.35511350631713867,-0.28858470916748047,-19,5897.0,3.6616456508636475,-10,9950.0
9940,0.3550904095172882,-1.1159552335739136,-40,5897.0,4.027614116668701,85,9950.0
9950,0.35701391100883484,-1.2735909223556519,-10,5897.0,1.0176911354064941,103,9950.0
9960,0.35703805088996887,-1.3201732635498047,-76,5897.0,2.000871419906616,107,9950.0
9970,0.35702788829803467,-1.316651463508606,-43,5897.0,1.2818918228149414,59,9950.0
9980,0.3569788932800293,0.6548895835876465,35,5897.0,-3.8757245540618896,-68,9950.0
9990,0.3573250472545624,-1.5611076354980469,67,5897.0,0.17723612487316132,-129,9950.0
10000,0.3572401702404022,0.7175330519676208,14,5897.0,-2.4531664848327637,-66,9950.0
10010,0.3571130633354187,1.3363240957260132,61,5897.0,-1.2914023399353027,-2,9950.0
10020,0.356948584318161,0.05543461814522743,17,5897.0,-2.149427890777588,61,9950.0
10030,0.35674893856048584,1.3974558115005493,23,5897.0,-3.2481870651245117,39,9950.0
10040,0.3582172691822052,1.5120296478271484,19,5897.0,-1.609215497970581,-12,9950.0
10050,0.35801270604133606,1.5176894664764404,23,5897.0,-2.495737075805664,-49,9950.0
10060,0.3577442765235901,-0.6176067590713501,-11,5897.0,-1.3074628114700317,-100,9950.0
10070,0.3574356436729431,-1.330881953239441,-43,5897.0,-0.22289763391017914,23,9950.0
10080,0.35744979977607727,-5.096550941467285,-106,5897.0,6.029526233673096,113,9950.0
10090,0.3570761978626251,-3.9630560874938965,-98,5897.0,-0.501743733882904,54,9950.0
10100,0.35667508840560913,-5.457612037658691,-72,5897.0,-0.5511883497238159,23,9950.0
10110,0.3562448024749756,-4.261763572692871,-66,5897.0,-1.8172322511672974,-87,9950.0
10120,0.35581913590431213,-3.5965349674224854,-35,5897.0,-0.8894230723381042,-93,9950.0
10130,0.35709163546562195,-1.774726152420044,-10,5897.0,0.4939926564693451,-113,9950.0
10140,0.35679537057876587,0.3744402527809143,32,5897.0,0.615453839302063,-69,9950.0
10150,0.3564378619194031,-0.50498366355896,16,5897.0,-0.8726108074188232,24,9950.0
10160,0.3560780882835388,0.3973742723464966,-11,5897.0,-3.015110969543457,40,9950.0
10170,0.3562242090702057,0.5899937748908997,-46,5897.0,-2.1499743461608887,84,9950.0
10180,0.35580357909202576,-1.7325444221496582,-75,5897.0,-2.650312662124634,69,9950.0
10190,0.35536110401153564,-3.427668571472168,-12,5897.0,0.7848395705223083,-58,9950.0
10200,0.3548851013183594,-5.279816627502441,-49,5897.0,-3.3047146797180176,-80,9950.0
10210,0.35440853238105774,-4.869657039642334,-78,5897.0,-0.5415542125701904,-69,9950.0
10220,0.35376712679862976,-4.454892635345459,-91,5897.0,-0.767793595790863,72,9950.0
10230,0.35328832268714905,-4.983386516571045,-69,5897.0,-0.1199735775589943,67,9950.0
10240,0.35280629992485046,-3.9330005645751953,-29,5897.0,-0.9030038714408875,38,9950.0
10250,0.35233089327812195,-1.8535946607589722,-58,5897.0,-0.6319610476493835,96,9950.0
10260,0.3517090082168579,-2.3366811275482178,-11,5897.0,2.7802820205688477,18,9950.0
10270,0.3512234687805176,-1.2213387489318848,-44,5897.0,5.395905494689941,11,9950.0
10280,0.35073843598365784,-1.1298693418502808,-23,5897.0,3.3678462505340576,-15,9950.0
10290,0.35025930404663086,-2.728773593902588,-51,5897.0,4.063706398010254,20,9950.0
10300,0.351068377494812,-1.4794811010360718,-16,5897.0,2.908684730529785,-69,9950.0
10310,0.3506213426589966,-2.470024824142456,44,5897.0,6.848747253417969,-56,9950.0
10320,0.35015156865119934,-1.8158416748046875,18,5897.0,2.9140753746032715,-69,9950.0
10330,0.349678099155426,0.1387680172920227,25,5897.0,2.3374862670898438,43,9950.0
10340,0.34923189878463745,-0.9752267599105835,-23,5897.0,-1.2106871604919434,-23,9950.0
10350,0.34825021028518677,-0.46098560094833374,-7,5897.0,-1.6901670694351196,-87,9950.0
10360,0.3477250337600708,-1.0459766387939453,31,5897.0,-1.3019208908081055,-81,9950.0
10370,0.3472117483615875,-1.669907569885254,-2,5897.0,1.3204065561294556,-49,9950.0
10380,0.3467203378677368,0.47584664821624756,16,5897.0,-2.6345696449279785,-45,9950.0
10390,0.34735366702079773,-0.6357246041297913,5,5897.0,1.1032904386520386,15,9950.0
10400,0.3470517694950104,1.7750252485275269,-7,5897.0,-0.7039687633514404,50,9950.0
10410,0.34689220786094666,-0.6176750659942627,-27,5897.0,0.3826391100883484,120,9950.0
10420,0.34677231311798096,-2.4368717670440674,-76,5897.0,5.930008888244629,183,9950.0
10430,0.34678173065185547,-0.01198041532188654,-36,5897.0,4.6390790939331055,218,9950.0
10440,0.34761911630630493,0.747168242931366,-24,5897.0,6.614422798156738,241,9950.0
10450,0.3477191627025604,1.7170642614364624,13,5897.0,7.411384105682373,122,9950.0
10460,0.34792083501815796,2.3770315647125244,14,5897.0,5.2648420333862305,133,9950.0
10470,0.34808477759361267,2.991154193878174,45,5897.0,-2.8500423431396484,52,9950.0
10480,0.3486254811286926,1.6221940517425537,2,5897.0,-0.2138918787240982,48,9950.0
10490,0.3488740921020508,4.070191383361816,-16,5897.0,1.3582310676574707,45,9950.0
10500,0.34913504123687744,3.366654872894287,0,5897.0,-0.7866975665092468,128,9950.0
10510,0.34943071007728577,4.213804244995117,11,5897.0,-1.9999608993530273,63,9950.0
10520,0.3486528992652893,4.431681156158447,71,5897.0,0.7750865817070007,75,9950.0
10530,0.3488713800907135,4.158596038818359,103,5897.0,1.1401504278182983,43,9950.0
10540,0.34909287095069885,3.2728488445281982,66,5897.0,1.8827531337738037,-8,9950.0
10550,0.3492897152900696,2.722193479537964,64,5897.0,2.822591543197632,6,9950.0
10560,0.34944912791252136,2.4214797019958496,58,5897.0,1.6754122972488403,-46,9950.0
10570,0.34939059615135193,0.38444170355796814,18,5897.0,-0.4976623058319092,-60,9950.0
10580,0.3494446575641632,1.8277816772460938,44,5897.0,1.2402580976486206,-20,9950.0
10590,0.3494623005390167,1.6006438732147217,4,5897.0,-2.2073116302490234,-11,9950.0
10600,0.349453866481781,2.6720778942108154,39,5897.0,-2.1718456745147705,-26,9950.0
10610,0.3492550253868103,2.3084864616394043,46,5897.0,0.037170860916376114,72,9950.0
10620,0.3492012917995453,2.233304500579834,23,5897.0,-2.75484299659729,26,9950.0
10630,0.349122554063797,2.1450700759887695,4,5897.0,-0.39006829261779785,61,9950.0
10640,0.34902235865592957,2.576545238494873,8,5897.0,-0.04336291551589966,60,9950.0
10650,0.34894344210624695,1.2531042098999023,42,5897.0,-3.3644540309906006,-46,9950.0
10660,0.3488388955593109,0.7062957882881165,56,5897.0,-0.7376927137374878,-90,9950.0
10670,0.34871435165405273,1.204239845275879,67,5897.0,-4.451229095458984,-134,9950.0
10680,0.34860166907310486,0.6337170600891113,-3,5897.0,-2.5975520610809326,-64,9950.0
10690,0.34844738245010376,1.1090011596679688,16,5897.0,-3.784230947494507,-53,9950.0
10700,0.34846559166908264,-1.0232676267623901,-9,5897.0,-1.316731333732605,-32,9950.0
10710,0.3482418358325958,-2.095673084259033,-32,5897.0,-1.1948890686035156,3,9950.0
10720,0.3480049669742584,-0.3183082640171051,4,5897.0,-0.43576809763908386,14,9950.0
10730,0.34779828786849976,-0.7048645615577698,-28,5897.0,-0.7220882773399353,83,9950.0
10740,0.3477482795715332,-1.383729100227356,-30,5897.0,5.89544153213501,107,9950.0
10750,0.3475344479084015,-0.42065030336380005,-22,5897.0,4.045103073120117,68,9950.0
10760,0.34732672572135925,-0.6046539545059204,-68,5897.0,4.070319175720215,92,9950.0
10770,0.3470902144908905,-0.07745348662137985,0,5897.0,1.7670209407806396,59,9950.0
10780,0.3468301594257355,-0.3246791958808899,-28,5897.0,2.6507387161254883,-10,9950.0
10790,0.3470238447189331,-1.0816078186035156,36,5897.0,-0.4874650239944458,-86,9950.0
10800,0.346772164106369,-0.5514265894889832,47,5897.0,-0.6492772698402405,-125,9950.0
10810,0.3464817404747009,0.04277700185775757,52,5897.0,-0.846787691116333,-60,9950.0
10820,0.34617117047309875,0.8439828753471375,85,5897.0,-1.5520811080932617,-40,9950.0
10830,0.3455289304256439,2.3450047969818115,59,5897.0,0.8751739263534546,-12,9950.0
10840,0.3451932966709137,1.9748656749725342,63,5897.0,3.7652087211608887,43,9950.0
10850,0.34485846757888794,4.879783630371094,92,5897.0,0.7968612313270569,-183,9950.0
10860,0.344542533159256,2.312007188796997,56,5897.0,2.367626428604126,-127,9950.0
10870,0.34417471289634705,1.2664655447006226,19,5897.0,2.664574384689331,52,9950.0
10880,0.3453924357891083,2.9060823917388916,15,5897.0,4.0007405281066895,113,9950.0
10890,0.3452030420303345,2.70320200920105,16,5897.0,-0.26230430603027344,103,9950.0
10900,0.3450009524822235,4.108696937561035,39,5897.0,-1.0955562591552734,75,9950.0
10910,0.34483927488327026,2.929790496826172,46,5897.0,2.181429862976074,87,9950.0
10920,0.3447948694229126,1.4691801071166992,-22,5897.0,3.054874897003174,124,9950.0
10930,0.3447147309780121,1.6411386728286743,-62,5897.0,4.25648832321167,177,9950.0
10940,0.3447103500366211,1.6629197597503662,-7,5897.0,1.5049675703048706,172,9950.0
10950,0.3448209762573242,2.5323686599731445,8,5897.0,3.820970058441162,167,9950.0
10960,0.3457828462123871,1.8896023035049438,-38,5897.0,0.07907377183437347,182,9950.0
10970,0.34598618745803833,1.3698160648345947,0,5897.0,-0.3846578598022461,33,9950.0
10980,0.34620413184165955,2.3236846923828125,6,5897.0,-2.72856068611145,-8,9950.0
10990,0.3464398682117462,2.1667070388793945,-7,5897.0,-2.9944136142730713,-21,9950.0
11000,0.34671810269355774,1.6364824771881104,-13,5897.0,-2.457707166671753,4,9950.0
11010,0.3462780714035034,1.8549048900604248,-46,5897.0,-2.6427180767059326,-11,9950.0
11020,0.3464575707912445,-0.36942270398139954,4,5897.0,-1.752827525138855,-83,9950.0
11030,0.3466263711452484,-1.0101414918899536,-11,5897.0,-0.6733096837997437,-60,9950.0
11040,0.34678375720977783,-1.745686411857605,9,5897.0,1.0633270740509033,-11,9950.0
11050,0.34779053926467896,-1.0449318885803223,20,5897.0,0.8638587594032288,11,9950.0
11060,0.34797680377960205,-2.505955219268799,-38,5897.0,-0.47770828008651733,-22,9950.0
11070,0.34815046191215515,-2.1824185848236084,14,5897.0,-2.8445019721984863,-73,9950.0
11080,0.34831181168556213,-1.9393950700759888,32,5897.0,-1.169526219367981,0,9950.0
11090,0.3494357168674469,-1.7292362451553345,-25,5897.0,-0.30845651030540466,41,9950.0
11100,0.3495681881904602,-0.7699496150016785,-8,5897.0,-1.2197775840759277,90,9950.0
11110,0.34966108202934265,-0.09965404868125916,-35,5897.0,-1.856714129447937,46,9950.0
11120,0.3497319519519806,-0.6518993973731995,-20,5897.0,-2.260875940322876,-8,9950.0
11130,0.34977927803993225,-0.12186037003993988,-6,5897.0,-2.250108242034912,-40,9950.0
11140,0.35069721937179565,-0.41445988416671753,12,5897.0,-1.0363506078720093,-114,9950.0
11150,0.3507748544216156,-0.001488899695686996,0,5897.0,0.42329856753349304,-57,9950.0
11160,0.35083121061325073,0.6075558066368103,-13,5897.0,-1.5052244663238525,-115,9950.0
11170,0.3508419692516327,-0.9050071239471436,-30,5897.0,0.696882963180542,-29,9950.0
11180,0.35127589106559753,-0.3282957375049591,4,5897.0,0.9796404242515564,-8,9950.0
11190,0.35120609402656555,-2.2028281688690186,-41,5897.0,-3.225445508956909,-13,9950.0
11200,0.3510928750038147,-0.9548711180686951,19,5897.0,-2.1092493534088135,12,9950.0
11210,0.3509626090526581,0.8951894044876099,2,5897.0,-2.09700345993042,32,9950.0
11220,0.350849449634552,2.0202713012695312,70,5897.0,-5.379010200500488,-78,9950.0
11230,0.35082194209098816,-0.7325019240379333,-6,5897.0,-5.198756694793701,-81,9950.0
11240,0.3507755994796753,-2.0440146923065186,-17,5897.0,-4.574949264526367,-105,9950.0
11250,0.35073143243789673,-4.1958327293396,-38,5897.0,-0.5185925364494324,-131,9950.0
11260,0.3506462275981903,-5.043321132659912,-43,5897.0,-4.259803295135498,-70,9950.0
11270,0.35145699977874756,-3.9710423946380615,-73,5897.0,-2.220829963684082,-8,9950.0
11280,0.3513569235801697,-3.0280399322509766,-46,5897.0,1.6163535118103027,107,9950.0
11290,0.35124069452285767,-2.340336799621582,-47,5897.0,4.178463459014893,180,9950.0
11300,0.3510892391204834,-1.5919936895370483,-48,5897.0,6.841728210449219,233,9950.0
11310,0.35053756833076477,-1.7234704494476318,-46,5897.0,3.684704303741455,98,9950.0
11320,0.35029318928718567,-2.9036054611206055,-58,5897.0,5.895192623138428,116,9950.0
11330,0.3500504493713379,-1.9441430568695068,-43,5897.0,2.339832305908203,28,9950.0
11340,0.3497786819934845,-2.4546475410461426,-68,5897.0,-0.5942500829696655,-84,9950.0
11350,0.34949421882629395,-3.9051520824432373,-77,5897.0,-5.981358051300049,-222,9950.0
11360,0.34941330552101135,-4.763152122497559,-55,5897.0,-2.5128333568573,-198,9950.0
11370,0.34913668036460876,-5.411970138549805,-47,5897.0,-2.094452142715454,-174,9950.0
11380,0.34885796904563904,-3.963270425796509,-13,5897.0,-3.756216049194336,-70,9950.0
11390,0.34853482246398926,-1.6123069524765015,-11,5897.0,-4.13908576965332,-49,9950.0
11400,0.3489185869693756,-1.8552626371383667,-38,5897.0,-2.037010669708252,141,9950.0
11410,0.34861525893211365,-2.8524765968322754,-56,5897.0,5.3211894035339355,166,9950.0
11420,0.3483290374279022,-2.777482748031616,-80,5897.0,5.243052959442139,250,9950.0
11430,0.3480762541294098,-3.1135995388031006,-101,5897.0,3.6137144565582275,253,9950.0
11440,0.34784135222435,-2.6158511638641357,-64,5897.0,3.9725379943847656,133,9950.0
11450,0.34687966108322144,-1.3033896684646606,-54,5897.0,1.7060015201568604,74,9950.0
11460,0.34661537408828735,-1.0410325527191162,-33,5897.0,-0.6475933790206909,6,9950.0
11470,0.34636950492858887,-0.8109919428825378,-62,5897.0,-1.1836274862289429,47,9950.0
11480,0.34615352749824524,0.9481831789016724,-61,5897.0,-0.2688902020454407,85,9950.0
11490,0.34749287366867065,-2.291645050048828,-58,5897.0,-0.5602236390113831,-36,9950.0
11500,0.3473527431488037,-2.765200614929199,6,5897.0,-0.2763504087924957,-46,9950.0
11510,0.34716686606407166,-4.439145088195801,3,5897.0,3.724215030670166,0,9950.0
11520,0.34697267413139343,-1.7335751056671143,57,5897.0,0.2277936190366745,-16,9950.0
11530,0.34678053855895996,-2.1318886280059814,56,5897.0,1.8148249387741089,-18,9950.0
11540,0.347937673330307,1.250347375869751,45,5897.0,1.7283265590667725,-33,9950.0
11550,0.347790390253067,2.662365674972534,56,5897.0,-2.452402114868164,-159,9950.0
11560,0.3476223051548004,3.0267796516418457,79,5897.0,-1.0258618593215942,-52,9950.0
11570,0.34743601083755493,1.2733484506607056,27,5897.0,2.95363712310791,21,9950.0
11580,0.34745699167251587,0.8292905688285828,8,5897.0,5.576473236083984,86,9950.0
11590,0.3472166955471039,0.42221009731292725,11,5897.0,1.3438776731491089,62,9950.0
11600,0.34693780541419983,0.03524978458881378,4,5897.0,0.8340240716934204,89,9950.0
11610,0.3466412127017975,-0.1990567296743393,-1,5897.0,-0.31983494758605957,72,9950.0
11620,0.34698987007141113,1.0957396030426025,-42,5897.0,-1.570233702659607,53,9950.0
11630,0.34669533371925354,1.114641785621643,-59,5897.0,-0.9742205142974854,149,9950.0
11640,0.3463851511478424,-0.4356783628463745,-64,5897.0,2.1260459423065186,137,9950.0
11650,0.3460541069507599,0.13237571716308594,-27,5897.0,-4.799595832824707,134,9950.0
11660,0.34567633271217346,-0.11869239062070847,-50,5897.0,1.1521351337432861,136,9950.0
11670,0.34821367263793945,1.1010565757751465,-26,5897.0,-0.8350055813789368,42,9950.0
11680,0.3479735255241394,3.9111175537109375,37,5897.0,-2.4964866638183594,-17,9950.0
11690,0.3477404713630676,3.7891767024993896,38,5897.0,-1.1236882209777832,29,9950.0
11700,0.3475080132484436,2.7500100135803223,-20,5897.0,-0.6170475482940674,41,9950.0
11710,0.34863749146461487,2.6076042652130127,16,5897.0,-1.792041301727295,-20,9950.0
11720,0.34845322370529175,0.9217323064804077,41,5897.0,-1.5918914079666138,-51,9950.0
11730,0.34828904271125793,0.3973965644836426,70,5897.0,0.6348862648010254,-55,9950.0
11740,0.34816664457321167,1.4473369121551514,78,5897.0,2.223797082901001,25,9950.0
11750,0.34999606013298035,1.4375745058059692,17,5897.0,2.638979196548462,-15,9950.0
11760,0.3500288724899292,1.0979087352752686,0,5897.0,1.4330168962478638,-32,9950.0
11770,0.3500833511352539,-2.77811598777771,3,5897.0,3.665462017059326,-134,9950.0
11780,0.3501291871070862,-3.5056560039520264,-8,5897.0,6.0347208976745605,-69,9950.0
11790,0.35017871856689453,-1.049039363861084,17,5897.0,2.274202346801758,-16,9950.0
11800,0.35174819827079773,0.6694260835647583,47,5897.0,0.21539559960365295,17,9950.0
11810,0.3518650233745575,5.208800315856934,106,5897.0,0.7627924084663391,31,9950.0
11820,0.3519008457660675,3.9271161556243896,102,5897.0,-5.99229097366333,48,9950.0
11830,0.3518625497817993,4.086051940917969,23,5897.0,0.20218981802463531,100,9950.0
11840,0.35183942317962646,5.74008846282959,40,5897.0,-4.164958477020264,72,9950.0
11850,0.3516632318496704,6.316375732421875,96,5897.0,-2.550388813018799,12,9950.0
11860,0.3514673113822937,6.545686721801758,86,5897.0,-4.781153678894043,-14,9950.0
11870,0.35128211975097656,3.0049517154693604,35,5897.0,0.6730441451072693,-58,9950.0
11880,0.35111871361732483,4.246115207672119,66,5897.0,-2.6871888637542725,-84,9950.0
11890,0.35329949855804443,3.7240540981292725,77,5897.0,0.930902898311615,-78,9950.0
11900,0.35319259762763977,2.9868619441986084,96,5897.0,0.33611804246902466,-85,9950.0
11910,0.35303613543510437,2.994541645050049,15,5897.0,2.4153599739074707,18,9950.0
11920,0.35283157229423523,3.0856266021728516,34,5897.0,1.8638643026351929,56,9950.0
11930,0.3538428246974945,2.5637013912200928,49,5897.0,0.2784670293331146,87,9950.0
11940,0.3536289632320404,2.0900607109069824,36,5897.0,3.327819347381592,116,9950.0
11950,0.3534068465232849,1.9551130533218384,27,5897.0,-2.135505437850952,49,9950.0
11960,0.3531792461872101,-0.7168774604797363,-37,5897.0,-3.339303731918335,5,9950.0
11970,0.35415470600128174,-0.4117492735385895,17,5897.0,-1.6095308065414429,-41,9950.0
11980,0.35396063327789307,-1.6125167608261108,27,5897.0,1.8946419954299927,-75,9950.0
11990,0.35374122858047485,1.4613885879516602,77,5897.0,-5.0947041511535645,-106,9950.0
12000,0.35349392890930176,0.28565195202827454,37,5897.0,-5.635823726654053,-129,9950.0
12010,0.35323619842529297,0.917258083820343,-3,5897.0,-5.40783166885376,-66,9950.0
12020,0.35531294345855713,-0.44224783778190613,17,5897.0,-2.6863884925842285,-19,9950.0
12030,0.3551251292228699,1.233629584312439,-45,5897.0,-2.622375726699829,95,9950.0
12040,0.35492169857025146,-1.5443158149719238,-97,5897.0,-2.707157611846924,66,9950.0
12050,0.3546564280986786,-2.9104840755462646,-54,5897.0,0.4814978837966919,81,9950.0
12060,0.3550213873386383,-3.12530255317688,-46,5897.0,3.57617449760437,50,9950.0
12070,0.35473212599754333,-3.135186195373535,-67,5897.0,0.5446868538856506,-47,9950.0
12080,0.3544447720050812,-4.491459369659424,-40,5897.0,3.7622523307800293,-83,9950.0
12090,0.35421204566955566,-4.516897201538086,-45,5897.0,1.2448612451553345,-75,9950.0
12100,0.35392385721206665,-4.256734848022461,-37,5897.0,1.336452603340149,-35,9950.0
12110,0.3549336791038513,-0.846771776676178,-39,5897.0,-0.7759117484092712,44,9950.0
12120,0.35471299290657043,-0.8789044618606567,-11,5897.0,0.5309689044952393,122,9950.0
12130,0.3544447422027588,-1.021885871887207,28,5897.0,-0.08146191388368607,47,9950.0
12140,0.3541908860206604,1.114291787147522,-22,5897.0,-1.8152153491973877,7,9950.0
12150,0.35501158237457275,-0.17129051685333252,-20,5897.0,-1.1479461193084717,-59,9950.0
12160,0.3547254502773285,-1.316359281539917,-40,5897.0,-1.730889081954956,-75,9950.0
12170,0.35441961884498596,-1.242142915725708,-54,5897.0,-2.153604507446289,-47,9950.0
12180,0.35409843921661377,-1.166428565979004,-14,5897.0,2.483774185180664,-21,9950.0
12190,0.353763222694397,-1.0801748037338257,12,5897.0,3.6482746601104736,48,9950.0
12200,0.3535115122795105,-2.4634897708892822,-82,5897.0,0.11969851702451706,63,9950.0
12210,0.35316145420074463,-3.749997138977051,-81,5897.0,4.339893341064453,101,9950.0
12220,0.3527863025665283,-1.93026864528656,-71,5897.0,4.203098773956299,118,9950.0
12230,0.35237812995910645,-1.7901289463043213,-81,5897.0,1.1229894161224365,107,9950.0
12240,0.353787899017334,-3.4000167846679688,-61,5897.0,-0.6105493903160095,22,9950.0
12250,0.35340166091918945,-1.5508302450180054,-64,5897.0,-4.000470161437988,6,9950.0
12260,0.3530312180519104,-0.7399859428405762,-38,5897.0,-8.215285301208496,-28,9950.0
12270,0.3526647090911865,-2.8816189765930176,-15,5897.0,0.8150571584701538,-5,9950.0
12280,0.3537677228450775,-3.379577159881592,-12,5897.0,0.8446345925331116,-41,9950.0
12290,0.3534694314002991,-3.1738662719726562,-33,5897.0,1.9145457744598389,23,9950.0
12300,0.35315704345703125,-2.8077149391174316,-10,5897.0,-1.1007251739501953,-67,9950.0
12310,0.35283154249191284,-1.8900561332702637,-24,5897.0,1.5411815643310547,-46,9950.0
12320,0.35252049565315247,-0.22949901223182678,34,5897.0,3.9890027046203613,-72,9950.0
12330,0.35323265194892883,-3.3435723781585693,-29,5897.0,4.362056732177734,-43,9950.0
12340,0.35297778248786926,0.391300767660141,11,5897.0,0.732818067073822,15,9950.0
12350,0.3526762127876282,0.46220654249191284,22,5897.0,2.7079663276672363,88,9950.0
12360,0.35233503580093384,2.612835645675659,40,5897.0,-2.083935022354126,-17,9950.0
12370,0.35142266750335693,1.9511430263519287,27,5897.0,-4.837231636047363,55,9950.0
12380,0.3509632349014282,-0.9460965394973755,3,5897.0,-1.6147302389144897,55,9950.0
12390,0.35048380494117737,-0.9655789732933044,0,5897.0,-2.377535581588745,8,9950.0
12400,0.34999263286590576,-0.2876228392124176,-8,5897.0,-6.372828960418701,2,9950.0
12410,0.3508724570274353,-0.7009433507919312,-27,5897.0,-1.643062710762024,54,9950.0
12420,0.35044318437576294,-0.8382185101509094,-52,5897.0,1.178633213043213,76,9950.0
12430,0.3500002920627594,-2.081287384033203,-37,5897.0,4.126204490661621,86,9950.0
12440,0.34959152340888977,-1.6346827745437622,-62,5897.0,1.1005264520645142,85,9950.0
12450,0.3492494523525238,-2.5160696506500244,-98,5897.0,4.585951328277588,118,9950.0
12460,0.3500122129917145,-1.9597594738006592,-54,5897.0,-0.7780866622924805,82,9950.0
12470,0.34978383779525757,-0.40644827485084534,-12,5897.0,-0.37145307660102844,60,9950.0
12480,0.34952640533447266,1.0749834775924683,42,5897.0,-0.5880910754203796,42,9950.0
12490,0.3492778241634369,1.9680651426315308,63,5897.0,0.8787640333175659,2,9950.0
12500,0.3488989770412445,1.818315029144287,0,5897.0,-0.7249970436096191,-21,9950.0
12510,0.3486201763153076,2.9895246028900146,-2,5897.0,0.164429172873497,33,9950.0
12520,0.34835219383239746,3.7346034049987793,52,5897.0,-1.2262494564056396,-60,9950.0
12530,0.3480771780014038,3.4016146659851074,25,5897.0,-0.36130574345588684,-43,9950.0
12540,0.34779366850852966,3.8285694122314453,58,5897.0,-0.7834320664405823,-85,9950.0
12550,0.34921082854270935,0.9915961027145386,44,5897.0,-2.0567119121551514,-95,9950.0
12560,0.34891924262046814,-0.8115202784538269,25,5897.0,-0.41115662455558777,-80,9950.0
12570,0.34865617752075195,-1.4268455505371094,-22,5897.0,1.028357744216919,10,9950.0
12580,0.34841734170913696,-3.2849979400634766,-1,5897.0,-0.8542640209197998,-52,9950.0
12590,0.34883150458335876,-1.9463913440704346,-1,5897.0,2.159210205078125,-60,9950.0
12600,0.34864339232444763,0.15012964606285095,51,5897.0,-2.0537807941436768,-173,9950.0
12610,0.34846651554107666,-0.051335763186216354,63,5897.0,0.3331851065158844,-156,9950.0
12620,0.3483308255672455,0.7804126739501953,76,5897.0,2.2856521606445312,-114,9950.0
12630,0.34977397322654724,0.6989620327949524,93,5897.0,-0.10361603647470474,-128,9950.0
12640,0.3498229682445526,0.10376030951738358,64,5897.0,0.7601737380027771,-91,9950.0
12650,0.34989652037620544,2.0818965435028076,66,5897.0,-2.3786840438842773,-106,9950.0
12660,0.34999898076057434,0.9831216335296631,65,5897.0,0.018131008371710777,-74,9950.0
12670,0.3501552641391754,0.5814471244812012,46,5897.0,1.6809370517730713,-29,9950.0
12680,0.35150784254074097,2.3012490272521973,22,5897.0,0.7370055913925171,-18,9950.0
12690,0.3517068028450012,3.114393949508667,45,5897.0,0.7693336606025696,-13,9950.0
12700,0.3518712520599365,3.0262136459350586,57,5897.0,1.09337317943573,96,9950.0
12710,0.3519633114337921,2.9095778465270996,59,5897.0,2.2788007259368896,85,9950.0
12720,0.3523954749107361,3.6941351890563965,42,5897.0,1.271362543106079,112,9950.0
12730,0.3523825407028198,3.157045602798462,40,5897.0,0.18218959867954254,85,9950.0
12740,0.3523275554180145,1.3329048156738281,28,5897.0,0.024134211242198944,46,9950.0
12750,0.35226115584373474,1.5701234340667725,43,5897.0,-0.6597219109535217,22,9950.0
12760,0.3521668612957001,1.7513848543167114,-1,5897.0,-1.0199755430221558,6,9950.0
12770,0.35363829135894775,-0.10864737629890442,-19,5897.0,0.5839793682098389,-24,9950.0
12780,0.35352176427841187,-0.5494921207427979,7,5897.0,-0.41012510657310486,-34,9950.0
12790,0.35338497161865234,-0.39091911911964417,24,5897.0,0.03265341743826866,-83,9950.0
12800,0.35321947932243347,0.410940945148468,21,5897.0,3.1851158142089844,-64,9950.0
12810,0.3549792468547821,0.6316826343536377,-21,5897.0,2.0645060539245605,2,9950.0
12820,0.35487204790115356,-0.7531296610832214,-7,5897.0,3.7688894271850586,106,9950.0
12830,0.35475897789001465,-1.3532469272613525,-46,5897.0,3.0541465282440186,98,9950.0
12840,0.35463011264801025,1.2942380905151367,20,5897.0,1.2303663492202759,27,9950.0
12850,0.3544740378856659,1.493011713027954,17,5897.0,0.8780206441879272,32,9950.0
12860,0.35538172721862793,0.2564671039581299,-27,5897.0,4.668029308319092,92,9950.0
12870,0.35533642768859863,2.203617572784424,38,5897.0,0.5451317429542542,-25,9950.0
12880,0.3551139235496521,0.09229464083909988,52,5897.0,2.590707302093506,-25,9950.0
12890,0.3548937141895294,0.06048523634672165,15,5897.0,4.95986270904541,16,9950.0
12900,0.3542063236236572,-0.1827392727136612,28,5897.0,0.39763250946998596,-72,9950.0
12910,0.35384103655815125,-0.8515653014183044,1,5897.0,0.8284669518470764,18,9950.0
12920,0.35346072912216187,-0.1160995364189148,12,5897.0,0.3543548882007599,98,9950.0
12930,0.35306140780448914,-1.8489735126495361,-27,5897.0,0.5496330857276917,135,9950.0
12940,0.3526310920715332,-0.4327327311038971,-25,5897.0,-1.0963482856750488,37,9950.0
12950,0.3522040843963623,-0.18784120678901672,-35,5897.0,2.009505271911621,101,9950.0
12960,0.3517528474330902,0.9295932650566101,18,5897.0,3.4320428371429443,64,9950.0
12970,0.35126399993896484,0.7981065511703491,7,5897.0,2.382850170135498,62,9950.0
12980,0.3507290780544281,0.23082393407821655,-33,5897.0,4.864294052124023,21,9950.0
12990,0.3511064350605011,-2.0825400352478027,-29,5897.0,4.983096599578857,-19,9950.0
13000,0.35058677196502686,-0.37672385573387146,2,5897.0,0.773578941822052,-50,9950.0
13010,0.3500511050224304,-0.3124973177909851,17,5897.0,-1.5451010465621948,-76,9950.0
13020,0.3495086133480072,-0.6466020345687866,18,5897.0,-2.839217185974121,-92,9950.0
13030,0.3491678833961487,-2.4284842014312744,10,5897.0,-1.0350693464279175,-89,9950.0
13040,0.3486279249191284,0.11001143604516983,7,5897.0,-1.470415472984314,-66,9950.0
13050,0.34805506467819214,1.8908919095993042,64,5897.0,-3.2872602939605713,-94,9950.0
13060,0.3475193977355957,2.2726874351501465,84,5897.0,-0.006426910869777203,-55,9950.0
13070,0.34704962372779846,1.5637096166610718,36,5897.0,-1.3642276525497437,-43,9950.0
13080,0.3491152822971344,2.011349678039551,12,5897.0,-0.6509155631065369,1,9950.0
13090,0.3487814664840698,0.6723895072937012,-13,5897.0,-1.405443549156189,66,9950.0
13100,0.3484506607055664,-0.4343547821044922,-6,5897.0,-0.27690279483795166,43,9950.0
13110,0.3481352627277374,-2.206138849258423,-54,5897.0,0.6071814894676208,69,9950.0
13120,0.348599910736084,-3.683490514755249,-72,5897.0,-1.5649393796920776,13,9950.0
13130,0.3483937084674835,-4.472714424133301,-52,5897.0,-3.7255935668945312,12,9950.0
13140,0.34819671511650085,-2.817162036895752,-70,5897.0,-2.1528096199035645,44,9950.0
13150,0.34798163175582886,-2.7802135944366455,-86,5897.0,-3.4823272228240967,17,9950.0
13160,0.3489227592945099,-3.261960029602051,-92,5897.0,0.3866308033466339,23,9950.0
13170,0.34875884652137756,-0.963036060333252,-23,5897.0,-0.9519886374473572,75,9950.0
13180,0.34858909249305725,0.6778669357299805,22,5897.0,0.6142804622650146,114,9950.0
13190,0.3484073579311371,1.2444711923599243,6,5897.0,0.1691882610321045,59,9950.0
13200,0.34823641180992126,2.523803234100342,4,5897.0,-2.341561794281006,-7,9950.0
13210,0.3495238125324249,3.0983028411865234,37,5897.0,-4.537713050842285,4,9950.0
13220,0.3493313491344452,4.192176342010498,40,5897.0,-5.8599090576171875,-18,9950.0
13230,0.34915438294410706,4.5082316398620605,34,5897.0,-4.755234241485596,3,9950.0
13240,0.3489019274711609,4.955590724945068,18,5897.0,-3.801680326461792,21,9950.0
13250,0.35028591752052307,4.384339332580566,56,5897.0,-1.7354626655578613,52,9950.0
13260,0.35005244612693787,5.154539108276367,57,5897.0,-2.285311698913574,52,9950.0
13270,0.3497794270515442,3.392144203186035,29,5897.0,3.2965893745422363,136,9950.0
13280,0.3494957983493805,3.8251805305480957,43,5897.0,3.5756843090057373,135,9950.0
13290,0.3492174446582794,2.1081011295318604,6,5897.0,2.061753511428833,79,9950.0
13300,0.3505535423755646,1.4110536575317383,-23,5897.0,-0.47989293932914734,64,9950.0
13310,0.3505656123161316,-1.7989323139190674,-28,5897.0,3.436382293701172,63,9950.0
13320,0.35036391019821167,-3.1812591552734375,-64,5897.0,1.9345096349716187,-5,9950.0
13330,0.35011282563209534,-1.8961079120635986,-34,5897.0,-0.7948490381240845,-41,9950.0
13340,0.3503017723560333,-1.4609527587890625,-6,5897.0,-4.429872035980225,-114,9950.0
13350,0.350117951631546,-0.3857533037662506,11,5897.0,0.6711685657501221,-19,9950.0
13360,0.3499056398868561,1.3037724494934082,78,5897.0,0.5451739430427551,-93,9950.0
13370,0.34969255328178406,2.249819278717041,64,5897.0,3.3310859203338623,-13,9950.0
13380,0.3519321382045746,2.004204750061035,42,5897.0,0.5779736042022705,16,9950.0
13390,0.35178786516189575,1.8639003038406372,59,5897.0,-2.464813232421875,-69,9950.0
13400,0.35159996151924133,0.14096875488758087,13,5897.0,-2.2022745609283447,-45,9950.0
13410,0.35137924551963806,-0.6694462895393372,11,5897.0,2.1478450298309326,-22,9950.0
13420,0.35114651918411255,-0.05986475571990013,22,5897.0,-0.33250609040260315,-5,9950.0
13430,0.35255470871925354,-0.06620651483535767,-11,5897.0,-0.15417735278606415,20,9950.0
13440,0.3524187207221985,0.6142845749855042,-46,5897.0,0.1900794357061386,73,9950.0
13450,0.3522988259792328,1.2955855131149292,11,5897.0,-0.103653684258461,82,9950.0
13460,0.35217082500457764,1.6568363904953003,-3,5897.0,0.46873074769973755,61,9950.0
13470,0.3539452850818634,0.2985229790210724,-30,5897.0,-0.40072500705718994,97,9950.0
13480,0.35393139719963074,0.5232658982276917,-25,5897.0,-0.1283692866563797,59,9950.0
13490,0.35392266511917114,-1.6656644344329834,-6,5897.0,1.0727458000183105,-51,9950.0
13500,0.35391244292259216,-2.7823381423950195,-29,5897.0,0.7957982420921326,-57,9950.0
13510,0.35391101241111755,-2.2062947750091553,5,5897.0,-1.385741949081421,-51,9950.0
13520,0.3563134968280792,-0.8370979428291321,-13,5897.0,-3.2956740856170654,-72,9950.0
13530,0.3563356101512909,0.31160837411880493,26,5897.0,-2.0061264038085938,-124,9950.0
13540,0.35632601380348206,0.3810960352420807,27,5897.0,0.04123511537909508,41,9950.0
13550,0.3562956154346466,2.330420970916748,27,5897.0,-1.033686876296997,75,9950.0
13560,0.3576851487159729,3.061972141265869,19,5897.0,-1.789591908454895,43,9950.0
13570,0.3576875925064087,1.714274525642395,5,5897.0,-3.3590261936187744,14,9950.0
13580,0.357697457075119,1.4772056341171265,19,5897.0,0.03975357860326767,20,9950.0
13590,0.3576850891113281,-1.601974368095398,-21,5897.0,0.5090450644493103,-24,9950.0
13600,0.3588753640651703,-1.4427546262741089,-25,5897.0,-2.1965508460998535,-147,9950.0
13610,0.3589109480381012,-4.898604393005371,-56,5897.0,-2.0987021923065186,-152,9950.0
13620,0.35889101028442383,-3.6603004932403564,-73,5897.0,-4.7549519538879395,-114,9950.0
13630,0.3588106632232666,-3.09696888923645,-87,5897.0,-2.9235284328460693,-5,9950.0
13640,0.3586716651916504,-1.4825292825698853,-8,5897.0,-5.170738220214844,-25,9950.0
13650,0.35985177755355835,-0.9016019701957703,-53,5897.0,-1.7133649587631226,3,9950.0
13660,0.3596976697444916,-1.9719306230545044,-40,5897.0,-0.9710381031036377,-28,9950.0
13670,0.3595193028450012,-2.274458169937134,-4,5897.0,2.3588523864746094,-72,9950.0
13680,0.35930219292640686,-3.476820945739746,-23,5897.0,4.273921966552734,20,9950.0
13690,0.35940590500831604,-2.7859880924224854,-12,5897.0,4.124670028686523,138,9950.0
13700,0.3591324985027313,-0.8125969767570496,-26,5897.0,3.730877637863159,196,9950.0
13710,0.3588332533836365,-4.009913444519043,-82,5897.0,2.796274185180664,167,9950.0
13720,0.3585011065006256,-4.382661819458008,-86,5897.0,4.663382053375244,81,9950.0
13730,0.35845494270324707,-3.7114439010620117,-11,5897.0,3.054504156112671,-4,9950.0
13740,0.35807502269744873,-4.099029064178467,-51,5897.0,-0.5339798331260681,-108,9950.0
13750,0.35765498876571655,-2.619407892227173,-10,5897.0,-4.2484846115112305,-145,9950.0
13760,0.35718175768852234,-1.7872523069381714,-14,5897.0,-2.8075342178344727,-53,9950.0
13770,0.35660281777381897,-1.4990018606185913,-19,5897.0,-1.8208023309707642,28,9950.0
13780,0.35715043544769287,-2.048678398132324,-17,5897.0,-0.8973466157913208,41,9950.0
13790,0.35655826330184937,-0.9302964210510254,-43,5897.0,-1.0973515510559082,36,9950.0
13800,0.35592272877693176,-0.957961916923523,-49,5897.0,0.5248191356658936,48,9950.0
13810,0.3552629351615906,-1.589023232460022,-51,5897.0,1.8841549158096313,70,9950.0
13820,0.35398390889167786,-2.7414979934692383,-59,5897.0,1.9138281345367432,6,9950.0
13830,0.35326600074768066,-2.6664838790893555,-35,5897.0,3.563612699508667,-20,9950.0
13840,0.35254132747650146,-2.7200469970703125,-35,5897.0,2.337294578552246,-47,9950.0
13850,0.35182154178619385,-3.969475507736206,-33,5897.0,5.3036909103393555,-14,9950.0
13860,0.35105398297309875,-3.4679627418518066,-23,5897.0,-0.17479409277439117,-65,9950.0
13870,0.3513427674770355,-3.835904598236084,-20,5897.0,1.5416377782821655,-63,9950.0
13880,0.3505192995071411,-3.519667625427246,-40,5897.0,-4.018151760101318,-202,9950.0
13890,0.3497978746891022,-2.6096646785736084,-25,5897.0,-3.3517212867736816,-137,9950.0
13900,0.34909293055534363,-3.3529417514801025,-16,5897.0,-2.75631046295166,-104,9950.0
13910,0.34825295209884644,-2.771890878677368,14,5897.0,-0.7432271838188171,-103,9950.0
13920,0.34757184982299805,-1.9577374458312988,-15,5897.0,1.057000994682312,-110,9950.0
13930,0.34690773487091064,-2.886815071105957,29,5897.0,2.773545265197754,-49,9950.0
13940,0.3462730646133423,-3.011122703552246,-7,5897.0,1.661426305770874,0,9950.0
13950,0.3461528718471527,-2.9271090030670166,-20,5897.0,3.3368053436279297,3,9950.0
13960,0.3455776274204254,-1.8544343709945679,-12,5897.0,0.12784256041049957,24,9950.0
13970,0.3450162708759308,-1.7379741668701172,45,5897.0,3.3086330890655518,-2,9950.0
13980,0.3444727659225464,-1.2260841131210327,60,5897.0,5.144872188568115,-60,9950.0
13990,0.3440103828907013,-2.95090389251709,12,5897.0,2.994509696960449,-107,9950.0
14000,0.34455427527427673,-1.1433981657028198,28,5897.0,3.306077718734741,-49,9950.0
14010,0.3441855013370514,0.022260313853621483,68,5897.0,0.15798842906951904,-44,9950.0
14020,0.34374552965164185,1.7631175518035889,58,5897.0,-5.015406131744385,-15,9950.0
14030,0.34323304891586304,2.251962423324585,36,5897.0,-0.3902108371257782,23,9950.0
14040,0.34285372495651245,3.3184149265289307,53,5897.0,0.9447769522666931,-21,9950.0
14050,0.3424281179904938,2.982468843460083,8,5897.0,1.0468899011611938,137,9950.0
14060,0.34202614426612854,2.401801586151123,-43,5897.0,0.5457733869552612,107,9950.0
14070,0.3416881859302521,4.033705711364746,-21,5897.0,-1.8659594058990479,38,9950.0
14080,0.3414061367511749,2.112969398498535,-17,5897.0,0.6907510757446289,126,9950.0
14090,0.34396329522132874,2.317882776260376,-26,5897.0,0.8252192735671997,128,9950.0
14100,0.3440595865249634,2.1638543605804443,9,5897.0,1.2718089818954468,100,9950.0
14110,0.3442029654979706,2.8250653743743896,17,5897.0,2.0803685188293457,11,9950.0
14120,0.34445592761039734,4.919008255004883,103,5897.0,4.140583038330078,134,9950.0
14130,0.3456479609012604,4.407059192657471,62,5897.0,3.306507110595703,81,9950.0
14140,0.34603720903396606,6.008103370666504,37,5897.0,-0.12297279387712479,-12,9950.0
14150,0.34645068645477295,5.043770790100098,32,5897.0,8.555139541625977,161,9950.0
14160,0.3468683958053589,4.097615718841553,39,5897.0,4.602938652038574,188,9950.0
14170,0.3491019308567047,6.228711128234863,71,5897.0,-1.1228885650634766,150,9950.0
14180,0.34970879554748535,6.83522367477417,57,5897.0,-1.157221794128418,121,9950.0
14190,0.3503023684024811,5.222412586212158,53,5897.0,-1.617979884147644,55,9950.0
14200,0.35086214542388916,4.807959079742432,94,5897.0,-0.8391664624214172,17,9950.0
14210,0.3514019548892975,6.519453048706055,65,5897.0,1.5883852243423462,29,9950.0
14220,0.3531584143638611,7.628697872161865,76,5897.0,1.4696671962738037,34,9950.0
14230,0.353758841753006,9.44295597076416,99,5897.0,0.5444282293319702,14,9950.0
14240,0.35436320304870605,9.89704418182373,147,5897.0,-2.1561403274536133,-66,9950.0
