timestamp,kalman.stateZ,gyro.x,gyro.xRaw,gyro.xVariance,gyro.y,gyro.yRaw,gyro.yVariance
0,0.27898770570755005,-0.2812114655971527,3,5897.0,-0.630318284034729,-5,9950.0
10,0.27898475527763367,-0.5214169025421143,-6,5897.0,-0.1690649539232254,-5,9950.0
20,0.2789933979511261,-0.9614901542663574,-12,5897.0,-0.20475062727928162,3,9950.0
30,0.27899420261383057,-0.5683921575546265,-7,5897.0,-0.2814275622367859,5,9950.0
40,0.2777201533317566,0.2630251944065094,4,5897.0,0.01946417987346649,2,9950.0
50,0.2777756154537201,0.8441516160964966,10,5897.0,-0.1223164051771164,6,9950.0
60,0.2777346074581146,1.1566581726074219,17,5897.0,0.5971419215202332,17,9950.0
70,0.2777227461338043,0.4135275185108185,7,5897.0,0.6483379006385803,12,9950.0
80,0.2777436673641205,0.6060234308242798,12,5897.0,0.8725199103355408,17,9950.0
90,0.2776942849159241,0.4135793149471283,10,5897.0,0.9354130029678345,22,9950.0
100,0.2776282727718353,-0.258776992559433,0,5897.0,1.2707116603851318,23,9950.0
110,0.2775730788707733,-0.19623495638370514,0,5897.0,1.1907680034637451,22,9950.0
120,0.277596116065979,-0.5994683504104614,-1,5897.0,1.4889936447143555,28,9950.0
130,0.2787627875804901,-0.886343777179718,-20,5897.0,1.4572492837905884,24,9950.0
140,0.2787822186946869,-0.6968419551849365,-14,5897.0,1.5728957653045654,27,9950.0
150,0.2787962853908539,-0.3904076814651489,-3,5897.0,1.9229645729064941,35,9950.0
160,0.2788037955760956,0.2890368402004242,3,5897.0,1.5390493869781494,29,9950.0
170,0.27966129779815674,0.3875645399093628,3,5897.0,2.0710909366607666,43,9950.0
180,0.2798713743686676,0.2849578559398651,9,5897.0,0.9629215002059937,14,9950.0
190,0.2799428403377533,1.5572031736373901,42,5897.0,-1.0648120641708374,-28,9950.0
200,0.28022825717926025,3.7588717937469482,64,5897.0,-2.66442608833313,-65,9950.0
210,0.28012529015541077,3.7493700981140137,67,5897.0,-8.406084060668945,-148,9950.0
220,0.2802515923976898,4.891197681427002,76,5897.0,-16.359506607055664,-284,9950.0
230,0.280397891998291,2.975668430328369,87,5897.0,-23.41230583190918,-454,9950.0
240,0.2805672287940979,2.2209808826446533,5,5897.0,-33.323829650878906,-564,9950.0
250,0.2806118130683899,5.569038391113281,13,5897.0,-44.470333099365234,-691,9950.0
260,0.28063735365867615,5.205569744110107,35,5897.0,-52.03959274291992,-823,9950.0
270,0.2807251214981079,4.883972644805908,28,5897.0,-56.36178970336914,-884,9950.0
280,0.2805747389793396,3.8118762969970703,57,5897.0,-57.325889587402344,-930,9950.0
290,0.2804335951805115,2.747368574142456,75,5897.0,-52.57263946533203,-909,9950.0
300,0.2806897759437561,0.6463439464569092,10,5897.0,-49.414154052734375,-710,9950.0
310,0.28104832768440247,1.9767038822174072,37,5897.0,-34.526676177978516,-590,9950.0
320,0.28129708766937256,3.426830768585205,55,5897.0,-21.442184448242188,-244,9950.0
330,0.2813633382320404,1.6245437860488892,18,5897.0,-9.359315872192383,-50,9950.0
340,0.281891405582428,-0.8211961388587952,-52,5897.0,4.834537982940674,98,9950.0
350,0.28126832842826843,-1.3110400438308716,-66,5897.0,17.37093734741211,310,9950.0
360,0.2816440761089325,-1.4285595417022705,-33,5897.0,25.72352409362793,490,9950.0
370,0.28199833631515503,-1.1880245208740234,34,5897.0,30.122333526611328,543,9950.0
380,0.28197669982910156,0.032868850976228714,27,5897.0,32.39012145996094,476,9950.0
390,0.28168633580207825,1.2348878383636475,55,5897.0,31.854780197143555,336,9950.0
400,0.28179606795310974,3.4151315689086914,27,5897.0,25.991243362426758,455,9950.0
410,0.28187376260757446,2.1522741317749023,-10,5897.0,20.192338943481445,322,9950.0
420,0.2818657457828522,2.952833890914917,-5,5897.0,12.675783157348633,326,9950.0
430,0.28162458539009094,2.4077606201171875,-1,5897.0,6.618707656860352,103,9950.0
440,0.2817923128604889,1.3881995677947998,20,5897.0,-1.258473515510559,64,9950.0
450,0.2818800210952759,2.677234649658203,96,5897.0,-3.6564929485321045,-127,9950.0
460,0.28195443749427795,2.847208261489868,58,5897.0,-6.577016353607178,-89,9950.0
470,0.2820008397102356,2.938239336013794,98,5897.0,-5.2893242835998535,-104,9950.0
480,0.2821293771266937,3.2828691005706787,39,5897.0,-4.476789474487305,-106,9950.0
490,0.2822171747684479,0.4184488356113434,6,5897.0,-3.642432689666748,62,9950.0
500,0.28241166472435,0.5386751294136047,-16,5897.0,-1.1073650121688843,-4,9950.0
510,0.28247982263565063,-2.5465641021728516,-108,5897.0,-0.06047315150499344,173,9950.0
520,0.2821981608867645,-2.6092681884765625,-102,5897.0,3.059156894683838,180,9950.0
530,0.2821572721004486,-3.5322117805480957,-125,5897.0,6.257701873779297,293,9950.0
540,0.2823229730129242,-3.1425020694732666,-124,5897.0,11.68564510345459,382,9950.0
550,0.28232961893081665,-3.646101474761963,-99,5897.0,16.32910919189453,234,9950.0
560,0.28252720832824707,0.913011372089386,-25,5897.0,19.796682357788086,217,9950.0
570,0.28432783484458923,-0.5398271083831787,4,5897.0,16.721311569213867,129,9950.0
580,0.2847846448421478,4.923908710479736,85,5897.0,19.008365631103516,87,9950.0
590,0.2850593626499176,4.475631237030029,153,5897.0,15.130534172058105,336,9950.0
600,0.2855222225189209,6.681648254394531,181,5897.0,12.778962135314941,382,9950.0
610,0.28707849979400635,6.482221603393555,19,5897.0,15.56078052520752,234,9950.0
620,0.28760218620300293,6.730226516723633,18,5897.0,12.34381103515625,272,9950.0
630,0.28808310627937317,3.9350216388702393,20,5897.0,11.562882423400879,255,9950.0
640,0.2885286808013916,0.9494968056678772,42,5897.0,6.822814464569092,-50,9950.0
650,0.28901207447052,-1.4993650913238525,11,5897.0,1.6777492761611938,-139,9950.0
660,0.28942787647247314,-0.5301293134689331,41,5897.0,-5.171898365020752,-141,9950.0
670,0.28979310393333435,-1.5097798109054565,54,5897.0,-10.16171932220459,-160,9950.0
680,0.29007670283317566,-1.2752158641815186,19,5897.0,-10.644311904907227,-191,9950.0
690,0.29044321179389954,-0.20043116807937622,-80,5897.0,-12.487255096435547,-183,9950.0
700,0.2902892231941223,1.198050618171692,-80,5897.0,-14.914347648620605,-233,9950.0
710,0.290530800819397,0.271014928817749,11,5897.0,-12.900407791137695,-284,9950.0
720,0.2912105321884155,-0.5629748106002808,112,5897.0,-10.23137378692627,-309,9950.0
730,0.2915612459182739,1.2946438789367676,45,5897.0,-9.299809455871582,-103,9950.0
740,0.2912379205226898,1.5860240459442139,-1,5897.0,-7.722506999969482,20,9950.0
750,0.2915821373462677,0.8085412979125977,-54,5897.0,-3.3308303356170654,-53,9950.0
760,0.29183071851730347,-0.12088260054588318,13,5897.0,0.16807882487773895,-12,9950.0
770,0.29231858253479004,-0.2594190835952759,84,5897.0,0.8239226937294006,-17,9950.0
780,0.29303252696990967,0.4259716868400574,-42,5897.0,1.6986513137817383,25,9950.0
790,0.291233628988266,-0.03764759376645088,-86,5897.0,1.5403019189834595,94,9950.0
800,0.2914198935031891,0.2593710720539093,-11,5897.0,-1.3644769191741943,3,9950.0
810,0.29154229164123535,-1.7216554880142212,19,5897.0,-2.635800361633301,-164,9950.0
820,0.2916682958602905,-1.0754848718643188,3,5897.0,-4.3591718673706055,-108,9950.0
830,0.28970056772232056,-1.708657145500183,-61,5897.0,-6.171957492828369,32,9950.0
840,0.28989124298095703,-3.490610122680664,-130,5897.0,-6.623861312866211,-92,9950.0
850,0.28994110226631165,-3.2458202838897705,-59,5897.0,-7.817864894866943,-336,9950.0
860,0.2900542914867401,-0.5112667679786682,-17,5897.0,-11.684637069702148,-269,9950.0
870,0.2896195352077484,-1.8562411069869995,37,5897.0,-14.957682609558105,-117,9950.0
880,0.289580762386322,1.0134921073913574,-7,5897.0,-14.91296100616455,-190,9950.0
890,0.28986310958862305,2.0846285820007324,-15,5897.0,-14.316428184509277,-324,9950.0
900,0.28993695974349976,1.8601146936416626,63,5897.0,-13.774906158447266,-266,9950.0
910,0.2899959981441498,2.9550299644470215,99,5897.0,-14.224853515625,-214,9950.0
920,0.28884074091911316,0.34495994448661804,-65,5897.0,-9.684805870056152,-95,9950.0
930,0.28919053077697754,1.1085578203201294,-52,5897.0,-9.990768432617188,-63,9950.0
940,0.2893982529640198,-2.1603596210479736,30,5897.0,-6.9514312744140625,-183,9950.0
950,0.2897036373615265,-1.6783267259597778,46,5897.0,-4.800357818603516,-81,9950.0
960,0.2876020669937134,-1.385847568511963,-58,5897.0,1.2028487920761108,97,9950.0
970,0.2876429855823517,-0.5225210785865784,-97,5897.0,1.683870553970337,136,9950.0
980,0.2875317335128784,-2.362445116043091,-10,5897.0,1.926706075668335,1,9950.0
990,0.28737279772758484,-2.179211139678955,31,5897.0,1.4530664682388306,-31,9950.0
1000,0.28637319803237915,-0.918049156665802,-29,5897.0,-2.1476728916168213,45,9950.0
1010,0.28622063994407654,-0.5389401316642761,-35,5897.0,-3.761486053466797,31,9950.0
1020,0.28605133295059204,-0.15322746336460114,84,5897.0,-1.7017019987106323,-177,9950.0
1030,0.28581783175468445,1.9400607347488403,54,5897.0,-1.4322993755340576,-114,9950.0
1040,0.2855513393878937,-0.119299978017807,-43,5897.0,-3.0691230297088623,124,9950.0
1050,0.28510916233062744,-0.38358044624328613,-34,5897.0,-3.477738380432129,5,9950.0
1060,0.2849906086921692,-0.8159575462341309,2,5897.0,-3.712613344192505,-179,9950.0
1070,0.2850453853607178,-1.3381333351135254,-48,5897.0,-2.3591017723083496,34,9950.0
1080,0.2852253019809723,-1.5575306415557861,-90,5897.0,-2.952965497970581,75,9950.0
1090,0.2856746017932892,-0.1357119381427765,21,5897.0,2.052278757095337,-1,9950.0
1100,0.28596097230911255,0.2912036180496216,56,5897.0,4.222407817840576,43,9950.0
1110,0.28621143102645874,2.0056569576263428,-22,5897.0,5.0301289558410645,40,9950.0
1120,0.28638678789138794,2.544933319091797,91,5897.0,7.519954681396484,58,9950.0
1130,0.2865220010280609,1.692689299583435,8,5897.0,8.75074577331543,299,9950.0
1140,0.286408007144928,2.027923107147217,33,5897.0,10.649853706359863,272,9950.0
1150,0.28650912642478943,0.32391926646232605,45,5897.0,10.719976425170898,213,9950.0
1160,0.2865716218948364,0.115140400826931,-44,5897.0,9.103520393371582,214,9950.0
1170,0.2867237627506256,-2.1678199768066406,-16,5897.0,7.808513164520264,63,9950.0
1180,0.2861170172691345,-0.33257967233657837,7,5897.0,5.376463890075684,70,9950.0
1190,0.2861277461051941,-0.6713838577270508,-52,5897.0,3.247398853302002,-85,9950.0
1200,0.2860696613788605,2.379451274871826,34,5897.0,0.5431118011474609,67,9950.0
1210,0.28597524762153625,0.39686086773872375,-11,5897.0,-0.9822394251823425,173,9950.0
1220,0.28588536381721497,0.3115193545818329,4,5897.0,-0.3596113920211792,79,9950.0
1230,0.2857971489429474,-0.6471397280693054,-8,5897.0,-0.2354412078857422,169,9950.0
1240,0.28594970703125,0.13533644378185272,-29,5897.0,2.4659318923950195,170,9950.0
1250,0.28595003485679626,0.7482761740684509,-79,5897.0,5.329349040985107,167,9950.0
1260,0.286012202501297,-0.9379940032958984,-14,5897.0,8.508151054382324,236,9950.0
1270,0.2881282866001129,-1.7601971626281738,-100,5897.0,9.894431114196777,184,9950.0
1280,0.28835737705230713,-2.686811685562134,-81,5897.0,9.609469413757324,295,9950.0
1290,0.2888067364692688,-2.420454740524292,-56,5897.0,10.29893970489502,246,9950.0
1300,0.2890777587890625,-1.8191505670547485,-99,5897.0,11.90670108795166,252,9950.0
1310,0.290883332490921,-0.1936807781457901,2,5897.0,14.229851722717285,257,9950.0
1320,0.291439414024353,1.4391120672225952,91,5897.0,15.461899757385254,114,9950.0
1330,0.2919929325580597,-0.14647364616394043,23,5897.0,14.326940536499023,89,9950.0
1340,0.2927503287792206,0.5627714991569519,101,5897.0,10.021860122680664,291,9950.0
1350,0.29368704557418823,-0.6522982120513916,167,5897.0,12.641823768615723,227,9950.0
1360,0.29538586735725403,3.1195132732391357,-2,5897.0,10.913182258605957,232,9950.0
1370,0.2961421012878418,4.166924953460693,-9,5897.0,9.679792404174805,309,9950.0
1380,0.2970532774925232,4.056013584136963,99,5897.0,8.879074096679688,227,9950.0
1390,0.29787933826446533,7.082295894622803,119,5897.0,7.735823154449463,-39,9950.0
1400,0.29920512437820435,6.505465507507324,129,5897.0,9.37187385559082,-60,9950.0
1410,0.30013954639434814,6.204957485198975,160,5897.0,8.828566551208496,183,9950.0
1420,0.3011457026004791,5.34768533706665,236,5897.0,5.382023811340332,169,9950.0
1430,0.30210334062576294,5.770837783813477,-15,5897.0,7.663111209869385,164,9950.0
1440,0.30293652415275574,3.714351177215576,-4,5897.0,5.806609630584717,126,9950.0
1450,0.3038425147533417,2.076186418533325,1,5897.0,6.50739049911499,300,9950.0
1460,0.30483996868133545,-3.1775031089782715,-33,5897.0,9.43659782409668,123,9950.0
1470,0.3056204319000244,-1.4716615676879883,-34,5897.0,8.257345199584961,-56,9950.0
1480,0.3063620924949646,-4.205196857452393,-7,5897.0,13.713361740112305,10,9950.0
1490,0.3062313199043274,-2.9153482913970947,20,5897.0,11.142292022705078,184,9950.0
1500,0.3069024384021759,-1.0653973817825317,53,5897.0,8.456229209899902,139,9950.0
1510,0.3075200915336609,-1.4011850357055664,-16,5897.0,7.150937080383301,197,9950.0
1520,0.3081543743610382,4.619412899017334,-4,5897.0,4.169953346252441,132,9950.0
1530,0.3087266981601715,3.7724714279174805,-4,5897.0,4.133878707885742,175,9950.0
1540,0.3092557191848755,6.196382999420166,68,5897.0,2.9402015209198,33,9950.0
1550,0.30967870354652405,4.8628764152526855,94,5897.0,2.3672311305999756,-83,9950.0
1560,0.3100990951061249,4.330236434936523,66,5897.0,0.8429878950119019,-92,9950.0
1570,0.3104872703552246,3.480876922607422,120,5897.0,-2.153228282928467,-108,9950.0
1580,0.3105669617652893,1.9083912372589111,163,5897.0,-4.06008243560791,-213,9950.0
1590,0.3108530342578888,0.12816697359085083,45,5897.0,-3.9693405628204346,-185,9950.0
1600,0.31108734011650085,-0.33959561586380005,-17,5897.0,-4.62045431137085,-98,9950.0
1610,0.3112092614173889,-0.6852747201919556,63,5897.0,-7.217201232910156,-43,9950.0
1620,0.31150731444358826,-3.0303494930267334,-39,5897.0,-8.355191230773926,-96,9950.0
1630,0.31147903203964233,2.1213150024414062,-81,5897.0,-6.636348724365234,-56,9950.0
1640,0.31131502985954285,-0.5936122536659241,-63,5897.0,-8.361456871032715,48,9950.0
1650,0.3110750615596771,-1.1457451581954956,-5,5897.0,-6.170299053192139,39,9950.0
1660,0.3123270571231842,1.5775686502456665,-53,5897.0,-6.892105579376221,-67,9950.0
1670,0.31197842955589294,3.5349690914154053,-31,5897.0,-4.287629127502441,-8,9950.0
1680,0.3116919994354248,3.2719738483428955,35,5897.0,-3.875760555267334,20,9950.0
1690,0.3113994300365448,3.481450080871582,110,5897.0,-4.891351699829102,-156,9950.0
1700,0.31110522150993347,3.925023317337036,109,5897.0,-5.020014762878418,-172,9950.0
1710,0.31159135699272156,3.3351216316223145,59,5897.0,-4.068930149078369,-203,9950.0
1720,0.31146565079689026,1.5921472311019897,69,5897.0,-9.347161293029785,-211,9950.0
1730,0.311183363199234,-1.3763601779937744,122,5897.0,-10.955038070678711,-229,9950.0
1740,0.3108290135860443,-2.2596065998077393,23,5897.0,-8.793712615966797,-279,9950.0
1750,0.3107610046863556,-0.24682965874671936,-60,5897.0,-11.41073226928711,-184,9950.0
1760,0.31032007932662964,-0.6222311854362488,18,5897.0,-11.277789115905762,-81,9950.0
1770,0.3098824620246887,-1.7109118700027466,-9,5897.0,-10.578788757324219,-123,9950.0
1780,0.30945026874542236,0.38463810086250305,-114,5897.0,-11.173759460449219,-112,9950.0
1790,0.30879470705986023,-2.167203187942505,-153,5897.0,-12.50818157196045,-59,9950.0
1800,0.30694064497947693,-4.6561598777771,-157,5897.0,-11.330511093139648,-113,9950.0
1810,0.3062666654586792,-5.191396713256836,-34,5897.0,-16.184389114379883,-244,9950.0
1820,0.3055552840232849,-5.437532901763916,-34,5897.0,-14.074563980102539,-420,9950.0
1830,0.30484944581985474,-6.90009880065918,-110,5897.0,-15.460784912109375,-312,9950.0
1840,0.30378982424736023,-4.482895851135254,-53,5897.0,-11.862170219421387,-241,9950.0
1850,0.30326047539711,-5.037187576293945,43,5897.0,-14.466154098510742,-344,9950.0
1860,0.30275946855545044,-4.866759300231934,-28,5897.0,-12.973613739013672,-209,9950.0
1870,0.3023417294025421,-0.7354686260223389,-64,5897.0,-11.063615798950195,-107,9950.0
1880,0.30202770233154297,-0.05214737355709076,-112,5897.0,-10.116229057312012,-73,9950.0
1890,0.3024388253688812,-1.2394033670425415,-44,5897.0,-6.101222038269043,-46,9950.0
1900,0.30216819047927856,-0.21022826433181763,37,5897.0,-5.117043972015381,-189,9950.0
1910,0.30204513669013977,0.5634593963623047,109,5897.0,-1.4336222410202026,-57,9950.0
1920,0.30196064710617065,-0.8796130418777466,98,5897.0,0.21169179677963257,-35,9950.0
1930,0.3010510802268982,1.5608314275741577,-65,5897.0,1.8035452365875244,6,9950.0
1940,0.3008282482624054,-0.2578495144844055,-97,5897.0,3.852104902267456,139,9950.0
1950,0.3006390929222107,-0.1887197494506836,-48,5897.0,2.983935832977295,-22,9950.0
1960,0.30049973726272583,0.5594608187675476,35,5897.0,1.6007983684539795,-35,9950.0
1970,0.30055999755859375,-0.30020666122436523,133,5897.0,-0.693406343460083,26,9950.0
1980,0.3003007471561432,0.5852999687194824,10,5897.0,-0.8673155307769775,11,9950.0
1990,0.3000660836696625,-2.189929723739624,-25,5897.0,-1.3431977033615112,44,9950.0
2000,0.29991650581359863,-0.12249848246574402,-43,5897.0,1.2700706720352173,-119,9950.0
2010,0.29981356859207153,-1.745893120765686,8,5897.0,1.3630696535110474,-35,9950.0
2020,0.3013443052768707,-0.8264027237892151,28,5897.0,5.061838626861572,117,9950.0
2030,0.30125126242637634,-1.230269193649292,-68,5897.0,5.453426837921143,200,9950.0
2040,0.30115413665771484,-0.7989529371261597,-53,5897.0,7.6890459060668945,350,9950.0
2050,0.3012857139110565,-1.8934166431427002,-12,5897.0,12.569890022277832,152,9950.0
2060,0.3027650713920593,0.34106236696243286,72,5897.0,13.57764720916748,131,9950.0
2070,0.3027741611003876,1.3057304620742798,92,5897.0,15.388132095336914,198,9950.0
2080,0.3028002977371216,2.188427209854126,-20,5897.0,13.744101524353027,286,9950.0
2090,0.3028092682361603,2.960641622543335,-71,5897.0,13.791354179382324,328,9950.0
2100,0.3068760931491852,0.17016921937465668,-11,5897.0,14.050313949584961,92,9950.0
2110,0.3071933388710022,0.3589979410171509,57,5897.0,7.541008949279785,196,9950.0
2120,0.3074966371059418,1.65567946434021,41,5897.0,7.886364459991455,265,9950.0
2130,0.3076463043689728,1.993910551071167,12,5897.0,7.1669111251831055,142,9950.0
2140,0.3077594041824341,0.5663204789161682,-4,5897.0,4.144665718078613,10,9950.0
2150,0.3090142607688904,-2.1764705181121826,0,5897.0,5.4171671867370605,-51,9950.0
2160,0.3091188371181488,-4.346142292022705,-102,5897.0,5.636575222015381,43,9950.0
2170,0.3095584511756897,-2.181929111480713,-110,5897.0,4.974638938903809,199,9950.0
2180,0.30991223454475403,-2.3181283473968506,-77,5897.0,11.891098022460938,206,9950.0
2190,0.3104570209980011,-0.9888042211532593,11,5897.0,12.163491249084473,210,9950.0
2200,0.31059789657592773,-0.9224632382392883,123,5897.0,16.70604133605957,216,9950.0
2210,0.3108147382736206,0.23747670650482178,91,5897.0,17.468366622924805,267,9950.0
2220,0.31098437309265137,1.6514469385147095,-6,5897.0,14.31795883178711,221,9950.0
2230,0.31123852729797363,1.4886997938156128,-48,5897.0,13.110127449035645,169,9950.0
2240,0.3123552203178406,3.5772624015808105,57,5897.0,9.9940824508667,20,9950.0
2250,0.31244656443595886,5.94594669342041,135,5897.0,7.15895414352417,160,9950.0
2260,0.31256312131881714,4.7739577293396,218,5897.0,5.021627426147461,170,9950.0
2270,0.31266096234321594,6.143348217010498,57,5897.0,3.3503615856170654,56,9950.0
2280,0.31479939818382263,5.158409595489502,41,5897.0,1.3655956983566284,32,9950.0
2290,0.31486812233924866,5.428938865661621,53,5897.0,1.5166610479354858,-83,9950.0
2300,0.31489309668540955,2.8459582328796387,69,5897.0,0.17524564266204834,-108,9950.0
2310,0.31494858860969543,5.2053704261779785,148,5897.0,1.1788502931594849,69,9950.0
2320,0.3161953389644623,3.045837879180908,93,5897.0,0.2813311517238617,70,9950.0
2330,0.316145122051239,3.0290160179138184,22,5897.0,-0.7360245585441589,111,9950.0
2340,0.31599104404449463,2.904905319213867,13,5897.0,-1.0027872323989868,85,9950.0
2350,0.31583404541015625,1.93610417842865,-6,5897.0,-1.7128804922103882,-97,9950.0
2360,0.3157092034816742,0.5869377255439758,-14,5897.0,0.0682290643453598,-136,9950.0
2370,0.31554892659187317,1.6692661046981812,62,5897.0,-0.09157744795084,-34,9950.0
2380,0.31517523527145386,-0.11421725153923035,106,5897.0,-3.630101442337036,-49,9950.0
2390,0.3148922622203827,-2.185037851333618,1,5897.0,-4.740412712097168,-31,9950.0
2400,0.3145134449005127,1.0846415758132935,-96,5897.0,-8.601508140563965,-117,9950.0
2410,0.31599950790405273,-0.08242127299308777,-75,5897.0,-10.409173965454102,-104,9950.0
2420,0.31549665331840515,-0.6140508651733398,-17,5897.0,-7.356495380401611,-235,9950.0
2430,0.3150123655796051,0.42835134267807007,50,5897.0,-11.151750564575195,-109,9950.0
2440,0.31466957926750183,2.123880624771118,110,5897.0,-10.569847106933594,-247,9950.0
2450,0.31421273946762085,-1.716812252998352,19,5897.0,-7.125776290893555,-146,9950.0
2460,0.3139733672142029,-2.570249557495117,-24,5897.0,-7.17429256439209,-45,9950.0
2470,0.3135377764701843,-1.7798681259155273,-94,5897.0,-4.705530643463135,-50,9950.0
2480,0.31306740641593933,-2.0869369506835938,-95,5897.0,-6.583164691925049,-36,9950.0
2490,0.31263795495033264,-3.631074905395508,-55,5897.0,-7.537499904632568,-42,9950.0
2500,0.3119695782661438,-1.5038671493530273,-62,5897.0,-6.718442916870117,-146,9950.0
2510,0.31166359782218933,-2.668064594268799,40,5897.0,-8.577312469482422,-315,9950.0
2520,0.3114611506462097,-2.5257318019866943,53,5897.0,-10.023177146911621,-290,9950.0
2530,0.3111213445663452,-1.5829824209213257,-58,5897.0,-12.147927284240723,-80,9950.0
2540,0.31005915999412537,1.3980298042297363,-42,5897.0,-11.8817720413208,-87,9950.0
2550,0.30982011556625366,-0.29063814878463745,-102,5897.0,-8.691340446472168,-22,9950.0
2560,0.30954405665397644,-4.20754337310791,-62,5897.0,-6.033143997192383,-101,9950.0
2570,0.3092811107635498,-5.52477502822876,-4,5897.0,-5.343479156494141,-207,9950.0
2580,0.30903366208076477,-5.97830057144165,20,5897.0,-6.237780570983887,-104,9950.0
2590,0.3079390823841095,-3.5988333225250244,-106,5897.0,-5.004661560058594,-123,9950.0
2600,0.30766987800598145,-4.164397716522217,-126,5897.0,-5.507082939147949,-19,9950.0
2610,0.30734768509864807,-2.7352852821350098,-75,5897.0,-5.713764190673828,-216,9950.0
2620,0.30698785185813904,-2.7525289058685303,-35,5897.0,-6.1555399894714355,-126,9950.0
2630,0.30617520213127136,-2.042804479598999,-11,5897.0,-7.704982280731201,-54,9950.0
2640,0.30576932430267334,0.054151907563209534,-43,5897.0,-1.7868092060089111,136,9950.0
2650,0.3055553436279297,1.4575227499008179,-17,5897.0,3.06270432472229,55,9950.0
2660,0.3052997887134552,0.20130228996276855,74,5897.0,4.742953300476074,-36,9950.0
2670,0.3050055205821991,0.8669663071632385,132,5897.0,3.956547498703003,47,9950.0
2680,0.3051176965236664,0.7971339225769043,0,5897.0,1.9683300256729126,96,9950.0
2690,0.3049248158931732,0.11819709837436676,-67,5897.0,-0.15532417595386505,65,9950.0
2700,0.3048236668109894,0.13479305803775787,20,5897.0,-0.4490712583065033,-155,9950.0
2710,0.3048791289329529,1.1457267999649048,69,5897.0,-0.04946237802505493,-40,9950.0
2720,0.30541378259658813,1.6564265489578247,-40,5897.0,-0.6715006232261658,20,9950.0
2730,0.3055380880832672,1.7602870464324951,-62,5897.0,1.6935126781463623,123,9950.0
2740,0.3057519197463989,0.34410473704338074,12,5897.0,2.8133304119110107,-39,9950.0
2750,0.30600816011428833,1.1490176916122437,58,5897.0,4.964817523956299,17,9950.0
2760,0.3086095452308655,1.5299746990203857,3,5897.0,5.4389472007751465,94,9950.0
2770,0.3091842532157898,1.4733575582504272,-4,5897.0,8.824224472045898,208,9950.0
2780,0.3097953498363495,1.0919686555862427,13,5897.0,11.675026893615723,159,9950.0
2790,0.3104669153690338,1.9104108810424805,71,5897.0,9.998872756958008,185,9950.0
2800,0.31102409958839417,0.5638955235481262,50,5897.0,9.670415878295898,301,9950.0
2810,0.31154975295066833,0.41684690117836,-50,5897.0,8.458802223205566,217,9950.0
2820,0.31212788820266724,-1.134740948677063,-29,5897.0,7.228566646575928,90,9950.0
2830,0.3128083050251007,-2.3672332763671875,40,5897.0,8.019481658935547,-82,9950.0
2840,0.3134113550186157,-2.555938482284546,11,5897.0,6.172004222869873,101,9950.0
2850,0.3149648904800415,-0.3375341594219208,-70,5897.0,6.8739495277404785,194,9950.0
2860,0.31544262170791626,0.280696302652359,-91,5897.0,5.838985443115234,139,9950.0
2870,0.31592273712158203,-0.2854846119880676,-41,5897.0,8.453475952148438,145,9950.0
2880,0.31643763184547424,1.0649648904800415,107,5897.0,10.432657241821289,120,9950.0
2890,0.31692856550216675,3.2192904949188232,120,5897.0,9.310155868530273,131,9950.0
2900,0.3178272843360901,0.9963861107826233,46,5897.0,8.831700325012207,243,9950.0
2910,0.3181292712688446,-0.43009042739868164,-111,5897.0,7.067553520202637,206,9950.0
2920,0.3183918595314026,-1.5158500671386719,-46,5897.0,8.571480751037598,21,9950.0
2930,0.31865260004997253,-1.478635311126709,33,5897.0,10.449726104736328,-48,9950.0
2940,0.31654900312423706,0.27938568592071533,65,5897.0,8.251874923706055,56,9950.0
2950,0.3165021538734436,3.0339882373809814,-16,5897.0,5.528538703918457,154,9950.0
2960,0.31636863946914673,3.396235227584839,14,5897.0,5.657247543334961,253,9950.0
2970,0.31622514128685,2.316020965576172,26,5897.0,6.634307861328125,97,9950.0
2980,0.31644487380981445,0.632436990737915,78,5897.0,3.458047866821289,-27,9950.0
2990,0.31631383299827576,0.9180412888526917,106,5897.0,2.733891248703003,-57,9950.0
3000,0.31605592370033264,-1.5215891599655151,-19,5897.0,1.1532232761383057,-5,9950.0
3010,0.3158484399318695,4.048437595367432,-29,5897.0,-3.7579562664031982,20,9950.0
3020,0.3156079053878784,1.6028013229370117,-44,5897.0,-3.5999629497528076,-135,9950.0
3030,0.31679537892341614,-0.07529827952384949,21,5897.0,-4.049008369445801,-132,9950.0
3040,0.3166431486606598,-1.2394384145736694,7,5897.0,-4.083230018615723,-102,9950.0
3050,0.3164113163948059,-1.4820796251296997,18,5897.0,-3.2082560062408447,30,9950.0
3060,0.3161642551422119,0.6038860082626343,8,5897.0,-6.032198429107666,27,9950.0
3070,0.31709203124046326,2.6706247329711914,33,5897.0,-5.0291571617126465,-109,9950.0
3080,0.3170083463191986,2.9102632999420166,66,5897.0,-2.7252590656280518,-150,9950.0
3090,0.31689152121543884,2.6915016174316406,115,5897.0,2.442685604095459,-120,9950.0
3100,0.31676366925239563,1.271905541419983,60,5897.0,1.708922028541565,45,9950.0
3110,0.31673702597618103,0.37156248092651367,-89,5897.0,0.36123210191726685,75,9950.0
3120,0.316836953163147,1.3478630781173706,-49,5897.0,-2.92708158493042,-21,9950.0
3130,0.31690967082977295,-0.5122933387756348,-11,5897.0,-3.094320774078369,37,9950.0
3140,0.31704217195510864,0.31768038868904114,38,5897.0,-4.154162883758545,-162,9950.0
3150,0.3171740174293518,-0.38290977478027344,36,5897.0,-5.792308330535889,-207,9950.0
3160,0.3168134391307831,0.14955325424671173,101,5897.0,-11.74425220489502,-295,9950.0
3170,0.3169773817062378,1.9794493913650513,-39,5897.0,-13.170578956604004,-91,9950.0
3180,0.3170790672302246,1.7656584978103638,-41,5897.0,-10.275731086730957,-170,9950.0
3190,0.31707584857940674,0.006457274779677391,-27,5897.0,-10.11507797241211,-188,9950.0
3200,0.3154430091381073,-0.44683364033699036,56,5897.0,-10.193045616149902,-181,9950.0
3210,0.3154299259185791,-2.5914340019226074,-1,5897.0,-4.245362758636475,-99,9950.0
3220,0.3154812157154083,-3.2876906394958496,67,5897.0,-6.051167011260986,-5,9950.0
3230,0.3154604434967041,-3.506697654724121,-65,5897.0,-4.99311637878418,-7,9950.0
3240,0.3154577612876892,-6.537023544311523,-148,5897.0,0.6568423509597778,69,9950.0
3250,0.31494373083114624,-5.244724273681641,-100,5897.0,1.8742603063583374,-84,9950.0
3260,0.31509488821029663,-4.753425598144531,-40,5897.0,5.291889190673828,-52,9950.0
3270,0.3152505159378052,-4.298938274383545,22,5897.0,3.5817556381225586,19,9950.0
3280,0.31542444229125977,1.7593376636505127,-63,5897.0,1.2613954544067383,70,9950.0
3290,0.31311753392219543,1.8001657724380493,-39,5897.0,-1.1989195346832275,94,9950.0
3300,0.31326088309288025,2.6365957260131836,9,5897.0,-2.9239108562469482,-114,9950.0
3310,0.3134743273258209,3.3226380348205566,147,5897.0,-5.772093772888184,-120,9950.0
3320,0.3136797249317169,2.398324966430664,119,5897.0,-5.646181583404541,-82,9950.0
3330,0.3138439655303955,1.7347631454467773,2,5897.0,-4.48859977722168,79,9950.0
3340,0.3107965886592865,-0.6525715589523315,-74,5897.0,-4.560795307159424,-46,9950.0
3350,0.3109613358974457,-0.7426409125328064,-36,5897.0,1.1082862615585327,-54,9950.0
3360,0.3112140893936157,-3.262636661529541,48,5897.0,2.7281079292297363,-142,9950.0
3370,0.3115282952785492,-2.645941734313965,-89,5897.0,0.5894294381141663,-36,9950.0
3380,0.31240421533584595,-5.787287712097168,-164,5897.0,0.8925712704658508,88,9950.0
3390,0.31272900104522705,-4.610264778137207,-136,5897.0,0.8620275259017944,-9,9950.0
3400,0.3131190836429596,-4.721354007720947,3,5897.0,1.05059814453125,-14,9950.0
3410,0.31361767649650574,-3.5680103302001953,-20,5897.0,-1.1096711158752441,-43,9950.0
3420,0.3127882480621338,-0.9569810628890991,-45,5897.0,-0.3060731291770935,170,9950.0
3430,0.3132350742816925,-0.05491165816783905,-49,5897.0,0.36210381984710693,19,9950.0
3440,0.31363287568092346,2.243251085281372,26,5897.0,-3.365382194519043,-151,9950.0
3450,0.31401151418685913,1.529879093170166,144,5897.0,-3.8100497722625732,-138,9950.0
3460,0.31442198157310486,1.8621338605880737,7,5897.0,0.8234257102012634,-6,9950.0
3470,0.3126358687877655,0.4509424567222595,-37,5897.0,-1.2820619344711304,75,9950.0
3480,0.3129749000072479,1.608073115348816,-37,5897.0,0.8707566261291504,-97,9950.0
3490,0.3132251799106598,-1.0594444274902344,-5,5897.0,2.1720449924468994,-86,9950.0
3500,0.3133644163608551,-0.7114254832267761,11,5897.0,2.630613088607788,100,9950.0
3510,0.3125837445259094,1.3079652786254883,-15,5897.0,4.917520523071289,145,9950.0
3520,0.3127245306968689,1.5108219385147095,-24,5897.0,6.346159934997559,264,9950.0
3530,0.31296566128730774,-0.984536349773407,-12,5897.0,5.505674362182617,31,9950.0
3540,0.31312957406044006,0.2565069794654846,62,5897.0,10.213069915771484,207,9950.0
3550,0.31270718574523926,1.437781572341919,77,5897.0,9.921119689941406,284,9950.0
3560,0.3127184510231018,1.9617867469787598,-2,5897.0,9.031477928161621,188,9950.0
3570,0.31277719140052795,1.781092643737793,47,5897.0,7.64572811126709,190,9950.0
3580,0.31288355588912964,3.193894386291504,143,5897.0,6.556839942932129,-51,9950.0
3590,0.31290432810783386,2.8676528930664062,94,5897.0,2.816145181655884,64,9950.0
3600,0.3132913112640381,3.599515438079834,5,5897.0,1.103186845779419,84,9950.0
3610,0.31315892934799194,2.7628583908081055,-8,5897.0,-1.0404682159423828,-69,9950.0
3620,0.31302371621131897,1.2806012630462646,85,5897.0,-3.8323943614959717,-207,9950.0
3630,0.31291210651397705,1.1040616035461426,-12,5897.0,-5.299994945526123,-62,9950.0
3640,0.31325262784957886,1.2137682437896729,-30,5897.0,-6.132684230804443,4,9950.0
3650,0.3131854832172394,0.10052018612623215,-77,5897.0,3.3771133422851562,-12,9950.0
3660,0.313067227602005,-2.3999314308166504,30,5897.0,6.413381576538086,65,9950.0
3670,0.31300100684165955,-1.8678216934204102,-10,5897.0,8.355886459350586,104,9950.0
3680,0.3128717839717865,0.3451247811317444,-79,5897.0,13.111062049865723,281,9950.0
3690,0.31375497579574585,-1.3130794763565063,-66,5897.0,10.845483779907227,109,9950.0
3700,0.313885897397995,-0.0037052324041724205,44,5897.0,11.679606437683105,152,9950.0
3710,0.31408271193504333,1.4649845361709595,16,5897.0,6.423511505126953,144,9950.0
3720,0.3143044114112854,1.2656984329223633,-16,5897.0,6.67091178894043,163,9950.0
3730,0.316432386636734,-0.3271329700946808,33,5897.0,5.903949737548828,2,9950.0
3740,0.3166665732860565,2.479675054550171,81,5897.0,3.2563934326171875,78,9950.0
3750,0.3168410360813141,2.192101240158081,30,5897.0,1.3201104402542114,207,9950.0
3760,0.3169315755367279,3.4070255756378174,-11,5897.0,-0.8979551792144775,115,9950.0
3770,0.31701403856277466,1.3960927724838257,60,5897.0,0.39979735016822815,39,9950.0
3780,0.3192380964756012,2.1841814517974854,87,5897.0,1.372139573097229,27,9950.0
3790,0.3193526268005371,3.129706859588623,61,5897.0,-1.2385673522949219,28,9950.0
3800,0.31935936212539673,3.514164686203003,42,5897.0,-2.4619765281677246,8,9950.0
3810,0.31926167011260986,2.3206095695495605,-19,5897.0,-1.3429687023162842,-53,9950.0
3820,0.3198634386062622,-0.2512221038341522,-29,5897.0,0.6079667210578918,-120,9950.0
3830,0.31977716088294983,-3.871572732925415,-10,5897.0,2.898561954498291,-36,9950.0
3840,0.3197370171546936,-2.4506523609161377,-125,5897.0,0.9530030488967896,62,9950.0
3850,0.3197184205055237,0.08246664702892303,-115,5897.0,0.6065114736557007,81,9950.0
3860,0.3197284936904907,1.1172887086868286,20,5897.0,-1.320521593093872,-65,9950.0
3870,0.3195333182811737,-2.0654759407043457,72,5897.0,0.7475011944770813,-54,9950.0
3880,0.31931817531585693,1.3938833475112915,13,5897.0,-2.661978244781494,-7,9950.0
3890,0.3191239833831787,1.787387490272522,-73,5897.0,-0.7536939382553101,7,9950.0
3900,0.3189484775066376,0.8247851729393005,0,5897.0,-1.1332530975341797,-56,9950.0
3910,0.3212762475013733,1.0019439458847046,61,5897.0,-0.20852035284042358,-83,9950.0
3920,0.3211739659309387,1.4165942668914795,-2,5897.0,-1.3101963996887207,23,9950.0
3930,0.32097020745277405,-0.3345203697681427,-32,5897.0,-1.942605972290039,7,9950.0
3940,0.32068175077438354,1.0857048034667969,23,5897.0,-4.066954135894775,-44,9950.0
3950,0.32211291790008545,-0.49642646312713623,43,5897.0,-0.2192036360502243,-42,9950.0
3960,0.3219597339630127,-2.386561393737793,-41,5897.0,-0.30610644817352295,141,9950.0
3970,0.32185855507850647,-1.9803941249847412,-92,5897.0,0.1241830438375473,85,9950.0
3980,0.3217654824256897,-1.8265459537506104,-6,5897.0,1.506807565689087,4,9950.0
3990,0.32161712646484375,1.274775743484497,81,5897.0,-0.27452990412712097,-80,9950.0
4000,0.321977436542511,1.6514050960540771,30,5897.0,-2.0180156230926514,151,9950.0
4010,0.3217404782772064,1.7542774677276611,-8,5897.0,-4.162962436676025,-25,9950.0
4020,0.3214263319969177,1.7018495798110962,69,5897.0,-1.031569480895996,-63,9950.0
4030,0.3211606740951538,0.7651685476303101,77,5897.0,-4.030758857727051,-106,9950.0
4040,0.3212788999080658,0.3527815639972687,-44,5897.0,-2.3739194869995117,60,9950.0
4050,0.3211137056350708,-0.005438497755676508,-86,5897.0,-4.130971431732178,-19,9950.0
4060,0.3208513557910919,-2.3008596897125244,-8,5897.0,-4.112786769866943,-123,9950.0
4070,0.32051214575767517,-0.42732611298561096,34,5897.0,-3.7862324714660645,-57,9950.0
4080,0.320296972990036,-1.1028010845184326,-42,5897.0,-2.3151872158050537,64,9950.0
4090,0.3202977478504181,-1.6760671138763428,-83,5897.0,2.5918571949005127,15,9950.0
4100,0.31976571679115295,-2.4434125423431396,-11,5897.0,-0.04936341941356659,-47,9950.0
4110,0.3197668492794037,-3.5135467052459717,7,5897.0,3.0604770183563232,20,9950.0
4120,0.31937670707702637,-1.7086586952209473,-70,5897.0,-0.6141834259033203,218,9950.0
4130,0.3200143575668335,0.31273114681243896,-92,5897.0,1.6128052473068237,7,9950.0
4140,0.3195611834526062,-1.0336345434188843,45,5897.0,-1.7202585935592651,-82,9950.0
4150,0.3195658028125763,-1.7493445873260498,13,5897.0,-0.6880808472633362,11,9950.0
4160,0.3193588852882385,-1.0337769985198975,-50,5897.0,-1.4273974895477295,83,9950.0
4170,0.3195045590400696,-2.5369508266448975,-72,5897.0,-1.439900279045105,-115,9950.0
4180,0.3194419741630554,-1.9594905376434326,60,5897.0,-2.8846890926361084,-51,9950.0
4190,0.31943193078041077,0.49867165088653564,35,5897.0,-2.753673791885376,23,9950.0
4200,0.319413959980011,0.8312593698501587,-33,5897.0,-1.40068519115448,-8,9950.0
4210,0.3193131685256958,0.22984975576400757,24,5897.0,-3.545705556869507,-117,9950.0
4220,0.31958726048469543,0.22576455771923065,41,5897.0,-2.835224151611328,-21,9950.0
4230,0.31947797536849976,-1.1347661018371582,-70,5897.0,-0.4023624062538147,61,9950.0
4240,0.31947681307792664,-1.1435068845748901,-65,5897.0,-0.9075462818145752,-20,9950.0
4250,0.31955084204673767,-2.4059834480285645,7,5897.0,0.5116934180259705,-77,9950.0
4260,0.31895408034324646,-1.4085792303085327,-35,5897.0,0.8041748404502869,62,9950.0
4270,0.31921064853668213,-0.6705242395401001,-79,5897.0,2.344090700149536,65,9950.0
4280,0.31921908259391785,-1.3249925374984741,0,5897.0,5.59516716003418,-40,9950.0
4290,0.31929832696914673,0.7001601457595825,76,5897.0,2.9062917232513428,-8,9950.0
4300,0.3191987872123718,2.2654151916503906,-3,5897.0,1.4433590173721313,128,9950.0
4310,0.3191477954387665,1.4543300867080688,-26,5897.0,1.1700538396835327,-3,9950.0
4320,0.3190595507621765,0.9822057485580444,37,5897.0,0.7174004316329956,-36,9950.0
4330,0.3189883232116699,0.3307548761367798,-1,5897.0,-1.1877585649490356,-66,9950.0
4340,0.3189845383167267,1.3447589874267578,-56,5897.0,-4.519029140472412,18,9950.0
4350,0.3202081322669983,1.5871636867523193,-18,5897.0,-2.406867027282715,-160,9950.0
4360,0.3203071057796478,0.37566518783569336,23,5897.0,-1.2893922328948975,-91,9950.0
4370,0.32038751244544983,-1.0383305549621582,-40,5897.0,-2.8641202449798584,32,9950.0
4380,0.3204258978366852,-0.638981282711029,-65,5897.0,-0.9242595434188843,5,9950.0
4390,0.3210327625274658,-1.419724464416504,13,5897.0,3.794001579284668,-77,9950.0
4400,0.3211114704608917,-0.49159878492355347,46,5897.0,2.848130464553833,117,9950.0
4410,0.32126423716545105,0.7513068318367004,-68,5897.0,3.460589647293091,155,9950.0
4420,0.32150450348854065,1.8634932041168213,-1,5897.0,2.3473315238952637,24,9950.0
4430,0.32178613543510437,0.03511423245072365,91,5897.0,4.957726001739502,40,9950.0
4440,0.3224411904811859,0.10721825063228607,15,5897.0,2.3166611194610596,73,9950.0
4450,0.32267317175865173,2.724378824234009,6,5897.0,-0.777324914932251,-102,9950.0
4460,0.32281988859176636,1.0422661304473877,70,5897.0,-0.5408698320388794,-153,9950.0
4470,0.3228742480278015,0.5383427739143372,25,5897.0,-2.2758827209472656,-96,9950.0
4480,0.32331764698028564,0.11243501305580139,-41,5897.0,-2.6903233528137207,43,9950.0
4490,0.32338017225265503,-0.7788883447647095,-87,5897.0,-3.313284158706665,24,9950.0
4500,0.323527991771698,-1.3833004236221313,-62,5897.0,-3.387549638748169,-125,9950.0
4510,0.3237409293651581,-2.4149186611175537,72,5897.0,-1.972186803817749,-147,9950.0
4520,0.32213637232780457,0.1704481989145279,-35,5897.0,-2.362318515777588,66,9950.0
4530,0.32226499915122986,-1.9038279056549072,-48,5897.0,3.191650867462158,94,9950.0
4540,0.32231640815734863,-0.8640146851539612,-36,5897.0,2.131967782974243,-18,9950.0
4550,0.3222762942314148,0.16531339287757874,62,5897.0,2.592703342437744,41,9950.0
4560,0.32222235202789307,0.5230827927589417,-79,5897.0,0.6383848190307617,66,9950.0
4570,0.3225131928920746,0.83051997423172,-48,5897.0,1.753335952758789,65,9950.0
4580,0.322518527507782,1.5441855192184448,-29,5897.0,0.11801384389400482,-66,9950.0
4590,0.3225367069244385,-0.8128122687339783,21,5897.0,2.9479434490203857,55,9950.0
4600,0.32253146171569824,-0.1302662193775177,-37,5897.0,0.4183852970600128,113,9950.0
4610,0.3219234347343445,1.7349978685379028,23,5897.0,2.8658807277679443,39,9950.0
4620,0.32178911566734314,-0.30315133929252625,31,5897.0,1.6057078838348389,-46,9950.0
4630,0.32162755727767944,1.3585906028747559,4,5897.0,-0.8329646587371826,80,9950.0
4640,0.32149502635002136,-0.17131534218788147,-109,5897.0,0.37512969970703125,82,9950.0
4650,0.3227366507053375,-1.4379862546920776,-71,5897.0,-0.41843849420547485,-96,9950.0
4660,0.32273900508880615,-3.098618984222412,0,5897.0,-1.1522310972213745,-69,9950.0
4670,0.3227173984050751,-1.2614152431488037,-42,5897.0,-3.8322272300720215,-8,9950.0
4680,0.3226293623447418,-1.952832579612732,-129,5897.0,-3.341566801071167,-13,9950.0
4690,0.3224753737449646,-0.35569486021995544,29,5897.0,1.305979609489441,-155,9950.0
4700,0.3237078785896301,0.07377145439386368,29,5897.0,-0.9473493099212646,39,9950.0
4710,0.32354193925857544,2.146275281906128,3,5897.0,0.3307337164878845,16,9950.0
4720,0.3234633505344391,1.5431602001190186,52,5897.0,0.08702050149440765,-50,9950.0
4730,0.3234153091907501,1.8948006629943848,108,5897.0,1.75540292263031,-2,9950.0
4740,0.323250412940979,4.13755989074707,-13,5897.0,-1.4184750318527222,117,9950.0
4750,0.3232625722885132,3.22861385345459,-42,5897.0,0.7198488712310791,56,9950.0
4760,0.3232552111148834,1.7999366521835327,55,5897.0,1.3571619987487793,-26,9950.0
4770,0.32319381833076477,-0.03191808611154556,22,5897.0,0.7535603046417236,47,9950.0
4780,0.32308638095855713,-0.9086267948150635,-19,5897.0,2.0009539127349854,108,9950.0
4790,0.3237704634666443,-1.0947202444076538,39,5897.0,1.1196401119232178,-102,9950.0
4800,0.32369232177734375,-1.1288396120071411,47,5897.0,2.4518513679504395,128,9950.0
4810,0.32365548610687256,-0.7144551873207092,-66,5897.0,1.139186978340149,81,9950.0
4820,0.32370588183403015,-0.5705581307411194,-40,5897.0,-1.9567701816558838,-34,9950.0
4830,0.3231305480003357,-0.02553507126867771,17,5897.0,-3.665977716445923,-99,9950.0
4840,0.3232402503490448,-0.4418025016784668,-39,5897.0,-4.821864604949951,6,9950.0
4850,0.32334914803504944,-0.6845505237579346,-36,5897.0,-5.877901554107666,-148,9950.0
4860,0.32342734932899475,0.5032666325569153,109,5897.0,-5.227711200714111,-98,9950.0
4870,0.32328149676322937,0.5097315311431885,-13,5897.0,-2.4615917205810547,-16,9950.0
4880,0.3232490122318268,0.3324519693851471,-38,5897.0,-0.5515795350074768,20,9950.0
4890,0.32319730520248413,0.26680901646614075,-19,5897.0,3.634935140609741,-67,9950.0
4900,0.32320985198020935,-1.454556941986084,6,5897.0,7.577203273773193,179,9950.0
4910,0.3233126401901245,-1.0466530323028564,-91,5897.0,8.350470542907715,231,9950.0
4920,0.3232981860637665,-0.20151056349277496,-17,5897.0,9.366576194763184,106,9950.0
4930,0.32348957657814026,-2.0852839946746826,26,5897.0,9.161972999572754,78,9950.0
4940,0.32366225123405457,0.04012710973620415,13,5897.0,5.4595770835876465,106,9950.0
4950,0.3237878084182739,2.1022086143493652,-54,5897.0,1.946982741355896,1,9950.0
4960,0.3230757415294647,-0.2668680250644684,42,5897.0,-2.6513822078704834,-199,9950.0
4970,0.32294926047325134,-0.7168851494789124,37,5897.0,-5.044801712036133,-10,9950.0
4980,0.32280433177948,-1.7516884803771973,-45,5897.0,-5.817527770996094,9,9950.0
4990,0.3226718008518219,-2.1405751705169678,6,5897.0,-2.535295009613037,-159,9950.0
5000,0.32257720828056335,-2.7681474685668945,27,5897.0,-0.9724635481834412,10,9950.0
5010,0.32355713844299316,-3.391677141189575,-66,5897.0,-0.6506925821304321,138,9950.0
5020,0.323729932308197,-3.608515977859497,-62,5897.0,9.191947937011719,78,9950.0
5030,0.3240104019641876,-5.00840425491333,27,5897.0,12.502686500549316,274,9950.0
5040,0.324411541223526,-2.607685089111328,-42,5897.0,15.090832710266113,317,9950.0
5050,0.3249426782131195,2.080359697341919,91,5897.0,10.519136428833008,112,9950.0
5060,0.3256062865257263,7.677915096282959,199,5897.0,7.794663906097412,30,9950.0
5070,0.32628902792930603,12.449113845825195,211,5897.0,-2.5172247886657715,-55,9950.0
5080,0.32689565420150757,13.897987365722656,220,5897.0,-12.712291717529297,-298,9950.0
5090,0.3273065388202667,15.371452331542969,386,5897.0,-21.143922805786133,-490,9950.0
5100,0.3298480212688446,20.126657485961914,337,5897.0,-24.876529693603516,-352,9950.0
5110,0.33022019267082214,20.623769760131836,265,5897.0,-28.151784896850586,-461,9950.0
5120,0.33065006136894226,16.169658660888672,195,5897.0,-25.091690063476562,-392,9950.0
5130,0.3308967053890228,6.824641704559326,79,5897.0,-23.839750289916992,-580,9950.0
5140,0.3306562006473541,-1.2916326522827148,45,5897.0,-21.620574951171875,-355,9950.0
5150,0.3307393491268158,7.303555488586426,181,5897.0,-14.638875961303711,-159,9950.0
5160,0.33061492443084717,-2.809809923171997,-150,5897.0,-7.33247709274292,20,9950.0
5170,0.330099880695343,-17.586584091186523,-378,5897.0,-7.123335361480713,-15,9950.0
5180,0.3312237560749054,-24.68354606628418,-441,5897.0,-1.3716994524002075,-52,9950.0
5190,0.3306118845939636,-29.48947525024414,-419,5897.0,-2.259972333908081,-115,9950.0
5200,0.3300538659095764,-30.37253189086914,-455,5897.0,-1.3510850667953491,31,9950.0
5210,0.3291328251361847,-28.98211669921875,-522,5897.0,-1.4848265647888184,31,9950.0
5220,0.3280543386936188,-25.42713737487793,-442,5897.0,-1.9028565883636475,-110,9950.0
5230,0.32868367433547974,-20.97502326965332,-276,5897.0,-1.5299164056777954,-97,9950.0
5240,0.32782241702079773,-18.888721466064453,-319,5897.0,-0.5786710381507874,69,9950.0
5250,0.32661667466163635,-16.485971450805664,-271,5897.0,6.725191593170166,118,9950.0
5260,0.3255669176578522,-15.781577110290527,-209,5897.0,10.099152565002441,54,9950.0
5270,0.32558172941207886,-5.551568984985352,48,5897.0,14.846102714538574,300,9950.0
5280,0.3242173492908478,5.591054916381836,25,5897.0,19.502538681030273,379,9950.0
5290,0.32236388325691223,-5.253564357757568,-160,5897.0,21.54446792602539,308,9950.0
5300,0.3215777575969696,-14.42039966583252,-204,5897.0,25.484909057617188,383,9950.0
5310,0.3207317888736725,-20.677989959716797,-325,5897.0,25.645584106445312,481,9950.0
5320,0.3197650611400604,-21.859588623046875,-375,5897.0,28.55168914794922,543,9950.0
5330,0.3177243173122406,-20.897233963012695,-284,5897.0,30.120162963867188,431,9950.0
5340,0.31660276651382446,-19.17165184020996,-288,5897.0,26.30116844177246,552,9950.0
5350,0.3149758279323578,-13.397269248962402,-257,5897.0,25.133150100708008,359,9950.0
5360,0.3164723813533783,-10.86406135559082,-92,5897.0,26.293041229248047,443,9950.0
5370,0.31424838304519653,-9.804210662841797,-198,5897.0,28.136798858642578,528,9950.0
5380,0.312727689743042,-13.370017051696777,-153,5897.0,25.659122467041016,385,9950.0
5390,0.3111174404621124,-14.691389083862305,-314,5897.0,28.778188705444336,497,9950.0
5400,0.3116998076438904,-17.145111083984375,-210,5897.0,31.997934341430664,494,9950.0
5410,0.3092993497848511,-15.734341621398926,-234,5897.0,36.671138763427734,604,9950.0
5420,0.3078703284263611,-10.564888000488281,-55,5897.0,38.17984390258789,619,9950.0
5430,0.3067624866962433,-4.597835540771484,-93,5897.0,39.150821685791016,633,9950.0
5440,0.3052781820297241,-3.9090216159820557,34,5897.0,39.570091247558594,658,9950.0
5450,0.3066091537475586,-2.1158838272094727,-76,5897.0,38.09382629394531,698,9950.0
5460,0.3058231770992279,-2.032158136367798,6,5897.0,34.606414794921875,528,9950.0
5470,0.3048551082611084,-2.312964916229248,-171,5897.0,35.686222076416016,591,9950.0
5480,0.3042697012424469,-3.7958662509918213,42,5897.0,32.85404968261719,595,9950.0
5490,0.3065597414970398,-2.1555466651916504,-135,5897.0,29.237764358520508,420,9950.0
5500,0.30627763271331787,-1.286360263824463,27,5897.0,26.185531616210938,367,9950.0
5510,0.30587682127952576,-2.0404932498931885,-59,5897.0,25.42768669128418,387,9950.0
5520,0.3051746189594269,-1.5012640953063965,42,5897.0,23.89811134338379,429,9950.0
5530,0.3060554563999176,-0.9966291189193726,-55,5897.0,26.816606521606445,388,9950.0
5540,0.3051811456680298,-0.693224310874939,44,5897.0,22.0628662109375,419,9950.0
5550,0.30468666553497314,-0.10674119740724564,-37,5897.0,25.09796714782715,383,9950.0
5560,0.30470237135887146,1.578399896621704,70,5897.0,23.95271873474121,436,9950.0
5570,0.3046620190143585,2.922516107559204,19,5897.0,28.092966079711914,410,9950.0
5580,0.3042677342891693,4.320888042449951,157,5897.0,24.96648597717285,363,9950.0
5590,0.3039996325969696,4.659433364868164,25,5897.0,18.911109924316406,391,9950.0
5600,0.30404701828956604,4.006196975708008,145,5897.0,18.038806915283203,268,9950.0
5610,0.30375662446022034,4.348870277404785,48,5897.0,14.877558708190918,288,9950.0
5620,0.3031805157661438,5.784803867340088,169,5897.0,13.43647289276123,166,9950.0
5630,0.30282828211784363,6.178438663482666,97,5897.0,13.416226387023926,248,9950.0
5640,0.3026323616504669,7.668964385986328,185,5897.0,11.421248435974121,87,9950.0
5650,0.3026603162288666,9.119365692138672,180,5897.0,9.81954574584961,296,9950.0
5660,0.3015120029449463,12.812021255493164,151,5897.0,9.751669883728027,140,9950.0
5670,0.30258575081825256,11.466955184936523,245,5897.0,12.32118034362793,215,9950.0
5680,0.3029136061668396,12.811742782592773,139,5897.0,14.357233047485352,283,9950.0
5690,0.3030675947666168,12.508697509765625,211,5897.0,16.522106170654297,226,9950.0
5700,0.3024824857711792,12.386741638183594,196,5897.0,14.500288009643555,282,9950.0
5710,0.30342501401901245,11.457192420959473,209,5897.0,14.107215881347656,92,9950.0
5720,0.3038361072540283,11.449898719787598,152,5897.0,6.843208312988281,208,9950.0
5730,0.3041193187236786,11.233617782592773,155,5897.0,5.820765018463135,24,9950.0
5740,0.30432647466659546,10.701668739318848,245,5897.0,1.149668574333191,14,9950.0
5750,0.30633360147476196,11.537793159484863,105,5897.0,-1.4396641254425049,71,9950.0
5760,0.3068801462650299,9.164352416992188,107,5897.0,-0.1964896023273468,-127,9950.0
5770,0.30723345279693604,8.32398509979248,149,5897.0,1.050523281097412,68,9950.0
5780,0.3079850673675537,8.863543510437012,156,5897.0,-3.2751643657684326,38,9950.0
5790,0.3083192706108093,10.385653495788574,139,5897.0,-0.8277340531349182,-7,9950.0
5800,0.3104175925254822,10.34743595123291,237,5897.0,1.2698323726654053,-70,9950.0
5810,0.31111112236976624,11.16420841217041,193,5897.0,-2.6597142219543457,-29,9950.0
5820,0.31160998344421387,13.23775863647461,159,5897.0,-3.644092082977295,8,9950.0
5830,0.3125838339328766,10.273452758789062,173,5897.0,-3.0279176235198975,-73,9950.0
5840,0.3132851719856262,11.511902809143066,258,5897.0,-7.494604110717773,-141,9950.0
5850,0.31382477283477783,9.168076515197754,182,5897.0,-6.532994747161865,-118,9950.0
5860,0.313968300819397,8.834379196166992,40,5897.0,-9.193228721618652,-50,9950.0
5870,0.3143157958984375,8.431682586669922,59,5897.0,-9.237032890319824,-80,9950.0
5880,0.31463760137557983,7.1427226066589355,82,5897.0,-8.968527793884277,-152,9950.0
5890,0.3122269809246063,2.977586269378662,91,5897.0,-5.225314140319824,-233,9950.0
5900,0.3122778832912445,1.6423594951629639,98,5897.0,-6.34738826751709,-276,9950.0
5910,0.3122090995311737,-1.938700795173645,101,5897.0,-2.2721898555755615,-184,9950.0
5920,0.31223899126052856,0.028914600610733032,88,5897.0,-5.354890823364258,-94,9950.0
5930,0.3115537464618683,0.7352041602134705,43,5897.0,-3.7199525833129883,-35,9950.0
5940,0.31124529242515564,-0.27990928292274475,2,5897.0,-6.03544807434082,-98,9950.0
5950,0.31079408526420593,-1.6513311862945557,-105,5897.0,-7.1115570068359375,-60,9950.0
5960,0.31027233600616455,-4.709654331207275,-120,5897.0,-6.796604156494141,-30,9950.0
5970,0.30961787700653076,-3.189818859100342,-147,5897.0,-6.899974346160889,31,9950.0
5980,0.3093295395374298,-3.5980403423309326,-209,5897.0,-4.695258617401123,34,9950.0
5990,0.30888861417770386,-5.39028787612915,-176,5897.0,-2.5563125610351562,50,9950.0
6000,0.30852609872817993,-5.397154331207275,-124,5897.0,-0.324587881565094,-7,9950.0
6010,0.3082282841205597,-5.679959774017334,-114,5897.0,-1.8212940692901611,-1,9950.0
6020,0.3070463538169861,-4.888582229614258,-76,5897.0,-0.06567487865686417,-76,9950.0
6030,0.30660709738731384,-2.7595391273498535,-31,5897.0,-2.1366498470306396,-180,9950.0
6040,0.3062397539615631,-4.017101287841797,42,5897.0,-3.4015324115753174,-218,9950.0
6050,0.305913507938385,-5.538585186004639,8,5897.0,-6.6044511795043945,-267,9950.0
6060,0.30626460909843445,-6.134055137634277,-21,5897.0,-11.589900970458984,-295,9950.0
6070,0.30611321330070496,-6.681643486022949,-82,5897.0,-13.152100563049316,-229,9950.0
6080,0.30587249994277954,-8.314973831176758,-104,5897.0,-8.944011688232422,-103,9950.0
6090,0.30574557185173035,-3.402876377105713,-139,5897.0,-18.14879608154297,-168,9950.0
6100,0.30601009726524353,-1.2809405326843262,-129,5897.0,-17.700428009033203,-96,9950.0
6110,0.3059876561164856,1.450385332107544,-105,5897.0,-15.808061599731445,-158,9950.0
6120,0.30608898401260376,0.92841637134552,-66,5897.0,-9.383281707763672,-72,9950.0
6130,0.30626651644706726,1.8624629974365234,-65,5897.0,-6.8643035888671875,11,9950.0
6140,0.3064357340335846,-0.15428189933300018,-38,5897.0,-6.251862049102783,-37,9950.0
6150,0.3074222803115845,-2.7276039123535156,-89,5897.0,-7.585292339324951,-22,9950.0
6160,0.3076818883419037,-2.4956514835357666,-95,5897.0,-4.246540069580078,45,9950.0
6170,0.30796200037002563,-4.125614166259766,-84,5897.0,-5.563084125518799,-110,9950.0
6180,0.3082665801048279,-6.506863117218018,-89,5897.0,-1.2833987474441528,-150,9950.0
6190,0.31056416034698486,-2.9630279541015625,15,5897.0,-5.435400009155273,-128,9950.0
6200,0.31091034412384033,-1.9677972793579102,18,5897.0,-9.39781665802002,-176,9950.0
6210,0.31139272451400757,-0.26688116788864136,78,5897.0,-9.536470413208008,-191,9950.0
6220,0.3118784427642822,2.6796998977661133,76,5897.0,-10.203849792480469,-227,9950.0
6230,0.3122805058956146,3.1888809204101562,123,5897.0,-11.389781951904297,-204,9950.0
6240,0.3123890459537506,3.162226438522339,83,5897.0,-11.859780311584473,-204,9950.0
6250,0.3127739131450653,0.4608159065246582,101,5897.0,-7.46727991104126,-215,9950.0
6260,0.3129975497722626,2.9586308002471924,74,5897.0,-14.356062889099121,-213,9950.0
6270,0.3132331371307373,0.33979296684265137,69,5897.0,-3.4640557765960693,-146,9950.0
6280,0.3148095905780792,-1.561896800994873,16,5897.0,-6.93734884262085,-75,9950.0
6290,0.31551334261894226,1.7403502464294434,80,5897.0,-5.503096580505371,-100,9950.0
6300,0.315864235162735,2.7218515872955322,67,5897.0,-3.3026301860809326,14,9950.0
6310,0.3161236345767975,0.33480799198150635,65,5897.0,-7.597697734832764,-155,9950.0
6320,0.31648945808410645,0.2783941626548767,14,5897.0,-11.750490188598633,-119,9950.0
6330,0.3164372742176056,-1.3311370611190796,-19,5897.0,-18.47634506225586,-292,9950.0
6340,0.31656038761138916,-2.438196897506714,20,5897.0,-18.652002334594727,-290,9950.0
6350,0.31656554341316223,-1.4451396465301514,25,5897.0,-15.674492835998535,-204,9950.0
6360,0.31639543175697327,-2.127917528152466,19,5897.0,-12.510098457336426,-8,9950.0
6370,0.317293643951416,1.409006953239441,10,5897.0,-3.7730233669281006,80,9950.0
6380,0.3173440992832184,5.743982315063477,89,5897.0,1.2006299495697021,98,9950.0
6390,0.3172864615917206,6.985625267028809,75,5897.0,7.202077865600586,232,9950.0
6400,0.317362517118454,8.481212615966797,166,5897.0,8.650022506713867,212,9950.0
6410,0.31994038820266724,8.250166893005371,157,5897.0,12.154951095581055,122,9950.0
6420,0.32006603479385376,5.585798263549805,144,5897.0,10.6079740524292,-24,9950.0
6430,0.3202410936355591,4.4244513511657715,117,5897.0,11.115883827209473,31,9950.0
6440,0.3203619420528412,4.067856311798096,81,5897.0,6.524989604949951,-29,9950.0
6450,0.32044458389282227,3.6383206844329834,86,5897.0,-0.026012126356363297,-92,9950.0
6460,0.3231009840965271,3.7650885581970215,86,5897.0,-3.025486946105957,-159,9950.0
6470,0.32334446907043457,0.590350329875946,40,5897.0,-3.7051422595977783,-10,9950.0
6480,0.32356584072113037,3.5309512615203857,49,5897.0,-5.647391319274902,-66,9950.0
6490,0.32375553250312805,2.8548502922058105,61,5897.0,-4.1099162101745605,-88,9950.0
6500,0.3263433277606964,2.510608673095703,49,5897.0,-1.6333562135696411,21,9950.0
6510,0.32665640115737915,1.279327630996704,38,5897.0,1.0524934530258179,76,9950.0
6520,0.3269937336444855,0.3314814567565918,-31,5897.0,0.2667396366596222,163,9950.0
6530,0.32727184891700745,-1.1491611003875732,-14,5897.0,1.2921879291534424,111,9950.0
6540,0.327528178691864,0.6956307888031006,-11,5897.0,0.9754568934440613,51,9950.0
6550,0.33111128211021423,-1.9236079454421997,-23,5897.0,5.038081645965576,9,9950.0
6560,0.33147725462913513,-1.4975180625915527,-38,5897.0,3.221719264984131,-52,9950.0
6570,0.33184173703193665,-1.4299007654190063,-24,5897.0,2.4404804706573486,8,9950.0
6580,0.33212554454803467,-0.05823143199086189,56,5897.0,-0.40920647978782654,-171,9950.0
6590,0.3338126242160797,-3.2106165885925293,18,5897.0,-2.6626172065734863,-137,9950.0
6600,0.3341272473335266,-3.150585174560547,-60,5897.0,-3.9168596267700195,-90,9950.0
6610,0.3343776762485504,-3.7379953861236572,-75,5897.0,-3.4309005737304688,-36,9950.0
6620,0.33458298444747925,-3.926244020462036,-87,5897.0,-4.811488151550293,-37,9950.0
6630,0.33521437644958496,-3.147169351577759,-60,5897.0,-4.273168087005615,12,9950.0
6640,0.3353813886642456,-3.256753921508789,-46,5897.0,-3.2612929344177246,-55,9950.0
6650,0.3354721665382385,-1.9556174278259277,-19,5897.0,-3.018066167831421,-120,9950.0
6660,0.3354942798614502,-1.091912031173706,-22,5897.0,-0.4220443069934845,-84,9950.0
6670,0.335428386926651,0.6957913637161255,11,5897.0,0.5100602507591248,-102,9950.0
6680,0.33628609776496887,-2.0985054969787598,6,5897.0,3.603710174560547,-58,9950.0
6690,0.3361489474773407,-1.6331712007522583,-23,5897.0,3.4378199577331543,47,9950.0
6700,0.33596184849739075,-1.7705079317092896,-19,5897.0,2.2662222385406494,98,9950.0
6710,0.3356684148311615,-2.4985508918762207,-48,5897.0,-1.2601311206817627,72,9950.0
6720,0.337172269821167,-4.242297172546387,-122,5897.0,-2.4620425701141357,47,9950.0
6730,0.336842805147171,-5.235789775848389,-128,5897.0,1.0883057117462158,17,9950.0
6740,0.33663177490234375,-3.8595457077026367,-84,5897.0,-3.0506789684295654,31,9950.0
6750,0.33636507391929626,-6.10330867767334,-121,5897.0,-6.92545747756958,-77,9950.0
6760,0.3364117741584778,-9.832761764526367,-119,5897.0,-4.580306053161621,-121,9950.0
6770,0.3359958529472351,-8.880012512207031,-138,5897.0,-7.955519199371338,-163,9950.0
6780,0.33546704053878784,-11.344137191772461,-177,5897.0,-4.206071853637695,-86,9950.0
6790,0.33488547801971436,-9.511967658996582,-129,5897.0,-3.5102169513702393,-93,9950.0
6800,0.3342948257923126,-8.581192016601562,-126,5897.0,1.864051342010498,-2,9950.0
6810,0.3358086943626404,-7.606624603271484,-102,5897.0,3.741880416870117,107,9950.0
6820,0.3353063464164734,-6.464794635772705,-117,5897.0,3.846067428588867,141,9950.0
6830,0.33491045236587524,-4.099121570587158,-107,5897.0,2.5013375282287598,103,9950.0
6840,0.3344736695289612,-7.998455047607422,-158,5897.0,5.062160968780518,31,9950.0
6850,0.33471617102622986,-8.202573776245117,-178,5897.0,-3.999892234802246,80,9950.0
6860,0.33424657583236694,-10.514671325683594,-226,5897.0,1.3610539436340332,122,9950.0
6870,0.33376383781433105,-11.506551742553711,-230,5897.0,-1.2782694101333618,45,9950.0
6880,0.33315449953079224,-11.87700366973877,-178,5897.0,-6.685553550720215,48,9950.0
6890,0.33258602023124695,-11.210307121276855,-171,5897.0,-2.8421804904937744,47,9950.0
6900,0.33420854806900024,-7.1593475341796875,-95,5897.0,-2.5071003437042236,-22,9950.0
6910,0.3337987959384918,-3.999607563018799,-83,5897.0,-2.371645450592041,15,9950.0
6920,0.333326518535614,-2.3957526683807373,-64,5897.0,0.4906483590602875,72,9950.0
6930,0.3328896760940552,-1.6459412574768066,-72,5897.0,2.288024663925171,84,9950.0
6940,0.3334687650203705,-0.9983627796173096,-48,5897.0,-0.4845951795578003,53,9950.0
6950,0.3331907391548157,-2.3133349418640137,-2,5897.0,1.90798819065094,68,9950.0
6960,0.3329702913761139,-1.942262053489685,-67,5897.0,2.8003077507019043,158,9950.0
6970,0.3327789306640625,-1.941306471824646,-40,5897.0,3.939131021499634,81,9950.0
6980,0.3326176702976227,-1.678362488746643,-66,5897.0,2.745270013809204,7,9950.0
6990,0.3338952362537384,-4.098169803619385,-61,5897.0,1.9952787160873413,27,9950.0
7000,0.33394506573677063,-2.800994873046875,-47,5897.0,0.44309642910957336,-28,9950.0
7010,0.3340412378311157,-1.1192442178726196,-35,5897.0,0.9481692910194397,-76,9950.0
7020,0.33419835567474365,0.18909522891044617,-3,5897.0,-1.5510015487670898,-88,9950.0
7030,0.3354339003562927,1.886107325553894,30,5897.0,-4.295416831970215,-125,9950.0
7040,0.3357134163379669,1.8326088190078735,62,5897.0,-0.9972335696220398,-117,9950.0
7050,0.33603522181510925,3.045358180999756,117,5897.0,-1.397291660308838,-73,9950.0
7060,0.3364216983318329,4.705000877380371,119,5897.0,0.8643719553947449,-106,9950.0
7070,0.3361026346683502,4.72573709487915,113,5897.0,1.4759145975112915,-82,9950.0
7080,0.33646830916404724,3.6985764503479004,112,5897.0,1.2614790201187134,-107,9950.0
7090,0.33682695031166077,5.286821365356445,124,5897.0,1.2180603742599487,-80,9950.0
7100,0.3371630609035492,5.599576473236084,84,5897.0,0.17490464448928833,-9,9950.0
7110,0.3375086784362793,5.947934150695801,114,5897.0,3.278705596923828,111,9950.0
7120,0.3387916684150696,5.092413425445557,65,5897.0,-0.37831228971481323,72,9950.0
7130,0.33909839391708374,5.189146518707275,68,5897.0,-1.3553940057754517,130,9950.0
7140,0.3394014537334442,2.2500829696655273,3,5897.0,-3.1356091499328613,99,9950.0
7150,0.339613139629364,3.1457936763763428,73,5897.0,-0.35309940576553345,5,9950.0
7160,0.33747434616088867,5.779208183288574,109,5897.0,-1.5878547430038452,-18,9950.0
7170,0.33742231130599976,4.936291217803955,103,5897.0,-0.745728075504303,-16,9950.0
7180,0.3373497426509857,6.741950511932373,111,5897.0,-1.7164853811264038,-81,9950.0
7190,0.33727097511291504,5.873915672302246,114,5897.0,0.9897913932800293,-17,9950.0
7200,0.3363531529903412,3.141883134841919,44,5897.0,1.8399955034255981,13,9950.0
7210,0.33624565601348877,0.8808636665344238,-24,5897.0,-2.3218703269958496,98,9950.0
7220,0.3361109793186188,1.3014225959777832,-14,5897.0,0.32966646552085876,95,9950.0
7230,0.3359496295452118,-0.6295156478881836,-32,5897.0,1.3648676872253418,91,9950.0
7240,0.33575180172920227,-2.019083023071289,-46,5897.0,1.8435405492782593,119,9950.0
7250,0.3352341651916504,-0.5865970253944397,-11,5897.0,3.071317672729492,146,9950.0
7260,0.3349766135215759,-0.024501480162143707,-13,5897.0,5.16735315322876,162,9950.0
7270,0.3346944749355316,1.5898313522338867,24,5897.0,6.5893096923828125,90,9950.0
7280,0.334415078163147,3.7711098194122314,66,5897.0,1.595238208770752,17,9950.0
7290,0.3348831534385681,1.0769517421722412,81,5897.0,-1.614892840385437,-1,9950.0
7300,0.33463653922080994,1.9258273839950562,75,5897.0,-0.0020906729623675346,-77,9950.0
7310,0.3343456983566284,-0.8694779872894287,-3,5897.0,5.213159561157227,69,9950.0
7320,0.3340567350387573,-0.3285832107067108,-2,5897.0,1.7625280618667603,9,9950.0
7330,0.3337515890598297,-1.867749810218811,-14,5897.0,8.011058807373047,24,9950.0
7340,0.3327467739582062,-0.703191339969635,-8,5897.0,3.537116527557373,-62,9950.0
7350,0.33241069316864014,-1.0470448732376099,-10,5897.0,5.234956741333008,-25,9950.0
7360,0.332103967666626,-1.2007008790969849,4,5897.0,3.50540828704834,-3,9950.0
7370,0.33187490701675415,-0.8932883143424988,-7,5897.0,4.420934200286865,24,9950.0
7380,0.3313917815685272,-0.8824837803840637,46,5897.0,1.4285833835601807,-7,9950.0
7390,0.3311960697174072,0.2598702609539032,42,5897.0,1.8197879791259766,-45,9950.0
7400,0.3310082256793976,0.6205999255180359,81,5897.0,2.164706230163574,-55,9950.0
7410,0.33084410429000854,-1.0742793083190918,60,5897.0,4.9524383544921875,-56,9950.0
7420,0.3289584219455719,0.8519444465637207,58,5897.0,-0.056316930800676346,-68,9950.0
7430,0.3288099765777588,0.43763065338134766,21,5897.0,-0.7858530879020691,-67,9950.0
7440,0.32864612340927124,-1.3747683763504028,20,5897.0,5.567928314208984,32,9950.0
7450,0.3286070227622986,-1.65727698802948,64,5897.0,4.595206260681152,12,9950.0
7460,0.3286222219467163,0.3886871933937073,53,5897.0,9.091894149780273,45,9950.0
7470,0.3291662335395813,1.8409171104431152,115,5897.0,6.36683988571167,56,9950.0
7480,0.32928621768951416,3.227015495300293,110,5897.0,8.401198387145996,43,9950.0
7490,0.3294142782688141,4.709833145141602,158,5897.0,6.313168048858643,0,9950.0
7500,0.3295193314552307,5.5144453048706055,129,5897.0,0.6325170993804932,-34,9950.0
7510,0.33056992292404175,4.817831516265869,131,5897.0,-0.7748446464538574,-88,9950.0
7520,0.33084866404533386,4.338120460510254,160,5897.0,-2.124621868133545,-134,9950.0
7530,0.3311585485935211,5.669549942016602,157,5897.0,-3.8271946907043457,-96,9950.0
7540,0.33149805665016174,5.7222065925598145,116,5897.0,-3.113072633743286,-125,9950.0
7550,0.3319139778614044,4.354496002197266,106,5897.0,-1.5283032655715942,-155,9950.0
7560,0.33239057660102844,3.4178998470306396,90,5897.0,1.2312201261520386,-101,9950.0
7570,0.33288297057151794,2.8111448287963867,80,5897.0,5.0874786376953125,-14,9950.0
7580,0.3334301710128784,4.058356761932373,106,5897.0,3.365919828414917,-14,9950.0
7590,0.33401668071746826,1.2119022607803345,65,5897.0,6.932765960693359,26,9950.0
7600,0.33420899510383606,0.6671378016471863,6,5897.0,2.158308982849121,32,9950.0
7610,0.3348774015903473,0.02740197815001011,11,5897.0,-0.14737296104431152,86,9950.0
7620,0.3355693519115448,0.050736188888549805,-8,5897.0,-0.1987171322107315,16,9950.0
7630,0.3363048732280731,0.10436179488897324,33,5897.0,1.029327154159546,53,9950.0
7640,0.33415648341178894,3.497173309326172,50,5897.0,-1.38889741897583,36,9950.0
7650,0.33469894528388977,3.52569317817688,37,5897.0,-1.7061872482299805,70,9950.0
7660,0.335191935300827,3.6331074237823486,41,5897.0,-3.34212589263916,48,9950.0
7670,0.3356737494468689,3.053741931915283,28,5897.0,-5.229176044464111,43,9950.0
7680,0.33614102005958557,2.3170557022094727,52,5897.0,-2.41361665725708,-63,9950.0
7690,0.3364695906639099,2.298224687576294,35,5897.0,-1.1827811002731323,-61,9950.0
7700,0.33679574728012085,1.8621582984924316,43,5897.0,-2.0235087871551514,-114,9950.0
7710,0.3370753228664398,3.823507785797119,70,5897.0,-3.04856276512146,-93,9950.0
7720,0.3373057246208191,2.537313938140869,55,5897.0,-0.09397952258586884,-66,9950.0
7730,0.33688685297966003,0.5515298843383789,13,5897.0,-1.1424106359481812,44,9950.0
7740,0.3370174765586853,1.436836838722229,-23,5897.0,0.09670785069465637,96,9950.0
7750,0.3371126055717468,0.8820016980171204,-55,5897.0,0.2721400260925293,47,9950.0
7760,0.3372385501861572,-1.1715513467788696,-41,5897.0,-1.6442612409591675,24,9950.0
7770,0.33727723360061646,-2.7670481204986572,3,5897.0,2.525700807571411,-31,9950.0
7780,0.33637210726737976,-2.3782196044921875,-28,5897.0,4.404613971710205,58,9950.0
7790,0.3362980782985687,-2.690200090408325,-19,5897.0,1.2969715595245361,-32,9950.0
7800,0.33621734380722046,-4.0610527992248535,-48,5897.0,2.638761520385742,59,9950.0
7810,0.3361388146877289,-4.3767409324646,-77,5897.0,2.992638349533081,89,9950.0
7820,0.335957407951355,-4.395274639129639,-75,5897.0,2.4633960723876953,138,9950.0
7830,0.33581241965293884,-3.9666409492492676,-78,5897.0,-1.8332972526550293,110,9950.0
7840,0.3356756865978241,-2.76820707321167,-61,5897.0,-1.5288982391357422,82,9950.0
7850,0.33553192019462585,-2.4319469928741455,-68,5897.0,-3.3270270824432373,51,9950.0
7860,0.3356122672557831,-3.8611795902252197,-88,5897.0,1.5651768445968628,13,9950.0
7870,0.3354577422142029,-2.8268134593963623,-83,5897.0,0.5689775943756104,36,9950.0
7880,0.3352665305137634,-6.289529800415039,-104,5897.0,2.936535358428955,12,9950.0
7890,0.33508381247520447,-5.168243885040283,-83,5897.0,1.183213710784912,-49,9950.0
7900,0.334892213344574,-4.479270935058594,-66,5897.0,0.08442985266447067,-57,9950.0
7910,0.334298700094223,-4.111509323120117,-61,5897.0,2.220006227493286,-100,9950.0
7920,0.3340270221233368,-1.0268476009368896,-30,5897.0,-3.3407130241394043,-129,9950.0
7930,0.3337746858596802,-2.7619235515594482,-32,5897.0,-0.7243886590003967,-203,9950.0
7940,0.3335270583629608,-2.4904072284698486,-9,5897.0,1.2246463298797607,-134,9950.0
7950,0.3331649899482727,-3.2392656803131104,-32,5897.0,0.9915475249290466,-126,9950.0
7960,0.3329073488712311,-3.6842973232269287,-24,5897.0,0.2651844024658203,-100,9950.0
7970,0.3326566219329834,-2.572793483734131,37,5897.0,-0.4796769618988037,-20,9950.0
7980,0.332385390996933,-2.9115707874298096,-6,5897.0,3.1362955570220947,0,9950.0
7990,0.3320692181587219,-3.1612625122070312,-17,5897.0,4.3877787590026855,85,9950.0
8000,0.33225274085998535,-3.7533860206604004,-38,5897.0,6.067098617553711,-22,9950.0
8010,0.3320651054382324,-4.4938883781433105,-32,5897.0,3.323030948638916,-107,9950.0
8020,0.33186084032058716,-5.464624404907227,12,5897.0,-3.4269280433654785,-160,9950.0
8030,0.33172497153282166,-4.093564510345459,-6,5897.0,-4.940871238708496,-244,9950.0
8040,0.3320118486881256,-2.62060546875,21,5897.0,-5.549696922302246,-254,9950.0
8050,0.3318438231945038,-0.389320433139801,-1,5897.0,-2.6063148975372314,-209,9950.0
8060,0.3316946029663086,-0.21216723322868347,77,5897.0,-0.01203116588294506,-191,9950.0
8070,0.3315439224243164,0.11852679401636124,67,5897.0,-1.5050588846206665,-158,9950.0
8080,0.3332473039627075,0.8930426239967346,57,5897.0,-1.2342262268066406,-85,9950.0
8090,0.3332652151584625,-0.43726488947868347,64,5897.0,0.20757728815078735,-71,9950.0
8100,0.33333510160446167,3.0200695991516113,81,5897.0,2.3850319385528564,-9,9950.0
8110,0.33344897627830505,0.8391812443733215,55,5897.0,3.621187448501587,34,9950.0
8120,0.33349278569221497,2.284604787826538,97,5897.0,-0.2737157642841339,-166,9950.0
8130,0.33538082242012024,-0.7375965118408203,24,5897.0,2.7000694274902344,-152,9950.0
8140,0.3356552720069885,-0.9162774682044983,56,5897.0,-1.1203742027282715,-228,9950.0
8150,0.3359380066394806,-2.710983991622925,48,5897.0,-3.139627695083618,-235,9950.0
8160,0.33624202013015747,-0.5476074814796448,91,5897.0,-4.460432529449463,-138,9950.0
8170,0.3379226326942444,1.9200541973114014,95,5897.0,-1.314403772354126,-58,9950.0
8180,0.3382967412471771,5.509836196899414,124,5897.0,-2.0210044384002686,-67,9950.0
8190,0.33871206641197205,4.265746116638184,113,5897.0,-0.7157950401306152,-26,9950.0
8200,0.3391059637069702,7.75006628036499,124,5897.0,-2.2971811294555664,-66,9950.0
8210,0.3412383794784546,6.182816982269287,87,5897.0,-3.886542797088623,-94,9950.0
8220,0.3417472839355469,5.378890037536621,166,5897.0,-4.65467643737793,-93,9950.0
8230,0.34225016832351685,3.6343131065368652,79,5897.0,0.28172045946121216,-11,9950.0
8240,0.3427713215351105,4.089664459228516,89,5897.0,-1.8173365592956543,-15,9950.0
8250,0.3433103561401367,3.4769222736358643,35,5897.0,-1.928500771522522,74,9950.0
8260,0.34533408284187317,4.979656219482422,46,5897.0,-0.7027323246002197,36,9950.0
8270,0.3459326922893524,2.672811269760132,21,5897.0,1.9239248037338257,-85,9950.0
8280,0.34645524621009827,1.3994345664978027,16,5897.0,2.4016966819763184,4,9950.0
8290,0.34692808985710144,1.7324501276016235,55,5897.0,3.107701301574707,-92,9950.0
8300,0.3488076627254486,0.17674027383327484,28,5897.0,1.7401912212371826,-40,9950.0
8310,0.3492297828197479,0.6046351790428162,-1,5897.0,-1.5534965991973877,16,9950.0
8320,0.34959331154823303,1.4239187240600586,19,5897.0,-1.0696474313735962,-37,9950.0
8330,0.34989625215530396,0.6082073450088501,14,5897.0,-1.668033480644226,-17,9950.0
8340,0.35013648867607117,0.8590884208679199,13,5897.0,-3.020291805267334,-19,9950.0
8350,0.35189297795295715,-0.02474961429834366,41,5897.0,-0.6209163665771484,-135,9950.0
8360,0.3521115779876709,0.7275748252868652,31,5897.0,1.3823620080947876,-64,9950.0
8370,0.35227835178375244,2.714376211166382,32,5897.0,-5.465391635894775,-61,9950.0
8380,0.3523657023906708,2.6964643001556396,3,5897.0,-1.2011442184448242,-1,9950.0
8390,0.3522222638130188,2.3361504077911377,16,5897.0,-0.5583817362785339,65,9950.0
8400,0.352167546749115,-0.18320545554161072,-24,5897.0,1.8937264680862427,-45,9950.0
8410,0.3520807921886444,-2.4039292335510254,-10,5897.0,2.1936275959014893,-69,9950.0
8420,0.35193923115730286,-2.9932444095611572,-78,5897.0,-0.27042731642723083,41,9950.0
8430,0.35262396931648254,-2.8279080390930176,-81,5897.0,0.34014585614204407,90,9950.0
8440,0.35236048698425293,-5.517200946807861,-107,5897.0,2.8907694816589355,-9,9950.0
8450,0.3520602881908417,-7.02498722076416,-101,5897.0,1.71454656124115,-101,9950.0
8460,0.35173094272613525,-6.686080455780029,-113,5897.0,2.8327200412750244,-39,9950.0
8470,0.35134950280189514,-5.6507697105407715,-119,5897.0,-0.1627267748117447,35,9950.0
8480,0.3515528440475464,-4.627536296844482,-111,5897.0,-1.7535679340362549,11,9950.0
8490,0.35115891695022583,-2.0405547618865967,-34,5897.0,-2.317817449569702,-15,9950.0
8500,0.3506651818752289,-3.3072214126586914,-63,5897.0,-1.2295235395431519,-53,9950.0
8510,0.35021916031837463,-3.9811289310455322,-48,5897.0,-0.3040417730808258,-76,9950.0
8520,0.35101187229156494,-6.6462016105651855,-105,5897.0,-0.12966592609882355,-143,9950.0
8530,0.35056155920028687,-8.180985450744629,-117,5897.0,-1.9641244411468506,-160,9950.0
8540,0.3501144349575043,-6.494251728057861,-112,5897.0,-3.851214647293091,-59,9950.0
8550,0.34966087341308594,-4.959582328796387,-32,5897.0,-1.7179605960845947,-63,9950.0
8560,0.3491818308830261,-2.8617162704467773,-61,5897.0,-0.7361274361610413,99,9950.0
8570,0.3502223491668701,-2.3774666786193848,-46,5897.0,2.291069269180298,130,9950.0
8580,0.3497777283191681,-0.05927426367998123,-15,5897.0,1.5127521753311157,89,9950.0
8590,0.3493845462799072,-1.4416217803955078,-7,5897.0,5.600888729095459,128,9950.0
8600,0.34895560145378113,-1.646887183189392,-13,5897.0,6.867102146148682,59,9950.0
8610,0.3481336832046509,-3.778036117553711,-57,5897.0,4.070358753204346,-10,9950.0
8620,0.3476881980895996,-4.69659948348999,-50,5897.0,4.418564319610596,-23,9950.0
8630,0.34718555212020874,-5.1981201171875,-80,5897.0,2.9303653240203857,-50,9950.0
8640,0.3466404676437378,-5.458948612213135,-80,5897.0,1.3845570087432861,-92,9950.0
8650,0.34833934903144836,-4.107724189758301,-87,5897.0,3.9823710918426514,11,9950.0
8660,0.34778863191604614,-6.523270606994629,-124,5897.0,4.113453388214111,66,9950.0
8670,0.34721502661705017,-4.936539649963379,-57,5897.0,1.2272040843963623,58,9950.0
8680,0.3466765582561493,-3.44138765335083,-79,5897.0,3.6417665481567383,69,9950.0
8690,0.34612834453582764,-4.619488716125488,-73,5897.0,4.130373477935791,160,9950.0
8700,0.34557273983955383,-2.8473622798919678,-90,5897.0,1.5880179405212402,146,9950.0
8710,0.34513160586357117,-1.6062098741531372,-86,5897.0,4.103874683380127,167,9950.0
8720,0.3446580767631531,-0.7246682643890381,-56,5897.0,4.586424827575684,179,9950.0
8730,0.34421396255493164,-2.046627998352051,-58,5897.0,2.828666925430298,132,9950.0
8740,0.3445121645927429,-2.677098512649536,-52,5897.0,3.199293851852417,111,9950.0
8750,0.34418827295303345,-1.3857892751693726,-74,5897.0,1.3046722412109375,95,9950.0
8760,0.34386348724365234,-1.4155728816986084,-41,5897.0,1.6394612789154053,39,9950.0
8770,0.3435198664665222,-0.014570452272891998,2,5897.0,1.254836916923523,126,9950.0
8780,0.3439449965953827,-0.07715490460395813,1,5897.0,-0.14492447674274445,-19,9950.0
8790,0.3437564969062805,1.2248586416244507,5,5897.0,-4.044572830200195,-19,9950.0
8800,0.3435646891593933,2.6144096851348877,54,5897.0,-1.9778947830200195,-29,9950.0
8810,0.34337520599365234,2.4210405349731445,61,5897.0,1.140787124633789,30,9950.0
8820,0.3431781232357025,4.315222263336182,73,5897.0,1.7756162881851196,-7,9950.0
8830,0.34493422508239746,2.9196245670318604,61,5897.0,0.6468507647514343,-68,9950.0
8840,0.34489428997039795,-0.6310213208198547,4,5897.0,2.2232584953308105,-28,9950.0
8850,0.34487685561180115,0.9959067106246948,84,5897.0,3.7530107498168945,-6,9950.0
8860,0.3448908030986786,1.2950037717819214,82,5897.0,3.4900829792022705,0,9950.0
8870,0.34656772017478943,2.60866117477417,77,5897.0,3.977623224258423,20,9950.0
8880,0.3467465341091156,3.5063517093658447,40,5897.0,3.905975818634033,25,9950.0
8890,0.3469547927379608,4.390477180480957,90,5897.0,3.5657172203063965,10,9950.0
8900,0.3471371829509735,4.050272464752197,86,5897.0,3.508005380630493,-71,9950.0
8910,0.3473188579082489,6.366422653198242,96,5897.0,-5.62637996673584,-152,9950.0
8920,0.3485586941242218,5.314702033996582,52,5897.0,-3.705516815185547,-88,9950.0
8930,0.34873461723327637,4.067167282104492,88,5897.0,-5.4166789054870605,-54,9950.0
8940,0.3488999605178833,5.229310035705566,64,5897.0,-4.509441375732422,-8,9950.0
8950,0.349072128534317,4.587561130523682,32,5897.0,0.9030535221099854,127,9950.0
8960,0.34996363520622253,5.61768102645874,41,5897.0,3.3764572143554688,36,9950.0
8970,0.3501149117946625,4.6316423416137695,132,5897.0,4.438297748565674,-38,9950.0
8980,0.3502325713634491,4.000321865081787,132,5897.0,3.5243403911590576,-5,9950.0
8990,0.35033032298088074,4.398696422576904,89,5897.0,5.571329116821289,77,9950.0
9000,0.3506414294242859,4.35442590713501,95,5897.0,5.636549949645996,71,9950.0
9010,0.35068780183792114,2.4190473556518555,26,5897.0,4.260633945465088,114,9950.0
9020,0.35067665576934814,2.8964359760284424,43,5897.0,1.3721460103988647,129,9950.0
9030,0.3506109118461609,2.6986677646636963,35,5897.0,-0.2865195870399475,12,9950.0
9040,0.3505224585533142,0.9481865763664246,43,5897.0,-3.0671818256378174,-56,9950.0
9050,0.3514198958873749,2.445399284362793,79,5897.0,-5.849710941314697,-232,9950.0
9060,0.35134437680244446,3.4978525638580322,65,5897.0,-6.1396164894104,-96,9950.0
9070,0.35121607780456543,3.4426510334014893,54,5897.0,-3.3962297439575195,-30,9950.0
9080,0.3510247468948364,3.182706832885742,46,5897.0,-0.7129948139190674,92,9950.0
9090,0.35165420174598694,2.2495391368865967,48,5897.0,3.106360912322998,81,9950.0
9100,0.3514288067817688,2.188333749771118,77,5897.0,1.565699577331543,37,9950.0
9110,0.35115551948547363,1.983879804611206,24,5897.0,5.516529083251953,52,9950.0
9120,0.35086768865585327,-0.3359794616699219,-8,5897.0,4.6463942527771,8,9950.0
9130,0.3505614697933197,-2.089381694793701,-19,5897.0,4.170413494110107,98,9950.0
9140,0.35080909729003906,-3.50649094581604,-71,5897.0,3.829401731491089,122,9950.0
9150,0.3504941761493683,-3.9488420486450195,-37,5897.0,-0.11565506458282471,73,9950.0
9160,0.350188672542572,-2.0506327152252197,-65,5897.0,3.258805513381958,-2,9950.0
9170,0.34987953305244446,-2.059307813644409,-46,5897.0,-0.6399903297424316,1,9950.0
9180,0.34960225224494934,0.1120535209774971,23,5897.0,-2.5020735263824463,-91,9950.0
9190,0.3493722677230835,-1.2744070291519165,6,5897.0,-0.9434166550636292,-76,9950.0
9200,0.34909987449645996,-1.0384024381637573,-31,5897.0,-2.737271547317505,-119,9950.0
9210,0.34878236055374146,1.510604977607727,5,5897.0,-4.303782939910889,-44,9950.0
9220,0.34983786940574646,-0.23890767991542816,-62,5897.0,-3.938717842102051,-56,9950.0
9230,0.3496033847332001,0.2439987063407898,-43,5897.0,-5.333505153656006,-2,9950.0
9240,0.34933972358703613,-0.3301287293434143,-27,5897.0,-5.294219017028809,-15,9950.0
9250,0.3491177260875702,-1.715829849243164,-61,5897.0,-7.013298034667969,-67,9950.0
9260,0.34891369938850403,-3.2101542949676514,-87,5897.0,-7.4553937911987305,-21,9950.0
9270,0.3495453894138336,-2.9200189113616943,-62,5897.0,-5.338354110717773,-130,9950.0
9280,0.3493928015232086,-2.711498975753784,10,5897.0,3.9816362857818604,-62,9950.0
9290,0.3492320775985718,-1.1154841184616089,8,5897.0,3.450986862182617,31,9950.0
9300,0.3490849733352661,-0.041207727044820786,28,5897.0,1.007921814918518,-44,9950.0
9310,0.3492693603038788,1.1721303462982178,36,5897.0,-1.9987581968307495,12,9950.0
9320,0.3491458296775818,-1.6059483289718628,7,5897.0,2.4526307582855225,116,9950.0
9330,0.3489856421947479,-1.5878764390945435,-22,5897.0,1.1297818422317505,115,9950.0
9340,0.34879070520401,-2.1515023708343506,-33,5897.0,-2.3241848945617676,-15,9950.0
9350,0.3486122190952301,-0.7141588926315308,-36,5897.0,-4.736388206481934,13,9950.0
9360,0.34812697768211365,-0.9923501014709473,-75,5897.0,-7.077533721923828,-64,9950.0
9370,0.3478488624095917,-1.7650562524795532,-39,5897.0,-8.013336181640625,-114,9950.0
9380,0.3475363254547119,-0.937611997127533,2,5897.0,-3.2495481967926025,-98,9950.0
9390,0.3472169041633606,1.3911926746368408,3,5897.0,-5.5538740158081055,-76,9950.0
9400,0.34684452414512634,-0.8547506928443909,18,5897.0,-1.6463452577590942,-22,9950.0
9410,0.3465362787246704,-0.4715874493122101,11,5897.0,4.417705059051514,-15,9950.0
9420,0.34622833132743835,-1.0046058893203735,28,5897.0,5.0495524406433105,-17,9950.0
9430,0.3459094762802124,1.270707368850708,-13,5897.0,8.051895141601562,80,9950.0
9440,0.34653374552726746,-3.0899856090545654,-59,5897.0,6.100370407104492,122,9950.0
9450,0.34620022773742676,-2.7405405044555664,-55,5897.0,5.1096062660217285,78,9950.0
9460,0.34586456418037415,-1.8181710243225098,-40,5897.0,2.9895851612091064,53,9950.0
9470,0.3455306589603424,-1.8615498542785645,-70,5897.0,0.08388211578130722,92,9950.0
9480,0.3452022969722748,-1.9185971021652222,-28,5897.0,-2.5464560985565186,33,9950.0
9490,0.3447474539279938,-0.3648003339767456,-33,5897.0,-2.8682000637054443,-3,9950.0
9500,0.34434881806373596,1.326305866241455,-11,5897.0,-7.129247188568115,16,9950.0
9510,0.34395989775657654,2.6763527393341064,20,5897.0,-5.06939697265625,-40,9950.0
9520,0.34358325600624084,2.9491090774536133,50,5897.0,-2.198688268661499,24,9950.0
9530,0.34497830271720886,3.043987512588501,20,5897.0,-2.3589563369750977,70,9950.0
9540,0.34467965364456177,2.1205804347991943,-21,5897.0,3.6284396648406982,111,9950.0
9550,0.34436601400375366,1.1795843839645386,-8,5897.0,5.031419277191162,210,9950.0
9560,0.34406012296676636,0.47119560837745667,17,5897.0,7.505309581756592,155,9950.0
9570,0.34377363324165344,-0.13242207467556,12,5897.0,10.331642150878906,149,9950.0
9580,0.3466014266014099,-0.4294090270996094,-17,5897.0,7.953357219696045,159,9950.0
9590,0.34658655524253845,1.7649366855621338,-37,5897.0,4.390154838562012,116,9950.0
9600,0.3465670049190521,-0.7227203249931335,-92,5897.0,-0.5959558486938477,20,9950.0
9610,0.34652864933013916,-2.38991641998291,-31,5897.0,-0.9303979873657227,-88,9950.0
9620,0.3484126925468445,-1.715147852897644,43,5897.0,-3.300248861312866,-204,9950.0
9630,0.3486032485961914,-2.1143264770507812,82,5897.0,3.6456995010375977,-132,9950.0
9640,0.34878969192504883,1.3801864385604858,106,5897.0,2.6306354999542236,-12,9950.0
9650,0.34901753067970276,4.021691799163818,84,5897.0,1.5612306594848633,11,9950.0
9660,0.3507358729839325,5.339547634124756,139,5897.0,-2.2803196907043457,-91,9950.0
9670,0.35097867250442505,6.100523948669434,89,5897.0,0.21880237758159637,-47,9950.0
9680,0.3511704206466675,5.370402812957764,119,5897.0,0.9151118993759155,-40,9950.0
9690,0.35132086277008057,6.2279205322265625,73,5897.0,0.7927435040473938,91,9950.0
9700,0.35146641731262207,4.639047622680664,56,5897.0,4.3284783363342285,108,9950.0
9710,0.3522225320339203,5.300075531005859,47,5897.0,3.2106432914733887,-13,9950.0
9720,0.3523598909378052,3.4952282905578613,25,5897.0,6.1208577156066895,46,9950.0
9730,0.35248222947120667,0.9256904125213623,-11,5897.0,5.344570636749268,38,9950.0
9740,0.35262531042099,1.408966302871704,-25,5897.0,3.8232321739196777,66,9950.0
9750,0.35400912165641785,0.6893855929374695,-31,5897.0,-7.148281574249268,26,9950.0
9760,0.35408198833465576,1.2472561597824097,-1,5897.0,-0.07768306881189346,16,9950.0
9770,0.3541261851787567,2.4222447872161865,36,5897.0,1.1012217998504639,32,9950.0
9780,0.3541473150253296,2.842439651489258,25,5897.0,-1.399384617805481,-14,9950.0
9790,0.3541390597820282,1.5928435325622559,-5,5897.0,-0.9892249703407288,-168,9950.0
9800,0.35572755336761475,1.456570029258728,30,5897.0,-3.7595572471618652,-119,9950.0
9810,0.3557356297969818,1.5692555904388428,42,5897.0,-2.5373036861419678,-64,9950.0
9820,0.3556920886039734,2.8549883365631104,22,5897.0,-2.261942148208618,21,9950.0
9830,0.3555886745452881,1.5829929113388062,12,5897.0,-0.3762350082397461,76,9950.0
9840,0.3559853136539459,0.7246829867362976,22,5897.0,1.5991716384887695,-10,9950.0
9850,0.35579678416252136,-0.603060781955719,12,5897.0,5.619439125061035,-24,9950.0
9860,0.3555390536785126,-1.6256167888641357,-29,5897.0,0.313885360956192,-3,9950.0
9870,0.3552134037017822,-3.7363836765289307,-72,5897.0,2.608506917953491,122,9950.0
9880,0.3568931818008423,-5.560990333557129,-96,5897.0,-0.8414934873580933,87,9950.0
9890,0.35658881068229675,-3.846717119216919,-51,5897.0,-5.048720836639404,-46,9950.0
9900,0.35622328519821167,-4.891345977783203,-44,5897.0,3.245823383331299,-30,9950.0
9910,0.35581785440444946,-2.2597553730010986,-25,5897.0,0.1559474915266037,-20,9950.0
9920,0.35542044043540955,-4.616831302642822,-55,5897.0,0.33573904633522034,81,9950.0
9930,0.3568120300769806,-7.001404762268066,-127,5897.0,0.7734898924827576,110,9950.0
9940,0.3564532399177551,-8.043744087219238,-82,5897.0,2.020846128463745,10,9950.0
9950,0.3561006486415863,-7.011033535003662,-62,5897.0,-0.600239634513855,-134,9950.0
9960,0.3557679355144501,-7.293457984924316,-83,5897.0,-0.11594579368829727,-25,9950.0
9970,0.3562561571598053,-4.869458198547363,-63,5897.0,-0.4130813479423523,-54,9950.0
9980,0.3559676706790924,-5.779477596282959,-104,5897.0,-0.008714516647160053,107,9950.0
9990,0.35564446449279785,-4.210803031921387,-89,5897.0,-5.057371139526367,67,9950.0
10000,0.35525619983673096,-4.326018810272217,-86,5897.0,-2.4254276752471924,3,9950.0
10010,0.3548266589641571,-3.7188217639923096,-63,5897.0,-0.652988612651825,-22,9950.0
10020,0.3549107313156128,-3.6593527793884277,-58,5897.0,1.2716944217681885,-36,9950.0
10030,0.3545677065849304,-1.3016058206558228,18,5897.0,-3.6633031368255615,-66,9950.0
10040,0.35436317324638367,-0.9905943870544434,-32,5897.0,-2.82130765914917,15,9950.0
10050,0.3540666401386261,-0.4799215495586395,-22,5897.0,-4.684803485870361,-23,9950.0
10060,0.35335850715637207,-2.4064581394195557,-50,5897.0,-5.631851673126221,-24,9950.0
10070,0.3530486226081848,-1.9648720026016235,-27,5897.0,-5.127937316894531,-62,9950.0
10080,0.35271820425987244,-1.8324168920516968,-43,5897.0,-3.6557650566101074,-146,9950.0
10090,0.3523925244808197,-3.5157763957977295,-73,5897.0,-3.4307644367218018,-117,9950.0
10100,0.35228171944618225,-2.4881131649017334,-27,5897.0,-1.1719270944595337,-112,9950.0
10110,0.35193273425102234,-0.7975181341171265,-9,5897.0,1.4251270294189453,-62,9950.0
10120,0.35158416628837585,-0.6429077982902527,-3,5897.0,1.9967563152313232,78,9950.0
10130,0.35120025277137756,-0.7893832921981812,-13,5897.0,3.4857840538024902,113,9950.0
10140,0.3507918417453766,-0.5972154140472412,-12,5897.0,3.654160976409912,96,9950.0
10150,0.3512800633907318,-0.9617540240287781,-40,5897.0,0.5519701242446899,69,9950.0
10160,0.3509107828140259,-2.2846953868865967,-50,5897.0,0.03381526842713356,30,9950.0
10170,0.3505111336708069,-0.8835281133651733,-12,5897.0,-2.066092014312744,7,9950.0
10180,0.35008615255355835,-1.8005127906799316,23,5897.0,0.8583369851112366,-31,9950.0
10190,0.34961405396461487,-2.3493316173553467,26,5897.0,0.5263749361038208,-71,9950.0
10200,0.34914737939834595,-1.13736891746521,11,5897.0,-3.3897907733917236,-91,9950.0
10210,0.34877246618270874,-0.5601563453674316,7,5897.0,-0.14834950864315033,-106,9950.0
10220,0.34830787777900696,-2.310833692550659,6,5897.0,-4.110842227935791,-157,9950.0
10230,0.3479803502559662,-2.9181416034698486,-15,5897.0,4.494821071624756,-149,9950.0
10240,0.34812283515930176,-1.338819980621338,19,5897.0,-2.4210240840911865,-176,9950.0
10250,0.347828209400177,-0.1828492432832718,11,5897.0,-1.0514615774154663,-32,9950.0
10260,0.34758663177490234,0.049984969198703766,-5,5897.0,-2.8576486110687256,35,9950.0
10270,0.34725525975227356,0.9788092970848083,-28,5897.0,-0.601703941822052,67,9950.0
10280,0.348429799079895,0.5996786952018738,-16,5897.0,-1.5054599046707153,106,9950.0
10290,0.3482203781604767,1.963330864906311,3,5897.0,0.26813849806785583,121,9950.0
10300,0.34797829389572144,1.0583693981170654,-6,5897.0,0.541998565196991,146,9950.0
10310,0.3477858603000641,-1.7572925090789795,-15,5897.0,4.536600589752197,12,9950.0
10320,0.34753817319869995,-2.1091415882110596,-1,5897.0,-0.21023820340633392,-43,9950.0
10330,0.3478695750236511,-0.7121239304542542,-25,5897.0,-1.7876453399658203,-15,9950.0
10340,0.3476582169532776,2.8156235218048096,-9,5897.0,-1.9107625484466553,-4,9950.0
10350,0.3474809527397156,3.9952218532562256,42,5897.0,-2.191190719604492,31,9950.0
10360,0.34732431173324585,4.285191059112549,87,5897.0,1.8740195035934448,-21,9950.0
10370,0.34666863083839417,2.5255258083343506,56,5897.0,0.7557587027549744,60,9950.0
10380,0.3465498983860016,0.5667476058006287,37,5897.0,4.517245292663574,4,9950.0
10390,0.34645622968673706,2.950908899307251,95,5897.0,2.093724012374878,-34,9950.0
10400,0.3463733196258545,2.9237735271453857,53,5897.0,-1.0925062894821167,-30,9950.0
10410,0.3485373556613922,2.4554038047790527,51,5897.0,0.15390294790267944,12,9950.0
10420,0.3486245572566986,2.6280975341796875,55,5897.0,-0.03815356269478798,5,9950.0
10430,0.34873682260513306,3.8419339656829834,82,5897.0,0.5162442326545715,51,9950.0
10440,0.3488343358039856,4.870588779449463,55,5897.0,0.9489961266517639,79,9950.0
10450,0.34891024231910706,4.101693153381348,48,5897.0,0.048853062093257904,16,9950.0
10460,0.3506889343261719,2.670382022857666,32,5897.0,2.8100359439849854,129,9950.0
10470,0.35085320472717285,2.6716811656951904,39,5897.0,4.502657413482666,131,9950.0
10480,0.3510184586048126,3.172231435775757,15,5897.0,3.3954365253448486,66,9950.0
10490,0.3511728346347809,4.971531391143799,98,5897.0,2.2688212394714355,61,9950.0
10500,0.35203415155410767,5.749642372131348,119,5897.0,-0.7300764322280884,3,9950.0
10510,0.3522167205810547,5.581991672515869,130,5897.0,1.6239157915115356,-5,9950.0
10520,0.35237348079681396,7.183361053466797,138,5897.0,-0.9715713858604431,3,9950.0
10530,0.35249823331832886,6.396149635314941,141,5897.0,1.5469377040863037,-65,9950.0
10540,0.35319000482559204,6.062830924987793,104,5897.0,0.37054362893104553,-47,9950.0
10550,0.35329753160476685,4.385837554931641,79,5897.0,0.13546010851860046,-9,9950.0
10560,0.35340914130210876,2.7408735752105713,29,5897.0,1.8081685304641724,62,9950.0
10570,0.35347864031791687,1.6843966245651245,-4,5897.0,1.0160000324249268,108,9950.0
10580,0.35353362560272217,2.107293128967285,19,5897.0,-2.813141345977783,29,9950.0
10590,0.35415977239608765,1.6712197065353394,-10,5897.0,2.475714921951294,71,9950.0
10600,0.3541938066482544,2.005784749984741,26,5897.0,3.293708562850952,43,9950.0
10610,0.354209303855896,2.935298204421997,48,5897.0,3.92287015914917,-21,9950.0
10620,0.35416874289512634,3.2339491844177246,81,5897.0,8.084386825561523,11,9950.0
10630,0.3556026220321655,3.486401081085205,51,5897.0,5.223726272583008,61,9950.0
10640,0.35555851459503174,2.645193576812744,43,5897.0,4.783899307250977,177,9950.0
10650,0.3554612100124359,1.1602957248687744,5,5897.0,-0.858877420425415,94,9950.0
10660,0.35546237230300903,0.20120981335639954,-21,5897.0,0.7232421040534973,55,9950.0
10670,0.3551312983036041,-0.1693526804447174,57,5897.0,0.1135239452123642,-46,9950.0
10680,0.3566646873950958,-2.3319544792175293,-3,5897.0,-0.6691370606422424,-126,9950.0
10690,0.3562268316745758,-1.848086953163147,22,5897.0,-2.030959367752075,-139,9950.0
10700,0.35622870922088623,-1.2136664390563965,-40,5897.0,-1.3047733306884766,10,9950.0
10710,0.35595718026161194,0.040853098034858704,30,5897.0,-0.652570366859436,61,9950.0
10720,0.3573160469532013,-0.38357213139533997,-7,5897.0,-4.748087406158447,52,9950.0
10730,0.35709214210510254,-1.698390007019043,-27,5897.0,-0.5458277463912964,61,9950.0
10740,0.3568544089794159,-2.119692325592041,-11,5897.0,-0.1374809294939041,5,9950.0
10750,0.3565971851348877,-2.5929269790649414,-60,5897.0,1.3327350616455078,23,9950.0
10760,0.35545700788497925,-2.4810855388641357,-54,5897.0,1.0658304691314697,-65,9950.0
10770,0.35511529445648193,-4.082939147949219,-78,5897.0,6.883515357971191,108,9950.0
10780,0.3547532856464386,-3.165682077407837,-42,5897.0,7.580951690673828,137,9950.0
10790,0.35436099767684937,-1.6586318016052246,-54,5897.0,4.956244945526123,144,9950.0
10800,0.35347381234169006,-3.2251369953155518,-57,5897.0,3.5015616416931152,67,9950.0
10810,0.35409289598464966,-2.87477445602417,-41,5897.0,3.0253756046295166,44,9950.0
10820,0.35315778851509094,-2.4805243015289307,-32,5897.0,-1.1446932554244995,-84,9950.0
10830,0.3531700372695923,-1.843867301940918,-34,5897.0,-4.817726135253906,-155,9950.0
10840,0.35218340158462524,-3.7664928436279297,-69,5897.0,-3.864001989364624,-214,9950.0
10850,0.35326167941093445,-4.784612655639648,-74,5897.0,-5.481748104095459,-149,9950.0
10860,0.3523203730583191,-4.9677276611328125,-70,5897.0,-7.058298587799072,-126,9950.0
10870,0.35231930017471313,-2.3076891899108887,-58,5897.0,-3.1537153720855713,-47,9950.0
10880,0.35187193751335144,-2.655029058456421,-42,5897.0,-2.5349812507629395,62,9950.0
10890,0.35141903162002563,-1.399607539176941,-53,5897.0,-0.44214531779289246,82,9950.0
10900,0.3517778515815735,-2.3764841556549072,-28,5897.0,0.8644852042198181,75,9950.0
10910,0.35133397579193115,-2.067917823791504,15,5897.0,3.5808372497558594,40,9950.0
10920,0.3508860766887665,-1.1415164470672607,-99,5897.0,5.831564426422119,102,9950.0
10930,0.350415974855423,-6.837957859039307,-79,5897.0,2.582294225692749,-48,9950.0
10940,0.3499577045440674,-5.139881134033203,-89,5897.0,3.1744539737701416,-70,9950.0
10950,0.3494575023651123,-8.896870613098145,-82,5897.0,0.6539068222045898,-63,9950.0
10960,0.34894779324531555,-5.844603538513184,-84,5897.0,-1.8544485569000244,-104,9950.0
10970,0.3484307825565338,-4.081301689147949,-89,5897.0,-3.6890227794647217,-89,9950.0
10980,0.3502258360385895,-3.9820728302001953,-43,5897.0,-3.651724338531494,-107,9950.0
10990,0.3498757481575012,-0.8957552909851074,16,5897.0,-4.048489570617676,-127,9950.0
11000,0.34956222772598267,-0.25088074803352356,1,5897.0,-3.008629322052002,-116,9950.0
11010,0.3492673337459564,0.04215458780527115,9,5897.0,-4.991728782653809,-156,9950.0
11020,0.34900861978530884,1.0714738368988037,33,5897.0,-5.161456108093262,8,9950.0
11030,0.3500746786594391,1.2571744918823242,35,5897.0,1.527896523475647,87,9950.0
11040,0.3499963879585266,0.3414740264415741,-82,5897.0,0.671870231628418,77,9950.0
11050,0.3499552011489868,0.6299951076507568,-61,5897.0,-1.7379279136657715,97,9950.0
11060,0.3499365448951721,0.49091836810112,-30,5897.0,0.2257186621427536,87,9950.0
11070,0.3503347635269165,0.8761417269706726,20,5897.0,0.36408501863479614,21,9950.0
11080,0.3503926992416382,1.9896680116653442,26,5897.0,1.0944346189498901,14,9950.0
11090,0.350483775138855,2.5708587169647217,31,5897.0,0.5463942289352417,52,9950.0
11100,0.3505823612213135,2.3142247200012207,4,5897.0,2.122612237930298,-10,9950.0
11110,0.3506583273410797,2.1853742599487305,17,5897.0,3.1331541538238525,-41,9950.0
11120,0.35040557384490967,-0.8026585578918457,48,5897.0,3.2080516815185547,-32,9950.0
11130,0.3503563404083252,-1.360629916191101,27,5897.0,1.0660260915756226,-54,9950.0
11140,0.35032641887664795,-3.1948752403259277,-4,5897.0,-0.34086915850639343,-62,9950.0
11150,0.35030418634414673,-0.23551851511001587,31,5897.0,-4.360738754272461,-78,9950.0
11160,0.35133734345436096,-0.559590220451355,1,5897.0,-0.5858593583106995,-1,9950.0
11170,0.3513660132884979,0.015900690108537674,44,5897.0,-0.7843242287635803,-71,9950.0
11180,0.3513779640197754,3.729755401611328,49,5897.0,3.819028615951538,4,9950.0
11190,0.3513680696487427,5.3662614822387695,85,5897.0,-0.5892946720123291,33,9950.0
11200,0.35195598006248474,5.266238689422607,73,5897.0,1.5246986150741577,122,9950.0
11210,0.3519597053527832,5.362502098083496,91,5897.0,0.42334336042404175,45,9950.0
11220,0.35195213556289673,6.044601917266846,33,5897.0,2.3775367736816406,80,9950.0
11230,0.351934015750885,3.7659294605255127,46,5897.0,3.0993881225585938,37,9950.0
11240,0.3518703579902649,3.1118876934051514,70,5897.0,2.232170581817627,-20,9950.0
11250,0.35304370522499084,0.5714453458786011,57,5897.0,1.2513424158096313,-105,9950.0
11260,0.3529677093029022,2.5791678428649902,99,5897.0,0.7012416124343872,-56,9950.0
11270,0.35284438729286194,3.5053510665893555,61,5897.0,2.630225658416748,33,9950.0
11280,0.35267937183380127,1.3022114038467407,48,5897.0,-1.4315012693405151,-69,9950.0
11290,0.3530552089214325,1.8042454719543457,81,5897.0,8.2918701171875,112,9950.0
11300,0.3528626263141632,1.700361728668213,10,5897.0,1.3183977603912354,114,9950.0
11310,0.35260987281799316,1.635250210762024,31,5897.0,-0.2732583284378052,101,9950.0
11320,0.35229748487472534,1.738755464553833,-13,5897.0,-1.5505586862564087,48,9950.0
11330,0.3520145118236542,1.1785861253738403,19,5897.0,0.19808050990104675,24,9950.0
11340,0.35262569785118103,2.4364817142486572,33,5897.0,-1.4228146076202393,-12,9950.0
11350,0.35236087441444397,0.5945447087287903,-47,5897.0,2.2020084857940674,101,9950.0
11360,0.3520980179309845,-0.12930552661418915,26,5897.0,-1.3707282543182373,-134,9950.0
11370,0.3517930209636688,0.02593177556991577,-6,5897.0,-3.452165126800537,-155,9950.0
11380,0.35316258668899536,-2.492610216140747,-22,5897.0,-2.7799806594848633,-153,9950.0
11390,0.35281458497047424,-1.8149356842041016,-18,5897.0,-5.427249431610107,-133,9950.0
11400,0.3524320721626282,-1.365323781967163,-23,5897.0,-2.8762357234954834,-9,9950.0
11410,0.3520527184009552,-0.1790972650051117,-13,5897.0,-0.3976796865463257,50,9950.0
11420,0.3525294363498688,-1.804762840270996,-77,5897.0,0.9393799901008606,112,9950.0
11430,0.35221415758132935,0.3811485171318054,-56,5897.0,0.7778986692428589,142,9950.0
11440,0.3519172966480255,-0.9552744626998901,12,5897.0,4.328784942626953,136,9950.0
11450,0.35162433981895447,-1.3482366800308228,-37,5897.0,2.2199583053588867,14,9950.0
11460,0.35133346915245056,-2.8659870624542236,-96,5897.0,4.6410956382751465,42,9950.0
11470,0.3522135615348816,-2.0323824882507324,-58,5897.0,2.9353742599487305,44,9950.0
11480,0.3519922196865082,-0.06276395171880722,2,5897.0,1.7272791862487793,-2,9950.0
11490,0.35174402594566345,-0.46990323066711426,34,5897.0,1.8502494096755981,-42,9950.0
11500,0.3515191972255707,-0.17367953062057495,-10,5897.0,1.234422206878662,-51,9950.0
11510,0.3526970446109772,1.5526317358016968,30,5897.0,-1.7981911897659302,-119,9950.0
11520,0.35249072313308716,-0.04834301397204399,-2,5897.0,-2.3395187854766846,-110,9950.0
11530,0.35226327180862427,0.09340095520019531,22,5897.0,-4.619813919067383,-46,9950.0
11540,0.35204029083251953,2.8225526809692383,6,5897.0,-7.185148239135742,-68,9950.0
11550,0.3518427610397339,1.8931505680084229,24,5897.0,-3.292267322540283,41,9950.0
11560,0.35218358039855957,-0.47719940543174744,-35,5897.0,-3.4144222736358643,76,9950.0
11570,0.3520197868347168,0.04161224514245987,-12,5897.0,0.22091875970363617,73,9950.0
11580,0.35186824202537537,-0.04510979726910591,-8,5897.0,2.9364044666290283,71,9950.0
11590,0.3517014980316162,-1.7064602375030518,-8,5897.0,2.0949313640594482,23,9950.0
11600,0.3536454141139984,-2.2975738048553467,-66,5897.0,1.9174219369888306,51,9950.0
11610,0.353569895029068,-2.528059720993042,-66,5897.0,4.29667854309082,-5,9950.0
11620,0.3534962236881256,-2.3901803493499756,-8,5897.0,3.510812282562256,-109,9950.0
11630,0.35345277190208435,-2.523098945617676,27,5897.0,2.2085676193237305,-103,9950.0
11640,0.3547510504722595,-0.09319882839918137,-2,5897.0,0.00825272873044014,-18,9950.0
11650,0.35474035143852234,-1.9445428848266602,-11,5897.0,1.952687382698059,32,9950.0
11660,0.3546968698501587,-1.029788613319397,-13,5897.0,1.7344486713409424,107,9950.0
11670,0.3546234667301178,0.8023014664649963,2,5897.0,-1.3967180252075195,110,9950.0
11680,0.3545292019844055,-0.09137780964374542,19,5897.0,0.6152823567390442,60,9950.0
11690,0.3566594123840332,2.4051496982574463,46,5897.0,-0.25878825783729553,35,9950.0
11700,0.3566918969154358,2.660998821258545,40,5897.0,-4.064693450927734,-61,9950.0
11710,0.35668256878852844,3.182016372680664,106,5897.0,-0.7842066287994385,-67,9950.0
11720,0.3566461205482483,5.606235980987549,124,5897.0,-0.622437596321106,-89,9950.0
11730,0.35787785053253174,4.107092380523682,79,5897.0,-2.166846752166748,-62,9950.0
11740,0.35783466696739197,2.7820446491241455,52,5897.0,-0.7221695184707642,55,9950.0
11750,0.35777148604393005,1.8406660556793213,49,5897.0,-1.9752147197723389,66,9950.0
11760,0.3576764762401581,1.2390912771224976,-9,5897.0,-1.3989369869232178,82,9950.0
11770,0.35756972432136536,-1.4692989587783813,-51,5897.0,-1.9835195541381836,84,9950.0
11780,0.35764288902282715,-2.7981953620910645,-17,5897.0,1.2533260583877563,0,9950.0
11790,0.35746824741363525,-2.706655740737915,-72,5897.0,1.6075973510742188,36,9950.0
11800,0.3572861850261688,-3.162226915359497,-52,5897.0,1.8313946723937988,-75,9950.0
11810,0.35710349678993225,-4.207019805908203,-63,5897.0,0.4881686270236969,-3,9950.0
11820,0.3573092818260193,-3.635195255279541,-65,5897.0,-0.2630631923675537,-4,9950.0
11830,0.3570692837238312,-2.8542943000793457,-85,5897.0,2.0702290534973145,39,9950.0
11840,0.3568130433559418,-2.7916011810302734,-59,5897.0,-2.6648781299591064,58,9950.0
11850,0.3565570116043091,-1.7073472738265991,-43,5897.0,-1.085512638092041,15,9950.0
11860,0.356209933757782,-1.9838413000106812,-39,5897.0,-3.1087465286254883,-10,9950.0
11870,0.35599368810653687,-1.1094905138015747,-44,5897.0,-2.680750846862793,-51,9950.0
11880,0.3557543456554413,-0.8869146704673767,-6,5897.0,-4.255429744720459,-164,9950.0
11890,0.35546764731407166,-4.655547142028809,-22,5897.0,0.925977885723114,-81,9950.0
11900,0.3551308214664459,-3.6554548740386963,-14,5897.0,2.478034734725952,67,9950.0
11910,0.35443922877311707,-1.226407527923584,-10,5897.0,2.068169116973877,135,9950.0
11920,0.35398754477500916,-1.9756510257720947,-29,5897.0,4.111769199371338,108,9950.0
11930,0.35354214906692505,-1.3184336423873901,-49,5897.0,-0.7759003639221191,32,9950.0
11940,0.35310518741607666,-1.4082154035568237,-39,5897.0,-1.1271823644638062,82,9950.0
11950,0.35350301861763,-1.63392972946167,-80,5897.0,-4.467321395874023,50,9950.0
11960,0.3530944585800171,-1.3568987846374512,-14,5897.0,-5.10496711730957,-25,9950.0
11970,0.35275956988334656,-0.8208802342414856,-11,5897.0,-5.958853244781494,-63,9950.0
11980,0.35240885615348816,-2.1103322505950928,-22,5897.0,-3.9409165382385254,-63,9950.0
11990,0.3520115911960602,-1.2305123805999756,3,5897.0,-4.924026966094971,-48,9950.0
12000,0.35201525688171387,-0.9794209003448486,15,5897.0,-2.761618137359619,-74,9950.0
12010,0.35159406065940857,1.1198461055755615,-8,5897.0,-1.0219061374664307,-72,9950.0
12020,0.3511863350868225,0.39973384141921997,35,5897.0,-3.1461665630340576,-80,9950.0
12030,0.3507554233074188,2.0711119174957275,54,5897.0,-2.2670419216156006,-109,9950.0
12040,0.3502015769481659,0.30570927262306213,17,5897.0,-1.366603970527649,-73,9950.0
12050,0.3497621715068817,-0.9512523412704468,-11,5897.0,-2.163137674331665,-127,9950.0
12060,0.3493102490901947,-1.788630723953247,-12,5897.0,-1.9287185668945312,-106,9950.0
12070,0.34886443614959717,-3.0916690826416016,-14,5897.0,-3.2292299270629883,-147,9950.0
12080,0.3474861979484558,-2.116014242172241,-13,5897.0,-4.594590663909912,-109,9950.0
12090,0.3470304310321808,-3.3250842094421387,-27,5897.0,-0.26818159222602844,-81,9950.0
12100,0.3465595543384552,-2.4186625480651855,-3,5897.0,0.6907262206077576,-45,9950.0
12110,0.3460859954357147,-1.2880058288574219,5,5897.0,1.8024982213974,-53,9950.0
12120,0.3456000089645386,1.380381464958191,41,5897.0,2.322772979736328,9,9950.0
12130,0.3458665609359741,2.384315013885498,100,5897.0,1.000586986541748,6,9950.0
12140,0.34543582797050476,2.1108109951019287,74,5897.0,5.144612789154053,66,9950.0
12150,0.34502163529396057,2.3453335762023926,79,5897.0,3.3773953914642334,-28,9950.0
12160,0.34459570050239563,0.5713310241699219,62,5897.0,6.697747707366943,-2,9950.0
12170,0.34561359882354736,2.255892276763916,96,5897.0,-0.136504128575325,-103,9950.0
12180,0.34520453214645386,0.4636332094669342,58,5897.0,0.0875210240483284,-135,9950.0
12190,0.3448290526866913,-1.192342758178711,89,5897.0,1.7258750200271606,-163,9950.0
12200,0.34447985887527466,0.21490754187107086,65,5897.0,-5.7812981605529785,-129,9950.0
12210,0.3441832363605499,-2.008056879043579,78,5897.0,1.2094584703445435,-89,9950.0
12220,0.3454325199127197,0.4590041935443878,110,5897.0,3.5641798973083496,-34,9950.0
12230,0.34522733092308044,2.3729453086853027,70,5897.0,1.6407253742218018,103,9950.0
12240,0.34502485394477844,4.126509189605713,51,5897.0,5.187493801116943,100,9950.0
12250,0.34475722908973694,4.901108741760254,20,5897.0,4.3400397300720215,140,9950.0
12260,0.34550756216049194,4.159878253936768,-7,5897.0,2.994392156600952,220,9950.0
12270,0.3453556001186371,2.1247940063476562,-31,5897.0,3.7493817806243896,176,9950.0
12280,0.3452351987361908,3.005239963531494,11,5897.0,4.84306526184082,144,9950.0
12290,0.34513694047927856,-0.18058887124061584,-75,5897.0,3.697547435760498,134,9950.0
12300,0.3477759063243866,0.14545202255249023,-26,5897.0,-2.9303524494171143,59,9950.0
12310,0.3480413258075714,0.19773973524570465,-32,5897.0,-1.073765754699707,103,9950.0
12320,0.3483952581882477,-0.2546049952507019,2,5897.0,-0.8553746342658997,6,9950.0
12330,0.3487260043621063,1.8896631002426147,4,5897.0,-1.9674787521362305,53,9950.0
12340,0.34905189275741577,0.4634827673435211,32,5897.0,0.06606513261795044,96,9950.0
12350,0.3528434932231903,1.6919569969177246,39,5897.0,-0.5986268520355225,23,9950.0
12360,0.35336291790008545,3.417926073074341,45,5897.0,-0.5425319671630859,7,9950.0
12370,0.3539167642593384,4.102746486663818,29,5897.0,3.123867988586426,-29,9950.0
12380,0.3544321358203888,3.863518238067627,64,5897.0,0.9737392067909241,-68,9950.0
12390,0.35417866706848145,3.466209888458252,129,5897.0,4.204994201660156,-46,9950.0
12400,0.3546077013015747,2.005993127822876,94,5897.0,-1.342958688735962,-54,9950.0
12410,0.3551129400730133,3.3324575424194336,109,5897.0,-0.9124732613563538,-38,9950.0
12420,0.3555395305156708,5.470494270324707,93,5897.0,-1.5059685707092285,-48,9950.0
12430,0.355791300535202,5.239821910858154,78,5897.0,-0.7094314098358154,28,9950.0
12440,0.3565422296524048,6.634163856506348,108,5897.0,-1.208560585975647,108,9950.0
12450,0.3568459153175354,8.290907859802246,120,5897.0,0.485395610332489,156,9950.0
12460,0.3570902943611145,10.711247444152832,158,5897.0,-0.39321985840797424,101,9950.0
12470,0.3572361469268799,9.813261032104492,171,5897.0,4.681955337524414,50,9950.0
12480,0.3579356074333191,9.442378997802734,155,5897.0,3.51092529296875,-1,9950.0
12490,0.35792481899261475,8.291918754577637,110,5897.0,5.2698822021484375,-12,9950.0
12500,0.3578321039676666,4.93934965133667,70,5897.0,6.279452323913574,45,9950.0
12510,0.3577229380607605,2.923266887664795,19,5897.0,-0.1336720585823059,108,9950.0
12520,0.35766953229904175,-1.3397244215011597,-23,5897.0,5.782992839813232,121,9950.0
12530,0.3573879301548004,-2.854987859725952,-33,5897.0,0.33917170763015747,-25,9950.0
12540,0.35703015327453613,-3.592338800430298,-46,5897.0,1.9694827795028687,-58,9950.0
12550,0.35660746693611145,-4.55296516418457,-56,5897.0,0.38816043734550476,-107,9950.0
12560,0.3561340868473053,-6.338499546051025,-113,5897.0,-2.593796730041504,-11,9950.0
12570,0.357094407081604,-4.244911193847656,-108,5897.0,0.6917564868927002,55,9950.0
12580,0.3565848767757416,-3.146373987197876,-73,5897.0,-0.8912606835365295,23,9950.0
12590,0.3560483753681183,-3.041285753250122,-85,5897.0,2.060389518737793,46,9950.0
12600,0.35542866587638855,-2.380178689956665,-83,5897.0,2.7452311515808105,21,9950.0
12610,0.35725778341293335,-1.6836727857589722,-62,5897.0,0.4672565460205078,-35,9950.0
12620,0.3567529320716858,-1.8121099472045898,-14,5897.0,-0.27615371346473694,-116,9950.0
12630,0.3562083840370178,-5.2169671058654785,-53,5897.0,5.953876972198486,-75,9950.0
12640,0.355646550655365,-4.598228931427002,-92,5897.0,-0.7250032424926758,-25,9950.0
12650,0.3557906150817871,-6.003559112548828,-110,5897.0,-2.1730778217315674,10,9950.0
12660,0.35516324639320374,-7.101835250854492,-88,5897.0,-6.719640731811523,-41,9950.0
12670,0.35453659296035767,-8.566597938537598,-154,5897.0,-3.093268632888794,13,9950.0
12680,0.3539033830165863,-7.670008182525635,-150,5897.0,-4.414500713348389,10,9950.0
12690,0.3532572388648987,-7.680713176727295,-156,5897.0,1.6941746473312378,143,9950.0
12700,0.35436078906059265,-7.72027063369751,-66,5897.0,-1.229337453842163,-20,9950.0
12710,0.35391026735305786,-5.97012186050415,-23,5897.0,-0.4897850751876831,-52,9950.0
12720,0.3533794581890106,-4.24099063873291,-74,5897.0,-0.46661901473999023,21,9950.0
12730,0.3528359532356262,-5.6633477210998535,-66,5897.0,-0.5353640913963318,-2,9950.0
12740,0.35333961248397827,-3.668673038482666,-40,5897.0,-0.8208557367324829,-114,9950.0
12750,0.35286593437194824,-2.620903730392456,-7,5897.0,2.86918306350708,-49,9950.0
12760,0.3524041175842285,-4.665017604827881,8,5897.0,4.099979400634766,-147,9950.0
12770,0.3519793152809143,-1.1914256811141968,-1,5897.0,2.088585615158081,-58,9950.0
12780,0.3515504002571106,-0.5070174932479858,42,5897.0,3.0029425621032715,-45,9950.0
12790,0.35170575976371765,-0.15078020095825195,18,5897.0,-2.064385414123535,75,9950.0
12800,0.351317822933197,-0.22197555005550385,-16,5897.0,-0.8233568072319031,-14,9950.0
12810,0.35091403126716614,-1.665273904800415,25,5897.0,-3.432295322418213,-81,9950.0
12820,0.35050368309020996,-3.428683042526245,-58,5897.0,0.9053541421890259,-79,9950.0
12830,0.35249099135398865,-5.027809143066406,-54,5897.0,-4.558020114898682,-31,9950.0
12840,0.3522297739982605,-1.5181373357772827,7,5897.0,-4.025282382965088,0,9950.0
12850,0.3519490361213684,-1.1989551782608032,-20,5897.0,-0.9040297865867615,-11,9950.0
12860,0.3515584170818329,0.3329915702342987,-37,5897.0,-3.304781675338745,46,9950.0
12870,0.35114529728889465,1.4582043886184692,5,5897.0,-1.436143159866333,62,9950.0
12880,0.35193192958831787,0.8036558628082275,-27,5897.0,1.7992868423461914,203,9950.0
12890,0.3515945076942444,-1.1233164072036743,-62,5897.0,-1.3060446977615356,110,9950.0
12900,0.3513338267803192,-0.9902065396308899,-58,5897.0,-5.861399173736572,-15,9950.0
12910,0.3509540557861328,-0.34450340270996094,-26,5897.0,-6.0170207023620605,-25,9950.0
12920,0.3507671654224396,-0.22889316082000732,-35,5897.0,-4.421739101409912,-8,9950.0
12930,0.3504090905189514,2.957902669906616,-5,5897.0,-5.1261796951293945,-44,9950.0
12940,0.35010743141174316,3.8333070278167725,15,5897.0,-4.428630352020264,69,9950.0
12950,0.3498634994029999,3.5350301265716553,5,5897.0,-2.68013858795166,6,9950.0
12960,0.3501664102077484,1.4253911972045898,6,5897.0,0.23615220189094543,54,9950.0
12970,0.35000771284103394,1.5115818977355957,2,5897.0,0.759374737739563,94,9950.0
12980,0.349864661693573,0.02596595138311386,-8,5897.0,4.664758682250977,-9,9950.0
12990,0.3497255742549896,-0.7573931813240051,12,5897.0,7.007575511932373,-18,9950.0
13000,0.3496132791042328,-1.1007397174835205,37,5897.0,8.112905502319336,49,9950.0
13010,0.3512784242630005,0.604393482208252,28,5897.0,5.66959285736084,117,9950.0
13020,0.35128602385520935,-0.6719837784767151,58,5897.0,3.4169037342071533,-50,9950.0
13030,0.3513083755970001,-0.31598612666130066,62,5897.0,-0.21833011507987976,-88,9950.0
13040,0.3513764441013336,0.8288707733154297,24,5897.0,-2.8823561668395996,-24,9950.0
13050,0.3536612391471863,1.250507116317749,76,5897.0,-6.088364601135254,-186,9950.0
13060,0.35382604598999023,1.5901743173599243,92,5897.0,-6.35621452331543,-173,9950.0
13070,0.353983610868454,3.2616827487945557,58,5897.0,-7.3319244384765625,-118,9950.0
13080,0.3541429042816162,1.9746363162994385,50,5897.0,-2.122121572494507,-35,9950.0
13090,0.354279100894928,3.500936508178711,23,5897.0,-1.7972850799560547,3,9950.0
13100,0.3546883761882782,3.314079523086548,16,5897.0,-0.656569242477417,69,9950.0
13110,0.3548299968242645,4.850342273712158,50,5897.0,5.622773170471191,156,9950.0
13120,0.3549706041812897,2.947178363800049,67,5897.0,8.047574043273926,170,9950.0
13130,0.35506507754325867,2.2571980953216553,30,5897.0,8.291057586669922,135,9950.0
13140,0.3558970093727112,3.924715518951416,54,5897.0,2.6632678508758545,50,9950.0
13150,0.35596737265586853,0.8192961812019348,33,5897.0,5.470883846282959,53,9950.0
13160,0.3560139834880829,-0.17746928334236145,70,5897.0,4.7811455726623535,-53,9950.0
13170,0.3560553789138794,1.7577515840530396,96,5897.0,-1.2267897129058838,-60,9950.0
13180,0.35680967569351196,2.5523321628570557,85,5897.0,-3.489776611328125,-51,9950.0
13190,0.35686418414115906,2.553967237472534,54,5897.0,-3.229830265045166,-10,9950.0
13200,0.35704177618026733,2.2485361099243164,44,5897.0,-3.5077879428863525,24,9950.0
13210,0.35709822177886963,0.9690485000610352,44,5897.0,-2.14676833152771,60,9950.0
13220,0.35711684823036194,1.8862025737762451,11,5897.0,-3.3509087562561035,70,9950.0
13230,0.35703954100608826,0.9011152386665344,33,5897.0,-1.8861513137817383,48,9950.0
13240,0.3569486141204834,1.7655342817306519,1,5897.0,2.2996301651000977,15,9950.0
13250,0.3568039834499359,0.9338419437408447,-6,5897.0,2.5275626182556152,-19,9950.0
13260,0.3566230237483978,-0.674727201461792,-69,5897.0,4.934493064880371,-12,9950.0
13270,0.35741451382637024,0.16942282021045685,8,5897.0,3.13769268989563,36,9950.0
13280,0.3571547567844391,-1.350831151008606,-8,5897.0,2.3194186687469482,-51,9950.0
13290,0.35688215494155884,-2.5500268936157227,-86,5897.0,7.090190887451172,170,9950.0
13300,0.35656481981277466,-3.9497597217559814,-74,5897.0,3.8300321102142334,125,9950.0
13310,0.35650232434272766,-4.382134437561035,-92,5897.0,7.405360221862793,86,9950.0
13320,0.3561161160469055,-2.434704542160034,-55,5897.0,4.300812244415283,65,9950.0
13330,0.35568392276763916,-0.6805807948112488,-18,5897.0,3.5027523040771484,-68,9950.0
13340,0.3552387058734894,-1.4308760166168213,-14,5897.0,0.7162476778030396,-128,9950.0
13350,0.3547535240650177,-3.939124345779419,-40,5897.0,-0.8046906590461731,-132,9950.0
13360,0.35454851388931274,-4.124470233917236,-43,5897.0,-4.829558849334717,-164,9950.0
13370,0.3540293574333191,-2.877181053161621,-31,5897.0,-6.793790817260742,-188,9950.0
13380,0.35348621010780334,-2.8900418281555176,12,5897.0,-6.802374362945557,-165,9950.0
13390,0.3529348075389862,-1.9791678190231323,-25,5897.0,-4.338456630706787,-30,9950.0
13400,0.3514959514141083,-1.1008578538894653,-12,5897.0,-2.789975881576538,12,9950.0
13410,0.3508997857570648,-1.6223636865615845,-41,5897.0,-0.05459019914269447,75,9950.0
13420,0.3503047823905945,-0.6320749521255493,-68,5897.0,-0.3817037343978882,89,9950.0
13430,0.3497224450111389,-3.19818115234375,-65,5897.0,2.031074285507202,86,9950.0
13440,0.34912827610969543,-3.6246204376220703,-121,5897.0,2.69327449798584,120,9950.0
13450,0.3488729000091553,-5.57529878616333,-100,5897.0,4.6685333251953125,125,9950.0
13460,0.34829577803611755,-5.759978294372559,-107,5897.0,1.1839598417282104,132,9950.0
13470,0.3476971387863159,-7.078606605529785,-138,5897.0,0.6485567092895508,77,9950.0
13480,0.34719493985176086,-5.098032474517822,-117,5897.0,-0.5606165528297424,54,9950.0
13490,0.34799692034721375,-1.9381557703018188,-66,5897.0,-1.6600321531295776,31,9950.0
13500,0.3476638197898865,1.8720760345458984,-12,5897.0,-0.7813810706138611,77,9950.0
13510,0.3472241163253784,2.348156452178955,-1,5897.0,-0.754156231880188,18,9950.0
13520,0.3467817008495331,2.651827335357666,-14,5897.0,-1.5423882007598877,57,9950.0
13530,0.3446587324142456,0.584191620349884,-85,5897.0,-0.8449977040290833,72,9950.0
13540,0.3441237211227417,-0.879780650138855,-71,5897.0,1.806415319442749,137,9950.0
13550,0.34361615777015686,-1.8531184196472168,-118,5897.0,-0.6708770394325256,128,9950.0
13560,0.3432099521160126,-1.6856491565704346,-171,5897.0,1.8491082191467285,174,9950.0
13570,0.3428434729576111,-0.2654745578765869,-123,5897.0,-2.7898030281066895,65,9950.0
13580,0.34392547607421875,-0.32088786363601685,-38,5897.0,2.448448896408081,157,9950.0
13590,0.343614786863327,2.171088457107544,32,5897.0,0.8243743181228638,105,9950.0
13600,0.3432420492172241,2.1877424716949463,60,5897.0,-1.2003177404403687,70,9950.0
13610,0.3429047465324402,3.9598026275634766,42,5897.0,0.32723990082740784,-25,9950.0
13620,0.3442993462085724,4.410800933837891,12,5897.0,-0.6103969216346741,-57,9950.0
13630,0.3440950810909271,2.268505334854126,26,5897.0,-0.23829776048660278,57,9950.0
13640,0.34394362568855286,-0.7489252090454102,1,5897.0,2.5347647666931152,137,9950.0
13650,0.3438045382499695,-0.8658681511878967,-5,5897.0,4.14983606338501,-20,9950.0
13660,0.34365159273147583,-1.431013822555542,12,5897.0,1.050533413887024,-85,9950.0
13670,0.3443912863731384,-2.0933585166931152,-106,5897.0,6.2590765953063965,197,9950.0
13680,0.34423592686653137,-0.006601191591471434,-26,5897.0,5.837506294250488,-72,9950.0
13690,0.34409287571907043,2.5396082401275635,50,5897.0,4.754916667938232,-50,9950.0
13700,0.34396979212760925,3.0246777534484863,52,5897.0,6.632932662963867,19,9950.0
13710,0.34552159905433655,7.327696323394775,81,5897.0,3.668055295944214,28,9950.0
13720,0.3455508053302765,8.086100578308105,169,5897.0,-0.18992853164672852,-61,9950.0
13730,0.34564846754074097,4.6961989402771,144,5897.0,6.348752021789551,-7,9950.0
13740,0.34580913186073303,8.290949821472168,148,5897.0,0.7854611277580261,-11,9950.0
13750,0.34607282280921936,4.810080051422119,100,5897.0,0.15091447532176971,71,9950.0
13760,0.3486296236515045,4.329225540161133,56,5897.0,-0.5451327562332153,7,9950.0
13770,0.3489628732204437,2.8847336769104004,34,5897.0,0.39492931962013245,19,9950.0
13780,0.3492823541164398,1.6860346794128418,39,5897.0,3.193460702896118,95,9950.0
13790,0.3496398329734802,0.4445120692253113,14,5897.0,2.1021814346313477,104,9950.0
13800,0.3508641719818115,2.3806276321411133,0,5897.0,3.4796254634857178,154,9950.0
13810,0.3511475622653961,2.4067599773406982,27,5897.0,-1.9957438707351685,71,9950.0
13820,0.35139015316963196,4.0758280754089355,45,5897.0,0.5129204392433167,37,9950.0
13830,0.3516060411930084,4.379477500915527,29,5897.0,-0.903588593006134,104,9950.0
13840,0.35305652022361755,7.099046230316162,74,5897.0,-0.004652706906199455,37,9950.0
13850,0.35326647758483887,7.736252784729004,96,5897.0,-0.9307595491409302,3,9950.0
13860,0.353462278842926,4.65738582611084,102,5897.0,-1.6748517751693726,-113,9950.0
13870,0.3536043167114258,6.425451278686523,101,5897.0,-6.935551643371582,-179,9950.0
13880,0.35369935631752014,7.0292229652404785,162,5897.0,-4.806517124176025,-117,9950.0
13890,0.3562610149383545,7.686222553253174,131,5897.0,-5.330634117126465,-109,9950.0
13900,0.35639509558677673,3.742279291152954,122,5897.0,-3.468287706375122,-36,9950.0
13910,0.3564707636833191,5.396376609802246,105,5897.0,-4.005242824554443,23,9950.0
13920,0.3564983904361725,5.908942699432373,108,5897.0,-3.019019365310669,52,9950.0
13930,0.3562855124473572,6.084201812744141,64,5897.0,-1.2283495664596558,102,9950.0
13940,0.3562561571598053,3.895674467086792,66,5897.0,-4.233644008636475,-5,9950.0
13950,0.356205016374588,2.538191318511963,67,5897.0,-0.3498741686344147,-71,9950.0
13960,0.356087327003479,-0.668842077255249,-22,5897.0,-2.6521410942077637,-87,9950.0
13970,0.35668355226516724,-3.4124138355255127,-68,5897.0,-1.8197845220565796,-43,9950.0
13980,0.3565100431442261,-6.745619297027588,-116,5897.0,-5.3992719650268555,-142,9950.0
13990,0.35629937052726746,-3.9682836532592773,-96,5897.0,-9.894618034362793,-12,9950.0
14000,0.356025367975235,-3.7438716888427734,-73,5897.0,-7.044834136962891,-15,9950.0
14010,0.3557490110397339,-0.1771484911441803,-9,5897.0,-9.654230117797852,-151,9950.0
14020,0.3571091592311859,-1.9700433015823364,-50,5897.0,8.617000579833984,-65,9950.0
14030,0.35685044527053833,0.2985764741897583,10,5897.0,2.8873417377471924,-40,9950.0
14040,0.3565455675125122,-0.1565140187740326,16,5897.0,1.8818755149841309,-43,9950.0
14050,0.3561966121196747,-2.211395740509033,-57,5897.0,3.823173761367798,87,9950.0
14060,0.35707345604896545,-3.976654052734375,-93,5897.0,3.5049006938934326,68,9950.0
14070,0.3567884564399719,-3.9997737407684326,-115,5897.0,0.8357385396957397,92,9950.0
14080,0.35653504729270935,-4.800851345062256,-107,5897.0,-0.7617754340171814,-12,9950.0
14090,0.35626935958862305,-6.559146881103516,-140,5897.0,-2.372626781463623,20,9950.0
14100,0.3559829890727997,-5.180318355560303,-97,5897.0,-3.5817008018493652,-54,9950.0
14110,0.3568790555000305,-5.249244213104248,-112,5897.0,-3.064185857772827,-131,9950.0
14120,0.35656145215034485,-6.4654927253723145,-105,5897.0,-2.9079537391662598,-200,9950.0
14130,0.35620132088661194,-5.011594295501709,-72,5897.0,-2.047827959060669,-189,9950.0
14140,0.3557673692703247,-6.2081379890441895,-72,5897.0,0.2531791627407074,-90,9950.0
14150,0.35520926117897034,-3.2029478549957275,9,5897.0,-2.158640146255493,-70,9950.0
14160,0.35475701093673706,-1.8810428380966187,-27,5897.0,-3.379337787628174,-18,9950.0
14170,0.3543272316455841,-1.666206955909729,-29,5897.0,-1.0408779382705688,88,9950.0
14180,0.35392317175865173,0.10481731593608856,-40,5897.0,-1.9552217721939087,130,9950.0
14190,0.3534991145133972,-2.7017624378204346,-80,5897.0,4.495719909667969,209,9950.0
14200,0.352832168340683,-3.164527177810669,-61,5897.0,3.865557909011841,168,9950.0
14210,0.3523198068141937,-2.887592077255249,-89,5897.0,2.7136709690093994,145,9950.0
14220,0.3517778515815735,-3.059063196182251,-119,5897.0,0.48455101251602173,59,9950.0
14230,0.3511834740638733,-7.993707656860352,-105,5897.0,1.6699659824371338,18,9950.0
