timestamp,kalman.stateZ,gyro.x,gyro.xRaw,gyro.xVariance,gyro.y,gyro.yRaw,gyro.yVariance
0,0.2835812568664551,0.34512859582901,17,5897.0,3.301269054412842,57,9950.0
10,0.28345897793769836,0.8541867733001709,14,5897.0,3.747938394546509,58,9950.0
20,0.2849145829677582,1.0310537815093994,22,5897.0,3.8424508571624756,64,9950.0
30,0.2848912179470062,1.1311984062194824,18,5897.0,3.657085418701172,66,9950.0
40,0.2848554253578186,0.508506178855896,3,5897.0,3.4227023124694824,61,9950.0
50,0.2848058342933655,-0.17430192232131958,-6,5897.0,3.3493714332580566,58,9950.0
60,0.28585007786750793,-0.6735848784446716,-7,5897.0,2.5262880325317383,46,9950.0
70,0.28584370017051697,-0.6876530647277832,-12,5897.0,2.1100635528564453,31,9950.0
80,0.2858390510082245,-0.293716162443161,-1,5897.0,1.62385892868042,29,9950.0
90,0.2858564555644989,-0.018673935905098915,5,5897.0,1.3858046531677246,24,9950.0
100,0.28589779138565063,0.10230252146720886,1,5897.0,0.9945091605186462,21,9950.0
110,0.2854189872741699,-0.16789758205413818,2,5897.0,0.513399064540863,8,9950.0
120,0.2854130268096924,-0.120343416929245,0,5897.0,0.10799098759889603,8,9950.0
130,0.285404235124588,0.16510887444019318,0,5897.0,-0.7480953931808472,-2,9950.0
140,0.2853884994983673,-0.009971622377634048,-1,5897.0,-0.9471452832221985,-12,9950.0
150,0.28627294301986694,-0.1556120067834854,0,5897.0,-1.457990050315857,-25,9950.0
160,0.28629782795906067,-0.08823750168085098,0,5897.0,-1.237714409828186,-20,9950.0
170,0.2863224446773529,-0.30868473649024963,-6,5897.0,-1.6214858293533325,-22,9950.0
180,0.2863504886627197,-0.6909589171409607,-16,5897.0,-1.6209721565246582,-30,9950.0
190,0.2864089608192444,-0.5979613661766052,-3,5897.0,-1.6351314783096313,-22,9950.0
200,0.287417471408844,-0.9338908791542053,-7,5897.0,-1.4205894470214844,-24,9950.0
210,0.2875310778617859,-0.16931013762950897,0,5897.0,-1.2591552734375,-19,9950.0
220,0.2876294255256653,0.33897677063941956,6,5897.0,-1.3653419017791748,-23,9950.0
230,0.2877209186553955,0.5796684622764587,13,5897.0,-1.1028856039047241,-19,9950.0
240,0.28657421469688416,0.5224319696426392,8,5897.0,-1.0035665035247803,-13,9950.0
250,0.28660863637924194,0.8523215055465698,20,5897.0,-1.3738126754760742,-23,9950.0
260,0.2866237461566925,1.560598611831665,17,5897.0,-3.1179566383361816,-68,9950.0
270,0.2866511940956116,-0.5980108380317688,3,5897.0,-5.435762405395508,-100,9950.0
280,0.2867209017276764,2.807734489440918,48,5897.0,-9.532833099365234,-186,9950.0
290,0.2867744565010071,3.841512680053711,33,5897.0,-16.140684127807617,-310,9950.0
300,0.28686216473579407,3.61478590965271,76,5897.0,-23.346786499023438,-436,9950.0
310,0.286958247423172,3.678760051727295,46,5897.0,-33.32329177856445,-588,9950.0
320,0.2870112657546997,2.810427188873291,46,5897.0,-40.50949478149414,-771,9950.0
330,0.28747156262397766,1.8924082517623901,53,5897.0,-48.670257568359375,-843,9950.0
340,0.28736612200737,1.6478310823440552,44,5897.0,-54.08673095703125,-915,9950.0
350,0.2877984046936035,2.232149124145508,31,5897.0,-57.125091552734375,-893,9950.0
360,0.28749391436576843,2.6937036514282227,-13,5897.0,-54.41796112060547,-787,9950.0
370,0.2861064374446869,2.4869120121002197,13,5897.0,-52.16190719604492,-827,9950.0
380,0.2857373058795929,1.2326290607452393,-4,5897.0,-37.07884979248047,-497,9950.0
390,0.28687673807144165,1.8486641645431519,29,5897.0,-22.63448143005371,-317,9950.0
400,0.28689703345298767,2.834456205368042,-25,5897.0,-8.311139106750488,-119,9950.0
410,0.28692200779914856,-0.27252197265625,-2,5897.0,2.532846689224243,135,9950.0
420,0.2862717807292938,-1.583099365234375,43,5897.0,12.744672775268555,218,9950.0
430,0.2862989902496338,-0.72127765417099,19,5897.0,20.801185607910156,317,9950.0
440,0.2864029109477997,0.5518001317977905,-11,5897.0,26.527297973632812,447,9950.0
450,0.28665077686309814,1.534441590309143,-8,5897.0,27.4198055267334,525,9950.0
460,0.28643694519996643,2.9873926639556885,40,5897.0,24.97955894470215,583,9950.0
470,0.2864801287651062,3.9009292125701904,122,5897.0,23.00676155090332,366,9950.0
480,0.286525696516037,4.531337738037109,146,5897.0,18.635826110839844,262,9950.0
490,0.28666672110557556,2.6727166175842285,129,5897.0,15.028258323669434,69,9950.0
500,0.28801748156547546,2.5228466987609863,66,5897.0,9.368816375732422,77,9950.0
510,0.28827422857284546,1.330004334449768,59,5897.0,2.408738374710083,-84,9950.0
520,0.28864753246307373,0.7693445682525635,-42,5897.0,-3.7005929946899414,-103,9950.0
530,0.28895482420921326,-0.22112956643104553,7,5897.0,-7.346988201141357,-116,9950.0
540,0.28921979665756226,-0.9813334941864014,-9,5897.0,-9.851122856140137,-212,9950.0
550,0.28982841968536377,0.17880383133888245,-7,5897.0,-12.130993843078613,-181,9950.0
560,0.2903206944465637,-0.9788731336593628,42,5897.0,-11.732137680053711,-238,9950.0
570,0.2907567024230957,1.9918161630630493,4,5897.0,-8.476129531860352,-201,9950.0
580,0.29110822081565857,-1.4147133827209473,53,5897.0,-2.5889110565185547,-127,9950.0
590,0.290561318397522,-1.9767224788665771,7,5897.0,0.21836526691913605,-103,9950.0
600,0.2908804714679718,0.42433685064315796,-43,5897.0,5.0532307624816895,43,9950.0
610,0.29133713245391846,-2.607722520828247,-40,5897.0,5.5196356773376465,221,9950.0
620,0.29176440834999084,-2.1473917961120605,-79,5897.0,12.076330184936523,265,9950.0
630,0.2920446991920471,-1.6447862386703491,-117,5897.0,12.027600288391113,315,9950.0
640,0.2913067936897278,1.464849591255188,26,5897.0,18.554025650024414,232,9950.0
650,0.2917231023311615,-1.4305733442306519,46,5897.0,15.148581504821777,4,9950.0
660,0.29237037897109985,0.40164005756378174,1,5897.0,18.929824829101562,211,9950.0
670,0.2928577661514282,0.672320544719696,86,5897.0,15.441095352172852,396,9950.0
680,0.2928577959537506,4.279265880584717,13,5897.0,17.008289337158203,320,9950.0
690,0.293382853269577,3.7186038494110107,-46,5897.0,12.443604469299316,170,9950.0
700,0.2940000891685486,3.408454179763794,3,5897.0,10.408949851989746,175,9950.0
710,0.29457464814186096,1.787663459777832,121,5897.0,6.402691841125488,66,9950.0
720,0.29351893067359924,1.494998812675476,89,5897.0,2.748725175857544,-60,9950.0
730,0.2938907742500305,1.3113164901733398,12,5897.0,1.2573918104171753,-20,9950.0
740,0.29424571990966797,-0.2104504555463791,-89,5897.0,-0.7248095870018005,71,9950.0
750,0.2944857180118561,-1.433905839920044,-28,5897.0,-3.184995174407959,33,9950.0
760,0.29460379481315613,-1.6863561868667603,33,5897.0,-5.13209342956543,-205,9950.0
770,0.2944363057613373,-1.9694329500198364,70,5897.0,-6.527618408203125,-286,9950.0
780,0.294512540102005,-1.8102842569351196,-41,5897.0,-8.76647663116455,-71,9950.0
790,0.2946091294288635,-2.699397087097168,-59,5897.0,-8.316244125366211,-3,9950.0
800,0.29462113976478577,-1.7938830852508545,-23,5897.0,-6.253347396850586,-223,9950.0
810,0.29386448860168457,0.2453906089067459,21,5897.0,-5.601858615875244,-181,9950.0
820,0.29356640577316284,-0.18705345690250397,37,5897.0,-4.5846452713012695,112,9950.0
830,0.2932848334312439,1.5239856243133545,-12,5897.0,-2.638594388961792,62,9950.0
840,0.29302355647087097,1.940178394317627,-15,5897.0,-1.927017092704773,-183,9950.0
850,0.29281938076019287,3.437617063522339,7,5897.0,-3.763793468475342,-74,9950.0
860,0.29232144355773926,2.040849208831787,14,5897.0,-4.171567916870117,139,9950.0
870,0.2921130955219269,2.7464375495910645,-7,5897.0,-4.081703186035156,32,9950.0
880,0.2917771339416504,2.1435093879699707,-13,5897.0,-3.6704695224761963,-186,9950.0
890,0.29133257269859314,1.2356475591659546,42,5897.0,-6.167017936706543,-166,9950.0
900,0.2930229604244232,-0.36377832293510437,59,5897.0,-8.548871994018555,-69,9950.0
910,0.2927107512950897,0.22376659512519836,-41,5897.0,-8.582056045532227,-101,9950.0
920,0.29251348972320557,-1.9423654079437256,-52,5897.0,-7.319169521331787,-235,9950.0
930,0.2923484742641449,-2.3951878547668457,-8,5897.0,-9.11690616607666,-163,9950.0
940,0.2912871837615967,-4.865257740020752,-85,5897.0,-9.429104804992676,-37,9950.0
950,0.29100555181503296,-4.938337326049805,-130,5897.0,-10.923670768737793,-168,9950.0
960,0.29065948724746704,-4.964519500732422,-59,5897.0,-12.2238187789917,-350,9950.0
970,0.2903444766998291,-2.8542749881744385,31,5897.0,-14.840715408325195,-301,9950.0
980,0.29002076387405396,-0.8372076153755188,60,5897.0,-15.170729637145996,-243,9950.0
990,0.2905347943305969,0.9307907223701477,-20,5897.0,-15.354767799377441,-224,9950.0
1000,0.29032185673713684,1.2486064434051514,-9,5897.0,-14.356234550476074,-211,9950.0
1010,0.2901178300380707,1.1610620021820068,49,5897.0,-11.573530197143555,-210,9950.0
1020,0.2898750305175781,1.1516040563583374,37,5897.0,-9.423641204833984,-128,9950.0
1030,0.29010313749313354,0.4446883499622345,-63,5897.0,-5.2156291007995605,-64,9950.0
1040,0.2897961735725403,0.28165265917778015,15,5897.0,-1.6642024517059326,-58,9950.0
1050,0.28953444957733154,-1.2565032243728638,18,5897.0,-1.288161277770996,60,9950.0
1060,0.28931087255477905,-2.2134454250335693,-65,5897.0,1.9261091947555542,73,9950.0
1070,0.2891964912414551,-1.1270207166671753,-71,5897.0,4.539829730987549,-19,9950.0
1080,0.28949445486068726,-1.382950782775879,4,5897.0,7.37371301651001,151,9950.0
1090,0.28957581520080566,-0.5929417014122009,13,5897.0,7.49701452255249,228,9950.0
1100,0.2897087335586548,-0.8147532939910889,-64,5897.0,8.98204517364502,63,9950.0
1110,0.2897225320339203,0.4553418755531311,7,5897.0,6.7646613121032715,32,9950.0
1120,0.2892843186855316,0.6388895511627197,71,5897.0,3.877474308013916,187,9950.0
1130,0.28920042514801025,0.17225168645381927,-30,5897.0,3.2875497341156006,111,9950.0
1140,0.28911736607551575,-0.3418830931186676,9,5897.0,2.4962282180786133,-117,9950.0
1150,0.2891412675380707,1.198348045349121,60,5897.0,0.8538399934768677,-62,9950.0
1160,0.2898908257484436,1.4662644863128662,8,5897.0,-0.0683593675494194,122,9950.0
1170,0.28995439410209656,0.2787300646305084,-29,5897.0,0.5805937051773071,75,9950.0
1180,0.2900388538837433,-0.3436545133590698,21,5897.0,2.1204376220703125,-69,9950.0
1190,0.2901797294616699,-0.7771081924438477,-6,5897.0,1.0870029926300049,38,9950.0
1200,0.2903144061565399,-0.1716056615114212,-50,5897.0,2.1779284477233887,139,9950.0
1210,0.2906458079814911,0.08652324229478836,34,5897.0,3.8864662647247314,67,9950.0
1220,0.29068461060523987,0.56793612241745,49,5897.0,5.095048427581787,63,9950.0
1230,0.29077208042144775,1.5580079555511475,-34,5897.0,6.076114654541016,72,9950.0
1240,0.29083022475242615,0.41583260893821716,39,5897.0,6.888901233673096,33,9950.0
1250,0.291765958070755,0.5501531362533569,31,5897.0,6.710023403167725,187,9950.0
1260,0.29197126626968384,1.5440247058868408,-1,5897.0,5.359790802001953,226,9950.0
1270,0.2922423779964447,1.657151460647583,70,5897.0,6.275793075561523,82,9950.0
1280,0.2925938069820404,1.2441072463989258,12,5897.0,6.4741621017456055,107,9950.0
1290,0.2930184602737427,0.20136334002017975,-43,5897.0,7.156966686248779,65,9950.0
1300,0.29309237003326416,-1.004629135131836,11,5897.0,5.912400245666504,29,9950.0
1310,0.29357653856277466,-1.6521000862121582,-57,5897.0,5.498569488525391,243,9950.0
1320,0.29438310861587524,-1.1240184307098389,-32,5897.0,4.411162376403809,119,9950.0
1330,0.2950553894042969,-0.12768036127090454,49,5897.0,4.638620853424072,55,9950.0
1340,0.29486319422721863,0.6941860318183899,-17,5897.0,3.752485513687134,79,9950.0
1350,0.2955020070075989,-1.022204041481018,37,5897.0,6.107699394226074,-166,9950.0
1360,0.296149343252182,1.4927462339401245,23,5897.0,5.716256141662598,58,9950.0
1370,0.29687678813934326,-1.4754936695098877,-50,5897.0,7.081658363342285,-4,9950.0
1380,0.29623639583587646,0.4384550154209137,38,5897.0,6.325111389160156,116,9950.0
1390,0.29692018032073975,-0.43935060501098633,-36,5897.0,6.1847429275512695,186,9950.0
1400,0.29763174057006836,1.3399852514266968,57,5897.0,7.008847713470459,144,9950.0
1410,0.29848289489746094,1.36212158203125,38,5897.0,6.238707542419434,243,9950.0
1420,0.299346387386322,0.8803653717041016,29,5897.0,5.630307674407959,82,9950.0
1430,0.2985217273235321,1.235092282295227,75,5897.0,4.7889251708984375,151,9950.0
1440,0.2994166910648346,1.272649884223938,18,5897.0,4.554914951324463,-18,9950.0
1450,0.300375372171402,2.3164710998535156,115,5897.0,2.535654306411743,-38,9950.0
1460,0.301385760307312,3.8872427940368652,28,5897.0,0.9899605512619019,-173,9950.0
1470,0.30018898844718933,4.958292484283447,169,5897.0,-1.607994556427002,-149,9950.0
1480,0.3010859787464142,5.60200309753418,46,5897.0,-2.0049376487731934,-187,9950.0
1490,0.3018907904624939,4.257968425750732,176,5897.0,-1.7772774696350098,-59,9950.0
1500,0.30277183651924133,3.431011915206909,4,5897.0,-0.7855023741722107,-122,9950.0
1510,0.3035852313041687,4.486963272094727,115,5897.0,-2.1828701496124268,-18,9950.0
1520,0.30254361033439636,1.5115886926651,20,5897.0,-0.667908787727356,-127,9950.0
1530,0.30330783128738403,0.587647557258606,15,5897.0,-1.3681409358978271,-57,9950.0
1540,0.304065078496933,-0.567816436290741,57,5897.0,-0.15865971148014069,-145,9950.0
1550,0.3049200773239136,-1.0001850128173828,-24,5897.0,0.6709052920341492,-131,9950.0
1560,0.3045845925807953,-0.031015759333968163,123,5897.0,0.2254248708486557,-130,9950.0
1570,0.30533039569854736,-0.34090545773506165,-9,5897.0,-1.2199805974960327,-126,9950.0
1580,0.3061054050922394,0.07982294261455536,58,5897.0,-0.907447338104248,40,9950.0
1590,0.30685070157051086,-3.9295477867126465,80,5897.0,-0.5953092575073242,-78,9950.0
1600,0.3036908209323883,-1.3132617473602295,-93,5897.0,-3.218414783477783,-22,9950.0
1610,0.3040825128555298,-4.985388278961182,12,5897.0,-0.7040029764175415,-64,9950.0
1620,0.30445635318756104,-3.732975959777832,-62,5897.0,-2.3458902835845947,-32,9950.0
1630,0.3048333525657654,-2.6965603828430176,-7,5897.0,-4.132930755615234,111,9950.0
1640,0.30524715781211853,-4.538832664489746,-23,5897.0,-3.2679190635681152,4,9950.0
1650,0.30308619141578674,-0.26983878016471863,-135,5897.0,-4.048442363739014,23,9950.0
1660,0.3031938970088959,-4.124004364013672,-8,5897.0,-4.5501861572265625,21,9950.0
1670,0.3032802641391754,0.4177857041358948,-27,5897.0,-2.389660120010376,28,9950.0
1680,0.3033975064754486,0.0626305416226387,-93,5897.0,-2.120394229888916,78,9950.0
1690,0.3017326593399048,1.445479393005371,-3,5897.0,-0.6379449367523193,68,9950.0
1700,0.3018910884857178,1.557807207107544,70,5897.0,1.431713581085205,7,9950.0
1710,0.30206844210624695,0.02612772397696972,18,5897.0,3.6996569633483887,-83,9950.0
1720,0.3021150529384613,-1.1399117708206177,-19,5897.0,4.550355434417725,49,9950.0
1730,0.3021439015865326,2.286693572998047,126,5897.0,5.73989200592041,25,9950.0
1740,0.30175668001174927,0.33825626969337463,104,5897.0,6.057448863983154,-17,9950.0
1750,0.30169349908828735,1.441112995147705,-2,5897.0,7.367116928100586,53,9950.0
1760,0.3015558421611786,1.1081624031066895,-13,5897.0,5.450156211853027,189,9950.0
1770,0.301477313041687,1.3442018032073975,58,5897.0,3.3543221950531006,184,9950.0
1780,0.301874577999115,2.1495654582977295,-70,5897.0,3.0642588138580322,100,9950.0
1790,0.3016861081123352,2.6210339069366455,-88,5897.0,4.809431076049805,147,9950.0
1800,0.30155208706855774,0.9892832040786743,-8,5897.0,2.1440653800964355,135,9950.0
1810,0.3014306128025055,0.6147471070289612,46,5897.0,-0.2436934858560562,-89,9950.0
1820,0.3023463785648346,0.06579193472862244,30,5897.0,1.5493512153625488,-158,9950.0
1830,0.3022879362106323,0.1056363433599472,39,5897.0,1.9579452276229858,-15,9950.0
1840,0.3022570013999939,2.1969804763793945,144,5897.0,-0.8661106824874878,29,9950.0
1850,0.3021164834499359,0.2439282238483429,57,5897.0,1.5664314031600952,-9,9950.0
1860,0.3019196689128876,1.2210209369659424,-88,5897.0,1.9741846323013306,140,9950.0
1870,0.3029472827911377,0.6143919825553894,-78,5897.0,4.236379623413086,234,9950.0
1880,0.30275845527648926,-2.0033891201019287,-62,5897.0,6.999876976013184,146,9950.0
1890,0.30255231261253357,1.8651084899902344,39,5897.0,1.6596351861953735,16,9950.0
1900,0.3023773729801178,-0.48839953541755676,9,5897.0,4.055732727050781,-62,9950.0
1910,0.30410608649253845,-1.5578590631484985,18,5897.0,3.341606616973877,-27,9950.0
1920,0.3041418492794037,-0.024492792785167694,49,5897.0,2.2873129844665527,56,9950.0
1930,0.304148405790329,-2.1748781204223633,70,5897.0,0.1862163096666336,103,9950.0
1940,0.3042030334472656,0.06575153768062592,-62,5897.0,1.255410075187683,34,9950.0
1950,0.30432194471359253,0.6256206631660461,-89,5897.0,-0.3535408675670624,18,9950.0
1960,0.3067886233329773,0.3566191494464874,-1,5897.0,-2.784895181655884,27,9950.0
1970,0.3070175349712372,1.2657338380813599,82,5897.0,-3.7738771438598633,-94,9950.0
1980,0.3072856366634369,-0.38608792424201965,105,5897.0,-1.635001540184021,-229,9950.0
1990,0.3075557351112366,-0.22407516837120056,17,5897.0,-1.1243680715560913,-58,9950.0
2000,0.30987748503685,1.0967283248901367,26,5897.0,-2.0305678844451904,6,9950.0
2010,0.31000688672065735,0.31714439392089844,54,5897.0,-2.967658042907715,36,9950.0
2020,0.3101436197757721,-0.477207213640213,-47,5897.0,-2.186980724334717,62,9950.0
2030,0.31029239296913147,0.791166365146637,-77,5897.0,-2.388951301574707,34,9950.0
2040,0.3098405599594116,-0.03789672628045082,-97,5897.0,1.0532245635986328,62,9950.0
2050,0.31000179052352905,1.0590343475341797,-2,5897.0,6.103185653686523,184,9950.0
2060,0.31022652983665466,2.6549270153045654,74,5897.0,7.77179479598999,46,9950.0
2070,0.31037837266921997,0.04716173931956291,41,5897.0,7.003599643707275,-132,9950.0
2080,0.31046587228775024,-0.39525529742240906,64,5897.0,3.1555919647216797,22,9950.0
2090,0.3107125461101532,0.08412059396505356,132,5897.0,-1.6963952779769897,-81,9950.0
2100,0.3106454908847809,1.0039823055267334,79,5897.0,-0.8077607154846191,-115,9950.0
2110,0.31047120690345764,3.158541440963745,-62,5897.0,-1.6597514152526855,-47,9950.0
2120,0.3103160262107849,2.219377279281616,-54,5897.0,-6.323421955108643,101,9950.0
2130,0.3104921579360962,0.21857985854148865,-54,5897.0,-6.108343124389648,-19,9950.0
2140,0.31033867597579956,1.4113004207611084,-60,5897.0,-9.415852546691895,-206,9950.0
2150,0.31020474433898926,0.9016360640525818,-38,5897.0,-8.657892227172852,-112,9950.0
2160,0.3101194202899933,-1.498938798904419,-15,5897.0,-8.1807279586792,-84,9950.0
2170,0.309968501329422,0.47943541407585144,68,5897.0,-6.295839309692383,-249,9950.0
2180,0.3105754256248474,0.2550923228263855,107,5897.0,-5.322478294372559,-264,9950.0
2190,0.3104133605957031,0.4203779399394989,-6,5897.0,-3.812171697616577,-172,9950.0
2200,0.31018564105033875,-0.2669127881526947,-48,5897.0,-3.4904165267944336,-14,9950.0
2210,0.3098861277103424,-1.279470443725586,22,5897.0,-0.042991507798433304,26,9950.0
2220,0.30843585729599,-1.941877007484436,-25,5897.0,-1.8587359189987183,89,9950.0
2230,0.30815771222114563,0.949944257736206,-134,5897.0,-2.3953065872192383,47,9950.0
2240,0.3078058362007141,1.1379504203796387,-83,5897.0,-3.393279552459717,26,9950.0
2250,0.30744171142578125,0.489793986082077,31,5897.0,-4.666360855102539,-30,9950.0
2260,0.30789703130722046,0.4044681489467621,-63,5897.0,-5.852845668792725,-245,9950.0
2270,0.3075549900531769,-0.22617821395397186,-71,5897.0,-5.294474124908447,-245,9950.0
2280,0.3071708381175995,-0.17356938123703003,51,5897.0,-6.786634922027588,-143,9950.0
2290,0.30684414505958557,-2.0403237342834473,91,5897.0,-8.356836318969727,-262,9950.0
2300,0.30656662583351135,-1.7530474662780762,68,5897.0,-7.678717136383057,-212,9950.0
2310,0.30521512031555176,-1.4618388414382935,-66,5897.0,-7.142253398895264,-38,9950.0
2320,0.3049580156803131,-1.1607691049575806,-124,5897.0,-5.3625383377075195,69,9950.0
2330,0.30481699109077454,-1.1971749067306519,-63,5897.0,-6.604980945587158,-23,9950.0
2340,0.304740309715271,-2.1916379928588867,-36,5897.0,-4.375417232513428,-13,9950.0
2350,0.3051970899105072,-1.6276321411132812,-7,5897.0,-1.6668978929519653,-209,9950.0
2360,0.3051859140396118,-2.2631473541259766,10,5897.0,-1.1333659887313843,-151,9950.0
2370,0.3053133189678192,-0.5897678136825562,23,5897.0,1.2942601442337036,104,9950.0
2380,0.30550509691238403,0.9643806219100952,15,5897.0,2.561129331588745,140,9950.0
2390,0.3056914210319519,-1.4251588582992554,-39,5897.0,0.43564364314079285,80,9950.0
2400,0.304819792509079,-2.6132278442382812,-84,5897.0,1.5492868423461914,81,9950.0
2410,0.3050343990325928,-2.232438325881958,-60,5897.0,3.0757298469543457,-65,9950.0
2420,0.3052125871181488,-2.8293144702911377,-51,5897.0,1.1278865337371826,-135,9950.0
2430,0.30530932545661926,-1.2091814279556274,51,5897.0,-0.43583470582962036,-26,9950.0
2440,0.30642956495285034,-1.5740801095962524,72,5897.0,-0.5296580791473389,50,9950.0
2450,0.30662545561790466,-1.2791123390197754,-32,5897.0,1.1731185913085938,76,9950.0
2460,0.3068503737449646,-1.2946397066116333,-78,5897.0,1.9133628606796265,142,9950.0
2470,0.30700626969337463,-0.8662339448928833,-98,5897.0,1.987278938293457,3,9950.0
2480,0.3062886893749237,-0.7086000442504883,-40,5897.0,4.174776077270508,-30,9950.0
2490,0.3064992129802704,1.0148234367370605,144,5897.0,5.656368732452393,43,9950.0
2500,0.30675163865089417,0.9476851224899292,132,5897.0,7.220617294311523,98,9950.0
2510,0.3069271743297577,2.27946138381958,14,5897.0,8.838274002075195,139,9950.0
2520,0.30707815289497375,3.792621612548828,-42,5897.0,5.601530075073242,266,9950.0
2530,0.3080487847328186,2.2755753993988037,4,5897.0,10.522363662719727,250,9950.0
2540,0.3083766996860504,2.0779407024383545,49,5897.0,7.978090763092041,104,9950.0
2550,0.3086870312690735,2.727877616882324,96,5897.0,8.701135635375977,103,9950.0
2560,0.3090408146381378,1.127766489982605,95,5897.0,9.508648872375488,-60,9950.0
2570,0.31011906266212463,-0.12701866030693054,-37,5897.0,10.362524032592773,94,9950.0
2580,0.3104856610298157,0.630699872970581,-32,5897.0,5.515678405761719,304,9950.0
2590,0.31080371141433716,-1.2706148624420166,-80,5897.0,6.099651336669922,267,9950.0
2600,0.31108587980270386,0.2572706639766693,-64,5897.0,7.675004959106445,108,9950.0
2610,0.31205320358276367,-1.3529053926467896,-58,5897.0,4.741661548614502,34,9950.0
2620,0.31251290440559387,-2.3167061805725098,-11,5897.0,5.1180901527404785,2,9950.0
2630,0.31295135617256165,-1.0912907123565674,62,5897.0,2.6364223957061768,38,9950.0
2640,0.3133600056171417,0.5236095786094666,138,5897.0,4.810314655303955,149,9950.0
2650,0.3137323558330536,3.7062714099884033,34,5897.0,3.85852313041687,109,9950.0
2660,0.31419116258621216,5.250494003295898,-31,5897.0,3.7808151245117188,150,9950.0
2670,0.3145205080509186,4.821324825286865,-20,5897.0,4.504150867462158,267,9950.0
2680,0.31485411524772644,2.1806018352508545,44,5897.0,4.6424689292907715,130,9950.0
2690,0.3152042031288147,2.5016019344329834,74,5897.0,4.371809482574463,-97,9950.0
2700,0.316069632768631,0.48808956146240234,21,5897.0,5.347073554992676,-57,9950.0
2710,0.31622669100761414,1.828530192375183,70,5897.0,2.6470868587493896,3,9950.0
2720,0.31628182530403137,1.0396218299865723,119,5897.0,-0.7082775831222534,-90,9950.0
2730,0.3162996172904968,-0.45167458057403564,62,5897.0,0.3693700134754181,-4,9950.0
2740,0.3162595331668854,1.2433196306228638,-59,5897.0,-0.33682021498680115,138,9950.0
2750,0.3152559995651245,1.5777755975723267,-73,5897.0,-1.0972130298614502,146,9950.0
2760,0.3151859939098358,0.4430156946182251,5,5897.0,-3.7201201915740967,15,9950.0
2770,0.3151448369026184,1.3320496082305908,28,5897.0,-3.937528133392334,-67,9950.0
2780,0.3150271475315094,2.583543539047241,3,5897.0,-5.9031524658203125,-199,9950.0
2790,0.3140045404434204,0.711475133895874,43,5897.0,-6.227523326873779,-237,9950.0
2800,0.31373441219329834,1.3110733032226562,112,5897.0,-5.3937668800354,-49,9950.0
2810,0.31336021423339844,-1.2885608673095703,124,5897.0,-4.451369762420654,-62,9950.0
2820,0.3129163086414337,-0.5169474482536316,-55,5897.0,-3.050825595855713,-69,9950.0
2830,0.3124723434448242,-0.28013813495635986,-120,5897.0,-5.617999076843262,79,9950.0
2840,0.3127138614654541,-2.337111711502075,-88,5897.0,-6.406541347503662,21,9950.0
2850,0.31227946281433105,0.1345779150724411,-37,5897.0,-4.562747478485107,-43,9950.0
2860,0.31187623739242554,0.4761510193347931,38,5897.0,-4.535774230957031,-117,9950.0
2870,0.3115161955356598,-1.0307248830795288,54,5897.0,-4.6398468017578125,-241,9950.0
2880,0.3113577663898468,-1.3187065124511719,-61,5897.0,-3.324777364730835,-145,9950.0
2890,0.3110322654247284,1.2191457748413086,4,5897.0,-6.868236541748047,-66,9950.0
2900,0.31080162525177,-1.5159534215927124,-43,5897.0,-4.207057476043701,82,9950.0
2910,0.3106538951396942,-0.16280558705329895,-34,5897.0,-6.366247653961182,-111,9950.0
2920,0.30952128767967224,1.3738253116607666,1,5897.0,-6.612454414367676,-8,9950.0
2930,0.309317409992218,-1.1868797540664673,37,5897.0,-2.8713176250457764,-106,9950.0
2940,0.309160441160202,-0.12341033667325974,2,5897.0,-5.990861415863037,-91,9950.0
2950,0.30907800793647766,-0.9628577828407288,102,5897.0,-4.586664199829102,-66,9950.0
2960,0.30903270840644836,-1.6327396631240845,31,5897.0,-3.4834063053131104,-65,9950.0
2970,0.30815786123275757,-2.0628345012664795,-72,5897.0,-2.7764925956726074,-68,9950.0
2980,0.3080618679523468,0.922747790813446,-82,5897.0,-4.190297603607178,-9,9950.0
2990,0.3080311119556427,-0.4217657744884491,-72,5897.0,0.8695138692855835,-63,9950.0
3000,0.30804696679115295,-1.7626876831054688,59,5897.0,1.6358678340911865,24,9950.0
3010,0.3087741434574127,-0.4501822292804718,46,5897.0,-0.9583308100700378,13,9950.0
3020,0.3086807429790497,-1.6089857816696167,26,5897.0,1.873023271560669,63,9950.0
3030,0.30859774351119995,-2.7574856281280518,-86,5897.0,1.496177315711975,114,9950.0
3040,0.3085867464542389,-2.081784963607788,-69,5897.0,4.158292770385742,23,9950.0
3050,0.30856576561927795,-2.81721830368042,-72,5897.0,2.957472801208496,-52,9950.0
3060,0.30658861994743347,-2.9747743606567383,4,5897.0,1.7462315559387207,-1,9950.0
3070,0.30637216567993164,-2.040482521057129,-33,5897.0,4.126603126525879,92,9950.0
3080,0.30618447065353394,-1.6819732189178467,-54,5897.0,0.6370927095413208,230,9950.0
3090,0.3060636818408966,-1.069076657295227,-6,5897.0,-0.9719935059547424,-29,9950.0
3100,0.3063622713088989,0.14035624265670776,52,5897.0,1.472881555557251,-56,9950.0
3110,0.3062608540058136,0.5979984402656555,88,5897.0,1.3812483549118042,-41,9950.0
3120,0.3060850501060486,2.5104832649230957,71,5897.0,2.122675895690918,31,9950.0
3130,0.3059498071670532,3.8823890686035156,-40,5897.0,2.1751785278320312,156,9950.0
3140,0.3082546889781952,1.9515868425369263,-64,5897.0,5.124739646911621,74,9950.0
3150,0.3083563446998596,-0.3826414942741394,17,5897.0,7.489133834838867,32,9950.0
3160,0.30837318301200867,-0.33392980694770813,87,5897.0,7.638960361480713,140,9950.0
3170,0.30839312076568604,-0.0542788989841938,43,5897.0,6.942653656005859,148,9950.0
3180,0.3083268404006958,-0.25816649198532104,-36,5897.0,5.395986080169678,214,9950.0
3190,0.3089933395385742,-1.3137449026107788,-50,5897.0,7.3242106437683105,61,9950.0
3200,0.30905768275260925,0.39524587988853455,30,5897.0,5.566618919372559,-124,9950.0
3210,0.30904945731163025,0.41365236043930054,55,5897.0,3.902085304260254,29,9950.0
3220,0.3090128004550934,0.2579367458820343,-54,5897.0,4.151064872741699,104,9950.0
3230,0.31087934970855713,0.3825555145740509,-55,5897.0,4.354527950286865,164,9950.0
3240,0.31086495518684387,-1.2801628112792969,-25,5897.0,3.8161916732788086,15,9950.0
3250,0.3108493387699127,0.5505812168121338,76,5897.0,3.7895236015319824,27,9950.0
3260,0.3107689619064331,1.734133005142212,70,5897.0,4.916823387145996,186,9950.0
3270,0.3115244209766388,2.9161083698272705,46,5897.0,2.5665204524993896,100,9950.0
3280,0.31136056780815125,2.9299750328063965,34,5897.0,4.186182022094727,76,9950.0
3290,0.31115248799324036,2.0239052772521973,91,5897.0,5.057623863220215,-13,9950.0
3300,0.3109145164489746,-0.47057655453681946,17,5897.0,3.947711706161499,17,9950.0
3310,0.3106786012649536,0.819999635219574,-32,5897.0,4.851211071014404,164,9950.0
3320,0.31221696734428406,0.2316080778837204,-86,5897.0,6.385548114776611,127,9950.0
3330,0.311990886926651,0.2513843774795532,21,5897.0,5.635198593139648,9,9950.0
3340,0.31172600388526917,2.30360746383667,116,5897.0,4.792821407318115,122,9950.0
3350,0.3113839626312256,1.6270132064819336,46,5897.0,5.207416534423828,152,9950.0
3360,0.31486889719963074,1.9135668277740479,49,5897.0,6.922995567321777,255,9950.0
3370,0.31471875309944153,2.7784483432769775,43,5897.0,4.358555316925049,85,9950.0
3380,0.3145175278186798,3.0631725788116455,130,5897.0,0.7893182635307312,-92,9950.0
3390,0.3142736852169037,2.7559707164764404,131,5897.0,0.32279497385025024,-80,9950.0
3400,0.313951700925827,2.155189275741577,1,5897.0,-3.3858962059020996,-28,9950.0
3410,0.3170713782310486,3.048166275024414,-45,5897.0,-5.45540189743042,-51,9950.0
3420,0.3170306384563446,1.061668872833252,-64,5897.0,-6.777835845947266,-207,9950.0
3430,0.316993772983551,-0.9826513528823853,24,5897.0,-3.5361156463623047,-189,9950.0
3440,0.31690359115600586,-3.1362102031707764,16,5897.0,-8.8598051071167,-114,9950.0
3450,0.31844985485076904,-2.328376054763794,-75,5897.0,-1.2581140995025635,116,9950.0
3460,0.3184410035610199,-1.6406434774398804,-115,5897.0,-2.347618579864502,106,9950.0
3470,0.3185388445854187,-0.8623983263969421,-40,5897.0,2.8301773071289062,79,9950.0
3480,0.3186808228492737,-0.4472627341747284,81,5897.0,8.770127296447754,-14,9950.0
3490,0.318742960691452,3.1291513442993164,163,5897.0,4.423643112182617,73,9950.0
3500,0.3192703127861023,2.89739990234375,108,5897.0,5.390277862548828,169,9950.0
3510,0.31934845447540283,3.94927716255188,-16,5897.0,2.9951839447021484,79,9950.0
3520,0.3194945752620697,3.3640711307525635,-36,5897.0,1.982619047164917,18,9950.0
3530,0.3196224868297577,-0.2959113121032715,-18,5897.0,0.09233096987009048,-193,9950.0
3540,0.32061535120010376,0.2256006896495819,16,5897.0,-5.157812118530273,-82,9950.0
3550,0.3206344246864319,-2.5716769695281982,3,5897.0,-7.121748924255371,-64,9950.0
3560,0.32069194316864014,-2.483574867248535,-52,5897.0,-8.1724853515625,-23,9950.0
3570,0.320752888917923,-3.08951735496521,-74,5897.0,-9.537527084350586,-92,9950.0
3580,0.32001444697380066,-1.8332345485687256,-99,5897.0,-8.929802894592285,-187,9950.0
3590,0.3198283016681671,-1.243560552597046,2,5897.0,-8.770672798156738,-254,9950.0
3600,0.3196772038936615,-2.435530662536621,-43,5897.0,-6.802455425262451,-73,9950.0
3610,0.3194848895072937,-3.953301191329956,-3,5897.0,-0.909458577632904,-112,9950.0
3620,0.3192345201969147,-0.973882794380188,137,5897.0,-1.1422358751296997,-5,9950.0
3630,0.3188179135322571,-0.9795637726783752,63,5897.0,-1.6897242069244385,31,9950.0
3640,0.3184540867805481,0.7353553175926208,-62,5897.0,-0.5694178342819214,26,9950.0
3650,0.3181000351905823,2.1787185668945312,-38,5897.0,-0.11997158080339432,7,9950.0
3660,0.3177189528942108,0.7867661714553833,-24,5897.0,-1.905718207359314,-153,9950.0
3670,0.31697216629981995,-1.2333587408065796,42,5897.0,-1.8373043537139893,-137,9950.0
3680,0.3164399266242981,-0.8366566300392151,34,5897.0,-2.8963749408721924,-32,9950.0
3690,0.31599342823028564,-0.6690502166748047,-28,5897.0,-5.111584186553955,45,9950.0
3700,0.3155573308467865,-3.7495434284210205,-43,5897.0,-3.6729447841644287,8,9950.0
3710,0.3150463402271271,-1.650918960571289,-38,5897.0,-5.94183874130249,-176,9950.0
3720,0.3152608275413513,-0.15291039645671844,46,5897.0,-8.122637748718262,-286,9950.0
3730,0.31470203399658203,-0.7155842781066895,44,5897.0,-6.503649711608887,-154,9950.0
3740,0.3141952157020569,-0.12329377233982086,-33,5897.0,-6.469944477081299,-30,9950.0
3750,0.31378036737442017,-0.14175622165203094,-80,5897.0,-2.6858129501342773,-70,9950.0
3760,0.3129894435405731,-1.2679080963134766,-24,5897.0,-3.321438789367676,-117,9950.0
3770,0.3124278783798218,-2.802004337310791,0,5897.0,-3.066405773162842,-72,9950.0
3780,0.31185513734817505,-2.966480255126953,-126,5897.0,-0.3862404525279999,60,9950.0
3790,0.31134554743766785,-3.4387025833129883,-93,5897.0,-0.6600769758224487,57,9950.0
3800,0.3119520843029022,-4.5648651123046875,-89,5897.0,0.03696858510375023,-130,9950.0
3810,0.3116411864757538,-3.638680934906006,29,5897.0,-2.818264961242676,-51,9950.0
3820,0.3113706707954407,-0.642285168170929,-16,5897.0,-2.0545082092285156,31,9950.0
3830,0.3111506402492523,1.3710415363311768,-15,5897.0,-2.3585710525512695,51,9950.0
3840,0.3109545409679413,2.018381118774414,55,5897.0,0.23379063606262207,-51,9950.0
3850,0.3116355538368225,1.6988582611083984,63,5897.0,-1.2184020280838013,106,9950.0
3860,0.3116237223148346,0.11924859136343002,-10,5897.0,0.9660986661911011,112,9950.0
3870,0.311623752117157,3.0960354804992676,10,5897.0,-2.4082183837890625,-50,9950.0
3880,0.31186386942863464,0.3925463855266571,101,5897.0,1.8620041608810425,0,9950.0
3890,0.31304433941841125,0.5031659007072449,22,5897.0,2.6626696586608887,84,9950.0
3900,0.3136606216430664,-0.8818707466125488,-28,5897.0,4.799489974975586,112,9950.0
3910,0.3136598765850067,-0.7725131511688232,25,5897.0,3.8121378421783447,-55,9950.0
3920,0.31412702798843384,-1.2174564599990845,76,5897.0,6.045640468597412,100,9950.0
3930,0.314444363117218,-0.40202924609184265,5,5897.0,3.7116410732269287,154,9950.0
3940,0.314575731754303,0.021646015346050262,-41,5897.0,6.90413761138916,138,9950.0
3950,0.3146623373031616,0.38626477122306824,15,5897.0,5.643995761871338,37,9950.0
3960,0.31483739614486694,0.9766843318939209,57,5897.0,7.313082695007324,121,9950.0
3970,0.3150322735309601,2.6336381435394287,11,5897.0,8.337175369262695,199,9950.0
3980,0.31596362590789795,1.7258857488632202,2,5897.0,8.547270774841309,54,9950.0
3990,0.3161851465702057,2.636183261871338,105,5897.0,9.447633743286133,41,9950.0
4000,0.3163359761238098,2.0842301845550537,103,5897.0,7.16575288772583,116,9950.0
4010,0.3166159391403198,2.9300267696380615,-51,5897.0,10.566722869873047,210,9950.0
4020,0.31752312183380127,1.8418563604354858,-53,5897.0,9.381023406982422,167,9950.0
4030,0.31810542941093445,-0.6855888366699219,-26,5897.0,8.608657836914062,8,9950.0
4040,0.3181430995464325,-0.8108159303665161,-4,5897.0,8.208478927612305,137,9950.0
4050,0.3188436031341553,-0.5069445371627808,-37,5897.0,6.355451583862305,195,9950.0
4060,0.31884610652923584,0.9647058248519897,-50,5897.0,9.146113395690918,224,9950.0
4070,0.320233017206192,-1.0375744104385376,26,5897.0,4.888081073760986,60,9950.0
4080,0.32052281498908997,1.852628231048584,93,5897.0,3.8811466693878174,-4,9950.0
4090,0.32078683376312256,3.3629891872406006,81,5897.0,0.40108853578567505,83,9950.0
4100,0.3210844099521637,3.9503231048583984,46,5897.0,1.1286917924880981,-61,9950.0
4110,0.32161805033683777,4.628156661987305,74,5897.0,-1.9313499927520752,-52,9950.0
4120,0.3217945992946625,3.8688488006591797,83,5897.0,-0.004698995500802994,-162,9950.0
4130,0.3218507468700409,2.401339054107666,29,5897.0,-1.7030770778656006,10,9950.0
4140,0.3218432366847992,2.714343309402466,-17,5897.0,-2.539611339569092,79,9950.0
4150,0.3230481743812561,1.873998999595642,-16,5897.0,0.07403266429901123,4,9950.0
4160,0.3231644332408905,0.31060269474983215,-20,5897.0,4.975883960723877,92,9950.0
4170,0.3231825530529022,-1.691784381866455,34,5897.0,2.2238850593566895,-16,9950.0
4180,0.3230961263179779,-0.4446905851364136,66,5897.0,5.282242298126221,79,9950.0
4190,0.32296669483184814,-0.7921916842460632,49,5897.0,6.986424922943115,103,9950.0
4200,0.32094869017601013,0.0517461933195591,-16,5897.0,3.223471164703369,113,9950.0
4210,0.3208840489387512,1.5683525800704956,-8,5897.0,0.8228487372398376,25,9950.0
4220,0.3207632005214691,1.5095583200454712,27,5897.0,1.3622082471847534,-112,9950.0
4230,0.320553719997406,0.8442636132240295,88,5897.0,-2.35001540184021,-77,9950.0
4240,0.32017937302589417,0.5638095140457153,16,5897.0,0.3049497902393341,-58,9950.0
4250,0.3199453353881836,1.0170152187347412,33,5897.0,-3.1509130001068115,71,9950.0
4260,0.3197881281375885,0.8367172479629517,-10,5897.0,-2.9485347270965576,134,9950.0
4270,0.3195541501045227,-0.8477436900138855,-40,5897.0,-6.08782434463501,-23,9950.0
4280,0.31916794180870056,-1.703380823135376,17,5897.0,-8.072660446166992,-251,9950.0
4290,0.3200397789478302,-3.2707886695861816,12,5897.0,-7.680412292480469,-252,9950.0
4300,0.3196991980075836,-5.373575687408447,-18,5897.0,-9.691302299499512,-110,9950.0
4310,0.3194076716899872,-3.3237736225128174,-116,5897.0,-11.45720100402832,-133,9950.0
4320,0.3190281093120575,-4.0186944007873535,-37,5897.0,-7.745891571044922,-126,9950.0
4330,0.31949543952941895,-2.143373966217041,-14,5897.0,-6.154826641082764,-231,9950.0
4340,0.3190438747406006,-4.492434501647949,0,5897.0,-4.313852310180664,-51,9950.0
4350,0.31867852807044983,-1.5509854555130005,-108,5897.0,-2.4649627208709717,24,9950.0
4360,0.31843265891075134,-2.0116400718688965,-71,5897.0,0.12896400690078735,-16,9950.0
4370,0.3188638389110565,-2.646723985671997,19,5897.0,0.5051024556159973,-156,9950.0
4380,0.3186177611351013,-1.3608461618423462,34,5897.0,-2.221168041229248,-22,9950.0
4390,0.31833139061927795,0.7438839077949524,-67,5897.0,0.647125244140625,74,9950.0
4400,0.3180144727230072,0.9881417751312256,-40,5897.0,-1.7475656270980835,-37,9950.0
4410,0.31777697801589966,1.290083646774292,51,5897.0,-0.9473391175270081,-138,9950.0
4420,0.31736376881599426,0.6862735152244568,-58,5897.0,-4.602234363555908,-14,9950.0
4430,0.31723564863204956,-0.51094651222229,-69,5897.0,-5.528024196624756,6,9950.0
4440,0.3171870708465576,-1.6466784477233887,-82,5897.0,-5.437259674072266,-132,9950.0
4450,0.31710875034332275,-2.744248151779175,18,5897.0,-7.9274373054504395,-229,9950.0
4460,0.31850093603134155,-0.7812541723251343,-43,5897.0,-7.067115783691406,-61,9950.0
4470,0.31850725412368774,-2.2500522136688232,-52,5897.0,-3.7389893531799316,-53,9950.0
4480,0.31852102279663086,-2.5141615867614746,-47,5897.0,-1.4489573240280151,-141,9950.0
4490,0.31861400604248047,-2.3217787742614746,88,5897.0,1.5901570320129395,-41,9950.0
4500,0.3188399076461792,-1.6733531951904297,-40,5897.0,0.9505658745765686,101,9950.0
4510,0.3186943531036377,-1.9401425123214722,-92,5897.0,5.077467918395996,145,9950.0
4520,0.3189955949783325,0.3159197270870209,-8,5897.0,4.55869722366333,-30,9950.0
4530,0.3192775547504425,1.0422751903533936,85,5897.0,4.9043731689453125,130,9950.0
4540,0.31953853368759155,2.2274324893951416,6,5897.0,5.32670259475708,170,9950.0
4550,0.31949418783187866,3.1735665798187256,-31,5897.0,5.609907150268555,112,9950.0
4560,0.31975704431533813,1.3495184183120728,79,5897.0,3.5981509685516357,1,9950.0
4570,0.320064902305603,1.7378642559051514,90,5897.0,1.3076696395874023,54,9950.0
4580,0.3204440474510193,1.545703649520874,-18,5897.0,-1.9563734531402588,147,9950.0
4590,0.32126519083976746,-1.1502816677093506,-71,5897.0,1.0278897285461426,102,9950.0
4600,0.32163289189338684,-1.710403323173523,35,5897.0,0.15023645758628845,-41,9950.0
4610,0.3219524323940277,-0.12426786869764328,80,5897.0,2.6611130237579346,-43,9950.0
4620,0.3222450315952301,0.39586207270622253,51,5897.0,4.750394344329834,152,9950.0
4630,0.3225735127925873,2.0675344467163086,0,5897.0,2.914515495300293,57,9950.0
4640,0.3214004933834076,0.5462175607681274,33,5897.0,6.245190620422363,32,9950.0
4650,0.3217661380767822,-0.8083046674728394,102,5897.0,1.8762197494506836,-18,9950.0
4660,0.32218030095100403,-1.1212129592895508,-37,5897.0,3.6207115650177,32,9950.0
4670,0.3225265145301819,0.09227960556745529,-49,5897.0,2.1739368438720703,107,9950.0
4680,0.3225068151950836,0.141926571726799,-22,5897.0,6.272976875305176,-60,9950.0
4690,0.32279112935066223,-1.4083245992660522,26,5897.0,4.948408603668213,7,9950.0
4700,0.3231605589389801,-0.144814595580101,-8,5897.0,5.723816871643066,112,9950.0
4710,0.32361412048339844,0.8542066812515259,-64,5897.0,3.5898005962371826,116,9950.0
4720,0.32405194640159607,-0.47026732563972473,-36,5897.0,2.5217971801757812,51,9950.0
4730,0.3226165175437927,-0.45141342282295227,18,5897.0,0.1855013072490692,-144,9950.0
4740,0.32282960414886475,1.0140223503112793,107,5897.0,2.5362372398376465,75,9950.0
4750,0.32305437326431274,2.6227152347564697,29,5897.0,-1.3188674449920654,105,9950.0
4760,0.3233255445957184,0.7915807962417603,-30,5897.0,1.4521386623382568,104,9950.0
4770,0.32261011004447937,-0.036621805280447006,39,5897.0,2.9310104846954346,-5,9950.0
4780,0.3228769302368164,1.1499963998794556,97,5897.0,1.4205868244171143,-144,9950.0
4790,0.32306405901908875,0.186588853597641,78,5897.0,-3.687565326690674,54,9950.0
4800,0.3232056498527527,1.293454885482788,-8,5897.0,2.0565185546875,29,9950.0
4810,0.32284432649612427,0.714138388633728,-49,5897.0,-0.3552826941013336,5,9950.0
4820,0.3230248689651489,0.3856727182865143,8,5897.0,0.5003727078437805,-136,9950.0
4830,0.3232029974460602,-0.40938428044319153,-1,5897.0,1.0411362648010254,-94,9950.0
4840,0.3232969641685486,-0.7852981090545654,-80,5897.0,2.748929262161255,65,9950.0
4850,0.32328152656555176,-0.40169772505760193,-62,5897.0,-0.06861802935600281,45,9950.0
4860,0.3227304220199585,-2.02122163772583,-17,5897.0,2.316350221633911,20,9950.0
4870,0.32268381118774414,-0.33690345287323,15,5897.0,0.2810277044773102,-61,9950.0
4880,0.3226698338985443,0.36495694518089294,37,5897.0,1.1871070861816406,67,9950.0
4890,0.3226218819618225,2.4759933948516846,-9,5897.0,-1.794518232345581,115,9950.0
4900,0.3211509883403778,1.026961326599121,5,5897.0,0.5409001708030701,8,9950.0
4910,0.3208938539028168,1.9607889652252197,-6,5897.0,-3.1191718578338623,20,9950.0
4920,0.3206970989704132,1.4272187948226929,23,5897.0,-2.804995536804199,-236,9950.0
4930,0.3205805718898773,-3.7859699726104736,-34,5897.0,-7.195847034454346,-137,9950.0
4940,0.3204861581325531,-2.2065839767456055,-124,5897.0,-11.873466491699219,-131,9950.0
4950,0.31865397095680237,-2.2101142406463623,-110,5897.0,-10.898344039916992,-197,9950.0
4960,0.3183358907699585,0.5619964599609375,66,5897.0,-9.688599586486816,-361,9950.0
4970,0.3178141415119171,1.4729971885681152,66,5897.0,-13.538222312927246,-192,9950.0
4980,0.31725746393203735,2.6376755237579346,-4,5897.0,-13.409679412841797,-82,9950.0
4990,0.31668609380722046,2.4022367000579834,-1,5897.0,-11.61816692352295,-220,9950.0
5000,0.31610268354415894,3.390726327896118,95,5897.0,-7.824510097503662,-173,9950.0
5010,0.31550437211990356,5.930420398712158,91,5897.0,-3.8215630054473877,-6,9950.0
5020,0.3141620457172394,7.316877365112305,46,5897.0,-3.008263111114502,19,9950.0
5030,0.315170019865036,10.398750305175781,226,5897.0,-0.36893701553344727,-122,9950.0
5040,0.314413458108902,12.713769912719727,200,5897.0,6.081563472747803,169,9950.0
5050,0.31347179412841797,14.822768211364746,201,5897.0,6.3047990798950195,157,9950.0
5060,0.3118645250797272,17.68183708190918,336,5897.0,10.839241027832031,109,9950.0
5070,0.3105914294719696,20.117156982421875,343,5897.0,14.217951774597168,364,9950.0
5080,0.3094308078289032,23.037887573242188,359,5897.0,17.489408493041992,199,9950.0
5090,0.308381587266922,25.996606826782227,454,5897.0,18.963741302490234,340,9950.0
5100,0.307455450296402,26.45631980895996,363,5897.0,17.041650772094727,237,9950.0
5110,0.30540701746940613,23.222105026245117,389,5897.0,18.355823516845703,263,9950.0
5120,0.3048766553401947,19.308975219726562,276,5897.0,16.586000442504883,314,9950.0
5130,0.30374082922935486,14.19737434387207,215,5897.0,16.808439254760742,204,9950.0
5140,0.3030833899974823,14.826988220214844,213,5897.0,13.688825607299805,351,9950.0
5150,0.30078551173210144,11.113105773925781,166,5897.0,16.871444702148438,164,9950.0
5160,0.29972854256629944,12.3186674118042,211,5897.0,15.11635971069336,354,9950.0
5170,0.2989712357521057,7.748194217681885,45,5897.0,18.55997085571289,216,9950.0
5180,0.29770123958587646,-0.3572204113006592,42,5897.0,22.64647102355957,470,9950.0
5190,0.2947355806827545,-4.469973564147949,-128,5897.0,25.529186248779297,305,9950.0
5200,0.293724000453949,-3.9894251823425293,-37,5897.0,29.325748443603516,664,9950.0
5210,0.2952728271484375,0.31425994634628296,60,5897.0,34.83003616333008,449,9950.0
5220,0.2945702373981476,8.86431884765625,169,5897.0,34.71906661987305,664,9950.0
5230,0.2927265763282776,10.681608200073242,286,5897.0,32.88777542114258,487,9950.0
5240,0.29143568873405457,13.205108642578125,176,5897.0,32.303592681884766,482,9950.0
5250,0.2938995659351349,12.885080337524414,258,5897.0,32.2450065612793,616,9950.0
5260,0.2934400141239166,11.803719520568848,245,5897.0,35.80044937133789,554,9950.0
5270,0.29166528582572937,9.983091354370117,58,5897.0,30.329269409179688,436,9950.0
5280,0.2912836968898773,5.618492126464844,121,5897.0,29.740436553955078,648,9950.0
5290,0.2901849150657654,1.393129825592041,-3,5897.0,28.867107391357422,366,9950.0
5300,0.29718801379203796,-1.61142897605896,-68,5897.0,30.15449333190918,590,9950.0
5310,0.2960008680820465,-2.1447019577026367,10,5897.0,34.314735412597656,714,9950.0
5320,0.2956174612045288,-0.7821799516677856,-6,5897.0,35.21147918701172,523,9950.0
5330,0.29638054966926575,-1.0904121398925781,-84,5897.0,39.14374542236328,572,9950.0
5340,0.2986173927783966,-4.154119968414307,-4,5897.0,40.52330017089844,730,9950.0
5350,0.29769062995910645,-7.602393627166748,-136,5897.0,39.1947021484375,570,9950.0
5360,0.2991408705711365,-6.8424973487854,-173,5897.0,34.62137985229492,637,9950.0
5370,0.2991912364959717,-8.129170417785645,-36,5897.0,36.06246566772461,628,9950.0
5380,0.30025336146354675,-11.070996284484863,-198,5897.0,37.77302169799805,482,9950.0
5390,0.29889577627182007,-9.773097038269043,-114,5897.0,31.835182189941406,647,9950.0
5400,0.2999751567840576,-7.049035549163818,-142,5897.0,31.727542877197266,412,9950.0
5410,0.30052468180656433,-7.147149562835693,-185,5897.0,26.189680099487305,506,9950.0
5420,0.3012591302394867,-7.21260929107666,-44,5897.0,23.718856811523438,333,9950.0
5430,0.2970091700553894,-10.367186546325684,-281,5897.0,17.60009765625,261,9950.0
5440,0.29700344800949097,-13.215118408203125,-178,5897.0,15.320513725280762,324,9950.0
5450,0.2972418963909149,-13.44998836517334,-258,5897.0,14.735934257507324,205,9950.0
5460,0.2973872721195221,-12.776183128356934,-164,5897.0,14.135940551757812,267,9950.0
5470,0.2974989414215088,-10.876808166503906,-267,5897.0,12.20798110961914,262,9950.0
5480,0.2969278395175934,-11.072175979614258,-100,5897.0,8.672870635986328,224,9950.0
5490,0.29656222462654114,-10.316441535949707,-236,5897.0,9.7273530960083,233,9950.0
5500,0.2966310977935791,-12.039881706237793,-138,5897.0,13.027704238891602,162,9950.0
5510,0.29639744758605957,-14.101174354553223,-222,5897.0,12.51203727722168,250,9950.0
5520,0.29786139726638794,-14.775609970092773,-233,5897.0,9.646994590759277,57,9950.0
5530,0.2974030673503876,-18.635807037353516,-214,5897.0,8.503580093383789,104,9950.0
5540,0.29682889580726624,-19.083118438720703,-382,5897.0,4.861752033233643,77,9950.0
5550,0.2967902719974518,-21.46969223022461,-350,5897.0,2.7375946044921875,32,9950.0
5560,0.29796916246414185,-17.13482093811035,-231,5897.0,1.7982925176620483,135,9950.0
5570,0.2978527247905731,-12.357518196105957,-268,5897.0,-0.018056711181998253,-14,9950.0
5580,0.29762446880340576,-11.322733879089355,-121,5897.0,3.8991665840148926,32,9950.0
5590,0.2970418632030487,-12.401838302612305,-204,5897.0,1.8886131048202515,132,9950.0
5600,0.29591330885887146,-14.152143478393555,-289,5897.0,1.6910592317581177,17,9950.0
5610,0.29611852765083313,-17.280611038208008,-269,5897.0,-2.0321664810180664,-180,9950.0
5620,0.2955791652202606,-20.68667221069336,-262,5897.0,-5.366755962371826,-110,9950.0
5630,0.29475367069244385,-21.36878776550293,-385,5897.0,-7.221981525421143,-19,9950.0
5640,0.2936583161354065,-22.53868293762207,-389,5897.0,-8.763714790344238,-121,9950.0
5650,0.2968676686286926,-21.472951889038086,-334,5897.0,-10.203031539916992,-264,9950.0
5660,0.2968779504299164,-22.888193130493164,-303,5897.0,-11.584358215332031,-145,9950.0
5670,0.29649481177330017,-20.864450454711914,-364,5897.0,-10.694743156433105,-42,9950.0
5680,0.2958497703075409,-16.250490188598633,-303,5897.0,-3.6161129474639893,-28,9950.0
5690,0.2979104518890381,-12.56250286102295,-196,5897.0,0.34262406826019287,-57,9950.0
5700,0.29751282930374146,-9.652687072753906,-43,5897.0,0.09988150745630264,-114,9950.0
5710,0.29738736152648926,-7.852473258972168,-26,5897.0,-0.10105603188276291,-89,9950.0
5720,0.2971950173377991,-6.838433742523193,-109,5897.0,-4.243712425231934,-25,9950.0
5730,0.29700249433517456,-8.473601341247559,-200,5897.0,-4.423789024353027,-47,9950.0
5740,0.29904472827911377,-10.496315002441406,-243,5897.0,-12.396056175231934,-196,9950.0
5750,0.29927417635917664,-14.497712135314941,-319,5897.0,-15.032296180725098,-178,9950.0
5760,0.2992910146713257,-16.68340492248535,-342,5897.0,-19.439327239990234,-321,9950.0
5770,0.2993997633457184,-18.164594650268555,-300,5897.0,-15.353410720825195,-250,9950.0
5780,0.30141741037368774,-15.96648120880127,-220,5897.0,-17.33618927001953,-177,9950.0
5790,0.30167970061302185,-13.134446144104004,-180,5897.0,-12.996122360229492,-150,9950.0
5800,0.30207133293151855,-11.758270263671875,-152,5897.0,-9.298325538635254,-122,9950.0
5810,0.3022373616695404,-11.723827362060547,-171,5897.0,-7.471785068511963,-93,9950.0
5820,0.30246785283088684,-11.597450256347656,-153,5897.0,-7.666641712188721,-60,9950.0
5830,0.30513110756874084,-11.858841896057129,-178,5897.0,-6.585595607757568,-32,9950.0
5840,0.305736780166626,-12.066405296325684,-175,5897.0,-14.27955150604248,-194,9950.0
5850,0.3060016632080078,-11.877882957458496,-242,5897.0,-17.23777198791504,-234,9950.0
5860,0.30642223358154297,-12.984835624694824,-243,5897.0,-17.01211929321289,-190,9950.0
5870,0.3084085285663605,-8.362263679504395,-166,5897.0,-17.87887191772461,-274,9950.0
5880,0.30885857343673706,-6.381034851074219,-139,5897.0,-15.828516006469727,-248,9950.0
5890,0.30923372507095337,-3.9779720306396484,-47,5897.0,-13.493736267089844,-224,9950.0
5900,0.309811532497406,-2.299168825149536,-4,5897.0,-7.979649066925049,-189,9950.0
5910,0.3117469251155853,-1.1995714902877808,-2,5897.0,-8.981928825378418,-30,9950.0
5920,0.31219762563705444,-1.3417006731033325,8,5897.0,-8.605506896972656,-1,9950.0
5930,0.31254732608795166,-0.5876257419586182,26,5897.0,-8.276396751403809,-86,9950.0
5940,0.31290093064308167,0.9969353675842285,36,5897.0,-2.3438968658447266,-203,9950.0
5950,0.3132607936859131,1.7178288698196411,-5,5897.0,-2.1841681003570557,-169,9950.0
5960,0.31478151679039,1.0161243677139282,-50,5897.0,-8.185578346252441,-101,9950.0
5970,0.3149966299533844,1.7438958883285522,-24,5897.0,-11.52023983001709,-52,9950.0
5980,0.3153317868709564,3.8814892768859863,149,5897.0,-10.35409927368164,-167,9950.0
5990,0.31553807854652405,3.944525957107544,165,5897.0,-12.022090911865234,-298,9950.0
6000,0.31804266571998596,5.747494220733643,95,5897.0,-14.771374702453613,-237,9950.0
6010,0.3182630240917206,6.320528507232666,119,5897.0,-15.428973197937012,-234,9950.0
6020,0.3184519112110138,6.032838344573975,73,5897.0,-10.0011568069458,-198,9950.0
6030,0.31867334246635437,7.446608066558838,122,5897.0,-12.977481842041016,-308,9950.0
6040,0.3188355565071106,5.687605857849121,111,5897.0,-7.568613052368164,-56,9950.0
6050,0.3220851719379425,4.705876350402832,86,5897.0,-11.73701000213623,-103,9950.0
6060,0.322355717420578,3.4696664810180664,118,5897.0,-6.470112323760986,-160,9950.0
6070,0.322588711977005,2.4492762088775635,63,5897.0,-5.554988861083984,-112,9950.0
6080,0.3227000832557678,3.299931049346924,49,5897.0,-3.5800364017486572,-6,9950.0
6090,0.3244597315788269,1.3834236860275269,41,5897.0,-1.926476001739502,-25,9950.0
6100,0.3245578110218048,2.431042432785034,45,5897.0,1.4162578582763672,-116,9950.0
6110,0.3246223032474518,4.016730785369873,8,5897.0,2.2541611194610596,-3,9950.0
6120,0.32464826107025146,5.273876190185547,56,5897.0,-2.5812430381774902,-21,9950.0
6130,0.32555869221687317,2.9242382049560547,60,5897.0,-4.000513076782227,-124,9950.0
6140,0.3255769908428192,0.9594830870628357,52,5897.0,-8.210184097290039,-170,9950.0
6150,0.32555150985717773,2.779463052749634,69,5897.0,-10.621004104614258,-67,9950.0
6160,0.3254609704017639,2.8117597103118896,70,5897.0,-13.80565357208252,-69,9950.0
6170,0.325264573097229,2.452737331390381,117,5897.0,-12.972607612609863,-307,9950.0
6180,0.32615888118743896,4.350782871246338,95,5897.0,-12.242753028869629,-206,9950.0
6190,0.3259238302707672,5.209574222564697,54,5897.0,-8.411993026733398,-38,9950.0
6200,0.32561686635017395,2.684556722640991,8,5897.0,-4.885322093963623,-32,9950.0
6210,0.32526078820228577,1.7465101480484009,5,5897.0,-2.385281562805176,-107,9950.0
6220,0.326453298330307,1.0062040090560913,12,5897.0,1.1599509716033936,-64,9950.0
6230,0.32612910866737366,0.2766210734844208,-40,5897.0,0.3417896628379822,31,9950.0
6240,0.3257814645767212,0.8291911482810974,-55,5897.0,-0.18234755098819733,78,9950.0
6250,0.32539570331573486,-1.53220796585083,-47,5897.0,0.8712919354438782,37,9950.0
6260,0.324964314699173,-1.7614110708236694,-43,5897.0,1.2548753023147583,-25,9950.0
6270,0.3248550295829773,-2.1613073348999023,4,5897.0,2.1083905696868896,-98,9950.0
6280,0.3243635296821594,0.9569761157035828,39,5897.0,1.9113391637802124,-130,9950.0
6290,0.32383278012275696,1.9188637733459473,31,5897.0,1.579808235168457,-6,9950.0
6300,0.3232857882976532,3.5432019233703613,60,5897.0,0.7050995230674744,-5,9950.0
6310,0.3239907920360565,3.710515022277832,105,5897.0,-1.2940762042999268,37,9950.0
6320,0.3235149681568146,6.013943672180176,99,5897.0,1.1216998100280762,103,9950.0
6330,0.3230637013912201,5.919490814208984,85,5897.0,2.616546392440796,102,9950.0
6340,0.32261213660240173,5.066357612609863,45,5897.0,1.6412909030914307,122,9950.0
6350,0.3231910169124603,3.358640193939209,11,5897.0,0.7768658399581909,135,9950.0
6360,0.32268279790878296,3.2821836471557617,-33,5897.0,-1.6268471479415894,82,9950.0
6370,0.3220820426940918,2.6392822265625,-28,5897.0,-1.8237701654434204,89,9950.0
6380,0.3214126229286194,1.2455379962921143,-15,5897.0,-1.9487230777740479,20,9950.0
6390,0.32083016633987427,2.614971876144409,13,5897.0,-1.6807761192321777,7,9950.0
6400,0.32179898023605347,3.9253432750701904,7,5897.0,0.4513033330440521,89,9950.0
6410,0.32126396894454956,3.73327374458313,-49,5897.0,0.3760837912559509,52,9950.0
6420,0.3206822872161865,2.713743209838867,-47,5897.0,1.0291913747787476,128,9950.0
6430,0.32011285424232483,3.217710494995117,-16,5897.0,-4.71146297454834,40,9950.0
6440,0.320939838886261,1.3969883918762207,-54,5897.0,-0.9084251523017883,81,9950.0
6450,0.32056528329849243,-0.441448837518692,-72,5897.0,-1.8789732456207275,42,9950.0
6460,0.3201954960823059,0.6094568967819214,-14,5897.0,-1.274338722229004,60,9950.0
6470,0.319787859916687,1.1789171695709229,-29,5897.0,2.924621105194092,115,9950.0
6480,0.3193800449371338,3.0274720191955566,-62,5897.0,3.472248077392578,131,9950.0
6490,0.32048293948173523,3.295151710510254,-27,5897.0,2.4132800102233887,188,9950.0
6500,0.3202888071537018,1.9962563514709473,-46,5897.0,2.4744622707366943,180,9950.0
6510,0.32009297609329224,2.4313435554504395,-14,5897.0,3.467743396759033,190,9950.0
6520,0.3197852671146393,2.1261205673217773,-35,5897.0,1.5697910785675049,142,9950.0
6530,0.32043761014938354,4.3653154373168945,15,5897.0,-0.9182789921760559,81,9950.0
6540,0.32018932700157166,4.000739097595215,16,5897.0,0.8739541172981262,153,9950.0
6550,0.31997379660606384,3.4869580268859863,18,5897.0,1.665366768836975,182,9950.0
6560,0.31978288292884827,2.2375271320343018,21,5897.0,-0.09909483790397644,114,9950.0
6570,0.32086408138275146,2.407257556915283,-4,5897.0,-3.278691053390503,57,9950.0
6580,0.32068461179733276,3.956141710281372,32,5897.0,-0.23823465406894684,82,9950.0
6590,0.32057303190231323,4.14740514755249,34,5897.0,-0.6197553873062134,134,9950.0
6600,0.32047441601753235,4.944666862487793,69,5897.0,-3.8627543449401855,49,9950.0
6610,0.32038751244544983,3.2798502445220947,26,5897.0,1.7604706287384033,44,9950.0
6620,0.32054880261421204,1.6492441892623901,-12,5897.0,3.1473042964935303,17,9950.0
6630,0.3204922676086426,-0.35325148701667786,-28,5897.0,3.3245022296905518,80,9950.0
6640,0.3204687833786011,-0.592482328414917,-20,5897.0,3.98991060256958,-23,9950.0
6650,0.320452481508255,-1.6708959341049194,43,5897.0,3.1537704467773438,-132,9950.0
6660,0.3242393434047699,-1.4310367107391357,11,5897.0,9.176053047180176,46,9950.0
6670,0.3244691789150238,1.3482074737548828,63,5897.0,3.105306625366211,-18,9950.0
6680,0.324775367975235,2.1557974815368652,44,5897.0,1.8318344354629517,44,9950.0
6690,0.3250155448913574,1.13885498046875,46,5897.0,-2.131143093109131,-65,9950.0
6700,0.32534512877464294,0.20379216969013214,28,5897.0,1.0525459051132202,94,9950.0
6710,0.3263000249862671,-0.6363773345947266,3,5897.0,-1.8852696418762207,48,9950.0
6720,0.3265725076198578,-0.125041663646698,-24,5897.0,-1.9799710512161255,26,9950.0
6730,0.32684221863746643,-1.8566458225250244,27,5897.0,-2.2461161613464355,-44,9950.0
6740,0.32711687684059143,-0.9903867244720459,17,5897.0,4.5253424644470215,-3,9950.0
6750,0.33010026812553406,2.1140365600585938,115,5897.0,0.8023137450218201,-32,9950.0
6760,0.3305690288543701,5.041696071624756,128,5897.0,1.683483600616455,25,9950.0
6770,0.33109864592552185,5.330038547515869,90,5897.0,4.706262111663818,91,9950.0
6780,0.3315486013889313,5.065792083740234,95,5897.0,2.333404064178467,193,9950.0
6790,0.3330911099910736,7.462145805358887,141,5897.0,2.1769251823425293,171,9950.0
6800,0.333486944437027,8.333319664001465,191,5897.0,6.09296989440918,97,9950.0
6810,0.3338306248188019,8.589920043945312,185,5897.0,4.660778522491455,-19,9950.0
6820,0.33413711190223694,8.49539852142334,180,5897.0,2.321669340133667,7,9950.0
6830,0.3343695402145386,6.64257287979126,115,5897.0,1.8041768074035645,98,9950.0
6840,0.33399975299835205,4.259647369384766,73,5897.0,2.57409930229187,82,9950.0
6850,0.33413970470428467,5.261787414550781,72,5897.0,0.4060772657394409,-102,9950.0
6860,0.33420678973197937,2.8554255962371826,65,5897.0,-3.6174263954162598,-152,9950.0
6870,0.33422720432281494,2.1866636276245117,-13,5897.0,-4.825125217437744,-55,9950.0
6880,0.33451807498931885,1.669596791267395,-4,5897.0,-5.420379638671875,-94,9950.0
6890,0.3344489634037018,0.45203089714050293,9,5897.0,-6.1685614585876465,-201,9950.0
6900,0.33431270718574524,-1.5600000619888306,-31,5897.0,-0.7023189663887024,23,9950.0
6910,0.33414968848228455,-2.422607898712158,-70,5897.0,0.3733254075050354,101,9950.0
6920,0.33395320177078247,-4.408721446990967,-79,5897.0,5.518677234649658,4,9950.0
6930,0.3325234353542328,-5.63919734954834,-80,5897.0,7.814818382263184,68,9950.0
6940,0.33218833804130554,-5.519517421722412,-103,5897.0,5.463249206542969,173,9950.0
6950,0.3318203091621399,-6.445422649383545,-76,5897.0,2.0591084957122803,77,9950.0
6960,0.33146774768829346,-6.3199238777160645,-70,5897.0,0.7196099162101746,-6,9950.0
6970,0.3321993350982666,-4.164130687713623,-61,5897.0,-0.47135433554649353,-58,9950.0
6980,0.3318265676498413,-6.1635422706604,-49,5897.0,-0.3396027684211731,-32,9950.0
6990,0.33138877153396606,-5.461506366729736,-72,5897.0,-3.041051149368286,64,9950.0
7000,0.33089911937713623,-3.4440839290618896,-22,5897.0,-4.027260780334473,-37,9950.0
7010,0.3321771025657654,-3.4843761920928955,0,5897.0,-0.1014399379491806,-46,9950.0
7020,0.3317359387874603,-2.3083198070526123,42,5897.0,0.1965768188238144,-66,9950.0
7030,0.3313099145889282,0.47123536467552185,38,5897.0,-3.162830114364624,-42,9950.0
7040,0.330822616815567,0.013309174217283726,2,5897.0,-0.426090806722641,52,9950.0
7050,0.33029842376708984,-1.20945405960083,-56,5897.0,0.0923757329583168,131,9950.0
7060,0.3296867311000824,-0.7571435570716858,-43,5897.0,0.8282567262649536,75,9950.0
7070,0.3291972279548645,-5.224971771240234,-47,5897.0,3.8661813735961914,23,9950.0
7080,0.3286343812942505,-7.2036848068237305,-109,5897.0,4.068803310394287,-2,9950.0
7090,0.3283740282058716,-5.596906661987305,-40,5897.0,3.991684913635254,-20,9950.0
7100,0.32873207330703735,-3.790709972381592,-46,5897.0,-2.387922525405884,-144,9950.0
7110,0.32827842235565186,-4.440011024475098,-67,5897.0,-2.5954771041870117,7,9950.0
7120,0.3278775215148926,-6.018659591674805,-119,5897.0,-3.0526158809661865,26,9950.0
7130,0.32743537425994873,-7.229635715484619,-142,5897.0,-1.6747844219207764,65,9950.0
7140,0.3270728588104248,-6.810164928436279,-118,5897.0,-3.750319004058838,-10,9950.0
7150,0.32663747668266296,-7.538390159606934,-90,5897.0,-1.4103795289993286,-41,9950.0
7160,0.3262617886066437,-7.124148845672607,-129,5897.0,-3.660548210144043,-53,9950.0
7170,0.32590311765670776,-5.719461917877197,-51,5897.0,1.0397417545318604,-96,9950.0
7180,0.32551494240760803,-0.44845739006996155,-2,5897.0,-0.8175675272941589,-101,9950.0
7190,0.32672691345214844,-0.6181567311286926,-6,5897.0,3.3536436557769775,20,9950.0
7200,0.3265293538570404,3.2537710666656494,55,5897.0,4.048451900482178,37,9950.0
7210,0.3263562321662903,4.379173755645752,91,5897.0,-0.4225459098815918,-10,9950.0
7220,0.3262576758861542,5.838520050048828,69,5897.0,-1.340497612953186,22,9950.0
7230,0.3291458189487457,3.9024481773376465,76,5897.0,-4.111080169677734,45,9950.0
7240,0.32918429374694824,2.1265721321105957,23,5897.0,-3.5444655418395996,23,9950.0
7250,0.3292235732078552,2.8147032260894775,-21,5897.0,-6.757927894592285,27,9950.0
7260,0.32930102944374084,0.4343836009502411,-9,5897.0,-4.926260471343994,28,9950.0
7270,0.32938146591186523,-1.366385579109192,12,5897.0,2.5863749980926514,-40,9950.0
7280,0.3304964303970337,0.7683990597724915,-1,5897.0,2.1316957473754883,-4,9950.0
7290,0.33068206906318665,0.3055058419704437,16,5897.0,1.2485483884811401,-96,9950.0
7300,0.33090507984161377,0.6035658121109009,17,5897.0,5.057784080505371,-15,9950.0
7310,0.3311499357223511,0.9757986068725586,2,5897.0,2.1478660106658936,-1,9950.0
7320,0.3332473933696747,3.3122386932373047,31,5897.0,-0.8995476961135864,84,9950.0
7330,0.3336397111415863,1.6883621215820312,43,5897.0,-0.8717596530914307,38,9950.0
7340,0.33397185802459717,2.385249376296997,46,5897.0,-4.425147533416748,-7,9950.0
7350,0.3343425989151001,-0.4446427822113037,-27,5897.0,-1.707727313041687,-40,9950.0
7360,0.33461323380470276,-0.5924297571182251,4,5897.0,-1.827938199043274,-130,9950.0
7370,0.33662545680999756,-0.15810544788837433,63,5897.0,-2.003589391708374,-91,9950.0
7380,0.33683106303215027,4.291398525238037,64,5897.0,0.040866073220968246,-60,9950.0
7390,0.33703678846359253,4.296835899353027,91,5897.0,-4.322494983673096,25,9950.0
7400,0.3372703790664673,4.785892009735107,47,5897.0,-4.138153076171875,47,9950.0
7410,0.33806222677230835,1.682817816734314,-21,5897.0,-4.465743541717529,38,9950.0
7420,0.33823713660240173,1.671122431755066,70,5897.0,-5.676450729370117,-160,9950.0
7430,0.33842459321022034,0.5524498820304871,45,5897.0,-7.094604015350342,-183,9950.0
7440,0.3385782241821289,-1.5274842977523804,-1,5897.0,-5.784484386444092,-93,9950.0
7450,0.3403641879558563,-0.5155237913131714,0,5897.0,-9.751200675964355,-73,9950.0
7460,0.34055688977241516,-3.8311924934387207,-56,5897.0,-2.1210014820098877,12,9950.0
7470,0.34069839119911194,-1.746410846710205,6,5897.0,-1.9878027439117432,-49,9950.0
7480,0.3407936096191406,-2.3001255989074707,37,5897.0,1.1575855016708374,-47,9950.0
7490,0.3408539593219757,1.7059557437896729,69,5897.0,-2.9273135662078857,-21,9950.0
7500,0.34214213490486145,2.1700563430786133,41,5897.0,-0.9356462359428406,99,9950.0
7510,0.3422483205795288,3.071702003479004,61,5897.0,2.6877095699310303,181,9950.0
7520,0.34235042333602905,1.6836868524551392,32,5897.0,8.807360649108887,193,9950.0
7530,0.34243983030319214,2.076917886734009,77,5897.0,6.976738929748535,-5,9950.0
7540,0.3434865176677704,2.06299090385437,16,5897.0,5.813796520233154,80,9950.0
7550,0.34357234835624695,0.1822381317615509,-7,5897.0,1.8744142055511475,92,9950.0
7560,0.34361374378204346,-1.023014783859253,-6,5897.0,1.6028940677642822,77,9950.0
7570,0.34362635016441345,-0.3040991723537445,6,5897.0,0.417098730802536,-76,9950.0
7580,0.3435753285884857,0.8089474439620972,14,5897.0,0.33728015422821045,-134,9950.0
7590,0.344416081905365,0.9657012820243835,-1,5897.0,0.15603554248809814,-33,9950.0
7600,0.34426993131637573,0.12632860243320465,-46,5897.0,-3.373992919921875,-22,9950.0
7610,0.34407079219818115,0.7453154921531677,-18,5897.0,-1.3535293340682983,-19,9950.0
7620,0.3437998294830322,-0.4273848235607147,-31,5897.0,-0.6916274428367615,-94,9950.0
7630,0.3432960510253906,-0.09007338434457779,-45,5897.0,2.9118669033050537,17,9950.0
7640,0.34294283390045166,-1.243308186531067,-44,5897.0,5.21762752532959,116,9950.0
7650,0.3425537049770355,-0.16989588737487793,-46,5897.0,3.4996213912963867,140,9950.0
7660,0.3421318233013153,-0.33321458101272583,-27,5897.0,2.963979959487915,69,9950.0
7670,0.34253963828086853,-1.5195432901382446,-40,5897.0,3.0586156845092773,-35,9950.0
7680,0.34206706285476685,-2.9685747623443604,-40,5897.0,3.379992723464966,-12,9950.0
7690,0.3415551483631134,-3.7244603633880615,-87,5897.0,3.8835666179656982,33,9950.0
7700,0.34102848172187805,-4.5682172775268555,-67,5897.0,1.1721030473709106,4,9950.0
7710,0.3404896557331085,-4.056690216064453,-63,5897.0,0.08012903481721878,-8,9950.0
7720,0.3409268856048584,-5.3354268074035645,-93,5897.0,0.311974436044693,53,9950.0
7730,0.3404242992401123,-2.8303682804107666,-47,5897.0,1.392626404762268,-79,9950.0
7740,0.33993595838546753,-0.0011746619129553437,23,5897.0,0.6615304946899414,-120,9950.0
7750,0.3394123911857605,-0.22983668744564056,24,5897.0,0.13659420609474182,-30,9950.0
7760,0.33970963954925537,0.7526125311851501,11,5897.0,1.3215655088424683,71,9950.0
7770,0.33921945095062256,0.4027082622051239,8,5897.0,3.0793941020965576,126,9950.0
7780,0.33871081471443176,0.25096532702445984,-12,5897.0,4.4447021484375,138,9950.0
7790,0.33813315629959106,-2.270998001098633,-62,5897.0,4.175178050994873,93,9950.0
7800,0.33760303258895874,-2.641289234161377,-46,5897.0,4.60491943359375,87,9950.0
7810,0.3388298451900482,-5.1830315589904785,-98,5897.0,6.813544273376465,79,9950.0
7820,0.33838263154029846,-3.188267707824707,-27,5897.0,5.93278694152832,49,9950.0
7830,0.3379635810852051,-1.308652639389038,0,5897.0,3.218618154525757,-43,9950.0
7840,0.33761999011039734,0.11254765838384628,35,5897.0,1.7813576459884644,-35,9950.0
7850,0.338242769241333,1.121495246887207,37,5897.0,-3.62184476852417,-83,9950.0
7860,0.33802205324172974,0.0223200935870409,-6,5897.0,-2.2847065925598145,-50,9950.0
7870,0.33780938386917114,1.1144816875457764,-10,5897.0,-6.182041168212891,-66,9950.0
7880,0.3376099467277527,1.4155843257904053,-23,5897.0,-7.176852226257324,-54,9950.0
7890,0.33842942118644714,0.918605387210846,31,5897.0,0.6232441067695618,80,9950.0
7900,0.33830592036247253,0.9277545213699341,5,5897.0,0.2275640219449997,55,9950.0
7910,0.3381938338279724,0.7568005323410034,36,5897.0,0.675714910030365,22,9950.0
7920,0.33809083700180054,2.6269760131835938,77,5897.0,4.155853271484375,31,9950.0
7930,0.33799269795417786,1.6590567827224731,54,5897.0,3.897081136703491,5,9950.0
7940,0.33910322189331055,1.646959662437439,37,5897.0,3.586801767349243,21,9950.0
7950,0.3390848934650421,-0.5057711005210876,18,5897.0,7.100859642028809,74,9950.0
7960,0.3390877842903137,1.107863426208496,10,5897.0,4.8926825523376465,90,9950.0
7970,0.33911263942718506,0.482273131608963,-4,5897.0,4.452813625335693,157,9950.0
7980,0.3402962386608124,0.5714339017868042,-8,5897.0,-0.47203826904296875,50,9950.0
7990,0.34041813015937805,1.3588966131210327,0,5897.0,-4.189514636993408,-25,9950.0
8000,0.34052786231040955,1.7136443853378296,73,5897.0,-4.390564441680908,-83,9950.0
8010,0.3406238555908203,2.614607095718384,38,5897.0,-3.9008758068084717,-93,9950.0
8020,0.340671569108963,2.864598512649536,41,5897.0,-5.9375691413879395,-140,9950.0
8030,0.34126588702201843,2.552952527999878,84,5897.0,-2.6399643421173096,-106,9950.0
8040,0.3413470685482025,4.818609714508057,59,5897.0,2.1610422134399414,-6,9950.0
8050,0.3414289951324463,4.574815273284912,73,5897.0,4.259400367736816,140,9950.0
8060,0.34149137139320374,3.6472322940826416,66,5897.0,4.7812395095825195,153,9950.0
8070,0.3417470455169678,3.093174457550049,35,5897.0,3.3866591453552246,84,9950.0
8080,0.3417893052101135,2.4494359493255615,12,5897.0,-2.4627902507781982,15,9950.0
8090,0.3417940139770508,0.6850889325141907,10,5897.0,0.22255274653434753,-30,9950.0
8100,0.34176790714263916,-1.057944416999817,28,5897.0,-0.9029315710067749,-158,9950.0
8110,0.34304848313331604,-3.3419349193573,-22,5897.0,-1.0287827253341675,-147,9950.0
8120,0.3430154323577881,-3.5852699279785156,-31,5897.0,-2.591853141784668,-47,9950.0
8130,0.34294748306274414,-3.2411701679229736,-26,5897.0,-2.9200656414031982,49,9950.0
8140,0.34285521507263184,-0.9848011136054993,-30,5897.0,-4.989243030548096,101,9950.0
8150,0.34276995062828064,1.205217957496643,58,5897.0,-1.6784634590148926,29,9950.0
8160,0.34272295236587524,-0.5687857270240784,26,5897.0,2.306952953338623,-14,9950.0
8170,0.3425370156764984,0.4293849468231201,16,5897.0,3.1913321018218994,-13,9950.0
8180,0.3423541188240051,-0.8983656764030457,15,5897.0,2.6513516902923584,171,9950.0
8190,0.34214267134666443,1.2445693016052246,0,5897.0,3.5062830448150635,128,9950.0
8200,0.34357815980911255,1.2208408117294312,45,5897.0,3.2513883113861084,83,9950.0
8210,0.3434517979621887,1.157809853553772,54,5897.0,1.543543815612793,-39,9950.0
8220,0.3433309495449066,1.8049428462982178,64,5897.0,2.850023031234741,-57,9950.0
8230,0.3432018756866455,-1.01350736618042,18,5897.0,2.9284675121307373,5,9950.0
8240,0.34306958317756653,2.232621669769287,37,5897.0,-1.8426345586776733,3,9950.0
8250,0.3440946042537689,-0.23390398919582367,15,5897.0,-4.677765369415283,5,9950.0
8260,0.3439728319644928,0.16832982003688812,-21,5897.0,-9.258111953735352,-23,9950.0
8270,0.3438289761543274,0.8058668971061707,9,5897.0,-7.8430585861206055,13,9950.0
8280,0.34369874000549316,0.13710622489452362,41,5897.0,-4.476737976074219,-120,9950.0
8290,0.3440462648868561,-0.5686787366867065,-21,5897.0,-2.7336816787719727,-61,9950.0
8300,0.3439042270183563,-0.707893967628479,24,5897.0,1.175730586051941,22,9950.0
8310,0.34373217821121216,-0.7205525040626526,-25,5897.0,1.9028960466384888,154,9950.0
8320,0.3435090184211731,-2.2140328884124756,-48,5897.0,1.402144432067871,124,9950.0
8330,0.34392818808555603,-1.957531452178955,-49,5897.0,-0.9600276350975037,55,9950.0
8340,0.3437309265136719,-3.0922462940216064,-47,5897.0,-1.0843687057495117,-42,9950.0
8350,0.34352678060531616,-1.7678240537643433,-20,5897.0,-3.538088083267212,-185,9950.0
8360,0.3433418869972229,-1.5153920650482178,-32,5897.0,-0.0472947359085083,-120,9950.0
8370,0.34309282898902893,-0.08535748720169067,20,5897.0,-1.563510775566101,-36,9950.0
8380,0.3439991772174835,2.3090693950653076,-4,5897.0,-2.6975011825561523,34,9950.0
8390,0.34379053115844727,3.158501625061035,23,5897.0,-0.9789800643920898,49,9950.0
8400,0.34357160329818726,1.6387739181518555,-3,5897.0,-1.0933388471603394,-16,9950.0
8410,0.343360960483551,-0.45060986280441284,-16,5897.0,-0.7499074339866638,-71,9950.0
8420,0.3446875810623169,0.6430714130401611,6,5897.0,-1.4831230640411377,-148,9950.0
8430,0.3445943593978882,-0.2493072748184204,-42,5897.0,0.2531066834926605,-51,9950.0
8440,0.34449484944343567,-0.9648593664169312,-18,5897.0,-0.5885429382324219,25,9950.0
8450,0.34443533420562744,-0.015695055946707726,11,5897.0,-0.4536493122577667,113,9950.0
8460,0.3444088101387024,-0.9441927075386047,-7,5897.0,1.732298493385315,101,9950.0
8470,0.34419575333595276,1.0925358533859253,40,5897.0,3.234368324279785,54,9950.0
8480,0.3441234230995178,3.003269910812378,59,5897.0,2.4534785747528076,-13,9950.0
8490,0.34406182169914246,1.437373399734497,35,5897.0,5.149255752563477,-47,9950.0
8500,0.3439626395702362,0.8521714806556702,7,5897.0,1.4231456518173218,-8,9950.0
8510,0.3453967869281769,0.3108214735984802,26,5897.0,0.48687461018562317,36,9950.0
8520,0.3452914357185364,0.7803305387496948,-3,5897.0,-0.8253234028816223,74,9950.0
8530,0.34516164660453796,-0.02761351317167282,-6,5897.0,2.8497314453125,145,9950.0
8540,0.34504035115242004,0.6681902408599854,60,5897.0,2.979975938796997,39,9950.0
8550,0.34574002027511597,1.0267930030822754,75,5897.0,4.650040149688721,-49,9950.0
8560,0.3456713557243347,-0.49778982996940613,12,5897.0,4.689371109008789,-17,9950.0
8570,0.345584899187088,2.3371713161468506,11,5897.0,3.602985382080078,49,9950.0
8580,0.34549057483673096,2.4494805335998535,37,5897.0,3.7364816665649414,138,9950.0
8590,0.3454236686229706,1.037104845046997,1,5897.0,1.5421913862228394,80,9950.0
8600,0.34676992893218994,0.01580171287059784,5,5897.0,2.694916248321533,56,9950.0
8610,0.3467460870742798,-2.225975275039673,-23,5897.0,0.9311684966087341,-20,9950.0
8620,0.3467153310775757,-2.3309037685394287,-35,5897.0,0.4643747806549072,-54,9950.0
8630,0.3467079997062683,-4.966294288635254,-90,5897.0,0.6698815226554871,-62,9950.0
8640,0.3467943072319031,-2.3419432640075684,-76,5897.0,-4.307773590087891,-11,9950.0
8650,0.34671837091445923,-4.364414215087891,-96,5897.0,-2.9081079959869385,-3,9950.0
8660,0.3466237783432007,-3.573732852935791,-57,5897.0,3.263644218444824,56,9950.0
8670,0.34656810760498047,1.0284489393234253,1,5897.0,5.800347805023193,36,9950.0
8680,0.3465206027030945,0.8013235926628113,22,5897.0,4.660177707672119,-28,9950.0
8690,0.34669679403305054,0.0366831049323082,-15,5897.0,4.76099967956543,82,9950.0
8700,0.34664463996887207,1.6281012296676636,-33,5897.0,3.819993257522583,153,9950.0
8710,0.34658655524253845,-1.639303207397461,-29,5897.0,4.135182857513428,124,9950.0
8720,0.3465390205383301,-0.6811991333961487,-65,5897.0,3.787503957748413,32,9950.0
8730,0.3466620147228241,-2.4611990451812744,-16,5897.0,6.284269332885742,-64,9950.0
8740,0.3465994894504547,-2.254427194595337,-37,5897.0,0.15456821024417877,-107,9950.0
8750,0.3464989960193634,-3.493457317352295,-36,5897.0,-1.5481560230255127,-45,9950.0
8760,0.34637734293937683,-4.638162612915039,-78,5897.0,-2.1048784255981445,-2,9950.0
8770,0.34692850708961487,-4.230352401733398,-94,5897.0,-0.15063951909542084,-2,9950.0
8780,0.3467799723148346,-3.019056558609009,-16,5897.0,-0.6842462420463562,-122,9950.0
8790,0.34660401940345764,-2.9057397842407227,-60,5897.0,2.0929791927337646,-92,9950.0
8800,0.34644815325737,-2.4001219272613525,-52,5897.0,-0.5080773234367371,-17,9950.0
8810,0.34625905752182007,-1.048598289489746,-40,5897.0,0.9254234433174133,113,9950.0
8820,0.346779465675354,-2.326490640640259,-24,5897.0,3.3258602619171143,-6,9950.0
8830,0.34660694003105164,1.4665377140045166,9,5897.0,4.2476725578308105,-73,9950.0
8840,0.3464205265045166,-0.3876815140247345,-10,5897.0,3.2047927379608154,53,9950.0
8850,0.3462146818637848,-0.7543519139289856,-52,5897.0,-3.963622570037842,-15,9950.0
8860,0.34639397263526917,-0.3171065151691437,-15,5897.0,-3.041792631149292,-12,9950.0
8870,0.3461747169494629,-0.8653938174247742,-66,5897.0,-2.1136879920959473,-63,9950.0
8880,0.34593823552131653,-0.2638798654079437,-18,5897.0,0.11068762838840485,-22,9950.0
8890,0.34569036960601807,-0.5817816853523254,-52,5897.0,2.343508243560791,7,9950.0
8900,0.3454160988330841,0.7957786917686462,-41,5897.0,1.320002794265747,86,9950.0
8910,0.3466188609600067,-1.0501655340194702,-82,5897.0,1.7526330947875977,121,9950.0
8920,0.34641316533088684,0.2595404386520386,-4,5897.0,-4.701483249664307,-62,9950.0
8930,0.34622839093208313,-0.28617191314697266,-2,5897.0,-4.99443244934082,-118,9950.0
8940,0.3460283577442169,1.778573751449585,16,5897.0,-5.59287166595459,-163,9950.0
8950,0.3450198471546173,0.3043656349182129,-36,5897.0,-4.277958869934082,-34,9950.0
8960,0.3447587192058563,-0.15959632396697998,-31,5897.0,-4.265252590179443,-25,9950.0
8970,0.34452351927757263,-0.09055882692337036,-23,5897.0,-4.180280685424805,26,9950.0
8980,0.3442443609237671,-1.9870562553405762,-37,5897.0,0.13396644592285156,25,9950.0
8990,0.3443761169910431,-0.6388654112815857,10,5897.0,0.8261620402336121,-69,9950.0
9000,0.344124436378479,0.679290235042572,45,5897.0,1.5555979013442993,-95,9950.0
9010,0.3439144790172577,0.6555030345916748,29,5897.0,2.9235665798187256,-44,9950.0
9020,0.34370332956314087,1.5077153444290161,31,5897.0,1.8828831911087036,40,9950.0
9030,0.3434877097606659,-0.1721973866224289,-5,5897.0,-0.5155432224273682,84,9950.0
9040,0.34425848722457886,0.6534978747367859,-5,5897.0,-1.963778018951416,21,9950.0
9050,0.3440852761268616,0.711884617805481,30,5897.0,-5.367668151855469,-78,9950.0
9060,0.3439173102378845,0.1738508939743042,34,5897.0,-4.33235502243042,-117,9950.0
9070,0.3437366783618927,1.4996910095214844,40,5897.0,-4.195058822631836,-134,9950.0
9080,0.34407150745391846,1.652254343032837,61,5897.0,-1.5430573225021362,-73,9950.0
9090,0.3439617455005646,2.5109803676605225,33,5897.0,-4.943113803863525,-100,9950.0
9100,0.343839168548584,2.4604642391204834,35,5897.0,1.156736969947815,117,9950.0
9110,0.3437172770500183,-0.0030722373630851507,-17,5897.0,4.475696563720703,216,9950.0
9120,0.34361934661865234,1.753407597541809,13,5897.0,3.1911251544952393,90,9950.0
9130,0.3440912961959839,0.90018230676651,0,5897.0,8.345673561096191,72,9950.0
9140,0.34401771426200867,0.2137155383825302,-5,5897.0,7.9192609786987305,31,9950.0
9150,0.3439291715621948,-0.9688364267349243,-22,5897.0,5.433778285980225,12,9950.0
9160,0.3438379764556885,0.05791260302066803,-14,5897.0,1.676827073097229,18,9950.0
9170,0.3458079993724823,-1.3704906702041626,-51,5897.0,0.4037216007709503,19,9950.0
9180,0.3458036780357361,-0.2637956440448761,-42,5897.0,-2.57707142829895,-14,9950.0
9190,0.3457843065261841,0.9582637548446655,4,5897.0,-3.7721123695373535,56,9950.0
9200,0.34575381875038147,-0.10389785468578339,5,5897.0,-2.30041241645813,-17,9950.0
9210,0.34542834758758545,1.8606679439544678,-4,5897.0,-6.707901477813721,-71,9950.0
9220,0.34536224603652954,2.7600953578948975,90,5897.0,-2.5540966987609863,-149,9950.0
9230,0.34530431032180786,2.5255582332611084,91,5897.0,0.3450307846069336,-16,9950.0
9240,0.34525763988494873,3.2737128734588623,76,5897.0,2.800753116607666,58,9950.0
9250,0.3452151119709015,1.4742416143417358,17,5897.0,1.670915961265564,94,9950.0
9260,0.3458996117115021,1.3316737413406372,53,5897.0,1.4617840051651,95,9950.0
9270,0.34589898586273193,0.04731142893433571,-10,5897.0,2.097073554992676,75,9950.0
9280,0.34588977694511414,0.38782578706741333,13,5897.0,-0.4889754354953766,10,9950.0
9290,0.3458762466907501,-0.9821873903274536,9,5897.0,3.5336077213287354,-32,9950.0
9300,0.34629687666893005,0.33746588230133057,31,5897.0,3.087629795074463,-14,9950.0
9310,0.3462890088558197,1.5938575267791748,33,5897.0,-0.7295629382133484,-14,9950.0
9320,0.3462652862071991,0.1747106909751892,12,5897.0,-0.014629718847572803,87,9950.0
9330,0.3461926281452179,0.6430699229240417,18,5897.0,-1.6517930030822754,32,9950.0
9340,0.34608760476112366,0.18800725042819977,-4,5897.0,3.9548287391662598,32,9950.0
9350,0.3471803665161133,1.9732712507247925,40,5897.0,-0.2727561295032501,-48,9950.0
9360,0.3470647633075714,3.3106038570404053,39,5897.0,-2.2632715702056885,-82,9950.0
9370,0.34693869948387146,2.186981439590454,11,5897.0,-2.8596808910369873,-4,9950.0
9380,0.34679853916168213,1.9105955362319946,10,5897.0,-0.10602747648954391,-37,9950.0
9390,0.34591755270957947,1.7755770683288574,14,5897.0,0.032794419676065445,47,9950.0
9400,0.3457404375076294,1.860924482345581,-18,5897.0,-0.12754246592521667,43,9950.0
9410,0.34556058049201965,0.9009912610054016,-8,5897.0,1.9700576066970825,31,9950.0
9420,0.345380961894989,0.05872698500752449,26,5897.0,2.421013832092285,-36,9950.0
9430,0.34552285075187683,-1.6352825164794922,-4,5897.0,6.2339558601379395,19,9950.0
9440,0.3453904986381531,-0.47772538661956787,-2,5897.0,2.5975677967071533,110,9950.0
9450,0.34524115920066833,-1.5094000101089478,-24,5897.0,3.531498908996582,134,9950.0
9460,0.34507501125335693,-0.6446163058280945,-22,5897.0,4.943559169769287,29,9950.0
9470,0.3448653221130371,-0.18752354383468628,-14,5897.0,1.935795783996582,-84,9950.0
9480,0.34757664799690247,-2.014979839324951,2,5897.0,1.0155099630355835,-128,9950.0
9490,0.34751853346824646,-1.1556719541549683,-31,5897.0,-5.169569492340088,-128,9950.0
9500,0.3474608361721039,0.586384654045105,14,5897.0,-4.255050182342529,-28,9950.0
9510,0.3474009335041046,2.5738251209259033,27,5897.0,-7.713789463043213,-45,9950.0
9520,0.3475691080093384,2.144045114517212,32,5897.0,-6.095017910003662,-129,9950.0
9530,0.3474757671356201,2.003854990005493,36,5897.0,-3.1090891361236572,-160,9950.0
9540,0.34742826223373413,3.9684531688690186,77,5897.0,-1.6841901540756226,-111,9950.0
9550,0.3473774194717407,4.107078552246094,69,5897.0,-2.2691688537597656,-22,9950.0
9560,0.34731289744377136,1.0892481803894043,0,5897.0,3.0923349857330322,147,9950.0
9570,0.3491842448711395,-0.13036686182022095,-11,5897.0,4.433969020843506,162,9950.0
9580,0.34918543696403503,-1.4533751010894775,7,5897.0,7.364966869354248,93,9950.0
9590,0.3491978347301483,-3.653733968734741,-57,5897.0,8.57411003112793,76,9950.0
9600,0.34920069575309753,-1.5742342472076416,-46,5897.0,8.91761302947998,176,9950.0
9610,0.3491014540195465,-2.2372570037841797,-36,5897.0,1.6772565841674805,108,9950.0
9620,0.3490733504295349,-0.46373623609542847,-12,5897.0,-0.11041788011789322,87,9950.0
9630,0.34902408719062805,0.1980106681585312,13,5897.0,-4.757162570953369,-9,9950.0
9640,0.348949670791626,-0.5042434930801392,55,5897.0,-2.6280558109283447,-107,9950.0
9650,0.3513057827949524,1.979851484298706,33,5897.0,-6.810448169708252,-152,9950.0
9660,0.3512847423553467,1.1866885423660278,25,5897.0,-6.4843058586120605,-9,9950.0
9670,0.3512367904186249,2.526013135910034,17,5897.0,-2.317261219024658,70,9950.0
9680,0.35115906596183777,2.448451519012451,27,5897.0,-1.5989954471588135,47,9950.0
9690,0.3510749638080597,0.0932682678103447,25,5897.0,-1.059850811958313,-12,9950.0
9700,0.35174503922462463,-0.45866623520851135,-34,5897.0,2.0934414863586426,-8,9950.0
9710,0.3516741394996643,-3.0225255489349365,-62,5897.0,4.349058628082275,112,9950.0
9720,0.3515624701976776,-3.2226884365081787,-78,5897.0,3.1203413009643555,106,9950.0
9730,0.351397305727005,-5.237320423126221,-103,5897.0,2.781233072280884,54,9950.0
9740,0.3518267273902893,-5.953871250152588,-75,5897.0,2.7256693840026855,-13,9950.0
9750,0.3515944182872772,-5.0205841064453125,-96,5897.0,3.583726644515991,46,9950.0
9760,0.3513472378253937,-3.775552272796631,-76,5897.0,-2.7385663986206055,-5,9950.0
9770,0.35110336542129517,-3.5084431171417236,-40,5897.0,-6.428187847137451,-96,9950.0
9780,0.35082152485847473,-2.2142333984375,-66,5897.0,-4.631801128387451,-91,9950.0
9790,0.3509920537471771,-1.3508341312408447,-39,5897.0,-3.2098138332366943,-125,9950.0
9800,0.3506627082824707,-0.4131336212158203,-41,5897.0,-5.551910877227783,-9,9950.0
9810,0.3502993583679199,-2.608658790588379,-100,5897.0,-1.8769665956497192,60,9950.0
9820,0.34991133213043213,-1.8379977941513062,-44,5897.0,0.30769988894462585,44,9950.0
9830,0.3507237136363983,-1.7844481468200684,-66,5897.0,-1.2199901342391968,-53,9950.0
9840,0.35031723976135254,-3.6512739658355713,-64,5897.0,1.0016632080078125,-65,9950.0
9850,0.34994038939476013,-4.279460906982422,-64,5897.0,1.646875262260437,6,9950.0
9860,0.34951239824295044,-2.9083313941955566,-80,5897.0,2.715409994125366,96,9950.0
9870,0.3498281240463257,-1.6655629873275757,-19,5897.0,-1.8163223266601562,-51,9950.0
9880,0.3494027853012085,-1.5319615602493286,-5,5897.0,0.835791826248169,-23,9950.0
9890,0.348976194858551,-0.4724152684211731,21,5897.0,-1.2378095388412476,-164,9950.0
9900,0.34852850437164307,-1.709985375404358,22,5897.0,-0.32827994227409363,-90,9950.0
9910,0.3480883538722992,-0.8387432098388672,3,5897.0,-1.7097729444503784,-19,9950.0
9920,0.347235769033432,-0.333320677280426,-17,5897.0,1.1467114686965942,164,9950.0
9930,0.3468344509601593,-0.31755775213241577,-8,5897.0,1.2220937013626099,122,9950.0
9940,0.34640952944755554,-0.7587835192680359,21,5897.0,1.7932225465774536,34,9950.0
9950,0.345983624458313,-2.136704921722412,12,5897.0,2.7246031761169434,4,9950.0
9960,0.3471730947494507,-1.0704751014709473,3,5897.0,6.254167079925537,62,9950.0
9970,0.3468905985355377,0.4274299144744873,19,5897.0,1.6079992055892944,2,9950.0
9980,0.3466431796550751,-0.6295226216316223,-12,5897.0,1.7285847663879395,12,9950.0
9990,0.3464331328868866,-1.323430061340332,-37,5897.0,-1.5438920259475708,65,9950.0
10000,0.34623217582702637,0.6840136051177979,17,5897.0,-3.9452879428863525,37,9950.0
10010,0.3476220369338989,0.7280482649803162,26,5897.0,-1.187760829925537,-7,9950.0
10020,0.3475010097026825,1.0442396402359009,41,5897.0,-1.3202544450759888,-30,9950.0
10030,0.34740573167800903,2.0185608863830566,38,5897.0,0.9200663566589355,-11,9950.0
10040,0.3473350703716278,2.705240249633789,61,5897.0,3.6023008823394775,-52,9950.0
10050,0.3479580879211426,3.778446674346924,33,5897.0,1.9380309581756592,-19,9950.0
10060,0.34793442487716675,1.4576860666275024,-1,5897.0,2.389177083969116,113,9950.0
10070,0.34790900349617004,1.6477735042572021,34,5897.0,-0.5416749715805054,44,9950.0
10080,0.3478865623474121,1.4637236595153809,-22,5897.0,-0.6350555419921875,29,9950.0
10090,0.3478545844554901,-1.0730947256088257,-25,5897.0,-0.30132514238357544,-42,9950.0
10100,0.35000744462013245,-2.358470916748047,14,5897.0,0.13705621659755707,-91,9950.0
10110,0.3500699996948242,-1.776285171508789,2,5897.0,-2.4723761081695557,-72,9950.0
10120,0.35012194514274597,-1.1608413457870483,0,5897.0,-3.1674442291259766,-11,9950.0
10130,0.3501649796962738,0.32866567373275757,22,5897.0,-1.2739768028259277,66,9950.0
10140,0.35055798292160034,0.09591738134622574,-7,5897.0,-2.920480489730835,-60,9950.0
10150,0.3506145179271698,2.8099870681762695,86,5897.0,0.5087964534759521,-96,9950.0
10160,0.35064876079559326,3.3592798709869385,73,5897.0,0.2377714365720749,-33,9950.0
10170,0.35065361857414246,4.214005470275879,78,5897.0,-1.1754438877105713,-46,9950.0
10180,0.35156014561653137,4.667524814605713,60,5897.0,-1.9543051719665527,52,9950.0
10190,0.3515774607658386,4.215426921844482,54,5897.0,-3.0676674842834473,-12,9950.0
10200,0.35159656405448914,2.402433156967163,84,5897.0,-4.152419567108154,-113,9950.0
10210,0.35162052512168884,0.791877269744873,81,5897.0,-4.4805073738098145,-178,9950.0
10220,0.3516075015068054,1.7843379974365234,52,5897.0,-3.697186231613159,0,9950.0
10230,0.3525635004043579,-0.12331289052963257,-3,5897.0,-0.8383674621582031,82,9950.0
10240,0.3525296449661255,-0.6412025690078735,18,5897.0,-1.0408207178115845,-34,9950.0
10250,0.3524531424045563,-0.8083770871162415,9,5897.0,0.26643481850624084,21,9950.0
10260,0.35233065485954285,0.6652902364730835,28,5897.0,2.5802676677703857,45,9950.0
10270,0.35243818163871765,0.9126141667366028,7,5897.0,2.476445436477661,101,9950.0
10280,0.3522781729698181,-0.17008216679096222,-50,5897.0,4.684565544128418,160,9950.0
10290,0.3521016836166382,-0.4823082685470581,-28,5897.0,0.9007850289344788,33,9950.0
10300,0.3518810272216797,-1.8835097551345825,-18,5897.0,-0.24867455661296844,-71,9950.0
10310,0.35164788365364075,-1.4068247079849243,-22,5897.0,2.7173774242401123,-35,9950.0
10320,0.3519231379032135,-2.227613925933838,-42,5897.0,4.322183609008789,84,9950.0
10330,0.35161298513412476,-0.4642048180103302,-17,5897.0,0.7667831778526306,62,9950.0
10340,0.35128647089004517,-0.5155400633811951,15,5897.0,0.5468761920928955,-32,9950.0
10350,0.35088980197906494,0.5201110243797302,24,5897.0,-0.7054622173309326,-38,9950.0
10360,0.3517310321331024,2.084200620651245,35,5897.0,2.6224007606506348,-45,9950.0
10370,0.35138610005378723,-0.8628299236297607,-46,5897.0,4.348395347595215,76,9950.0
10380,0.35103845596313477,1.446128010749817,-22,5897.0,1.2013415098190308,105,9950.0
10390,0.35067930817604065,-0.40804219245910645,-34,5897.0,0.3529077172279358,39,9950.0
10400,0.35120534896850586,-1.3381794691085815,-18,5897.0,-0.04314499348402023,-45,9950.0
10410,0.350838303565979,-1.0028226375579834,-7,5897.0,0.21095585823059082,-96,9950.0
10420,0.3508381247520447,-1.3943610191345215,-47,5897.0,0.9760973453521729,-57,9950.0
10430,0.35009533166885376,-1.0423495769500732,-9,5897.0,0.5931179523468018,66,9950.0
10440,0.35009995102882385,-1.3016647100448608,10,5897.0,1.543686032295227,117,9950.0
10450,0.35069987177848816,-1.6023447513580322,-20,5897.0,3.06264066696167,72,9950.0
10460,0.3507034480571747,-2.7185251712799072,-34,5897.0,3.3172502517700195,-25,9950.0
10470,0.35001838207244873,-1.0924675464630127,-26,5897.0,-0.6238031983375549,-16,9950.0
10480,0.35004156827926636,-2.254835367202759,-19,5897.0,2.776176691055298,-12,9950.0
10490,0.3509575128555298,-1.5570507049560547,-18,5897.0,0.704085648059845,24,9950.0
10500,0.3506726920604706,-1.0597875118255615,-24,5897.0,-0.021244704723358154,123,9950.0
10510,0.3503936529159546,-1.854301929473877,-44,5897.0,-0.21819554269313812,118,9950.0
10520,0.3501129150390625,-2.613447904586792,14,5897.0,3.6592681407928467,4,9950.0
10530,0.3513760566711426,-1.6648173332214355,27,5897.0,-1.9554301500320435,-110,9950.0
10540,0.3511696755886078,0.05486308038234711,8,5897.0,-2.8714122772216797,-116,9950.0
10550,0.35092827677726746,2.8343217372894287,52,5897.0,-3.0302810668945312,-14,9950.0
10560,0.35048818588256836,2.6530191898345947,46,5897.0,-0.9605026245117188,9,9950.0
10570,0.35048848390579224,2.1161465644836426,2,5897.0,0.5211976766586304,119,9950.0
10580,0.3507266342639923,0.12523464858531952,-2,5897.0,0.6275508999824524,64,9950.0
10590,0.35073399543762207,-0.3041706383228302,-12,5897.0,2.0294029712677,-12,9950.0
10600,0.35028699040412903,0.18225039541721344,2,5897.0,1.8657169342041016,-48,9950.0
10610,0.3502773940563202,-1.1112934350967407,-5,5897.0,1.0414891242980957,-35,9950.0
10620,0.35119903087615967,-2.2949070930480957,-22,5897.0,2.5283212661743164,12,9950.0
10630,0.35102206468582153,-1.6547340154647827,-25,5897.0,0.050764355808496475,80,9950.0
10640,0.3508484363555908,-0.30025628209114075,-5,5897.0,-0.557717502117157,44,9950.0
10650,0.3506665825843811,0.6438004374504089,35,5897.0,-6.637466907501221,-20,9950.0
10660,0.35049891471862793,3.1757311820983887,47,5897.0,-3.054495334625244,-19,9950.0
10670,0.35019174218177795,1.8186668157577515,96,5897.0,-0.21914878487586975,-90,9950.0
10680,0.35000741481781006,2.558497428894043,65,5897.0,-2.4170894622802734,-88,9950.0
10690,0.3498345613479614,2.2123427391052246,39,5897.0,-5.161696910858154,-63,9950.0
10700,0.3496585488319397,3.6377973556518555,133,5897.0,-3.9176084995269775,0,9950.0
10710,0.3500797748565674,3.218852996826172,63,5897.0,-0.5953921675682068,64,9950.0
10720,0.3499382436275482,3.5115911960601807,82,5897.0,-0.6671542525291443,31,9950.0
10730,0.34980690479278564,1.5261380672454834,4,5897.0,3.665884494781494,34,9950.0
10740,0.3496348559856415,0.021952591836452484,-2,5897.0,5.510998725891113,63,9950.0
10750,0.3500303626060486,-0.6006336212158203,-20,5897.0,3.9252870082855225,34,9950.0
10760,0.3498546779155731,-2.453619956970215,-3,5897.0,2.164780616760254,0,9950.0
10770,0.3496920168399811,-2.786975860595703,-84,5897.0,2.2011449337005615,91,9950.0
10780,0.3495163023471832,-2.819823980331421,-62,5897.0,-1.423356056213379,51,9950.0
10790,0.34937119483947754,-3.938854455947876,-46,5897.0,-3.7958009243011475,52,9950.0
10800,0.3491554856300354,-2.756459951400757,-45,5897.0,-2.142906904220581,-115,9950.0
10810,0.34904980659484863,-0.6391779780387878,-10,5897.0,-2.4791312217712402,-128,9950.0
10820,0.34893926978111267,0.2971935272216797,-18,5897.0,-2.451531171798706,-33,9950.0
10830,0.3488215208053589,2.4180846214294434,17,5897.0,-0.717658281326294,66,9950.0
10840,0.3491852283477783,3.4240353107452393,44,5897.0,1.4452217817306519,70,9950.0
10850,0.3490501642227173,3.667371988296509,49,5897.0,2.323615550994873,50,9950.0
10860,0.3488992750644684,2.678863525390625,30,5897.0,3.2709901332855225,-10,9950.0
10870,0.3487488031387329,0.24531340599060059,8,5897.0,2.666505813598633,-87,9950.0
10880,0.35099372267723083,-1.7116121053695679,-7,5897.0,2.928278923034668,-1,9950.0
10890,0.35092052817344666,-1.189259648323059,-34,5897.0,-1.6534154415130615,24,9950.0
10900,0.3508005142211914,-1.9518026113510132,-25,5897.0,-1.5355538129806519,-16,9950.0
10910,0.35066163539886475,-1.0585862398147583,-19,5897.0,-4.049836158752441,18,9950.0
10920,0.3505134880542755,-0.881901741027832,-3,5897.0,-2.4775264263153076,-24,9950.0
10930,0.35139867663383484,-0.0290596354752779,7,5897.0,-1.405447244644165,-71,9950.0
10940,0.35128849744796753,1.9016752243041992,38,5897.0,0.05112471431493759,-34,9950.0
10950,0.3511490821838379,3.697681188583374,71,5897.0,-0.9851419925689697,4,9950.0
10960,0.3509719967842102,1.3848624229431152,-10,5897.0,4.861285209655762,143,9950.0
10970,0.35124507546424866,0.37801170349121094,3,5897.0,4.590031147003174,138,9950.0
10980,0.35101598501205444,-0.3007378876209259,-22,5897.0,4.075387477874756,76,9950.0
10990,0.3507608473300934,-2.1521174907684326,-87,5897.0,2.044799566268921,-7,9950.0
11000,0.3505043685436249,-2.132488250732422,-14,5897.0,1.8738902807235718,-64,9950.0
11010,0.35022690892219543,-2.060908079147339,-49,5897.0,2.586613178253174,-11,9950.0
11020,0.35113459825515747,0.15108303725719452,-25,5897.0,-0.7436778545379639,37,9950.0
11030,0.35085901618003845,0.3107786178588867,4,5897.0,-1.5012534856796265,-3,9950.0
11040,0.35060256719589233,-0.5152595639228821,1,5897.0,-2.3975980281829834,-7,9950.0
11050,0.35034799575805664,1.5512906312942505,14,5897.0,-2.1625170707702637,-48,9950.0
11060,0.35117119550704956,0.3104713261127472,11,5897.0,-6.754054546356201,-208,9950.0
11070,0.350969135761261,0.12938334047794342,34,5897.0,-1.7744834423065186,-121,9950.0
11080,0.35071852803230286,1.640051245689392,22,5897.0,-2.8905582427978516,-28,9950.0
11090,0.3504634499549866,3.228257179260254,24,5897.0,-3.1842849254608154,18,9950.0
11100,0.3516048789024353,-1.941878318786621,-62,5897.0,1.2685878276824951,104,9950.0
11110,0.3513741195201874,1.2873772382736206,37,5897.0,1.549841046333313,73,9950.0
11120,0.35114002227783203,-0.049080055207014084,69,5897.0,1.4011300802230835,-31,9950.0
11130,0.3509178161621094,-0.9302006363868713,8,5897.0,1.3263978958129883,-43,9950.0
11140,0.35068976879119873,-0.07684944570064545,-5,5897.0,2.7235467433929443,25,9950.0
11150,0.35145846009254456,-1.3992209434509277,-21,5897.0,6.553349018096924,128,9950.0
11160,0.3513152599334717,1.747718095779419,14,5897.0,-2.2735962867736816,73,9950.0
11170,0.35116973519325256,1.0041944980621338,-8,5897.0,-2.9403114318847656,49,9950.0
11180,0.3510321378707886,0.8276293873786926,15,5897.0,-0.7772409915924072,-28,9950.0
11190,0.351697713136673,0.3773375451564789,16,5897.0,-1.6549475193023682,-74,9950.0
11200,0.3515862226486206,0.5469211339950562,8,5897.0,-3.2217159271240234,-114,9950.0
11210,0.3515435457229614,0.1343335211277008,-17,5897.0,1.146756887435913,-3,9950.0
11220,0.35142186284065247,0.17988356947898865,23,5897.0,-1.461504578590393,40,9950.0
11230,0.3512856662273407,2.4436633586883545,45,5897.0,0.3745432496070862,39,9950.0
11240,0.3523092567920685,3.4955623149871826,55,5897.0,1.9571998119354248,88,9950.0
11250,0.35228362679481506,2.940350294113159,22,5897.0,5.363749980926514,40,9950.0
11260,0.3522183895111084,1.0595109462738037,18,5897.0,4.7780375480651855,-59,9950.0
11270,0.352115273475647,-0.31717637181282043,9,5897.0,4.344393730163574,-8,9950.0
11280,0.35277852416038513,0.02815905213356018,-5,5897.0,2.075629711151123,38,9950.0
11290,0.352705180644989,-1.350457787513733,-20,5897.0,-2.3305349349975586,23,9950.0
11300,0.3526266813278198,0.5573245882987976,-5,5897.0,-3.730227470397949,57,9950.0
11310,0.3525141179561615,-0.01751984842121601,49,5897.0,-0.30905354022979736,-78,9950.0
11320,0.3537834584712982,1.2990829944610596,74,5897.0,-2.3197195529937744,-99,9950.0
11330,0.3537236452102661,2.315065383911133,55,5897.0,-2.4071712493896484,-50,9950.0
11340,0.3536338210105896,2.1865386962890625,70,5897.0,-2.7073700428009033,9,9950.0
11350,0.3535287082195282,2.6888158321380615,50,5897.0,-0.5820671916007996,106,9950.0
11360,0.3534137010574341,1.454849123954773,1,5897.0,2.5421030521392822,103,9950.0
11370,0.35357123613357544,-0.852482795715332,9,5897.0,0.8345666527748108,-23,9950.0
11380,0.3534832000732422,0.23444874584674835,-10,5897.0,0.6392366290092468,-8,9950.0
11390,0.35329797863960266,-2.396937370300293,-19,5897.0,1.8858274221420288,-48,9950.0
11400,0.35306036472320557,-2.6969454288482666,-67,5897.0,-0.8287633657455444,-6,9950.0
11410,0.3524754047393799,-3.8470540046691895,-71,5897.0,-1.383790135383606,108,9950.0
11420,0.3521583378314972,-2.9730656147003174,-77,5897.0,0.4318929612636566,61,9950.0
11430,0.3518342077732086,-3.40803599357605,-65,5897.0,-0.14394152164459229,3,9950.0
11440,0.3515211343765259,-2.35343599319458,-42,5897.0,2.1476070880889893,-52,9950.0
11450,0.3512156009674072,0.3121180832386017,21,5897.0,0.6422269940376282,-75,9950.0
11460,0.35134777426719666,1.5890809297561646,23,5897.0,2.2871053218841553,86,9950.0
11470,0.35106319189071655,2.7490837574005127,16,5897.0,1.9170712232589722,111,9950.0
11480,0.35076236724853516,1.3441224098205566,-12,5897.0,2.4277780055999756,40,9950.0
11490,0.35053443908691406,0.1863444447517395,-22,5897.0,-2.410230875015259,-6,9950.0
11500,0.3513272702693939,-3.2885148525238037,-78,5897.0,1.0371519327163696,-49,9950.0
11510,0.351209819316864,-5.324873447418213,-94,5897.0,-0.6658823490142822,-79,9950.0
11520,0.3510624170303345,-7.950180530548096,-110,5897.0,3.292754888534546,-2,9950.0
11530,0.3509383201599121,-5.70527982711792,-104,5897.0,-4.972072601318359,14,9950.0
11540,0.3516092896461487,-4.270689487457275,-65,5897.0,0.17384499311447144,71,9950.0
11550,0.35149672627449036,-2.8910751342773438,-54,5897.0,1.7769052982330322,62,9950.0
11560,0.3513759970664978,-0.490125447511673,-32,5897.0,-2.6703755855560303,14,9950.0
11570,0.3512631952762604,0.16059277951717377,28,5897.0,1.2558627128601074,-51,9950.0
11580,0.3511553704738617,0.6515520215034485,84,5897.0,1.750566005706787,-60,9950.0
11590,0.35140711069107056,0.9615712761878967,64,5897.0,1.227226734161377,-45,9950.0
11600,0.35128912329673767,-0.29401522874832153,17,5897.0,0.44653213024139404,49,9950.0
11610,0.3511543273925781,0.169295996427536,28,5897.0,0.26074686646461487,103,9950.0
11620,0.35099726915359497,-0.8591418266296387,-16,5897.0,-2.669783115386963,58,9950.0
11630,0.3516381084918976,-0.7611902952194214,-15,5897.0,-1.6064221858978271,80,9950.0
11640,0.35146915912628174,-1.2567801475524902,-37,5897.0,4.775710582733154,10,9950.0
11650,0.3512918949127197,-0.028509875759482384,-22,5897.0,1.846199631690979,-24,9950.0
11660,0.35111939907073975,0.8138392567634583,26,5897.0,0.18491752445697784,-67,9950.0
11670,0.3509584069252014,-0.6547068953514099,-2,5897.0,2.1170167922973633,34,9950.0
11680,0.3512190282344818,-0.27219608426094055,-26,5897.0,0.6140607595443726,13,9950.0
11690,0.35111895203590393,1.759651780128479,-18,5897.0,-0.37696728110313416,55,9950.0
11700,0.3510105609893799,0.8429999351501465,-29,5897.0,-0.1440163254737854,52,9950.0
11710,0.3508928716182709,0.15647728741168976,-20,5897.0,0.0757589116692543,29,9950.0
11720,0.3508599102497101,-0.7224807739257812,-59,5897.0,-0.3266705274581909,4,9950.0
11730,0.3507354259490967,-3.9340333938598633,-22,5897.0,4.299780368804932,-28,9950.0
11740,0.3505825698375702,-3.7286109924316406,-38,5897.0,4.457859039306641,73,9950.0
11750,0.35039952397346497,-1.0296540260314941,-18,5897.0,0.5939307808876038,92,9950.0
11760,0.3497561812400818,-1.1704676151275635,-3,5897.0,1.1619590520858765,92,9950.0
11770,0.34951916337013245,0.6049482226371765,-11,5897.0,0.902491569519043,76,9950.0
11780,0.3492654263973236,-0.09827035665512085,-26,5897.0,-0.769330620765686,60,9950.0
11790,0.3489904999732971,1.7966994047164917,11,5897.0,-0.5530105233192444,3,9950.0
11800,0.3487396240234375,1.5761609077453613,65,5897.0,0.5769937038421631,-35,9950.0
11810,0.34867173433303833,2.9928088188171387,42,5897.0,-1.6447006464004517,10,9950.0
11820,0.34837234020233154,2.4802210330963135,29,5897.0,-0.518298864364624,-37,9950.0
11830,0.34806907176971436,1.4475682973861694,17,5897.0,-0.19717709720134735,-31,9950.0
11840,0.3477756381034851,-1.085431456565857,-27,5897.0,-1.2665873765945435,-78,9950.0
11850,0.3476819396018982,-1.773786187171936,-63,5897.0,-3.2581632137298584,5,9950.0
11860,0.34745821356773376,-2.7628040313720703,-85,5897.0,-1.6411161422729492,60,9950.0
11870,0.347215473651886,-3.9783456325531006,-48,5897.0,1.9378199577331543,65,9950.0
11880,0.3470023572444916,-0.5955854058265686,-18,5897.0,0.7269524931907654,-29,9950.0
11890,0.3472541868686676,-0.2565079629421234,35,5897.0,7.049795627593994,0,9950.0
11900,0.34709909558296204,0.598687469959259,58,5897.0,6.992344856262207,2,9950.0
11910,0.3469661772251129,2.5292277336120605,63,5897.0,5.440077781677246,31,9950.0
11920,0.3468233048915863,1.5644786357879639,46,5897.0,4.314135551452637,-7,9950.0
11930,0.3466774821281433,-0.1068081259727478,7,5897.0,3.3947174549102783,62,9950.0
11940,0.3467129170894623,1.4740910530090332,14,5897.0,0.7228445410728455,82,9950.0
11950,0.34655261039733887,-0.20631815493106842,-8,5897.0,-1.3640146255493164,53,9950.0
11960,0.34637221693992615,0.8298903107643127,-32,5897.0,-3.6094300746917725,28,9950.0
11970,0.346192866563797,-1.7416447401046753,-33,5897.0,-1.4533319473266602,-5,9950.0
11980,0.3464009463787079,-1.5065699815750122,-22,5897.0,-2.2669124603271484,-21,9950.0
11990,0.34628817439079285,0.08761094510555267,-1,5897.0,-0.8175610303878784,-76,9950.0
12000,0.3462207615375519,0.0738985538482666,42,5897.0,4.356668949127197,-72,9950.0
12010,0.34617218375205994,0.5875937938690186,9,5897.0,4.340481281280518,12,9950.0
12020,0.346123605966568,3.139131784439087,60,5897.0,3.8494114875793457,134,9950.0
12030,0.3480684459209442,2.98105788230896,77,5897.0,2.2617979049682617,120,9950.0
12040,0.34810182452201843,1.454521656036377,24,5897.0,2.1623151302337646,113,9950.0
12050,0.34814217686653137,0.051773928105831146,-20,5897.0,3.8286855220794678,117,9950.0
12060,0.34814730286598206,-0.7096125483512878,3,5897.0,0.35322538018226624,49,9950.0
12070,0.3481047749519348,-0.07762506604194641,-11,5897.0,-0.25324591994285583,1,9950.0
12080,0.34812137484550476,-0.18784290552139282,21,5897.0,-1.3787232637405396,-17,9950.0
12090,0.34813129901885986,0.6476574540138245,17,5897.0,-2.3004307746887207,-59,9950.0
12100,0.34813061356544495,1.2127577066421509,60,5897.0,-3.3032217025756836,-91,9950.0
12110,0.348112016916275,1.2582272291183472,37,5897.0,-0.8098598718643188,94,9950.0
12120,0.34998762607574463,4.025864124298096,69,5897.0,-3.924861192703247,4,9950.0
12130,0.35001707077026367,4.117511749267578,94,5897.0,-4.5731201171875,-15,9950.0
12140,0.35006028413772583,3.6458802223205566,34,5897.0,-4.441605091094971,-105,9950.0
12150,0.35013332962989807,2.754889726638794,60,5897.0,-2.9566874504089355,-71,9950.0
12160,0.3505268394947052,2.4223999977111816,18,5897.0,0.2428969442844391,6,9950.0
12170,0.35066986083984375,0.24057485163211823,-28,5897.0,-0.846951961517334,35,9950.0
12180,0.3507756292819977,-0.7619324326515198,-17,5897.0,-3.690260171890259,54,9950.0
12190,0.3508439362049103,-0.5908656716346741,10,5897.0,0.15399226546287537,36,9950.0
12200,0.3516688346862793,0.8402975797653198,7,5897.0,2.932239532470703,16,9950.0
12210,0.3516717255115509,2.297375440597534,52,5897.0,4.057886123657227,-52,9950.0
12220,0.3516577184200287,1.6624149084091187,37,5897.0,2.9433395862579346,-10,9950.0
12230,0.3516010642051697,1.3195441961288452,13,5897.0,2.0717692375183105,48,9950.0
12240,0.35150933265686035,2.9342706203460693,8,5897.0,1.1760222911834717,31,9950.0
12250,0.35121142864227295,1.3203908205032349,13,5897.0,-0.805192232131958,-40,9950.0
12260,0.35100695490837097,1.0369781255722046,-51,5897.0,-4.591763496398926,-74,9950.0
12270,0.35077670216560364,-0.05256953462958336,11,5897.0,-2.855102062225342,-141,9950.0
12280,0.3505121171474457,0.12997005879878998,-45,5897.0,-3.4705936908721924,-97,9950.0
12290,0.35127365589141846,-0.2844174802303314,-20,5897.0,-2.435224771499634,-60,9950.0
12300,0.3509942591190338,0.37522411346435547,-31,5897.0,-4.709845066070557,15,9950.0
12310,0.35067903995513916,-1.159407138824463,-10,5897.0,0.05815238878130913,9,9950.0
12320,0.35035499930381775,-0.48980414867401123,-28,5897.0,1.5357167720794678,-25,9950.0
12330,0.35038334131240845,-1.7291600704193115,18,5897.0,0.44505587220191956,-143,9950.0
12340,0.35005638003349304,-1.2097314596176147,-9,5897.0,0.22991244494915009,-37,9950.0
12350,0.34970131516456604,-0.3966275155544281,-16,5897.0,0.2064407914876938,65,9950.0
12360,0.34931981563568115,-0.2153211385011673,-22,5897.0,0.09187253564596176,71,9950.0
12370,0.3489348590373993,0.6832391023635864,-9,5897.0,-3.4718592166900635,-18,9950.0
12380,0.34986478090286255,-0.7378290295600891,3,5897.0,-2.5437166690826416,-81,9950.0
12390,0.34948521852493286,-0.660134494304657,22,5897.0,-3.709890842437744,-158,9950.0
12400,0.34913355112075806,-1.6358181238174438,1,5897.0,-2.976022958755493,-95,9950.0
12410,0.3487555980682373,-2.2659144401550293,-12,5897.0,0.4401482045650482,25,9950.0
12420,0.3497465252876282,-1.8723868131637573,-23,5897.0,-2.8402836322784424,62,9950.0
12430,0.34945085644721985,-1.361328363418579,-8,5897.0,1.7953771352767944,106,9950.0
12440,0.34918251633644104,0.4565773010253906,3,5897.0,-4.015307426452637,70,9950.0
12450,0.34895142912864685,0.2410893440246582,4,5897.0,2.625131368637085,80,9950.0
12460,0.34874168038368225,-0.7886020541191101,8,5897.0,3.4653728008270264,2,9950.0
12470,0.35058265924453735,-0.1753094345331192,-11,5897.0,2.0712640285491943,-25,9950.0
12480,0.3504743278026581,-1.0058263540267944,-13,5897.0,-1.086704134941101,-177,9950.0
12490,0.350464403629303,-0.6929908990859985,-9,5897.0,-2.807366371154785,-122,9950.0
12500,0.35041022300720215,-3.3266007900238037,-61,5897.0,-2.0995419025421143,-32,9950.0
12510,0.351407527923584,-0.5621678233146667,-17,5897.0,-2.065326452255249,14,9950.0
12520,0.3514358401298523,-0.781730592250824,-9,5897.0,-2.5499770641326904,42,9950.0
12530,0.3514286279678345,0.860274076461792,39,5897.0,-1.8235409259796143,38,9950.0
12540,0.35142943263053894,2.726038932800293,55,5897.0,0.33292287588119507,-6,9950.0
12550,0.3520132601261139,3.703555107116699,106,5897.0,-2.584214448928833,-137,9950.0
12560,0.35200226306915283,2.1695480346679688,92,5897.0,-0.15879519283771515,-57,9950.0
12570,0.35198959708213806,1.028720498085022,19,5897.0,0.4756802022457123,11,9950.0
12580,0.35197803378105164,-1.2631529569625854,-3,5897.0,1.4516311883926392,66,9950.0
12590,0.3520651161670685,-0.6846888065338135,-21,5897.0,-0.7116574645042419,161,9950.0
12600,0.3524326682090759,-0.8481552600860596,-24,5897.0,0.6998013257980347,144,9950.0
12610,0.3523913025856018,-1.4648871421813965,-11,5897.0,3.2381017208099365,51,9950.0
12620,0.35232216119766235,-0.15930825471878052,0,5897.0,6.078191757202148,-21,9950.0
12630,0.35222604870796204,1.1929986476898193,17,5897.0,1.1907662153244019,11,9950.0
12640,0.3524782061576843,0.34358394145965576,-25,5897.0,3.7312562465667725,75,9950.0
12650,0.3523629307746887,0.3629201054573059,-13,5897.0,2.694594383239746,96,9950.0
12660,0.35219094157218933,1.8853886127471924,12,5897.0,-1.5397018194198608,-74,9950.0
12670,0.35199490189552307,-1.2627118825912476,-44,5897.0,0.126603901386261,22,9950.0
12680,0.35183244943618774,-0.7917436957359314,-27,5897.0,-0.5422967672348022,-31,9950.0
12690,0.35288742184638977,0.6741694211959839,13,5897.0,-1.8520313501358032,-152,9950.0
12700,0.35271987318992615,0.9139958620071411,32,5897.0,1.367380142211914,-122,9950.0
12710,0.3525508642196655,0.9111738801002502,43,5897.0,-0.8502005934715271,13,9950.0
12720,0.3523603677749634,1.2253475189208984,6,5897.0,-0.7279531955718994,156,9950.0
12730,0.3533041179180145,-0.12500157952308655,-17,5897.0,2.876516819000244,147,9950.0
12740,0.3531855046749115,-0.49637797474861145,40,5897.0,3.757429361343384,-34,9950.0
12750,0.35304540395736694,0.3272553086280823,15,5897.0,4.342031002044678,-16,9950.0
12760,0.3528592586517334,-0.792565107345581,32,5897.0,3.0868027210235596,34,9950.0
12770,0.3526778519153595,-0.5676252841949463,-35,5897.0,2.0949666500091553,54,9950.0
12780,0.35252130031585693,-2.8574602603912354,-49,5897.0,-0.4645877778530121,60,9950.0
12790,0.3521972894668579,-3.6716020107269287,-84,5897.0,-0.7616279125213623,9,9950.0
12800,0.35185328125953674,-4.503689289093018,-68,5897.0,-4.943028926849365,-102,9950.0
12810,0.3514809310436249,-5.611810684204102,-26,5897.0,-1.2374787330627441,-86,9950.0
12820,0.35305848717689514,-3.4160685539245605,-38,5897.0,1.747281551361084,-8,9950.0
12830,0.352772057056427,-0.7351064085960388,17,5897.0,0.7722193598747253,52,9950.0
12840,0.3524799942970276,0.9301620125770569,13,5897.0,0.39515772461891174,124,9950.0
12850,0.352165549993515,0.1277603954076767,-22,5897.0,1.1577165126800537,139,9950.0
12860,0.35227641463279724,1.4104878902435303,20,5897.0,2.9011263847351074,43,9950.0
12870,0.351948082447052,-1.4848487377166748,-11,5897.0,1.5398797988891602,16,9950.0
12880,0.3516436517238617,-3.2389092445373535,-39,5897.0,2.3796775341033936,22,9950.0
12890,0.35136422514915466,-2.305445909500122,-74,5897.0,-2.239866256713867,-167,9950.0
12900,0.3510622978210449,-3.9109957218170166,-73,5897.0,-1.1562265157699585,-86,9950.0
12910,0.35155534744262695,-2.99938702583313,-61,5897.0,-2.6040961742401123,-24,9950.0
12920,0.35130012035369873,0.9058778882026672,-30,5897.0,-5.300415515899658,-12,9950.0
12930,0.35101401805877686,1.3631736040115356,17,5897.0,-2.9242804050445557,-1,9950.0
12940,0.3507111072540283,0.3353593349456787,-2,5897.0,-3.0362634658813477,-92,9950.0
12950,0.35141122341156006,0.24558329582214355,-12,5897.0,1.2035082578659058,-46,9950.0
12960,0.35111868381500244,-0.19747577607631683,20,5897.0,4.178941249847412,-67,9950.0
12970,0.3508182168006897,-0.5195378065109253,12,5897.0,4.853455543518066,-5,9950.0
12980,0.35052379965782166,-1.4936941862106323,-29,5897.0,2.8744709491729736,-47,9950.0
12990,0.3505209982395172,0.310834139585495,-9,5897.0,-0.3605310320854187,31,9950.0
13000,0.35024669766426086,-2.6445257663726807,-54,5897.0,2.641923189163208,105,9950.0
13010,0.3499593734741211,-1.0811216831207275,-40,5897.0,2.27158784866333,115,9950.0
13020,0.3496558964252472,0.2347491830587387,-2,5897.0,1.772592306137085,69,9950.0
13030,0.34936031699180603,0.7073860764503479,33,5897.0,2.3211231231689453,-9,9950.0
13040,0.35043948888778687,1.5916876792907715,49,5897.0,0.2762027084827423,-10,9950.0
13050,0.35018157958984375,1.4534945487976074,18,5897.0,2.8958113193511963,15,9950.0
13060,0.3499280512332916,1.442411184310913,33,5897.0,-0.20519015192985535,-76,9950.0
13070,0.34968075156211853,1.1573585271835327,15,5897.0,-1.445868730545044,-100,9950.0
13080,0.350843220949173,1.7721455097198486,37,5897.0,-3.3700156211853027,-106,9950.0
13090,0.3506830930709839,1.498113751411438,-4,5897.0,-3.26495099067688,-27,9950.0
13100,0.35053005814552307,0.1974119395017624,-17,5897.0,-2.6662216186523438,68,9950.0
13110,0.3503754734992981,-1.9074723720550537,-64,5897.0,0.5311776995658875,126,9950.0
13120,0.3502253592014313,-0.2506217956542969,-25,5897.0,1.9233345985412598,138,9950.0
13130,0.35041290521621704,0.6543000340461731,45,5897.0,4.339319705963135,60,9950.0
13140,0.35033124685287476,0.720526397228241,48,5897.0,2.533599615097046,-80,9950.0
13150,0.3501690626144409,1.3037381172180176,47,5897.0,1.1252492666244507,-20,9950.0
13160,0.3499932587146759,2.4644927978515625,42,5897.0,2.12868332862854,-55,9950.0
13170,0.35069501399993896,2.347398281097412,51,5897.0,1.5970571041107178,-94,9950.0
13180,0.35065120458602905,-0.10560796409845352,-14,5897.0,-0.2792269289493561,-47,9950.0
13190,0.3505275249481201,0.23761488497257233,-32,5897.0,-3.53888201713562,-6,9950.0
13200,0.35039758682250977,-0.3291681706905365,-45,5897.0,-2.226233959197998,-3,9950.0
13210,0.3513261675834656,-1.0524882078170776,-21,5897.0,-2.2611594200134277,-43,9950.0
13220,0.3512413501739502,0.4678502678871155,12,5897.0,-7.303924083709717,-76,9950.0
13230,0.35112136602401733,1.8794796466827393,9,5897.0,-3.9628469944000244,-26,9950.0
13240,0.35098665952682495,2.666948080062866,5,5897.0,-4.191159248352051,-34,9950.0
13250,0.350814551115036,1.1513482332229614,43,5897.0,-2.3884682655334473,-69,9950.0
13260,0.3514769375324249,0.9024374485015869,85,5897.0,3.489651918411255,-41,9950.0
13270,0.35134389996528625,2.6529488563537598,67,5897.0,-1.1636335849761963,-77,9950.0
13280,0.35124436020851135,3.109900712966919,58,5897.0,-2.829968214035034,-129,9950.0
13290,0.35116517543792725,0.890781581401825,99,5897.0,-0.41797512769699097,-108,9950.0
13300,0.35185879468917847,-1.0474492311477661,-50,5897.0,-1.7995190620422363,18,9950.0
13310,0.351837694644928,-2.317260265350342,-27,5897.0,-3.632683277130127,9,9950.0
13320,0.35181015729904175,-1.2975407838821411,-46,5897.0,-3.4576048851013184,3,9950.0
13330,0.3517612814903259,-2.160153865814209,-44,5897.0,-1.6435604095458984,-17,9950.0
13340,0.3516909182071686,-1.525288701057434,-24,5897.0,-0.02408383972942829,-25,9950.0
13350,0.35088005661964417,-1.1361509561538696,-1,5897.0,0.821802020072937,-116,9950.0
13360,0.35068783164024353,1.128083348274231,38,5897.0,-0.42108795046806335,-104,9950.0
13370,0.35048022866249084,1.2782732248306274,68,5897.0,-1.8602046966552734,-111,9950.0
13380,0.35023000836372375,3.307438373565674,57,5897.0,-1.4184205532073975,-65,9950.0
13390,0.3507963716983795,2.468503952026367,14,5897.0,-1.6292955875396729,19,9950.0
13400,0.35058265924453735,0.6037679314613342,-5,5897.0,-4.150875091552734,56,9950.0
13410,0.3503607511520386,-1.666286587715149,-48,5897.0,-2.157200574874878,61,9950.0
13420,0.3501259386539459,-1.9394006729125977,-94,5897.0,-2.275059461593628,-35,9950.0
13430,0.3518688380718231,-1.084583044052124,-7,5897.0,-2.835481882095337,-117,9950.0
13440,0.35170596837997437,-0.900213360786438,28,5897.0,1.78712797164917,-86,9950.0
13450,0.35153234004974365,1.3145697116851807,26,5897.0,1.7444045543670654,82,9950.0
13460,0.35134565830230713,1.0015442371368408,40,5897.0,4.768808364868164,79,9950.0
13470,0.3511488437652588,2.6976089477539062,62,5897.0,7.217884540557861,112,9950.0
13480,0.3516772389411926,2.7989501953125,56,5897.0,3.29363751411438,177,9950.0
13490,0.3515217900276184,2.2117230892181396,-10,5897.0,4.2707343101501465,124,9950.0
13500,0.3513467609882355,0.173089399933815,1,5897.0,6.797731876373291,129,9950.0
13510,0.3511858284473419,-0.021092528477311134,-45,5897.0,3.4799373149871826,137,9950.0
13520,0.3513987362384796,-0.19762271642684937,19,5897.0,0.39787909388542175,9,9950.0
13530,0.35122689604759216,0.4786062240600586,27,5897.0,2.550921678543091,-38,9950.0
13540,0.3510268032550812,2.374622106552124,43,5897.0,-0.19993551075458527,-27,9950.0
13550,0.3507864475250244,2.571394920349121,58,5897.0,2.387209415435791,-124,9950.0
13560,0.3504859209060669,1.591072678565979,72,5897.0,2.009922742843628,-62,9950.0
13570,0.34997397661209106,3.53010892868042,56,5897.0,-1.067245602607727,-55,9950.0
13580,0.3496503233909607,1.8582171201705933,28,5897.0,-1.7326078414916992,-5,9950.0
13590,0.3493473529815674,2.315462112426758,16,5897.0,-0.5268566608428955,138,9950.0
13600,0.3490862250328064,-0.6253419518470764,-24,5897.0,1.6817494630813599,131,9950.0
13610,0.3497057855129242,-1.1049081087112427,-69,5897.0,0.061933066695928574,122,9950.0
13620,0.34956878423690796,0.25735998153686523,-11,5897.0,3.174560308456421,130,9950.0
13630,0.3494286835193634,-0.9300262928009033,-42,5897.0,7.147159576416016,75,9950.0
13640,0.34925150871276855,-3.940847873687744,-102,5897.0,10.620516777038574,133,9950.0
13650,0.35052376985549927,-3.2076570987701416,-59,5897.0,4.84126615524292,-26,9950.0
13660,0.35035043954849243,-3.3969411849975586,14,5897.0,5.298309326171875,-47,9950.0
13670,0.35015869140625,-0.1391322910785675,19,5897.0,1.8260467052459717,-53,9950.0
13680,0.34994399547576904,-0.3320760726928711,-1,5897.0,-1.9924038648605347,-38,9950.0
13690,0.34973904490470886,-0.19663487374782562,-2,5897.0,-3.401829719543457,-29,9950.0
13700,0.3507649302482605,-0.12217447906732559,1,5897.0,-0.6343626379966736,45,9950.0
13710,0.35057997703552246,1.606282114982605,39,5897.0,-5.015872001647949,1,9950.0
13720,0.3503863513469696,-0.570759117603302,-21,5897.0,-0.07281649857759476,63,9950.0
13730,0.35023075342178345,1.8182142972946167,1,5897.0,-2.312593698501587,73,9950.0
13740,0.3516235649585724,3.558910608291626,61,5897.0,-0.5206440687179565,8,9950.0
13750,0.35154733061790466,2.173090934753418,39,5897.0,1.118945598602295,28,9950.0
13760,0.3514572083950043,1.16789972782135,35,5897.0,5.989621162414551,16,9950.0
13770,0.35133281350135803,0.03525545075535774,6,5897.0,3.483595848083496,-65,9950.0
13780,0.351167231798172,-3.4848568439483643,-69,5897.0,2.1754090785980225,-50,9950.0
13790,0.3516903519630432,-2.9647045135498047,-53,5897.0,-0.7909621000289917,-19,9950.0
13800,0.3514958918094635,-4.301132678985596,-62,5897.0,-1.1728266477584839,23,9950.0
13810,0.35127606987953186,-2.651876449584961,-82,5897.0,1.6595425605773926,106,9950.0
13820,0.35104334354400635,-2.65853214263916,-36,5897.0,-1.9728833436965942,45,9950.0
13830,0.3519632816314697,-0.6356349587440491,-4,5897.0,1.1470624208450317,30,9950.0
13840,0.35178983211517334,0.03987578675150871,24,5897.0,3.2099192142486572,21,9950.0
13850,0.3515956997871399,-1.3977477550506592,-11,5897.0,3.950291633605957,30,9950.0
13860,0.3513496220111847,0.7478054761886597,13,5897.0,3.3638997077941895,-24,9950.0
13870,0.35224229097366333,1.1390159130096436,88,5897.0,0.46377310156822205,-53,9950.0
13880,0.35202088952064514,2.065941333770752,25,5897.0,0.06598386913537979,16,9950.0
13890,0.35179653763771057,1.0285407304763794,28,5897.0,1.5012736320495605,62,9950.0
13900,0.35156458616256714,4.04692268371582,28,5897.0,-5.033683776855469,-21,9950.0
13910,0.3513331413269043,1.2845039367675781,7,5897.0,-1.715495228767395,31,9950.0
13920,0.35178643465042114,2.462240219116211,19,5897.0,-3.022944450378418,-51,9950.0
13930,0.35156679153442383,-0.13845275342464447,-17,5897.0,-1.087562918663025,-3,9950.0
13940,0.35133612155914307,0.6899128556251526,-8,5897.0,-1.8452050685882568,-157,9950.0
13950,0.3510770797729492,-2.0342257022857666,-62,5897.0,0.7619231939315796,-119,9950.0
13960,0.3508770763874054,-3.4566166400909424,-54,5897.0,1.9749232530593872,29,9950.0
13970,0.3505706489086151,-1.3928067684173584,-48,5897.0,2.483011484146118,91,9950.0
13980,0.3502478301525116,-0.8308413624763489,-16,5897.0,0.9771281480789185,80,9950.0
13990,0.34991732239723206,-1.5905449390411377,-38,5897.0,0.3661283850669861,132,9950.0
14000,0.34956860542297363,-1.7930141687393188,-45,5897.0,2.0272228717803955,109,9950.0
14010,0.3514334559440613,-0.9106915593147278,-46,5897.0,0.5483037829399109,34,9950.0
14020,0.35117387771606445,-3.0341529846191406,27,5897.0,-0.16592155396938324,-67,9950.0
14030,0.3509245812892914,-1.105452060699463,11,5897.0,-5.797981262207031,-147,9950.0
14040,0.35067906975746155,-0.1643180549144745,14,5897.0,-4.929135322570801,-164,9950.0
14050,0.3501431345939636,1.512332797050476,30,5897.0,-6.791284084320068,-234,9950.0
14060,0.3498462736606598,3.1065311431884766,50,5897.0,-7.48090934753418,-78,9950.0
14070,0.34955114126205444,3.5623676776885986,49,5897.0,2.4923624992370605,48,9950.0
14080,0.34931084513664246,4.781001091003418,79,5897.0,1.809396743774414,186,9950.0
14090,0.3498142957687378,2.710679769515991,24,5897.0,8.409953117370605,94,9950.0
14100,0.3495711386203766,0.17867596447467804,-8,5897.0,5.044421195983887,26,9950.0
14110,0.3493255376815796,-3.0331292152404785,-64,5897.0,3.927652597427368,-15,9950.0
14120,0.34906241297721863,-4.322458267211914,-67,5897.0,3.1043777465820312,-29,9950.0
14130,0.3487817943096161,-5.723781108856201,-139,5897.0,1.7785075902938843,4,9950.0
14140,0.3501755893230438,-6.024984836578369,-114,5897.0,-3.1314775943756104,-107,9950.0
14150,0.34996989369392395,-2.7285499572753906,-29,5897.0,-3.2336273193359375,-46,9950.0
14160,0.34978580474853516,0.16484056413173676,3,5897.0,-4.359000205993652,10,9950.0
14170,0.34962499141693115,2.0183308124542236,10,5897.0,-4.14223575592041,38,9950.0
14180,0.35047271847724915,3.5274293422698975,64,5897.0,-1.6950088739395142,61,9950.0
14190,0.3503708839416504,6.49179744720459,105,5897.0,-4.37551736831665,17,9950.0
14200,0.3502840995788574,5.861351013183594,137,5897.0,2.527061700820923,37,9950.0
14210,0.3501843810081482,5.622347354888916,67,5897.0,3.0725960731506348,1,9950.0
14220,0.35009586811065674,1.8990169763565063,32,5897.0,6.83628511428833,4,9950.0
14230,0.3511417806148529,-1.1076548099517822,-36,5897.0,7.202890396118164,43,9950.0
14240,0.35110169649124146,-4.472646713256836,-58,5897.0,4.777592658996582,28,9950.0
14250,0.3510609567165375,-3.811347484588623,-107,5897.0,-0.09208794683218002,75,9950.0
