timestamp,kalman.stateZ,gyro.x,gyro.xRaw,gyro.xVariance,gyro.y,gyro.yRaw,gyro.yVariance
0,0.2762603461742401,0.05115129053592682,-1,6524.0,-0.04988555237650871,-2,9961.0
10,0.27630069851875305,0.015590233728289604,8,6524.0,-0.3025640547275543,-2,9961.0
20,0.2763647735118866,0.2643508315086365,-1,6524.0,0.21150203049182892,3,9961.0
30,0.2758488953113556,-0.10205885022878647,-2,6524.0,0.007316117640584707,2,9961.0
40,0.2758761942386627,-0.08095414936542511,0,6524.0,0.022183822467923164,-3,9961.0
50,0.2759067416191101,-0.19250161945819855,-5,6524.0,0.07222988456487656,0,9961.0
60,0.2759418189525604,-0.1597335934638977,-2,6524.0,-0.10373792052268982,0,9961.0
70,0.275942325592041,-0.4160074293613434,-2,6524.0,0.03372915834188461,3,9961.0
80,0.2759181261062622,0.1138690933585167,-2,6524.0,0.06670030206441879,0,9961.0
90,0.27626118063926697,0.14382825791835785,2,6524.0,-0.002276792423799634,-2,9961.0
100,0.27628955245018005,0.15257474780082703,6,6524.0,0.019918404519557953,2,9961.0
110,0.2763192057609558,0.029980607330799103,2,6524.0,0.06915448606014252,3,9961.0
120,0.27543675899505615,-0.06043105199933052,3,6524.0,-0.09246279299259186,1,9961.0
130,0.2754618227481842,0.05144651606678963,2,6524.0,0.3410862684249878,4,9961.0
140,0.27547362446784973,-0.0464332215487957,5,6524.0,-0.23435981571674347,7,9961.0
150,0.27545878291130066,-0.005018314812332392,-1,6524.0,0.018104618415236473,0,9961.0
160,0.275635689496994,-0.009578357450664043,4,6524.0,0.2573351263999939,7,9961.0
170,0.27564048767089844,0.10443834215402603,4,6524.0,-0.12772269546985626,6,9961.0
180,0.2756386995315552,-0.06289809942245483,-1,6524.0,-0.07094581425189972,-1,9961.0
190,0.27564314007759094,0.14236675202846527,1,6524.0,0.06606815755367279,-2,9961.0
200,0.27565300464630127,-0.154624342918396,-7,6524.0,-0.6460521221160889,-10,9961.0
210,0.2753615379333496,-0.455034077167511,3,6524.0,-0.5415465235710144,-9,9961.0
220,0.2753917872905731,1.3759297132492065,26,6524.0,-1.9681730270385742,-36,9961.0
230,0.2754017114639282,1.8366901874542236,44,6524.0,-2.985100507736206,-57,9961.0
240,0.2754145562648773,2.1978437900543213,38,6524.0,-4.503513813018799,-67,9961.0
250,0.2760491371154785,5.967005252838135,69,6524.0,-8.28052806854248,-121,9961.0
260,0.2760903835296631,7.748376369476318,125,6524.0,-9.782072067260742,-180,9961.0
270,0.27654537558555603,5.615612983703613,149,6524.0,-9.64432430267334,-197,9961.0
280,0.2767704427242279,5.904852867126465,166,6524.0,-11.652108192443848,-202,9961.0
290,0.2766307294368744,6.075240612030029,112,6524.0,-11.790888786315918,-157,9961.0
300,0.2767178416252136,6.598963260650635,15,6524.0,-10.75501823425293,-94,9961.0
310,0.2767762243747711,4.286243915557861,-21,6524.0,-7.632909297943115,-72,9961.0
320,0.27680251002311707,1.1576435565948486,143,6524.0,-3.0234286785125732,-153,9961.0
330,0.27688923478126526,0.6768452525138855,-21,6524.0,-9.14847469329834,50,9961.0
340,0.27615848183631897,0.5662176609039307,12,6524.0,0.8023035526275635,-109,9961.0
350,0.2762477695941925,-0.28513213992118835,24,6524.0,0.23666785657405853,152,9961.0
360,0.2763191759586334,0.00648924708366394,14,6524.0,6.952681064605713,-17,9961.0
370,0.2763938903808594,0.8495619893074036,-19,6524.0,5.783111095428467,226,9961.0
380,0.2770918309688568,0.8990962505340576,99,6524.0,9.036672592163086,75,9961.0
390,0.2771802246570587,3.013101577758789,20,6524.0,7.723665237426758,10,9961.0
400,0.2772573232650757,2.929959774017334,58,6524.0,4.626429557800293,229,9961.0
410,0.2773108184337616,1.838772177696228,108,6524.0,4.574801921844482,98,9961.0
420,0.27736470103263855,2.1737964153289795,25,6524.0,3.608078956604004,-199,9961.0
430,0.2781323194503784,1.7371164560317993,-31,6524.0,-1.6647611856460571,136,9961.0
440,0.2782308757305145,0.5189568996429443,-28,6524.0,-5.551908493041992,121,9961.0
450,0.27834197878837585,-0.37331870198249817,20,6524.0,-7.240359783172607,-170,9961.0
460,0.27846837043762207,-1.5835068225860596,70,6524.0,-5.238589763641357,-394,9961.0
470,0.2775867283344269,-1.6051578521728516,35,6524.0,-4.708972454071045,-386,9961.0
480,0.2776309847831726,-0.7257688045501709,-49,6524.0,-4.46893835067749,-171,9961.0
490,0.2777082324028015,0.2590852379798889,-142,6524.0,-3.896296739578247,85,9961.0
500,0.2777528464794159,0.2810329496860504,-165,6524.0,-3.0190162658691406,168,9961.0
510,0.27904844284057617,0.3718767762184143,-86,6524.0,0.5198683738708496,176,9961.0
520,0.27913740277290344,-1.4290075302124023,6,6524.0,4.7700605392456055,177,9961.0
530,0.2792380750179291,-1.964125394821167,-15,6524.0,8.063491821289062,145,9961.0
540,0.2793370485305786,-2.042726516723633,-51,6524.0,10.076265335083008,182,9961.0
550,0.2794903814792633,0.2493399977684021,-18,6524.0,9.31557846069336,172,9961.0
560,0.27836936712265015,-2.73874831199646,-109,6524.0,12.411406517028809,195,9961.0
570,0.2785825729370117,-1.7157665491104126,-116,6524.0,9.803306579589844,138,9961.0
580,0.27889081835746765,1.1995006799697876,-62,6524.0,5.776540756225586,89,9961.0
590,0.27916213870048523,0.965828537940979,-54,6524.0,0.7727024555206299,38,9961.0
600,0.27829816937446594,1.3088771104812622,-63,6524.0,-1.8735723495483398,60,9961.0
610,0.27871203422546387,3.4660210609436035,-6,6524.0,-5.005746364593506,-23,9961.0
620,0.2791537046432495,5.038495063781738,16,6524.0,-8.120133399963379,-104,9961.0
630,0.2796075940132141,3.6760916709899902,16,6524.0,-8.368623733520508,-105,9961.0
640,0.27999648451805115,2.7937216758728027,25,6524.0,-8.034160614013672,-164,9961.0
650,0.27998873591423035,0.9297245144844055,8,6524.0,-6.063265323638916,-243,9961.0
660,0.280325323343277,-1.102939486503601,-28,6524.0,-3.183320999145508,-229,9961.0
670,0.28068485856056213,-2.901416540145874,-45,6524.0,-3.5373375415802,-141,9961.0
680,0.28096821904182434,-2.3233227729797363,-29,6524.0,5.380166530609131,133,9961.0
690,0.2797350287437439,-4.546000003814697,-123,6524.0,4.151407241821289,263,9961.0
700,0.2800341546535492,-5.297339916229248,-81,6524.0,3.9150474071502686,298,9961.0
710,0.28043845295906067,-7.9165425300598145,-157,6524.0,9.932982444763184,321,9961.0
720,0.28089722990989685,-0.05098637938499451,-148,6524.0,8.758672714233398,243,9961.0
730,0.2783941328525543,-0.8021878004074097,-98,6524.0,8.247733116149902,112,9961.0
740,0.27860596776008606,1.5312573909759521,28,6524.0,7.421431064605713,48,9961.0
750,0.27884480357170105,4.27903413772583,110,6524.0,4.267614841461182,-129,9961.0
760,0.2790501117706299,4.442286968231201,181,6524.0,1.7291055917739868,-269,9961.0
770,0.27927279472351074,4.111816883087158,227,6524.0,-0.8485241532325745,-299,9961.0
780,0.27980631589889526,3.0041191577911377,191,6524.0,-4.790158271789551,-226,9961.0
790,0.28002211451530457,-0.20130334794521332,135,6524.0,-9.124946594238281,-165,9961.0
800,0.28022056818008423,2.837285041809082,49,6524.0,-7.3420610427856445,-132,9961.0
810,0.28040748834609985,-1.1346240043640137,6,6524.0,-2.6830508708953857,-111,9961.0
820,0.2813987135887146,-3.6108193397521973,-72,6524.0,-1.2214242219924927,-177,9961.0
830,0.28189244866371155,-5.856579780578613,45,6524.0,0.9535402059555054,140,9961.0
840,0.2822937071323395,-2.624232053756714,-83,6524.0,1.4770772457122803,160,9961.0
850,0.28256261348724365,-3.1285030841827393,-149,6524.0,2.8615708351135254,244,9961.0
860,0.28276526927948,-1.4176584482192993,-139,6524.0,3.3073651790618896,253,9961.0
870,0.28090620040893555,0.07648970931768417,-48,6524.0,4.711960792541504,56,9961.0
880,0.28092560172080994,-0.5909366607666016,95,6524.0,1.7754309177398682,-97,9961.0
890,0.2810189723968506,0.7410654425621033,86,6524.0,3.692437171936035,-38,9961.0
900,0.28126072883605957,4.529287815093994,139,6524.0,6.922289848327637,100,9961.0
910,0.2801896333694458,4.700417518615723,94,6524.0,6.605930805206299,-121,9961.0
920,0.28034472465515137,2.389791965484619,91,6524.0,-3.1628124713897705,2,9961.0
930,0.2803880274295807,2.432016372680664,10,6524.0,-5.419105529785156,14,9961.0
940,0.2804532051086426,-1.8003547191619873,-161,6524.0,-6.878852367401123,160,9961.0
950,0.2806386649608612,0.5318015813827515,-118,6524.0,-7.590463161468506,26,9961.0
960,0.27932441234588623,-1.109506368637085,-46,6524.0,-5.244028091430664,-254,9961.0
970,0.27949613332748413,-1.5238032341003418,84,6524.0,-4.013626575469971,-240,9961.0
980,0.2796423137187958,-2.1461291313171387,50,6524.0,-2.9533605575561523,-44,9961.0
990,0.27983376383781433,-0.46402037143707275,74,6524.0,-4.304196357727051,-103,9961.0
1000,0.2798212170600891,-0.23061223328113556,28,6524.0,1.214382529258728,21,9961.0
1010,0.2802249491214752,0.6935224533081055,4,6524.0,1.2548019886016846,22,9961.0
1020,0.2806326150894165,2.054926633834839,-88,6524.0,-1.6296558380126953,42,9961.0
1030,0.2809922397136688,0.18145254254341125,-84,6524.0,3.522613048553467,-22,9961.0
1040,0.28051814436912537,-0.8459722995758057,116,6524.0,2.331125497817993,-191,9961.0
1050,0.28073230385780334,-0.401254266500473,52,6524.0,0.32491788268089294,69,9961.0
1060,0.28099173307418823,-0.8029955625534058,-101,6524.0,-1.2274678945541382,115,9961.0
1070,0.2813393175601959,-2.8532156944274902,-91,6524.0,-0.44006431102752686,-45,9961.0
1080,0.2817630469799042,-1.5547568798065186,13,6524.0,-1.7625131607055664,-98,9961.0
1090,0.28189516067504883,0.2664637565612793,70,6524.0,-5.607675552368164,-95,9961.0
1100,0.2822965085506439,1.380355954170227,66,6524.0,-7.330371379852295,-63,9961.0
1110,0.2825888395309448,4.896015167236328,-12,6524.0,-2.448476791381836,-22,9961.0
1120,0.2828447222709656,2.6232006549835205,80,6524.0,-2.0360519886016846,-167,9961.0
1130,0.2827235460281372,2.032691240310669,157,6524.0,-0.2517879605293274,-83,9961.0
1140,0.28290989995002747,2.4458119869232178,-31,6524.0,0.3859691917896271,239,9961.0
1150,0.2831025719642639,1.6620609760284424,-39,6524.0,3.256688117980957,-51,9961.0
1160,0.28334522247314453,0.6552544236183167,86,6524.0,3.9451851844787598,32,9961.0
1170,0.28275761008262634,0.6457918286323547,18,6524.0,3.414776086807251,70,9961.0
1180,0.28310346603393555,0.15283626317977905,-72,6524.0,3.646641731262207,201,9961.0
1190,0.28355666995048523,-1.5193954706192017,-97,6524.0,4.216789245605469,-103,9961.0
1200,0.283561110496521,-2.2748138904571533,100,6524.0,1.5372633934020996,-60,9961.0
1210,0.28448447585105896,-0.961421012878418,-112,6524.0,-1.0881612300872803,129,9961.0
1220,0.28271743655204773,-2.563873767852783,-14,6524.0,0.32824814319610596,-109,9961.0
1230,0.28350624442100525,-2.2802109718322754,42,6524.0,-1.6767902374267578,24,9961.0
1240,0.28350508213043213,0.2662270963191986,-46,6524.0,-2.1039798259735107,-18,9961.0
1250,0.28442373871803284,0.746121346950531,75,6524.0,-2.0490024089813232,-97,9961.0
1260,0.2835025191307068,1.3103187084197998,51,6524.0,-0.5965388417243958,-64,9961.0
1270,0.2845821976661682,1.6857588291168213,6,6524.0,-0.4534076154232025,153,9961.0
1280,0.28458186984062195,0.6325553059577942,-27,6524.0,3.4164907932281494,-122,9961.0
1290,0.28520068526268005,0.1565266251564026,109,6524.0,1.5144141912460327,114,9961.0
1300,0.28588956594467163,0.5766797661781311,-113,6524.0,0.8386532664299011,43,9961.0
1310,0.2831733822822571,-0.9869258403778076,118,6524.0,2.278353214263916,-65,9961.0
1320,0.2837051451206207,0.13195441663265228,-68,6524.0,0.3634428381919861,139,9961.0
1330,0.28431862592697144,0.3117543160915375,-11,6524.0,3.565256118774414,6,9961.0
1340,0.28488993644714355,0.46793973445892334,74,6524.0,2.582594394683838,-10,9961.0
1350,0.284108430147171,0.4558795690536499,-63,6524.0,0.29848435521125793,151,9961.0
1360,0.2848483622074127,-0.996589183807373,43,6524.0,1.3033465147018433,-131,9961.0
1370,0.28484880924224854,-1.2830336093902588,-55,6524.0,0.37494954466819763,152,9961.0
1380,0.2855011224746704,-2.4791715145111084,-29,6524.0,2.803328037261963,-107,9961.0
1390,0.2849361002445221,-1.1078565120697021,-16,6524.0,0.4549272060394287,140,9961.0
1400,0.2855696678161621,1.555026888847351,22,6524.0,0.0873919352889061,-103,9961.0
1410,0.28557178378105164,1.8865201473236084,42,6524.0,-1.6061168909072876,25,9961.0
1420,0.2861748933792114,3.9638731479644775,42,6524.0,-0.980941116809845,-41,9961.0
1430,0.286174476146698,2.81018328666687,132,6524.0,-1.2832491397857666,-85,9961.0
1440,0.2854883372783661,2.032583713531494,-94,6524.0,-1.4042569398880005,169,9961.0
1450,0.28568604588508606,1.240071415901184,53,6524.0,0.3330739736557007,-169,9961.0
1460,0.2858417332172394,-0.8151429891586304,-14,6524.0,0.6701344847679138,143,9961.0
1470,0.2859688699245453,-0.8036004304885864,25,6524.0,3.539715051651001,-14,9961.0
1480,0.28527286648750305,-0.5054976940155029,-53,6524.0,2.9612042903900146,106,9961.0
1490,0.2852938175201416,0.21829785406589508,-26,6524.0,3.004918098449707,-12,9961.0
1500,0.28530675172805786,0.1800006479024887,82,6524.0,1.9705402851104736,29,9961.0
1510,0.28537294268608093,-1.1344305276870728,-124,6524.0,2.627962350845337,58,9961.0
1520,0.28545042872428894,-0.6003580093383789,106,6524.0,2.528904676437378,-22,9961.0
1530,0.2840762138366699,-1.6033467054367065,-151,6524.0,0.5474528670310974,89,9961.0
1540,0.2839982211589813,-0.6809871792793274,102,6524.0,-0.1217750683426857,-28,9961.0
1550,0.28389063477516174,0.16122254729270935,-74,6524.0,-0.3936133086681366,-29,9961.0
1560,0.2837551534175873,2.54567551612854,29,6524.0,-1.9332019090652466,-13,9961.0
1570,0.2833704948425293,2.9333701133728027,51,6524.0,-1.495157241821289,74,9961.0
1580,0.28322818875312805,3.8590357303619385,-2,6524.0,-1.45962393283844,-89,9961.0
1590,0.28312432765960693,1.2315136194229126,175,6524.0,0.982482373714447,-16,9961.0
1600,0.2830173075199127,1.84518301486969,-133,6524.0,-1.6114561557769775,9,9961.0
1610,0.2817955017089844,-0.8329506516456604,87,6524.0,-0.3991481065750122,169,9961.0
1620,0.2815471887588501,-0.2526187002658844,-109,6524.0,-2.1509602069854736,-90,9961.0
1630,0.2812746465206146,-1.1458256244659424,28,6524.0,-2.175097703933716,13,9961.0
1640,0.2809915542602539,-0.6912668347358704,-48,6524.0,-0.4460282623767853,-30,9961.0
1650,0.28075721859931946,-1.8265738487243652,25,6524.0,-1.2995543479919434,-58,9961.0
1660,0.28151586651802063,0.6437099575996399,-113,6524.0,0.04228055477142334,74,9961.0
1670,0.28136247396469116,0.9973123669624329,141,6524.0,-0.19803766906261444,22,9961.0
1680,0.2811861038208008,2.547621011734009,-116,6524.0,-1.2622700929641724,-78,9961.0
1690,0.2810119092464447,0.30608195066452026,153,6524.0,-2.092824935913086,-2,9961.0
1700,0.2816694378852844,1.9985648393630981,-26,6524.0,1.255050778388977,-90,9961.0
1710,0.2815828323364258,1.8004595041275024,26,6524.0,0.17147545516490936,115,9961.0
1720,0.2815384864807129,1.1524240970611572,-30,6524.0,-1.3305169343948364,-46,9961.0
1730,0.28150272369384766,-0.09472087025642395,84,6524.0,-2.1707093715667725,-36,9961.0
1740,0.28144189715385437,1.3541496992111206,-88,6524.0,-2.026028871536255,-105,9961.0
1750,0.28242307901382446,-1.08725106716156,86,6524.0,-1.8359637260437012,90,9961.0
1760,0.28245991468429565,-1.1715632677078247,-94,6524.0,0.06232206150889397,-185,9961.0
1770,0.28250595927238464,-2.558582067489624,-12,6524.0,1.0732905864715576,96,9961.0
1780,0.2825391888618469,-2.349471092224121,-4,6524.0,-1.4983564615249634,-76,9961.0
1790,0.2838514745235443,-1.9903098344802856,-39,6524.0,-0.24737998843193054,81,9961.0
1800,0.2838592827320099,-0.0048350621946156025,-46,6524.0,-0.14975248277187347,-105,9961.0
1810,0.2838716506958008,-0.8649512529373169,84,6524.0,-0.39279839396476746,52,9961.0
1820,0.2838902473449707,1.1941624879837036,-13,6524.0,0.7542708516120911,-155,9961.0
1830,0.2846568524837494,-0.27160319685935974,-2,6524.0,-0.4458349049091339,240,9961.0
1840,0.28464755415916443,0.30771443247795105,-16,6524.0,-1.295742392539978,-110,9961.0
1850,0.2845899164676666,-0.05902232974767685,-47,6524.0,0.9294227957725525,107,9961.0
1860,0.2845175564289093,-0.28877395391464233,14,6524.0,0.5003758072853088,-32,9961.0
1870,0.284460186958313,-0.1861417293548584,41,6524.0,0.5332913994789124,108,9961.0
1880,0.28504982590675354,0.1940365731716156,-51,6524.0,3.8631763458251953,-101,9961.0
1890,0.28502896428108215,1.970583200454712,77,6524.0,-2.8118293285369873,111,9961.0
1900,0.28495505452156067,2.0848987102508545,78,6524.0,0.08616437017917633,-161,9961.0
1910,0.2848511040210724,0.7661091685295105,-70,6524.0,0.8039448857307434,189,9961.0
1920,0.2844729721546173,0.7153429985046387,72,6524.0,2.2128617763519287,-69,9961.0
1930,0.28440240025520325,1.6596784591674805,-51,6524.0,-0.40361112356185913,-35,9961.0
1940,0.2843511998653412,0.8270112872123718,104,6524.0,-3.6592628955841064,-92,9961.0
1950,0.28427618741989136,0.679623007774353,16,6524.0,-3.879185199737549,81,9961.0
1960,0.2841675579547882,0.5054022073745728,71,6524.0,-1.8943170309066772,-77,9961.0
1970,0.28483742475509644,-1.534424066543579,-183,6524.0,-2.4398353099823,60,9961.0
1980,0.28482192754745483,-4.114192962646484,76,6524.0,-0.8217093348503113,-86,9961.0
1990,0.28483349084854126,-3.072993040084839,-196,6524.0,-1.4376815557479858,-5,9961.0
2000,0.2848454415798187,-3.250319480895996,16,6524.0,-0.8342839479446411,26,9961.0
2010,0.2860706150531769,-1.8798195123672485,-33,6524.0,-0.22308291494846344,-55,9961.0
2020,0.28614315390586853,0.6668358445167542,69,6524.0,0.062426187098026276,-32,9961.0
2030,0.28623875975608826,1.851855754852295,-34,6524.0,0.6804965734481812,44,9961.0
2040,0.2863641679286957,3.5738329887390137,155,6524.0,0.6906827092170715,107,9961.0
2050,0.2855335772037506,5.275714874267578,-45,6524.0,0.09818068146705627,-135,9961.0
2060,0.28554561734199524,2.613152265548706,109,6524.0,0.16366620361804962,89,9961.0
2070,0.28555169701576233,2.74501895904541,60,6524.0,1.6153472661972046,-111,9961.0
2080,0.28554627299308777,1.977168083190918,-35,6524.0,0.840874433517456,105,9961.0
2090,0.2855381965637207,-0.36135414242744446,20,6524.0,-0.4350493848323822,-22,9961.0
2100,0.28569942712783813,-2.028909921646118,-17,6524.0,1.2378172874450684,96,9961.0
2110,0.28564366698265076,-1.9139453172683716,-75,6524.0,-0.8452036380767822,-146,9961.0
2120,0.28562408685684204,-2.6922521591186523,-81,6524.0,-1.3970494270324707,194,9961.0
2130,0.2856599986553192,-2.6618094444274902,-151,6524.0,-2.2927284240722656,-133,9961.0
2140,0.2862023711204529,-4.910112380981445,37,6524.0,-1.1450835466384888,62,9961.0
2150,0.28626856207847595,-2.4321272373199463,-67,6524.0,0.06286081671714783,23,9961.0
2160,0.28632470965385437,-2.571810007095337,-61,6524.0,2.0337414741516113,66,9961.0
2170,0.28635814785957336,0.8406122326850891,-23,6524.0,2.6558356285095215,-64,9961.0
2180,0.28641629219055176,1.0942232608795166,86,6524.0,3.740584135055542,171,9961.0
2190,0.2866915464401245,3.6527628898620605,16,6524.0,2.4865410327911377,-114,9961.0
2200,0.2867170572280884,3.096067190170288,11,6524.0,0.1803581714630127,192,9961.0
2210,0.2867138087749481,2.5804121494293213,62,6524.0,2.489741325378418,-40,9961.0
2220,0.2866934835910797,-0.15562966465950012,-117,6524.0,3.232048749923706,71,9961.0
2230,0.28604280948638916,0.881901741027832,91,6524.0,-0.5102527737617493,-8,9961.0
2240,0.2860093414783478,0.2513120472431183,-49,6524.0,-1.2398892641067505,-14,9961.0
2250,0.2859620153903961,0.18579649925231934,30,6524.0,-2.9360201358795166,-128,9961.0
2260,0.28588351607322693,2.2590250968933105,-45,6524.0,-5.143848896026611,-57,9961.0
2270,0.2851177155971527,0.4840563237667084,167,6524.0,-4.320289611816406,-42,9961.0
2280,0.28499341011047363,-0.8798986673355103,-108,6524.0,-2.895449161529541,-73,9961.0
2290,0.2848528027534485,0.7913942337036133,23,6524.0,-2.194920301437378,125,9961.0
2300,0.28468844294548035,-1.447600245475769,-16,6524.0,0.8992214798927307,-157,9961.0
2310,0.284496933221817,-1.2643629312515259,-29,6524.0,1.1932437419891357,14,9961.0
2320,0.28458544611930847,-0.16269570589065552,5,6524.0,1.5875180959701538,-48,9961.0
2330,0.2844742238521576,-0.018729863688349724,23,6524.0,1.440400242805481,150,9961.0
2340,0.28439268469810486,0.3265919089317322,44,6524.0,1.0528901815414429,-102,9961.0
2350,0.28430742025375366,0.6432844400405884,-100,6524.0,0.10144747048616409,127,9961.0
2360,0.28490471839904785,-0.8202097415924072,150,6524.0,1.4662052392959595,58,9961.0
2370,0.2849026322364807,0.9699690937995911,-88,6524.0,2.811167001724243,-39,9961.0
2380,0.28487202525138855,0.5985702276229858,-4,6524.0,-0.41840022802352905,89,9961.0
2390,0.2848398983478546,1.1777575016021729,18,6524.0,-1.0257481336593628,-63,9961.0
2400,0.28480035066604614,2.154620885848999,53,6524.0,-0.45489272475242615,4,9961.0
2410,0.286837100982666,0.48062723875045776,5,6524.0,-0.6134586930274963,-177,9961.0
2420,0.28691262006759644,1.2773418426513672,-10,6524.0,0.03060952201485634,197,9961.0
2430,0.2869538366794586,-1.2355214357376099,28,6524.0,0.7981399893760681,-30,9961.0
2440,0.2869734764099121,-1.328253149986267,-159,6524.0,1.228102207183838,120,9961.0
2450,0.28699126839637756,-0.6789869666099548,47,6524.0,1.784171462059021,77,9961.0
2460,0.28702035546302795,-0.594520092010498,-26,6524.0,2.8306527137756348,27,9961.0
2470,0.2870649993419647,0.41100263595581055,83,6524.0,2.4946651458740234,31,9961.0
2480,0.28708043694496155,1.574850082397461,-32,6524.0,-1.2597124576568604,-62,9961.0
2490,0.28667107224464417,1.7144213914871216,31,6524.0,-0.5152304172515869,110,9961.0
2500,0.28669604659080505,0.6762740612030029,37,6524.0,-0.366938054561615,-254,9961.0
2510,0.2867290675640106,2.2166361808776855,13,6524.0,-4.803057670593262,9,9961.0
2520,0.2867759168148041,-1.2447969913482666,89,6524.0,-1.5383203029632568,-48,9961.0
2530,0.2867906391620636,0.4715377688407898,-40,6524.0,-1.3593209981918335,107,9961.0
2540,0.28648486733436584,-0.6193132400512695,1,6524.0,1.3310983180999756,1,9961.0
2550,0.2865104377269745,-0.6165862083435059,-157,6524.0,-0.6506716012954712,33,9961.0
2560,0.28651994466781616,-1.5759726762771606,96,6524.0,-1.2905502319335938,45,9961.0
2570,0.2864699363708496,-0.8467207551002502,-122,6524.0,0.7178390026092529,-80,9961.0
2580,0.28623220324516296,-1.9665820598602295,-24,6524.0,2.0153720378875732,227,9961.0
2590,0.2861158549785614,-0.9136096835136414,26,6524.0,1.8235570192337036,-77,9961.0
2600,0.28601953387260437,0.6796010136604309,-4,6524.0,0.45042240619659424,6,9961.0
2610,0.28589409589767456,1.5228271484375,81,6524.0,0.17586183547973633,-52,9961.0
2620,0.2857608497142792,1.9488799571990967,-45,6524.0,-0.8633086681365967,85,9961.0
2630,0.2857665419578552,2.3696277141571045,146,6524.0,-0.630614161491394,104,9961.0
2640,0.28571462631225586,3.2358126640319824,-100,6524.0,-1.801964521408081,-122,9961.0
2650,0.2856455147266388,1.9825232028961182,54,6524.0,-3.777472496032715,178,9961.0
2660,0.2855594754219055,0.6841622591018677,64,6524.0,-0.15191371738910675,-127,9961.0
2670,0.28611573576927185,-1.3936383724212646,-36,6524.0,-0.642074465751648,-50,9961.0
2680,0.28611573576927185,-1.0922189950942993,-15,6524.0,-0.3956478238105774,-75,9961.0
2690,0.2860913574695587,-1.6415709257125854,-95,6524.0,-1.43837308883667,37,9961.0
2700,0.2860248386859894,0.7875307202339172,155,6524.0,-1.4342271089553833,56,9961.0
2710,0.28830486536026,0.6054316759109497,-61,6524.0,-0.7933275103569031,-212,9961.0
2720,0.2884121835231781,-0.8345187306404114,1,6524.0,1.5346776247024536,76,9961.0
2730,0.2885213792324066,-0.6559159755706787,96,6524.0,-0.5538221001625061,-51,9961.0
2740,0.2886177599430084,0.48554208874702454,-1,6524.0,-1.1727211475372314,-12,9961.0
2750,0.28871291875839233,-0.297276109457016,-8,6524.0,3.7466607093811035,-83,9961.0
2760,0.28931403160095215,-0.977006733417511,38,6524.0,3.7502083778381348,155,9961.0
2770,0.28943172097206116,-0.36805543303489685,154,6524.0,1.6294909715652466,-104,9961.0
2780,0.2895112633705139,1.6313432455062866,-99,6524.0,-1.5215680599212646,-34,9961.0
2790,0.28956785798072815,0.3237604796886444,80,6524.0,-6.262526512145996,47,9961.0
2800,0.29054567217826843,0.09354003518819809,-44,6524.0,-2.4594531059265137,-173,9961.0
2810,0.29058894515037537,-0.2812011241912842,-8,6524.0,-3.5802431106567383,9,9961.0
2820,0.2905871570110321,-0.9415891766548157,-17,6524.0,-1.2178676128387451,-104,9961.0
2830,0.29056015610694885,0.18879348039627075,-10,6524.0,-0.5233786106109619,127,9961.0
2840,0.2905651926994324,0.28910988569259644,94,6524.0,0.3578152060508728,-73,9961.0
2850,0.28992119431495667,0.7471046447753906,-187,6524.0,1.7068850994110107,24,9961.0
2860,0.28982725739479065,1.258783221244812,132,6524.0,-2.7783701419830322,28,9961.0
2870,0.28970715403556824,-3.6281397342681885,-48,6524.0,5.841853618621826,-63,9961.0
2880,0.289590448141098,-1.679165244102478,-5,6524.0,6.057070255279541,129,9961.0
2890,0.2896631360054016,-1.1036913394927979,-12,6524.0,1.8264760971069336,-39,9961.0
2900,0.28947576880455017,0.9094809293746948,-1,6524.0,1.474899411201477,156,9961.0
2910,0.2892707288265228,1.8708339929580688,185,6524.0,-1.662339448928833,-62,9961.0
2920,0.28909945487976074,2.210510015487671,-114,6524.0,-2.365715503692627,-77,9961.0
2930,0.28931310772895813,1.7785557508468628,52,6524.0,-3.4543662071228027,142,9961.0
2940,0.2890916168689728,0.35096681118011475,55,6524.0,-1.8720333576202393,-99,9961.0
2950,0.28884318470954895,1.7052956819534302,-27,6524.0,-3.6872718334198,13,9961.0
2960,0.28855353593826294,1.13944411277771,36,6524.0,-1.620195746421814,-31,9961.0
2970,0.2882545292377472,1.4367820024490356,-108,6524.0,2.257573127746582,119,9961.0
2980,0.28718486428260803,-1.2453796863555908,136,6524.0,1.2388877868652344,156,9961.0
2990,0.2868761420249939,-0.818398654460907,-31,6524.0,6.606759071350098,-258,9961.0
3000,0.28664547204971313,-2.6084485054016113,-43,6524.0,-0.07841260731220245,36,9961.0
3010,0.28641659021377563,-2.9551150798797607,64,6524.0,-0.2471405416727066,23,9961.0
3020,0.28802165389060974,-1.6398109197616577,-38,6524.0,-0.11813241243362427,-39,9961.0
3030,0.28792378306388855,-0.37116262316703796,50,6524.0,1.0555813312530518,111,9961.0
3040,0.28782418370246887,1.5826550722122192,-43,6524.0,1.518813133239746,-120,9961.0
3050,0.2877645492553711,1.8506144285202026,-59,6524.0,-1.832558274269104,56,9961.0
3060,0.28775089979171753,0.03542507067322731,200,6524.0,-2.688866376876831,-96,9961.0
3070,0.28904932737350464,-1.8397749662399292,-58,6524.0,3.175173044204712,-202,9961.0
3080,0.2891370952129364,-0.776308000087738,-35,6524.0,-0.6197388768196106,25,9961.0
3090,0.28920531272888184,-0.6797664165496826,6,6524.0,0.10644593089818954,-37,9961.0
3100,0.2892824411392212,-0.9321228861808777,-20,6524.0,0.27906492352485657,88,9961.0
3110,0.29080238938331604,2.9051737785339355,133,6524.0,-2.647819757461548,106,9961.0
3120,0.29094409942626953,1.430862307548523,-58,6524.0,1.0289841890335083,-133,9961.0
3130,0.2910903990268707,0.5178403854370117,-45,6524.0,1.4526472091674805,166,9961.0
3140,0.29123133420944214,-1.6923753023147583,66,6524.0,3.8850131034851074,51,9961.0
3150,0.2915950119495392,-1.0283972024917603,-40,6524.0,2.2298052310943604,20,9961.0
3160,0.29168421030044556,-0.9268246293067932,65,6524.0,5.065504550933838,53,9961.0
3170,0.29176804423332214,-0.42926016449928284,-109,6524.0,4.408219814300537,-10,9961.0
3180,0.29185038805007935,0.3449501395225525,-52,6524.0,-0.06407187879085541,208,9961.0
3190,0.29187139868736267,0.6359618902206421,105,6524.0,1.797001838684082,75,9961.0
3200,0.29161760210990906,-1.6532747745513916,-126,6524.0,0.9529836773872375,-109,9961.0
3210,0.29162728786468506,-1.938602328300476,14,6524.0,-4.146418571472168,17,9961.0
3220,0.2915603816509247,0.3652055859565735,-23,6524.0,-2.3030762672424316,-132,9961.0
3230,0.29146239161491394,-0.37354230880737305,41,6524.0,-2.9282796382904053,-70,9961.0
3240,0.29162469506263733,2.197009325027466,114,6524.0,-3.7409141063690186,-70,9961.0
3250,0.29156285524368286,2.262450933456421,-73,6524.0,-3.5701639652252197,-88,9961.0
3260,0.2915080785751343,2.92942214012146,69,6524.0,-2.6572718620300293,226,9961.0
3270,0.2914109528064728,-1.4588626623153687,70,6524.0,0.19456267356872559,1,9961.0
3280,0.2913614511489868,-0.6730918884277344,-62,6524.0,0.9853675365447998,-42,9961.0
3290,0.29150572419166565,-0.6936691403388977,21,6524.0,1.486755609512329,-31,9961.0
3300,0.2913673222064972,-2.0631678104400635,-58,6524.0,3.0829176902770996,7,9961.0
3310,0.29120317101478577,-0.8383784294128418,57,6524.0,3.2137560844421387,170,9961.0
3320,0.2910255193710327,0.41833260655403137,106,6524.0,0.4448384940624237,-124,9961.0
3330,0.2929139733314514,-1.016436219215393,-130,6524.0,-4.810914993286133,-5,9961.0
3340,0.29283571243286133,-2.6038131713867188,112,6524.0,-1.5752822160720825,-20,9961.0
3350,0.2927297353744507,1.805097222328186,-69,6524.0,-1.3423726558685303,-42,9961.0
3360,0.2926177978515625,-0.06685323268175125,31,6524.0,3.6618077754974365,64,9961.0
3370,0.29346364736557007,1.1676708459854126,-27,6524.0,2.8819446563720703,-68,9961.0
3380,0.29342329502105713,0.8810595273971558,-63,6524.0,1.627936601638794,175,9961.0
3390,0.2933574914932251,-2.5380561351776123,146,6524.0,-0.811069130897522,107,9961.0
3400,0.2933005690574646,-0.5567362904548645,-100,6524.0,1.5931332111358643,-120,9961.0
3410,0.2932875156402588,-1.8433555364608765,-127,6524.0,0.7416167259216309,61,9961.0
3420,0.29238998889923096,-0.8325921297073364,54,6524.0,0.2514043152332306,11,9961.0
3430,0.292368084192276,0.7249792814254761,-20,6524.0,-1.6783676147460938,-151,9961.0
3440,0.292351096868515,1.5299506187438965,142,6524.0,-7.632323741912842,20,9961.0
3450,0.29232150316238403,2.383755922317505,170,6524.0,-5.16995906829834,-224,9961.0
3460,0.29255545139312744,1.2408183813095093,-177,6524.0,-0.5397214889526367,-100,9961.0
3470,0.29259777069091797,-0.7810496091842651,-26,6524.0,-0.6931870579719543,206,9961.0
3480,0.29258131980895996,-3.879946231842041,-16,6524.0,-0.9077296257019043,-17,9961.0
3490,0.29258257150650024,-3.48637318611145,-73,6524.0,2.589934825897217,91,9961.0
3500,0.29267647862434387,-3.715761661529541,63,6524.0,4.091768264770508,14,9961.0
3510,0.2939625680446625,-2.125339984893799,-118,6524.0,3.139005184173584,-152,9961.0
3520,0.2940462827682495,-1.1357885599136353,-10,6524.0,1.5354865789413452,231,9961.0
3530,0.29413557052612305,-1.6093868017196655,181,6524.0,2.589632987976074,70,9961.0
3540,0.2942050099372864,1.6345568895339966,-9,6524.0,4.092846870422363,0,9961.0
3550,0.29532837867736816,1.5767210721969604,-19,6524.0,7.120551586151123,111,9961.0
3560,0.29542097449302673,3.5155537128448486,96,6524.0,0.6401873826980591,-41,9961.0
3570,0.2955743372440338,5.364222049713135,29,6524.0,-3.0527210235595703,-37,9961.0
3580,0.295687735080719,5.422064304351807,165,6524.0,-5.541568279266357,49,9961.0
3590,0.2947324514389038,5.079542636871338,95,6524.0,-5.390294551849365,-308,9961.0
3600,0.2947957217693329,2.996981143951416,-98,6524.0,-2.678842544555664,51,9961.0
3610,0.2948693037033081,-0.8846346139907837,61,6524.0,-4.535226821899414,-16,9961.0
3620,0.29497164487838745,-4.888540267944336,-93,6524.0,1.1339243650436401,-52,9961.0
3630,0.29505977034568787,-4.9613118171691895,-24,6524.0,1.336302638053894,146,9961.0
3640,0.2959311306476593,-2.743626594543457,21,6524.0,2.3220160007476807,-67,9961.0
3650,0.29609784483909607,-0.9189097285270691,-233,6524.0,5.134038925170898,54,9961.0
3660,0.2962849736213684,0.5461226105690002,80,6524.0,-5.936574459075928,117,9961.0
3670,0.2964448630809784,-0.06883874535560608,21,6524.0,5.0718207359313965,27,9961.0
3680,0.29673486948013306,1.3541687726974487,-66,6524.0,-1.1694999933242798,41,9961.0
3690,0.2968235909938812,0.994674801826477,72,6524.0,-0.05076906085014343,26,9961.0
3700,0.29689934849739075,1.495145559310913,-25,6524.0,1.289019227027893,-132,9961.0
3710,0.29698196053504944,3.521608352661133,52,6524.0,-4.425615310668945,19,9961.0
3720,0.29697442054748535,2.447209596633911,229,6524.0,-2.724635124206543,-40,9961.0
3730,0.2985321581363678,-0.6537932753562927,-87,6524.0,0.7345759868621826,-106,9961.0
3740,0.2985687255859375,-1.841578483581543,-82,6524.0,0.5038379430770874,176,9961.0
3750,0.29862675070762634,-2.704467296600342,-58,6524.0,0.8808862566947937,55,9961.0
3760,0.2985685169696808,-3.680058002471924,-147,6524.0,0.20857161283493042,20,9961.0
3770,0.29864537715911865,-5.331638813018799,-20,6524.0,-0.006379168946295977,64,9961.0
3780,0.2993525564670563,-5.667099952697754,-134,6524.0,1.4364818334579468,-150,9961.0
3790,0.29945290088653564,-3.747248888015747,-236,6524.0,1.6665940284729004,100,9961.0
3800,0.29963362216949463,-4.398579120635986,16,6524.0,2.584803342819214,48,9961.0
3810,0.2989756762981415,-1.118484616279602,14,6524.0,3.0452146530151367,16,9961.0
3820,0.2990419268608093,3.4586875438690186,69,6524.0,5.3019561767578125,174,9961.0
3830,0.2991069555282593,8.855168342590332,227,6524.0,4.354884624481201,124,9961.0
3840,0.29918724298477173,7.078680515289307,18,6524.0,6.915919303894043,29,9961.0
3850,0.2991865873336792,6.040826797485352,66,6524.0,11.275402069091797,334,9961.0
3860,0.2990975081920624,4.6811933517456055,173,6524.0,5.828618049621582,109,9961.0
3870,0.29904845356941223,2.180123805999756,-42,6524.0,1.8376147747039795,-31,9961.0
3880,0.29904651641845703,-0.550726592540741,-10,6524.0,1.749403476715088,67,9961.0
3890,0.29899972677230835,-2.4217889308929443,-27,6524.0,-1.3177595138549805,-111,9961.0
3900,0.2993757724761963,-3.6156578063964844,-169,6524.0,-2.4572815895080566,-125,9961.0
3910,0.2993866503238678,-2.2531559467315674,19,6524.0,-6.080389022827148,77,9961.0
3920,0.29938119649887085,-2.938687324523926,-176,6524.0,-3.0800681114196777,-120,9961.0
3930,0.2993704080581665,-0.2557263672351837,-22,6524.0,-4.056555271148682,65,9961.0
3940,0.2993455231189728,1.7720381021499634,125,6524.0,-1.5293948650360107,-11,9961.0
3950,0.2996365427970886,3.809774398803711,17,6524.0,0.6896875500679016,-24,9961.0
3960,0.29965224862098694,5.669728755950928,105,6524.0,-0.483306884765625,93,9961.0
3970,0.2996659576892853,4.7176618576049805,133,6524.0,0.4124854505062103,-230,9961.0
3980,0.29970356822013855,5.10189962387085,-61,6524.0,-2.797895669937134,-157,9961.0
3990,0.2994506061077118,1.4018034934997559,50,6524.0,-0.4168715178966522,90,9961.0
4000,0.2994667589664459,3.09498929977417,118,6524.0,0.5668068528175354,12,9961.0
4010,0.2994726300239563,-0.5120998620986938,-62,6524.0,3.3387603759765625,51,9961.0
4020,0.29945799708366394,-2.158693313598633,19,6524.0,0.23124657571315765,171,9961.0
4030,0.30081239342689514,-3.1968166828155518,-19,6524.0,-0.6467172503471375,-144,9961.0
4040,0.3009028136730194,-0.11395537108182907,-225,6524.0,-1.912806510925293,-13,9961.0
4050,0.3010001480579376,-1.4995510578155518,-56,6524.0,-3.539001941680908,208,9961.0
4060,0.301141619682312,-0.23298992216587067,83,6524.0,0.13515882194042206,56,9961.0
4070,0.3012658953666687,0.9265013933181763,-33,6524.0,-2.9415245056152344,-110,9961.0
4080,0.3020927906036377,0.05022963508963585,16,6524.0,-3.8895602226257324,54,9961.0
4090,0.30227404832839966,0.8821260929107666,49,6524.0,-1.227122187614441,-171,9961.0
4100,0.3024820387363434,0.8074156045913696,-151,6524.0,0.4939481317996979,-87,9961.0
4110,0.3026794493198395,-1.8508625030517578,83,6524.0,-1.9318658113479614,291,9961.0
4120,0.30410611629486084,-0.029329488053917885,131,6524.0,0.2380872219800949,2,9961.0
4130,0.3043237328529358,1.0967985391616821,-63,6524.0,0.3913648724555969,-20,9961.0
4140,0.30455365777015686,-0.23995336890220642,2,6524.0,2.6111385822296143,171,9961.0
4150,0.304730087518692,1.5103029012680054,69,6524.0,3.316836357116699,22,9961.0
4160,0.3048705458641052,0.3835498094558716,-175,6524.0,-1.5411055088043213,-66,9961.0
4170,0.303854763507843,-0.2681906223297119,-20,6524.0,-0.9601250886917114,272,9961.0
4180,0.30389803647994995,-4.43450927734375,104,6524.0,-2.9486074447631836,95,9961.0
4190,0.3039606809616089,-0.3459218442440033,-71,6524.0,-3.164668083190918,-261,9961.0
4200,0.3040485680103302,-3.121556043624878,-56,6524.0,-4.446349143981934,-73,9961.0
4210,0.30601683259010315,-1.639883279800415,20,6524.0,-4.406039714813232,-158,9961.0
4220,0.30612844228744507,1.0958702564239502,-26,6524.0,-5.825246810913086,-128,9961.0
4230,0.30622026324272156,1.437173843383789,94,6524.0,-3.9598734378814697,116,9961.0
4240,0.3063462972640991,1.8344848155975342,123,6524.0,-6.318731784820557,-91,9961.0
4250,0.30623164772987366,-1.9059988260269165,-135,6524.0,-1.2197672128677368,-181,9961.0
4260,0.306305468082428,-0.32414671778678894,-80,6524.0,-3.196524143218994,113,9961.0
4270,0.30636081099510193,-0.9203925728797913,21,6524.0,-4.120321750640869,2,9961.0
4280,0.3063243627548218,-0.425868958234787,-72,6524.0,-4.318478107452393,-117,9961.0
4290,0.30625495314598083,-2.3092830181121826,25,6524.0,-4.668647766113281,68,9961.0
4300,0.3064499497413635,0.7965213060379028,98,6524.0,-0.5893641114234924,-28,9961.0
4310,0.30636802315711975,1.2162771224975586,-42,6524.0,1.420854926109314,-98,9961.0
4320,0.3062727153301239,1.7182105779647827,16,6524.0,1.9856250286102295,194,9961.0
4330,0.3061724007129669,-0.4419189691543579,71,6524.0,6.1008806228637695,93,9961.0
4340,0.3076339066028595,-1.1691211462020874,0,6524.0,3.897751569747925,41,9961.0
4350,0.3076227605342865,-1.369860291481018,-12,6524.0,2.373628616333008,120,9961.0
4360,0.3075595796108246,0.42324739694595337,151,6524.0,0.356963574886322,43,9961.0
4370,0.30751681327819824,-0.3825366795063019,-30,6524.0,-2.162912130355835,-257,9961.0
4380,0.30750539898872375,0.7577390670776367,-114,6524.0,-0.20981740951538086,50,9961.0
4390,0.30851244926452637,-4.711214065551758,64,6524.0,-3.088348150253296,301,9961.0
4400,0.3085712492465973,1.1817331314086914,19,6524.0,-0.7548805475234985,37,9961.0
4410,0.3086273968219757,0.3917904496192932,-34,6524.0,0.6392210125923157,23,9961.0
4420,0.30865970253944397,1.8043042421340942,93,6524.0,-0.5538848638534546,83,9961.0
4430,0.3088153600692749,1.8748111724853516,109,6524.0,2.3053231239318848,-59,9961.0
4440,0.30885744094848633,4.764094829559326,-97,6524.0,1.4292384386062622,-63,9961.0
4450,0.3089044690132141,0.8469300866127014,53,6524.0,-4.4154767990112305,116,9961.0
4460,0.30893221497535706,1.6022502183914185,119,6524.0,2.7163376808166504,7,9961.0
4470,0.31127315759658813,-1.6383411884307861,-9,6524.0,-0.1382765769958496,-95,9961.0
4480,0.3113783895969391,-2.1769330501556396,4,6524.0,0.6258249282836914,110,9961.0
4490,0.31148308515548706,-1.993849754333496,38,6524.0,-0.9457904100418091,31,9961.0
4500,0.3115924596786499,-2.8000426292419434,-147,6524.0,-0.6122850775718689,-194,9961.0
4510,0.31171050667762756,0.31856977939605713,81,6524.0,-2.3480796813964844,182,9961.0
4520,0.31353330612182617,-1.5205714702606201,86,6524.0,-1.7381867170333862,-51,9961.0
4530,0.3137628436088562,-1.487640380859375,-97,6524.0,-0.13614916801452637,-87,9961.0
4540,0.31401318311691284,0.6774317622184753,-12,6524.0,1.6715468168258667,103,9961.0
4550,0.3142527639865875,-2.71022629737854,30,6524.0,7.104641914367676,13,9961.0
4560,0.3139079809188843,-1.2514561414718628,7,6524.0,6.2170257568359375,28,9961.0
4570,0.3140924274921417,-0.4306037724018097,8,6524.0,3.512571334838867,162,9961.0
4580,0.31428807973861694,-0.3393810987472534,203,6524.0,1.8281774520874023,53,9961.0
4590,0.31441882252693176,-3.08402156829834,-23,6524.0,-3.2328295707702637,-289,9961.0
4600,0.3142783045768738,-0.7284095883369446,-166,6524.0,-0.5878167152404785,-24,9961.0
4610,0.31669074296951294,-3.8136651515960693,-72,6524.0,-0.8389953970909119,105,9961.0
4620,0.31683349609375,-6.343384265899658,-124,6524.0,-1.1801048517227173,-85,9961.0
4630,0.3171042501926422,-6.6982879638671875,-186,6524.0,-3.498966693878174,1,9961.0
4640,0.3173578381538391,-8.146440505981445,-52,6524.0,-5.347668170928955,89,9961.0
4650,0.31821805238723755,-6.989470481872559,-87,6524.0,-2.412753105163574,-196,9961.0
4660,0.3184443712234497,-10.878863334655762,-322,6524.0,-1.2098532915115356,-146,9961.0
4670,0.31866905093193054,-5.515347480773926,-63,6524.0,-3.4893014430999756,-16,9961.0
4680,0.3188408613204956,-4.5588884353637695,48,6524.0,-1.9596173763275146,4,9961.0
4690,0.3185727596282959,0.22833386063575745,3,6524.0,3.063368558883667,-12,9961.0
4700,0.3186647295951843,5.83809757232666,174,6524.0,-2.0268261432647705,133,9961.0
4710,0.31875312328338623,6.697167873382568,245,6524.0,4.456075191497803,78,9961.0
4720,0.3188372254371643,5.825612545013428,12,6524.0,3.152438163757324,-131,9961.0
4730,0.3188950717449188,6.2503204345703125,-10,6524.0,2.470381259918213,88,9961.0
4740,0.31932955980300903,3.3769311904907227,83,6524.0,2.603515148162842,127,9961.0
4750,0.3193601667881012,0.27334606647491455,13,6524.0,4.254194259643555,-58,9961.0
4760,0.3193781077861786,-0.3003612458705902,-46,6524.0,1.1508314609527588,-37,9961.0
4770,0.31933170557022095,2.586189031600952,72,6524.0,-3.147387742996216,-54,9961.0
4780,0.31955471634864807,-1.4190720319747925,39,6524.0,-8.171507835388184,-268,9961.0
4790,0.3194732964038849,0.611176609992981,-144,6524.0,-2.3046343326568604,-76,9961.0
4800,0.3193812966346741,2.7747609615325928,44,6524.0,-2.0433502197265625,141,9961.0
4810,0.3191860318183899,-1.9111377000808716,109,6524.0,4.358187198638916,122,9961.0
4820,0.3190910518169403,-0.64035564661026,-47,6524.0,4.3525776863098145,29,9961.0
4830,0.3184758126735687,-0.18663784861564636,-14,6524.0,5.106746196746826,189,9961.0
4840,0.31823664903640747,1.0063450336456299,109,6524.0,5.203232288360596,182,9961.0
4850,0.31800180673599243,5.096615314483643,48,6524.0,8.377148628234863,-51,9961.0
4860,0.31772705912590027,7.696662902832031,-178,6524.0,9.616192817687988,223,9961.0
4870,0.31828150153160095,6.910893440246582,215,6524.0,3.5403802394866943,92,9961.0
4880,0.3185182213783264,7.146087646484375,279,6524.0,2.0166733264923096,44,9961.0
4890,0.3184015452861786,7.074505805969238,77,6524.0,-0.16574762761592865,-122,9961.0
4900,0.3182826340198517,4.750295162200928,15,6524.0,-0.6286890506744385,8,9961.0
4910,0.31927165389060974,5.083194255828857,156,6524.0,-4.388535976409912,45,9961.0
4920,0.3193728029727936,2.5666143894195557,110,6524.0,-3.4172141551971436,-139,9961.0
4930,0.3193875253200531,2.1135568618774414,-5,6524.0,-4.102272033691406,-287,9961.0
4940,0.31941354274749756,-1.0730006694793701,-87,6524.0,0.027766412124037743,85,9961.0
4950,0.31943389773368835,-4.890530586242676,-17,6524.0,0.7926617860794067,157,9961.0
4960,0.32058337330818176,-5.201977729797363,-134,6524.0,-0.5877847075462341,13,9961.0
4970,0.3206730782985687,-8.327292442321777,-128,6524.0,7.279587745666504,127,9961.0
4980,0.3208202123641968,-3.47348690032959,30,6524.0,2.5201303958892822,208,9961.0
4990,0.3209098279476166,-1.371030569076538,119,6524.0,4.7079644203186035,78,9961.0
5000,0.3203237056732178,-5.473934650421143,-127,6524.0,4.162744998931885,-149,9961.0
5010,0.3204982876777649,1.4537835121154785,-178,6524.0,-1.4956878423690796,64,9961.0
5020,0.3208777606487274,2.672114133834839,40,6524.0,-5.363386154174805,55,9961.0
5030,0.32115402817726135,0.6928932070732117,156,6524.0,-4.446834087371826,-87,9961.0
5040,0.32142025232315063,2.570741891860962,4,6524.0,-6.961915969848633,-227,9961.0
5050,0.3215236961841583,4.166788578033447,80,6524.0,-12.177512168884277,-159,9961.0
5060,0.32170870900154114,3.802558183670044,0,6524.0,-9.501588821411133,-164,9961.0
5070,0.3218177258968353,-0.3637484610080719,-179,6524.0,-4.399734973907471,-276,9961.0
5080,0.32239091396331787,-2.0884792804718018,-41,6524.0,-3.911404609680176,-25,9961.0
5090,0.3232463300228119,-6.6966142654418945,-33,6524.0,7.491750717163086,152,9961.0
5100,0.3233961760997772,-5.9329657554626465,-142,6524.0,7.679070472717285,138,9961.0
5110,0.3238201439380646,-5.874698162078857,-25,6524.0,8.793484687805176,159,9961.0
5120,0.32392066717147827,-3.2495715618133545,71,6524.0,7.146048545837402,116,9961.0
5130,0.32364773750305176,-2.3466670513153076,-82,6524.0,7.196287631988525,-185,9961.0
5140,0.3237570822238922,-0.054405853152275085,-147,6524.0,12.044122695922852,143,9961.0
5150,0.3239595592021942,3.5972509384155273,140,6524.0,-4.613336086273193,190,9961.0
5160,0.3240572512149811,-4.281397342681885,146,6524.0,-10.11987590789795,-142,9961.0
5170,0.3241443336009979,-0.3699679970741272,41,6524.0,-12.750646591186523,-358,9961.0
5180,0.32431110739707947,3.1351723670959473,46,6524.0,-13.873571395874023,-195,9961.0
5190,0.32445666193962097,4.981913089752197,141,6524.0,-12.272281646728516,-150,9961.0
5200,0.32534486055374146,6.202669143676758,41,6524.0,-10.462157249450684,-236,9961.0
5210,0.32546648383140564,5.725669860839844,-66,6524.0,-2.139799118041992,8,9961.0
5220,0.32574307918548584,1.7977982759475708,47,6524.0,2.6951687335968018,271,9961.0
5230,0.32612380385398865,-2.804441452026367,-35,6524.0,0.3790188133716583,47,9961.0
5240,0.3264073431491852,-9.801664352416992,-203,6524.0,4.137284278869629,154,9961.0
5250,0.3268505036830902,-11.291085243225098,-130,6524.0,4.847808837890625,266,9961.0
5260,0.3267703056335449,-7.8355512619018555,-57,6524.0,0.9019749164581299,-33,9961.0
5270,0.32730361819267273,-5.606985092163086,-152,6524.0,0.38383379578590393,-320,9961.0
5280,0.32747724652290344,3.8809432983398438,-102,6524.0,5.758155345916748,152,9961.0
5290,0.3285053074359894,3.0609512329101562,147,6524.0,-0.39836621284484863,117,9961.0
5300,0.3288193643093109,6.779263019561768,198,6524.0,-4.059611797332764,-61,9961.0
5310,0.3267143666744232,9.673357009887695,121,6524.0,-3.2553436756134033,-72,9961.0
5320,0.3267744481563568,8.97518539428711,180,6524.0,-3.9010417461395264,103,9961.0
5330,0.3271597921848297,6.838088035583496,260,6524.0,-4.949599742889404,-168,9961.0
5340,0.3271663784980774,3.262270927429199,-44,6524.0,-4.469897747039795,-179,9961.0
5350,0.32660984992980957,-0.7391119003295898,-124,6524.0,-0.7540833950042725,80,9961.0
5360,0.3266758620738983,-6.459944725036621,-23,6524.0,5.408503532409668,51,9961.0
5370,0.32675230503082275,-6.487648010253906,-165,6524.0,5.026761054992676,17,9961.0
5380,0.3267393708229065,-7.764127731323242,-179,6524.0,5.449406147003174,160,9961.0
5390,0.32676082849502563,-5.855325698852539,5,6524.0,3.624640941619873,269,9961.0
5400,0.32890042662620544,-1.9338650703430176,25,6524.0,5.567127704620361,86,9961.0
5410,0.3290049433708191,-1.0573477745056152,-56,6524.0,4.651739597320557,-225,9961.0
5420,0.32940778136253357,-1.9549371004104614,-48,6524.0,1.603423833847046,10,9961.0
5430,0.3294951021671295,-1.2679039239883423,12,6524.0,-4.117682456970215,-70,9961.0
5440,0.32837843894958496,1.4453338384628296,31,6524.0,-9.187020301818848,-378,9961.0
5450,0.32846546173095703,4.5115132331848145,-28,6524.0,-5.407846450805664,-141,9961.0
5460,0.3285209536552429,7.095427989959717,175,6524.0,-8.512758255004883,91,9961.0
5470,0.3286263346672058,3.7970669269561768,266,6524.0,-2.4215099811553955,-36,9961.0
5480,0.32885563373565674,1.6813476085662842,-57,6524.0,-3.567384958267212,-171,9961.0
5490,0.3277970552444458,-0.7113462686538696,-30,6524.0,-0.6012495160102844,78,9961.0
5500,0.3278687298297882,-1.5222890377044678,80,6524.0,3.217129945755005,39,9961.0
5510,0.3279775381088257,-0.4574173390865326,-113,6524.0,2.394134521484375,-124,9961.0
5520,0.3278666138648987,-4.5534586906433105,-195,6524.0,3.1391029357910156,92,9961.0
5530,0.3284744620323181,-2.0722758769989014,-34,6524.0,2.8048930168151855,337,9961.0
5540,0.3296346068382263,-5.461296558380127,42,6524.0,11.943111419677734,92,9961.0
5550,0.3297176957130432,1.231865644454956,-26,6524.0,5.154118061065674,86,9961.0
5560,0.3299606144428253,1.893841028213501,-9,6524.0,2.284017324447632,161,9961.0
5570,0.33078765869140625,3.6577889919281006,102,6524.0,2.6976938247680664,152,9961.0
5580,0.3308878242969513,6.623132228851318,113,6524.0,6.719836235046387,-37,9961.0
5590,0.33097708225250244,6.706386566162109,-46,6524.0,2.2175402641296387,-95,9961.0
5600,0.33111634850502014,1.2866982221603394,102,6524.0,3.885390520095825,-65,9961.0
5610,0.33126071095466614,2.053487539291382,193,6524.0,2.3769900798797607,49,9961.0
5620,0.3305155038833618,-0.03181398659944534,-87,6524.0,0.6215619444847107,-101,9961.0
5630,0.3310011327266693,-7.749902725219727,-156,6524.0,-3.1225833892822266,-43,9961.0
5640,0.3312838077545166,-9.702149391174316,-59,6524.0,-5.252195358276367,-21,9961.0
5650,0.3317587971687317,-7.998854160308838,-24,6524.0,-5.321586608886719,-164,9961.0
5660,0.3316091001033783,-1.2929946184158325,-126,6524.0,-1.2015174627304077,-172,9961.0
5670,0.33188480138778687,0.590315580368042,-46,6524.0,-9.316510200500488,113,9961.0
5680,0.33220040798187256,0.7382588386535645,30,6524.0,5.928677558898926,113,9961.0
5690,0.3325614929199219,-1.0241252183914185,-105,6524.0,4.958838939666748,117,9961.0
5700,0.33293601870536804,-0.4299372732639313,28,6524.0,5.83233642578125,255,9961.0
5710,0.3329535126686096,0.6506498456001282,107,6524.0,3.6330959796905518,-9,9961.0
5720,0.33326923847198486,-0.5359124541282654,-192,6524.0,0.9279848337173462,-167,9961.0
5730,0.33354154229164124,-4.655717372894287,-63,6524.0,0.8759362697601318,-10,9961.0
5740,0.33408406376838684,-0.7079249620437622,26,6524.0,-5.704642295837402,110,9961.0
5750,0.3349918723106384,2.4021360874176025,83,6524.0,-8.220107078552246,-275,9961.0
5760,0.33578500151634216,0.23540964722633362,-75,6524.0,-4.521290302276611,-100,9961.0
5770,0.3363187909126282,-2.7626662254333496,-26,6524.0,-7.389303684234619,-74,9961.0
5780,0.33675262331962585,-9.447671890258789,-69,6524.0,-9.136175155639648,-296,9961.0
5790,0.3366568386554718,-13.604862213134766,-309,6524.0,-8.56612777709961,-271,9961.0
5800,0.3367832899093628,-14.164729118347168,-206,6524.0,-5.371391773223877,52,9961.0
5810,0.33705008029937744,-15.889162063598633,-92,6524.0,-1.5505001544952393,80,9961.0
5820,0.3372410237789154,-13.451393127441406,-210,6524.0,0.7478384971618652,-71,9961.0
5830,0.3373136520385742,-10.619108200073242,-182,6524.0,0.1376400738954544,50,9961.0
5840,0.33803966641426086,-7.237156391143799,-58,6524.0,-0.7758751511573792,108,9961.0
5850,0.33810165524482727,-5.343306064605713,-14,6524.0,1.1397974491119385,-22,9961.0
5860,0.33813437819480896,-3.2936630249023438,-208,6524.0,1.7161688804626465,-124,9961.0
5870,0.338142454624176,-3.8412702083587646,-66,6524.0,5.002437114715576,298,9961.0
5880,0.3376289904117584,-4.629000663757324,149,6524.0,4.013386249542236,38,9961.0
5890,0.33751845359802246,-0.07400611788034439,23,6524.0,-1.8019459247589111,-298,9961.0
5900,0.33744141459465027,-4.113819599151611,-88,6524.0,0.4080333709716797,-101,9961.0
5910,0.3374508321285248,-6.049294471740723,-76,6524.0,0.21647341549396515,46,9961.0
5920,0.33745190501213074,-8.593228340148926,-29,6524.0,0.020368868485093117,-108,9961.0
5930,0.337209552526474,-10.12593936920166,-235,6524.0,0.3101252019405365,-230,9961.0
5940,0.33713310956954956,-7.999102592468262,-173,6524.0,1.3339505195617676,-33,9961.0
5950,0.3370368182659149,-5.418853759765625,-78,6524.0,3.554349660873413,254,9961.0
5960,0.3369170129299164,-3.505136251449585,-20,6524.0,4.761234760284424,-42,9961.0
5970,0.33717527985572815,0.6665883660316467,-22,6524.0,6.451088905334473,103,9961.0
5980,0.33702343702316284,7.402000427246094,145,6524.0,4.5718674659729,216,9961.0
5990,0.33684274554252625,14.724504470825195,326,6524.0,3.7568225860595703,178,9961.0
6000,0.33663198351860046,18.188940048217773,346,6524.0,5.34895658493042,-1,9961.0
6010,0.3358471691608429,20.819007873535156,100,6524.0,0.1340101659297943,-84,9961.0
6020,0.33555319905281067,3.020332098007202,40,6524.0,3.189030408859253,138,9961.0
6030,0.3352983891963959,-13.68578052520752,-172,6524.0,7.223506927490234,142,9961.0
6040,0.3347937762737274,-18.446125030517578,-466,6524.0,4.046332836151123,-64,9961.0
6050,0.3346531391143799,-20.893810272216797,-389,6524.0,1.011803388595581,53,9961.0
6060,0.3338312804698944,-28.272375106811523,-362,6524.0,-3.9424118995666504,142,9961.0
6070,0.33376118540763855,-21.433040618896484,-239,6524.0,-2.4353115558624268,34,9961.0
6080,0.33360570669174194,-21.039430618286133,-347,6524.0,0.8308166861534119,-90,9961.0
6090,0.33340996503829956,-14.962983131408691,-260,6524.0,5.001733303070068,102,9961.0
6100,0.3331988751888275,-7.263937473297119,-65,6524.0,-0.1195109412074089,43,9961.0
6110,0.33307212591171265,-3.8129513263702393,40,6524.0,-1.8276548385620117,-111,9961.0
6120,0.3330392837524414,1.5791723728179932,32,6524.0,-1.7858541011810303,-149,9961.0
6130,0.3329966962337494,6.118266582489014,50,6524.0,-5.125728607177734,-156,9961.0
6140,0.3330369293689728,4.280289649963379,147,6524.0,1.194209337234497,53,9961.0
6150,0.33263352513313293,10.867286682128906,286,6524.0,-6.252620220184326,106,9961.0
6160,0.33270958065986633,9.567564964294434,106,6524.0,0.4000391364097595,-76,9961.0
6170,0.33281445503234863,-0.27248504757881165,-70,6524.0,1.9554109573364258,94,9961.0
6180,0.3329498767852783,-2.750965118408203,20,6524.0,0.7607203125953674,197,9961.0
6190,0.33388200402259827,-4.942822456359863,-13,6524.0,2.208101749420166,-63,9961.0
6200,0.3340221047401428,-5.200675964355469,-192,6524.0,-2.7697038650512695,-25,9961.0
6210,0.3341537415981293,-9.199566841125488,-140,6524.0,7.16037654876709,87,9961.0
6220,0.3343314826488495,-4.0825419425964355,16,6524.0,6.869473934173584,142,9961.0
6230,0.33666855096817017,0.3777011036872864,42,6524.0,1.9568015336990356,-42,9961.0
6240,0.3369278907775879,4.965796947479248,-9,6524.0,-0.5800780057907104,-151,9961.0
6250,0.33715587854385376,9.236552238464355,89,6524.0,2.1540441513061523,-35,9961.0
6260,0.3373311161994934,13.226526260375977,233,6524.0,-1.7299950122833252,262,9961.0
6270,0.33743515610694885,10.807510375976562,212,6524.0,-1.1640369892120361,-96,9961.0
6280,0.33688417077064514,3.2643094062805176,45,6524.0,0.8284048438072205,68,9961.0
6290,0.33692610263824463,-4.454747200012207,-48,6524.0,3.3516948223114014,7,9961.0
6300,0.33703720569610596,-7.053120136260986,-210,6524.0,0.4423815608024597,-161,9961.0
6310,0.33713266253471375,-8.266739845275879,-213,6524.0,0.0313427560031414,40,9961.0
6320,0.33755016326904297,1.3880558013916016,102,6524.0,3.4986019134521484,153,9961.0
6330,0.33768999576568604,2.9838132858276367,202,6524.0,-4.368618965148926,154,9961.0
6340,0.3378843069076538,14.58868408203125,278,6524.0,-1.1299407482147217,-120,9961.0
6350,0.3380466401576996,28.250078201293945,446,6524.0,3.007046699523926,43,9961.0
6360,0.33818519115448,21.479534149169922,335,6524.0,3.6424448490142822,108,9961.0
6370,0.3398413360118866,10.368024826049805,271,6524.0,0.554826557636261,-129,9961.0
6380,0.3400331735610962,6.87892484664917,-67,6524.0,-5.599318504333496,-175,9961.0
6390,0.3402036428451538,7.648265838623047,207,6524.0,-3.0091118812561035,81,9961.0
6400,0.34042397141456604,9.627286911010742,281,6524.0,5.752827167510986,20,9961.0
6410,0.34159472584724426,9.373834609985352,146,6524.0,5.396388530731201,-14,9961.0
6420,0.3418034315109253,8.923052787780762,91,6524.0,4.268704891204834,184,9961.0
6430,0.34200289845466614,4.545732021331787,311,6524.0,2.8001253604888916,113,9961.0
6440,0.3423328101634979,6.647061347961426,149,6524.0,5.083730220794678,-49,9961.0
6450,0.34306609630584717,8.970137596130371,129,6524.0,-1.7222083806991577,-27,9961.0
6460,0.34319940209388733,10.839286804199219,245,6524.0,-5.795754432678223,-15,9961.0
6470,0.34337317943573,8.760489463806152,218,6524.0,-6.3601508140563965,-245,9961.0
6480,0.34349295496940613,2.553363084793091,-32,6524.0,-7.529500484466553,-120,9961.0
6490,0.3436099886894226,1.3528512716293335,68,6524.0,-6.357974052429199,18,9961.0
6500,0.3430696129798889,0.9462234377861023,105,6524.0,-6.5591206550598145,-133,9961.0
6510,0.3431047201156616,-1.151633620262146,-115,6524.0,-1.2468903064727783,-80,9961.0
6520,0.3431503176689148,-4.628155708312988,-67,6524.0,6.792438507080078,185,9961.0
6530,0.343162477016449,-2.811565399169922,82,6524.0,3.5218658447265625,17,9961.0
6540,0.3434968590736389,-3.651411533355713,-96,6524.0,3.5694425106048584,-25,9961.0
6550,0.3434826135635376,-2.8926193714141846,-90,6524.0,2.4103505611419678,129,9961.0
6560,0.34346115589141846,-2.302717685699463,108,6524.0,-2.8742008209228516,-3,9961.0
6570,0.3434833884239197,-4.400550365447998,-7,6524.0,-10.252501487731934,-154,9961.0
6580,0.34342706203460693,0.3092029094696045,22,6524.0,-2.8102686405181885,-140,9961.0
6590,0.3423389494419098,8.292842864990234,89,6524.0,-6.4402756690979,-108,9961.0
6600,0.34222549200057983,3.010514259338379,165,6524.0,-4.945291519165039,-119,9961.0
6610,0.3421257734298706,3.001969575881958,-7,6524.0,-2.6825976371765137,-69,9961.0
6620,0.34195396304130554,2.6496596336364746,-119,6524.0,-4.997786521911621,-117,9961.0
6630,0.34226515889167786,0.35847052931785583,2,6524.0,-3.473813772201538,198,9961.0
6640,0.34210360050201416,0.7506688833236694,157,6524.0,-0.3691737651824951,19,9961.0
6650,0.3419850766658783,2.8360462188720703,22,6524.0,2.718378782272339,-72,9961.0
6660,0.34180212020874023,3.072624921798706,-16,6524.0,7.354588985443115,114,9961.0
6670,0.34209761023521423,5.303853511810303,93,6524.0,9.603768348693848,293,9961.0
6680,0.3419637382030487,3.2629871368408203,181,6524.0,5.384562015533447,-13,9961.0
6690,0.34192946553230286,4.441727638244629,-78,6524.0,3.0843358039855957,-184,9961.0
6700,0.3419143557548523,5.379088878631592,-66,6524.0,-0.8770522475242615,-92,9961.0
6710,0.34184199571609497,12.105061531066895,77,6524.0,-13.411378860473633,61,9961.0
6720,0.34257736802101135,4.753745079040527,340,6524.0,-0.37465986609458923,-48,9961.0
6730,0.34244853258132935,6.552441120147705,14,6524.0,2.356008291244507,-55,9961.0
6740,0.34231188893318176,3.9461512565612793,38,6524.0,2.985175848007202,107,9961.0
6750,0.3422280251979828,2.2057385444641113,141,6524.0,5.790677547454834,73,9961.0
6760,0.3424155116081238,1.6894546747207642,-3,6524.0,1.9045891761779785,-111,9961.0
6770,0.3423752188682556,-0.2809262275695801,-122,6524.0,0.5795450210571289,-149,9961.0
6780,0.3423520028591156,-3.0596842765808105,-74,6524.0,-1.1640150547027588,37,9961.0
6790,0.3422733545303345,2.8404669761657715,182,6524.0,-1.5737652778625488,-13,9961.0
6800,0.3423164486885071,4.088562488555908,76,6524.0,-1.8942097425460815,-46,9961.0
6810,0.3421512544155121,6.847318649291992,116,6524.0,0.2353709191083908,44,9961.0
6820,0.34201180934906006,9.971986770629883,304,6524.0,5.035433769226074,122,9961.0
6830,0.34205079078674316,10.086021423339844,268,6524.0,1.941838264465332,-87,9961.0
6840,0.34199294447898865,8.103728294372559,34,6524.0,1.0188605785369873,44,9961.0
6850,0.34314286708831787,6.803719520568848,242,6524.0,5.50856876373291,208,9961.0
6860,0.34312623739242554,4.911388874053955,132,6524.0,1.5399998426437378,12,9961.0
6870,0.34310176968574524,1.4729012250900269,-34,6524.0,2.953134536743164,28,9961.0
6880,0.34307780861854553,2.5813686847686768,63,6524.0,-5.497170925140381,60,9961.0
6890,0.34309121966362,0.23284339904785156,80,6524.0,-7.397967338562012,-229,9961.0
6900,0.343523770570755,-1.722076654434204,-126,6524.0,-10.165928840637207,-362,9961.0
6910,0.34361156821250916,-1.4769967794418335,-128,6524.0,-3.375676393508911,-16,9961.0
6920,0.34374549984931946,-2.1762921810150146,20,6524.0,-8.316230773925781,-72,9961.0
6930,0.3438388407230377,-1.7448604106903076,-84,6524.0,-1.03244948387146,-50,9961.0
6940,0.34439927339553833,-0.9163761734962463,-72,6524.0,-1.189818263053894,124,9961.0
6950,0.34455209970474243,-0.32391875982284546,108,6524.0,1.2507745027542114,158,9961.0
6960,0.3447542190551758,-5.361401081085205,-115,6524.0,4.071013927459717,-49,9961.0
6970,0.3450090289115906,1.094251275062561,-98,6524.0,5.175057888031006,114,9961.0
6980,0.3455447554588318,-0.32048529386520386,28,6524.0,7.176837921142578,158,9961.0
6990,0.34571143984794617,-1.2970690727233887,55,6524.0,4.008468151092529,-80,9961.0
7000,0.34588074684143066,3.105084180831909,-48,6524.0,0.8121366500854492,-98,9961.0
7010,0.3460738956928253,1.2775678634643555,2,6524.0,0.488576203584671,170,9961.0
7020,0.34623128175735474,-3.601491689682007,132,6524.0,-7.1965484619140625,-55,9961.0
7030,0.34715884923934937,1.218009352684021,27,6524.0,-2.7814524173736572,-221,9961.0
7040,0.3473517596721649,-1.8375787734985352,-53,6524.0,-1.6956852674484253,-4,9961.0
7050,0.3475370407104492,-1.1548610925674438,42,6524.0,-6.738661766052246,-97,9961.0
7060,0.34770667552948,-8.1766939163208,-171,6524.0,4.830789089202881,-175,9961.0
7070,0.34895724058151245,-8.492812156677246,-215,6524.0,0.4929862320423126,115,9961.0
7080,0.34945887327194214,-7.5026655197143555,-98,6524.0,-0.3165866732597351,97,9961.0
7090,0.3494616746902466,-10.556524276733398,-187,6524.0,1.106109619140625,-35,9961.0
7100,0.34989967942237854,-9.036797523498535,-218,6524.0,-1.0687980651855469,38,9961.0
7110,0.3506830930709839,-8.068782806396484,-65,6524.0,-2.635077953338623,159,9961.0
7120,0.3511662483215332,-10.522665023803711,0,6524.0,-2.444697856903076,-68,9961.0
7130,0.35114192962646484,-5.200492858886719,-62,6524.0,-1.512367844581604,-251,9961.0
7140,0.35158389806747437,-3.005275249481201,-97,6524.0,-0.6855244636535645,-24,9961.0
7150,0.3515787422657013,-0.7853056192398071,19,6524.0,-2.101562261581421,-2,9961.0
7160,0.35225483775138855,1.541350245475769,-26,6524.0,1.064430832862854,-116,9961.0
7170,0.352474570274353,2.699049472808838,-28,6524.0,0.10999991744756699,5,9961.0
7180,0.3526633083820343,5.505250930786133,109,6524.0,-1.8235960006713867,225,9961.0
7190,0.3527900278568268,0.8659987449645996,200,6524.0,-0.35457128286361694,-31,9961.0
7200,0.3521476984024048,2.8231265544891357,-6,6524.0,1.0911380052566528,-90,9961.0
7210,0.35206338763237,1.7971091270446777,57,6524.0,1.7948811054229736,80,9961.0
7220,0.35207054018974304,1.2127512693405151,121,6524.0,-2.9350881576538086,-109,9961.0
7230,0.3518846035003662,-0.579285204410553,-167,6524.0,-1.0599985122680664,-74,9961.0
7240,0.3518897593021393,-2.8240888118743896,-14,6524.0,-1.9944989681243896,83,9961.0
7250,0.3520667254924774,-0.5629868507385254,117,6524.0,-3.7155232429504395,-11,9961.0
7260,0.3520919680595398,-1.297568440437317,-43,6524.0,-2.5417230129241943,-78,9961.0
7270,0.3516387939453125,-0.01987391896545887,24,6524.0,-2.201566696166992,92,9961.0
7280,0.3516140580177307,0.2576691508293152,168,6524.0,-2.3161067962646484,-107,9961.0
7290,0.3523279130458832,3.259765386581421,-30,6524.0,-2.0446155071258545,-230,9961.0
7300,0.352210134267807,0.6931642889976501,-60,6524.0,-2.0467636585235596,17,9961.0
7310,0.35207560658454895,-3.050119400024414,-35,6524.0,-1.742879033088684,-136,9961.0
7320,0.3519917130470276,-5.126272678375244,-224,6524.0,-4.761009693145752,-113,9961.0
7330,0.35228240489959717,-6.289783954620361,-27,6524.0,-10.173473358154297,49,9961.0
7340,0.3522184491157532,-7.713432788848877,-109,6524.0,-5.125677585601807,-69,9961.0
7350,0.352049320936203,-7.858187675476074,-214,6524.0,-6.2720184326171875,11,9961.0
7360,0.3520023822784424,-9.4352445602417,-26,6524.0,-0.3148442506790161,54,9961.0
7370,0.3519444465637207,-8.076925277709961,-195,6524.0,2.815680980682373,-185,9961.0
7380,0.3527267575263977,-7.161431789398193,-193,6524.0,1.1468435525894165,0,9961.0
7390,0.35274410247802734,-3.932225227355957,-2,6524.0,6.1554765701293945,1,9961.0
7400,0.35278433561325073,-2.515695810317993,-71,6524.0,2.9765090942382812,-59,9961.0
7410,0.35279425978660583,0.6053848266601562,68,6524.0,2.8036768436431885,151,9961.0
7420,0.35287246108055115,2.0603184700012207,177,6524.0,3.578782796859741,-29,9961.0
7430,0.35289686918258667,-0.39385515451431274,-103,6524.0,1.3077290058135986,-11,9961.0
7440,0.35291343927383423,-0.3084416091442108,52,6524.0,-0.8128337264060974,-89,9961.0
7450,0.35291963815689087,-0.09268645942211151,-52,6524.0,-1.2471964359283447,75,9961.0
7460,0.3531174957752228,-2.6620895862579346,71,6524.0,-5.5314483642578125,108,9961.0
7470,0.3534559905529022,-1.752060890197754,-56,6524.0,-6.408334732055664,-226,9961.0
7480,0.35341760516166687,-1.3182346820831299,-89,6524.0,-4.086475849151611,-51,9961.0
7490,0.3534490466117859,0.19567462801933289,55,6524.0,-5.1713361740112305,-84,9961.0
7500,0.3534916043281555,-0.6493610739707947,-94,6524.0,-2.100950241088867,-178,9961.0
7510,0.3536846935749054,-2.300689220428467,24,6524.0,-0.7115602493286133,214,9961.0
7520,0.3537493646144867,-3.078779935836792,96,6524.0,1.4616714715957642,-37,9961.0
7530,0.35377243161201477,-3.2030231952667236,-71,6524.0,4.003632545471191,130,9961.0
7540,0.3537640869617462,-3.024099588394165,53,6524.0,6.956884860992432,211,9961.0
7550,0.3534490466117859,-3.18664813041687,-54,6524.0,7.916032314300537,-118,9961.0
7560,0.35340580344200134,0.43795961141586304,-96,6524.0,5.447406768798828,75,9961.0
7570,0.3533483147621155,-1.5352329015731812,31,6524.0,1.032649278640747,6,9961.0
7580,0.353324830532074,-3.589021682739258,-106,6524.0,0.8782732486724854,-102,9961.0
7590,0.3533118963241577,-6.196878433227539,-114,6524.0,-1.392251968383789,96,9961.0
7600,0.3531426191329956,-4.787734508514404,59,6524.0,-8.10648250579834,-191,9961.0
7610,0.3530323803424835,-8.362831115722656,-183,6524.0,1.4235410690307617,-5,9961.0
7620,0.35293877124786377,-6.5368332862854,-124,6524.0,0.474753737449646,244,9961.0
7630,0.35283568501472473,-6.001963138580322,-68,6524.0,6.8889994621276855,3,9961.0
7640,0.35433536767959595,-2.568425178527832,-267,6524.0,4.062692165374756,20,9961.0
7650,0.3542996346950531,-5.223586082458496,7,6524.0,9.808603286743164,125,9961.0
7660,0.35426923632621765,5.049924850463867,97,6524.0,6.77009916305542,73,9961.0
7670,0.3542097806930542,7.183439254760742,68,6524.0,4.637030601501465,101,9961.0
7680,0.35410836338996887,5.432627201080322,308,6524.0,4.031980991363525,186,9961.0
7690,0.3551817238330841,2.2565743923187256,-3,6524.0,11.664351463317871,-44,9961.0
7700,0.35513541102409363,6.09921932220459,35,6524.0,-1.254472017288208,-39,9961.0
7710,0.3550891876220703,6.096987724304199,170,6524.0,-3.996020793914795,-106,9961.0
7720,0.3550468683242798,6.462092399597168,-11,6524.0,-3.961576461791992,-151,9961.0
7730,0.3549806773662567,5.673946857452393,38,6524.0,-5.3052568435668945,157,9961.0
7740,0.3549061119556427,3.9624528884887695,80,6524.0,-4.177227973937988,-35,9961.0
7750,0.3548588752746582,0.9443920254707336,-17,6524.0,2.34902286529541,64,9961.0
7760,0.35484927892684937,2.675750970840454,174,6524.0,-0.5385701656341553,109,9961.0
7770,0.35640478134155273,-2.390263080596924,-20,6524.0,3.54976749420166,-86,9961.0
7780,0.3564983010292053,3.1073718070983887,50,6524.0,2.291456460952759,103,9961.0
7790,0.35657593607902527,2.2962026596069336,91,6524.0,0.5666311383247375,-56,9961.0
7800,0.3567352592945099,4.349987030029297,-27,6524.0,4.080306053161621,33,9961.0
7810,0.3568015396595001,7.9796342849731445,272,6524.0,-2.6419947147369385,93,9961.0
7820,0.35654276609420776,6.920330047607422,157,6524.0,4.045936584472656,-14,9961.0
7830,0.356594055891037,4.831035137176514,50,6524.0,2.881812572479248,142,9961.0
7840,0.356616735458374,4.721920967102051,167,6524.0,4.578625679016113,42,9961.0
7850,0.3566689193248749,1.7443143129348755,-134,6524.0,4.254477500915527,-46,9961.0
7860,0.35874664783477783,0.8111665844917297,16,6524.0,0.7642079591751099,117,9961.0
7870,0.358917772769928,-0.05504667013883591,2,6524.0,1.6253342628479004,-58,9961.0
7880,0.3590858578681946,0.03951127827167511,-80,6524.0,-0.747451901435852,156,9961.0
7890,0.3592616319656372,-2.0548059940338135,95,6524.0,0.6123945116996765,21,9961.0
7900,0.35949504375457764,-2.102509021759033,-72,6524.0,-1.4160892963409424,-17,9961.0
7910,0.35983383655548096,-2.6824822425842285,-40,6524.0,2.120096445083618,115,9961.0
7920,0.3600364923477173,-0.7289859056472778,-20,6524.0,2.1397082805633545,-133,9961.0
7930,0.3602234125137329,-1.069171667098999,-91,6524.0,4.711796283721924,95,9961.0
7940,0.3604133129119873,1.3680652379989624,148,6524.0,1.9608184099197388,60,9961.0
7950,0.36038416624069214,2.4330737590789795,15,6524.0,2.9555602073669434,-14,9961.0
7960,0.3605184555053711,2.052180528640747,74,6524.0,5.62914514541626,204,9961.0
7970,0.36067119240760803,5.026679515838623,84,6524.0,4.679944038391113,-15,9961.0
7980,0.3607846200466156,5.1841654777526855,-89,6524.0,3.3881824016571045,136,9961.0
7990,0.3601655960083008,2.2678911685943604,81,6524.0,1.707231879234314,107,9961.0
8000,0.36015164852142334,2.4017751216888428,-31,6524.0,3.933997392654419,6,9961.0
8010,0.3602738678455353,1.1791280508041382,117,6524.0,4.22086763381958,234,9961.0
8020,0.3603026866912842,1.6527364253997803,-104,6524.0,4.115303993225098,26,9961.0
8030,0.36029675602912903,-0.013605399057269096,-16,6524.0,6.84736967086792,204,9961.0
8040,0.3605602979660034,3.051537036895752,74,6524.0,3.5598230361938477,73,9961.0
8050,0.3605709671974182,1.4348652362823486,-12,6524.0,0.06152789667248726,13,9961.0
8060,0.3606129586696625,0.24584855139255524,91,6524.0,-1.9658221006393433,123,9961.0
8070,0.3606724441051483,0.5097304582595825,24,6524.0,-3.861306667327881,-300,9961.0
8080,0.36043667793273926,-1.046350359916687,-171,6524.0,-1.6778634786605835,-128,9961.0
8090,0.36041921377182007,4.747884750366211,78,6524.0,-7.249492168426514,18,9961.0
8100,0.36038321256637573,1.5859543085098267,-4,6524.0,0.24698658287525177,-80,9961.0
8110,0.36035072803497314,1.9890129566192627,-12,6524.0,-0.2013942301273346,136,9961.0
8120,0.36032193899154663,-0.6331548690795898,188,6524.0,4.1092729568481445,109,9961.0
8130,0.35936447978019714,3.6686692237854004,-51,6524.0,2.1620025634765625,14,9961.0
8140,0.3592311143875122,-0.6098798513412476,-5,6524.0,0.31806620955467224,79,9961.0
8150,0.35906222462654114,-2.305919647216797,7,6524.0,-1.4102725982666016,-125,9961.0
8160,0.35886427760124207,-1.1239104270935059,-165,6524.0,-4.080320358276367,-203,9961.0
8170,0.3591639995574951,0.834949791431427,60,6524.0,-12.77896785736084,7,9961.0
8180,0.3589884042739868,-1.6337615251541138,153,6524.0,-10.089942932128906,-160,9961.0
8190,0.3588087558746338,-0.34003356099128723,-11,6524.0,-7.9032511711120605,-194,9961.0
8200,0.358625203371048,-2.9283030033111572,-6,6524.0,-3.6209776401519775,2,9961.0
8210,0.35789379477500916,-1.7961666584014893,13,6524.0,-5.7532453536987305,-189,9961.0
8220,0.35767003893852234,-1.1062674522399902,-267,6524.0,-0.6890791654586792,159,9961.0
8230,0.35747307538986206,-1.5512279272079468,24,6524.0,-2.4529216289520264,128,9961.0
8240,0.35730883479118347,-1.626016616821289,-30,6524.0,4.767238616943359,6,9961.0
8250,0.3571290671825409,-0.21888025104999542,-78,6524.0,3.6413283348083496,100,9961.0
8260,0.35698097944259644,0.3381520211696625,155,6524.0,-2.279755115509033,78,9961.0
8270,0.35682931542396545,-1.436824917793274,-54,6524.0,-2.2249746322631836,-249,9961.0
8280,0.35667911171913147,4.133808612823486,-73,6524.0,-0.14591540396213531,-34,9961.0
8290,0.356522798538208,-0.43597567081451416,55,6524.0,-6.626247882843018,-63,9961.0
8300,0.3570077121257782,0.06043786182999611,-17,6524.0,-2.0505993366241455,-192,9961.0
8310,0.35691046714782715,0.8456357717514038,-82,6524.0,0.5321263074874878,75,9961.0
8320,0.35684582591056824,0.326923668384552,125,6524.0,-2.0908665657043457,170,9961.0
8330,0.3568219542503357,1.5655744075775146,-23,6524.0,-3.282494306564331,-167,9961.0
8340,0.35682517290115356,0.38512536883354187,-31,6524.0,-5.174979209899902,-42,9961.0
8350,0.3573101758956909,-0.8653990030288696,93,6524.0,-1.7963558435440063,-21,9961.0
8360,0.35738080739974976,-0.017467832192778587,-33,6524.0,-4.1248321533203125,-239,9961.0
8370,0.3574213683605194,0.1028001606464386,-109,6524.0,-3.6976215839385986,66,9961.0
8380,0.35746678709983826,-0.375042587518692,85,6524.0,-1.4470019340515137,14,9961.0
8390,0.35770711302757263,0.042745184153318405,0,6524.0,-6.038928508758545,-123,9961.0
8400,0.35776951909065247,-1.6517382860183716,-34,6524.0,-1.673410415649414,116,9961.0
8410,0.3578189015388489,-1.3561391830444336,120,6524.0,-6.092906951904297,-35,9961.0
8420,0.35788342356681824,-1.0695838928222656,20,6524.0,-2.3341636657714844,-73,9961.0
8430,0.35607051849365234,2.764014720916748,15,6524.0,-2.3088040351867676,157,9961.0
8440,0.35603025555610657,-1.1961669921875,39,6524.0,0.7659742832183838,-76,9961.0
8450,0.35597991943359375,-0.60655277967453,-157,6524.0,-0.7872207164764404,-71,9961.0
8460,0.3559125065803528,-2.9312803745269775,-14,6524.0,-1.2021961212158203,40,9961.0
8470,0.35584479570388794,-1.4758033752441406,129,6524.0,-2.464284658432007,-40,9961.0
8480,0.35547494888305664,-2.549217462539673,-94,6524.0,-0.6898163557052612,-77,9961.0
8490,0.355413019657135,-0.6445661783218384,20,6524.0,-2.598356246948242,27,9961.0
8500,0.35533908009529114,-0.3140929043292999,40,6524.0,-1.624827265739441,-170,9961.0
8510,0.3552732765674591,1.2298383712768555,-177,6524.0,-0.6103591322898865,-15,9961.0
8520,0.35513925552368164,3.5711543560028076,28,6524.0,-2.1866800785064697,27,9961.0
8530,0.3550882041454315,0.9908018708229065,9,6524.0,-2.3238463401794434,-113,9961.0
8540,0.35502466559410095,1.3281430006027222,-23,6524.0,-3.5515687465667725,42,9961.0
8550,0.35494446754455566,-0.7866547107696533,132,6524.0,-0.4252775311470032,119,9961.0
8560,0.35486575961112976,1.3459299802780151,-4,6524.0,-3.2942914962768555,-174,9961.0
8570,0.3564748764038086,2.2544808387756348,-14,6524.0,-5.576712131500244,6,9961.0
8580,0.3565560281276703,-0.9435787796974182,69,6524.0,-0.5542619228363037,-22,9961.0
8590,0.3566191494464874,-0.3987410366535187,-148,6524.0,0.09505058079957962,112,9961.0
8600,0.35667356848716736,-1.6401762962341309,124,6524.0,-0.7595837712287903,-23,9961.0
8610,0.3556588292121887,-1.6077845096588135,-60,6524.0,6.567170143127441,40,9961.0
8620,0.3557192087173462,-1.4663835763931274,18,6524.0,1.7751559019088745,201,9961.0
8630,0.35577914118766785,-1.0865795612335205,-22,6524.0,8.404248237609863,-2,9961.0
8640,0.3558415472507477,1.4272621870040894,-243,6524.0,10.409099578857422,183,9961.0
8650,0.3555574119091034,-2.76806902885437,26,6524.0,4.682405948638916,134,9961.0
8660,0.3556409180164337,-3.014298677444458,-31,6524.0,1.9048374891281128,-11,9961.0
8670,0.3557381331920624,-3.2176613807678223,-15,6524.0,0.4079853594303131,98,9961.0
8680,0.3558497428894043,-2.5411882400512695,79,6524.0,-3.9915707111358643,-66,9961.0
8690,0.35596412420272827,-3.1566593647003174,-152,6524.0,-1.505109190940857,-204,9961.0
8700,0.35483241081237793,-2.1404452323913574,-39,6524.0,-5.975587844848633,-2,9961.0
8710,0.35486477613449097,-2.169743299484253,-63,6524.0,-4.492649078369141,-118,9961.0
8720,0.3549439013004303,-0.7819591760635376,-60,6524.0,-0.4106823801994324,132,9961.0
8730,0.355005145072937,-3.722939968109131,86,6524.0,-0.730273962020874,-10,9961.0
8740,0.3542758524417877,-3.4617040157318115,-182,6524.0,-0.6632679104804993,-91,9961.0
8750,0.35435569286346436,-4.706643581390381,-75,6524.0,1.0157992839813232,31,9961.0
8760,0.35441023111343384,-5.8484978675842285,-77,6524.0,1.666927456855774,-50,9961.0
8770,0.35444551706314087,-1.8488128185272217,-75,6524.0,-3.5892603397369385,206,9961.0
8780,0.3544992208480835,-1.0892133712768555,56,6524.0,-3.245422840118408,-59,9961.0
8790,0.3532254993915558,-3.2926387786865234,-148,6524.0,-0.9309447407722473,-55,9961.0
8800,0.3532361686229706,-2.0679898262023926,5,6524.0,-3.5337159633636475,-69,9961.0
8810,0.3532228469848633,-2.32974910736084,-129,6524.0,-3.3121354579925537,-117,9961.0
8820,0.3532247543334961,0.615242600440979,47,6524.0,-3.3861961364746094,16,9961.0
8830,0.3531729578971863,0.022120915353298187,-15,6524.0,0.6591531038284302,-184,9961.0
8840,0.3531879186630249,2.623361587524414,18,6524.0,-2.4986119270324707,-2,9961.0
8850,0.35317113995552063,3.4855966567993164,71,6524.0,-0.685384213924408,-106,9961.0
8860,0.35313788056373596,5.998271942138672,30,6524.0,-0.7868837118148804,109,9961.0
8870,0.35384422540664673,4.7783074378967285,230,6524.0,-2.1688425540924072,-18,9961.0
8880,0.3539229929447174,4.57560920715332,23,6524.0,-1.3015952110290527,22,9961.0
8890,0.3539961874485016,3.813755512237549,186,6524.0,-1.0943498611450195,-9,9961.0
8900,0.3540363907814026,2.6268177032470703,-104,6524.0,4.717856407165527,-49,9961.0
8910,0.3540814518928528,1.8012466430664062,85,6524.0,-0.7218573689460754,-6,9961.0
8920,0.35570764541625977,0.06696447730064392,-97,6524.0,4.0234575271606445,-27,9961.0
8930,0.3558715879917145,-0.1758255660533905,67,6524.0,1.6236026287078857,230,9961.0
8940,0.35608986020088196,-3.213287115097046,-96,6524.0,4.127465724945068,42,9961.0
8950,0.3562607169151306,-4.409334182739258,-63,6524.0,-3.035597801208496,111,9961.0
8960,0.35540714859962463,-6.079712390899658,-132,6524.0,0.15067219734191895,-212,9961.0
8970,0.3555186092853546,-7.340062618255615,-166,6524.0,-6.0371994972229,-31,9961.0
8980,0.35560548305511475,-8.980384826660156,-124,6524.0,-5.422404766082764,-176,9961.0
8990,0.355694979429245,-6.993722438812256,-123,6524.0,-4.195378303527832,107,9961.0
9000,0.3557504713535309,-5.881155014038086,-41,6524.0,-3.1704611778259277,-188,9961.0
9010,0.35551148653030396,-3.1312005519866943,-101,6524.0,0.5812225937843323,49,9961.0
9020,0.3556230962276459,-2.512528657913208,10,6524.0,5.211244583129883,-1,9961.0
9030,0.35576221346855164,0.2075735479593277,-126,6524.0,5.105591297149658,112,9961.0
9040,0.3558737337589264,-0.07150128483772278,93,6524.0,5.52260160446167,138,9961.0
9050,0.35635411739349365,3.696193218231201,2,6524.0,3.2424867153167725,63,9961.0
9060,0.3564213514328003,5.177154064178467,194,6524.0,-1.0506919622421265,15,9961.0
9070,0.35645735263824463,2.380427360534668,-83,6524.0,1.2881278991699219,-72,9961.0
9080,0.3565010130405426,2.2986721992492676,25,6524.0,1.6421496868133545,95,9961.0
9090,0.3563116490840912,2.6453044414520264,-9,6524.0,0.5883066058158875,-73,9961.0
9100,0.3562632203102112,-0.20902864634990692,65,6524.0,3.572906255722046,247,9961.0
9110,0.3562327027320862,-1.009257435798645,5,6524.0,6.58619499206543,-41,9961.0
9120,0.3562301695346832,0.1574043333530426,-2,6524.0,3.7848238945007324,139,9961.0
9130,0.3562292754650116,-0.37742170691490173,-19,6524.0,7.957848072052002,-60,9961.0
9140,0.3569330871105194,-3.3203694820404053,-164,6524.0,6.338465690612793,244,9961.0
9150,0.3569064736366272,-3.5990853309631348,-12,6524.0,9.067838668823242,40,9961.0
9160,0.35688215494155884,-3.694908618927002,-96,6524.0,3.9149012565612793,126,9961.0
9170,0.35686618089675903,-2.555978298187256,129,6524.0,3.062708616256714,33,9961.0
9180,0.356908917427063,-0.39710700511932373,-115,6524.0,-1.7846404314041138,-92,9961.0
9190,0.35690975189208984,0.9846208691596985,10,6524.0,1.5003758668899536,130,9961.0
9200,0.3569159507751465,2.4271957874298096,11,6524.0,3.18605899810791,128,9961.0
9210,0.35690295696258545,3.01456356048584,169,6524.0,4.686557292938232,98,9961.0
9220,0.3568829596042633,4.112298011779785,-61,6524.0,4.52214241027832,28,9961.0
9230,0.358463853597641,5.234260082244873,95,6524.0,3.9650211334228516,158,9961.0
9240,0.3585047125816345,4.468899726867676,55,6524.0,4.722878932952881,15,9961.0
9250,0.3585851192474365,3.4672956466674805,78,6524.0,0.2863452136516571,181,9961.0
9260,0.3587298095226288,2.9073755741119385,62,6524.0,2.7406957149505615,-147,9961.0
9270,0.35890692472457886,2.7879478931427,-1,6524.0,-0.3116488754749298,47,9961.0
9280,0.35899674892425537,3.731102228164673,107,6524.0,2.8467721939086914,-7,9961.0
9290,0.35922589898109436,4.040704250335693,-13,6524.0,2.334341287612915,77,9961.0
9300,0.35935476422309875,2.962489604949951,223,6524.0,4.032447338104248,116,9961.0
9310,0.36041513085365295,2.4856224060058594,-57,6524.0,-0.7080873250961304,-66,9961.0
9320,0.36060774326324463,3.312678813934326,65,6524.0,-1.0130735635757446,69,9961.0
9330,0.3607540428638458,3.8326854705810547,-67,6524.0,2.2666707038879395,-77,9961.0
9340,0.36089709401130676,1.5744845867156982,54,6524.0,-1.407077670097351,232,9961.0
9350,0.3610534071922302,0.8563796281814575,16,6524.0,2.6616604328155518,46,9961.0
9360,0.361564964056015,0.9509303569793701,34,6524.0,3.103665828704834,141,9961.0
9370,0.3616981506347656,-1.3216552734375,-3,6524.0,2.747300863265991,-144,9961.0
9380,0.3618292808532715,-1.8523286581039429,-62,6524.0,3.1982693672180176,116,9961.0
9390,0.3620173931121826,-1.1590282917022705,7,6524.0,-0.8087226748466492,-25,9961.0
9400,0.36252516508102417,-0.2611970603466034,-56,6524.0,-1.3298418521881104,74,9961.0
9410,0.362741619348526,-0.23170848190784454,173,6524.0,-2.1195595264434814,-76,9961.0
9420,0.36292764544487,0.9437273740768433,-137,6524.0,-4.132272243499756,-147,9961.0
9430,0.36313313245773315,0.596634566783905,71,6524.0,-3.8438360691070557,5,9961.0
9440,0.36332663893699646,1.5739682912826538,-15,6524.0,-1.7356077432632446,-61,9961.0
9450,0.3625812828540802,2.4055938720703125,120,6524.0,-3.4495038986206055,92,9961.0
9460,0.36271432042121887,0.7860302925109863,-35,6524.0,0.7646005749702454,-162,9961.0
9470,0.36282211542129517,-1.031539797782898,-75,6524.0,-3.7441694736480713,48,9961.0
9480,0.36294591426849365,-3.7466087341308594,-59,6524.0,-4.089371681213379,-157,9961.0
9490,0.3638271987438202,-3.5180416107177734,-57,6524.0,-6.977388858795166,31,9961.0
9500,0.3639151453971863,-5.7605671882629395,-39,6524.0,-7.746306896209717,-264,9961.0
9510,0.36391809582710266,-3.3637211322784424,-181,6524.0,-9.382570266723633,-136,9961.0
9520,0.3638778328895569,-3.65438175201416,-14,6524.0,-8.638427734375,-70,9961.0
9530,0.3627855181694031,-1.9624577760696411,-86,6524.0,-5.286773681640625,-19,9961.0
9540,0.3627069592475891,-1.0415987968444824,165,6524.0,-2.8065481185913086,-46,9961.0
9550,0.3626208007335663,-1.2179569005966187,-101,6524.0,4.67437744140625,18,9961.0
9560,0.3624553084373474,1.131184697151184,10,6524.0,1.0235673189163208,120,9961.0
9570,0.36222267150878906,1.2627718448638916,-30,6524.0,5.575901031494141,0,9961.0
9580,0.3606722950935364,2.0852608680725098,49,6524.0,3.1957972049713135,208,9961.0
9590,0.3603002727031708,-2.1488003730773926,43,6524.0,0.8504644632339478,-107,9961.0
9600,0.35990074276924133,2.8667354583740234,-114,6524.0,-3.5236921310424805,-123,9961.0
9610,0.3594987988471985,-0.15675151348114014,11,6524.0,-5.002232551574707,-56,9961.0
9620,0.36025315523147583,0.42393016815185547,-24,6524.0,-1.8931506872177124,-89,9961.0
9630,0.35993558168411255,2.172739267349243,53,6524.0,-6.098122596740723,101,9961.0
9640,0.35960879921913147,3.086941719055176,75,6524.0,-5.273129463195801,-263,9961.0
9650,0.3592988848686218,3.229367733001709,-48,6524.0,-1.6791373491287231,-72,9961.0
9660,0.35904067754745483,-0.28578585386276245,64,6524.0,-3.426910638809204,-120,9961.0
9670,0.3562948703765869,1.0980881452560425,-61,6524.0,-1.4000499248504639,-51,9961.0
9680,0.3560079336166382,2.4453775882720947,137,6524.0,4.06915283203125,274,9961.0
9690,0.35566550493240356,3.161461114883423,105,6524.0,7.012478828430176,81,9961.0
9700,0.3553294241428375,3.3763110637664795,29,6524.0,7.470434188842773,183,9961.0
9710,0.3546682298183441,2.2713229656219482,134,6524.0,4.479252338409424,86,9961.0
9720,0.35426297783851624,-0.27013373374938965,-138,6524.0,3.7111244201660156,-187,9961.0
9730,0.35392093658447266,-1.4924006462097168,-51,6524.0,-0.9484205842018127,2,9961.0
9740,0.353559672832489,3.7020647525787354,109,6524.0,-5.145479679107666,-69,9961.0
9750,0.35239118337631226,4.502126216888428,-43,6524.0,-5.330467700958252,-29,9961.0
9760,0.352017343044281,6.0770039558410645,180,6524.0,-5.934354782104492,54,9961.0
9770,0.3517034351825714,8.954967498779297,121,6524.0,-0.026817115023732185,-201,9961.0
9780,0.3513529300689697,7.368099689483643,24,6524.0,-3.209394931793213,-49,9961.0
9790,0.3511393070220947,5.737675666809082,92,6524.0,-0.0015194457955658436,-26,9961.0
9800,0.351287841796875,7.761878967285156,6,6524.0,-1.4692378044128418,65,9961.0
9810,0.3511403799057007,2.57903790473938,210,6524.0,-1.4158748388290405,-65,9961.0
9820,0.35100850462913513,-0.4894994795322418,23,6524.0,-2.744842290878296,-298,9961.0
9830,0.35091376304626465,-3.7470102310180664,25,6524.0,0.1900799423456192,13,9961.0
9840,0.3509053587913513,-3.4808902740478516,-31,6524.0,-1.1617778539657593,-89,9961.0
9850,0.35085445642471313,-5.102441787719727,-282,6524.0,-0.20611198246479034,44,9961.0
9860,0.3508587181568146,-7.021561145782471,-46,6524.0,-0.4356248378753662,116,9961.0
9870,0.3509005308151245,-3.6296894550323486,-75,6524.0,3.923582077026367,18,9961.0
9880,0.3509751260280609,-3.9817733764648438,-73,6524.0,4.186469554901123,183,9961.0
9890,0.35026678442955017,-2.9500722885131836,83,6524.0,5.022272109985352,91,9961.0
9900,0.35033178329467773,-2.753584623336792,-121,6524.0,-0.3908628821372986,-139,9961.0
9910,0.35042470693588257,-1.0646485090255737,-63,6524.0,-2.524970769882202,1,9961.0
9920,0.35049915313720703,-1.1532562971115112,40,6524.0,-5.824695110321045,-100,9961.0
9930,0.35152000188827515,1.163775086402893,-55,6524.0,-9.23567008972168,-60,9961.0
9940,0.3515891432762146,2.611365556716919,122,6524.0,-4.639870643615723,118,9961.0
9950,0.3516576290130615,1.888091802597046,-28,6524.0,0.30554506182670593,-103,9961.0
9960,0.3517358601093292,4.984333515167236,20,6524.0,0.8199665546417236,83,9961.0
9970,0.3519213795661926,2.4824793338775635,68,6524.0,3.5449635982513428,-4,9961.0
9980,0.3520791530609131,0.1716044843196869,-141,6524.0,6.373600959777832,67,9961.0
9990,0.3522411584854126,-0.29931727051734924,4,6524.0,4.666225910186768,292,9961.0
10000,0.35240331292152405,-2.30824613571167,31,6524.0,0.8819141983985901,-89,9961.0
10010,0.3526107966899872,-3.597001075744629,-118,6524.0,-3.309736490249634,-37,9961.0
10020,0.3514104187488556,-4.780478477478027,-44,6524.0,-5.7996978759765625,-204,9961.0
10030,0.351597398519516,-1.3085182905197144,-183,6524.0,-3.0895633697509766,-112,9961.0
10040,0.3517611026763916,-5.5810089111328125,-15,6524.0,-4.125691890716553,163,9961.0
10050,0.3519587516784668,-3.1946539878845215,9,6524.0,-2.6989972591400146,-92,9961.0
10060,0.3532748818397522,-1.8008606433868408,-84,6524.0,3.3358559608459473,128,9961.0
10070,0.35352790355682373,0.8907204866409302,71,6524.0,4.721639633178711,10,9961.0
10080,0.3538157641887665,2.542490243911743,-87,6524.0,10.001206398010254,93,9961.0
10090,0.3541094660758972,4.8241071701049805,123,6524.0,8.570789337158203,302,9961.0
10100,0.3543863296508789,0.054229285567998886,28,6524.0,11.107308387756348,42,9961.0
10110,0.35409796237945557,-0.32491201162338257,-101,6524.0,7.048255443572998,100,9961.0
10120,0.35436421632766724,-2.3240630626678467,9,6524.0,-0.582137942314148,26,9961.0
10130,0.35475707054138184,-1.7378698587417603,-53,6524.0,-4.85698938369751,-115,9961.0
10140,0.35501712560653687,-2.2717318534851074,-5,6524.0,-5.0330705642700195,112,9961.0
10150,0.355559378862381,1.3066177368164062,102,6524.0,-7.074320316314697,-205,9961.0
10160,0.355812132358551,-0.21637164056301117,-103,6524.0,-6.362900733947754,6,9961.0
10170,0.35601797699928284,-1.4271430969238281,145,6524.0,-0.7383184432983398,20,9961.0
10180,0.3562183380126953,1.1929936408996582,-30,6524.0,2.409409761428833,-95,9961.0
10190,0.35625898838043213,-0.26457536220550537,28,6524.0,4.049747943878174,65,9961.0
10200,0.35644662380218506,-0.9512640237808228,-30,6524.0,3.0122299194335938,-60,9961.0
10210,0.35659658908843994,0.45301303267478943,-67,6524.0,2.0504043102264404,126,9961.0
10220,0.35674944519996643,-1.5860986709594727,109,6524.0,0.997844934463501,106,9961.0
10230,0.3569178581237793,-2.9942235946655273,-108,6524.0,-4.275750637054443,-230,9961.0
10240,0.3567267656326294,-2.914057970046997,-21,6524.0,-1.409665822982788,217,9961.0
10250,0.3568509817123413,-1.0334243774414062,40,6524.0,-3.257110595703125,-47,9961.0
10260,0.35701945424079895,0.693493127822876,-57,6524.0,-4.215820789337158,-66,9961.0
10270,0.35721555352211,1.8064368963241577,107,6524.0,-4.188315391540527,-98,9961.0
10280,0.35681408643722534,4.409837245941162,11,6524.0,-7.266709804534912,-202,9961.0
10290,0.35687315464019775,4.739599227905273,108,6524.0,-4.231863498687744,80,9961.0
10300,0.3570004999637604,6.742034912109375,224,6524.0,-1.3775075674057007,-73,9961.0
10310,0.35706692934036255,6.42781400680542,-32,6524.0,-2.47544527053833,-26,9961.0
10320,0.3571151793003082,5.8047332763671875,149,6524.0,1.955201268196106,133,9961.0
10330,0.3568306267261505,6.421427249908447,103,6524.0,5.513543128967285,60,9961.0
10340,0.3569797873497009,6.995325088500977,177,6524.0,7.707267761230469,198,9961.0
10350,0.35709935426712036,8.264673233032227,238,6524.0,4.041836261749268,-11,9961.0
10360,0.35718563199043274,6.751049995422363,-98,6524.0,1.8925236463546753,-95,9961.0
10370,0.35757315158843994,0.8387467861175537,-64,6524.0,-5.576705455780029,73,9961.0
10380,0.3576597273349762,-0.30287325382232666,138,6524.0,-7.902585983276367,-148,9961.0
10390,0.35770681500434875,-6.390608787536621,-70,6524.0,-5.016936302185059,43,9961.0
10400,0.35772520303726196,-5.960803031921387,-89,6524.0,1.8620673418045044,-81,9961.0
10410,0.3578657805919647,-4.31752872467041,-170,6524.0,1.8026325702667236,58,9961.0
10420,0.35790228843688965,-4.111235618591309,69,6524.0,2.921020030975342,195,9961.0
10430,0.35795602202415466,-1.7185988426208496,-20,6524.0,1.1570018529891968,-163,9961.0
10440,0.35800403356552124,-0.011528052389621735,-77,6524.0,0.9580419063568115,16,9961.0
10450,0.35803472995758057,-2.4005181789398193,35,6524.0,2.3443892002105713,21,9961.0
10460,0.3572116792201996,-0.034105584025382996,0,6524.0,-1.2543524503707886,-101,9961.0
10470,0.35717087984085083,-1.3741168975830078,38,6524.0,-1.2981268167495728,13,9961.0
10480,0.3571404218673706,3.3837616443634033,102,6524.0,-2.5360660552978516,-30,9961.0
10490,0.3571128845214844,-0.9284476637840271,-5,6524.0,-2.3054745197296143,-298,9961.0
10500,0.3554839491844177,0.19407106935977936,-203,6524.0,-1.3383351564407349,-86,9961.0
10510,0.35538068413734436,-1.8330427408218384,74,6524.0,-2.000974655151367,22,9961.0
10520,0.3552526831626892,-0.8379411101341248,-28,6524.0,-0.1985793113708496,-92,9961.0
10530,0.3551389276981354,-0.8377629518508911,27,6524.0,3.159808397293091,78,9961.0
10540,0.35504066944122314,1.6909542083740234,96,6524.0,2.978329658508301,92,9961.0
10550,0.3545255661010742,0.41465887427330017,-35,6524.0,5.225935935974121,-124,9961.0
10560,0.354420006275177,-1.2689141035079956,-89,6524.0,3.722301959991455,98,9961.0
10570,0.35431134700775146,-0.8432019948959351,34,6524.0,3.8364319801330566,140,9961.0
10580,0.3541799783706665,0.1179414689540863,-18,6524.0,2.5987818241119385,-22,9961.0
10590,0.352816641330719,1.0614278316497803,-46,6524.0,1.3384195566177368,46,9961.0
10600,0.352652907371521,0.4935440123081207,108,6524.0,-0.6168925762176514,58,9961.0
10610,0.3525022566318512,0.011675814166665077,1,6524.0,-0.718147337436676,-255,9961.0
10620,0.3523843288421631,0.6274322271347046,-218,6524.0,-5.515810489654541,-67,9961.0
10630,0.3525412976741791,-1.3001713752746582,-25,6524.0,-0.22673219442367554,71,9961.0
10640,0.3524015545845032,-4.20276403427124,-25,6524.0,-0.09292874485254288,-26,9961.0
10650,0.3522666394710541,-1.3993899822235107,-89,6524.0,2.756211996078491,69,9961.0
10660,0.35215261578559875,2.233851671218872,75,6524.0,-1.9870635271072388,172,9961.0
10670,0.35208624601364136,2.372954845428467,123,6524.0,2.2586147785186768,30,9961.0
10680,0.3524087071418762,-1.5887221097946167,-133,6524.0,-3.1998744010925293,-65,9961.0
10690,0.35238027572631836,3.7154057025909424,-15,6524.0,-1.360795259475708,51,9961.0
10700,0.3523795008659363,0.16719354689121246,23,6524.0,3.0567071437835693,6,9961.0
10710,0.3524044454097748,1.3117787837982178,-78,6524.0,3.425100326538086,82,9961.0
10720,0.35229507088661194,-0.3369481861591339,68,6524.0,1.3385744094848633,242,9961.0
10730,0.35248681902885437,-1.3214149475097656,30,6524.0,2.0242905616760254,-84,9961.0
10740,0.3525504469871521,-1.6525428295135498,-140,6524.0,0.20311009883880615,-11,9961.0
10750,0.3526468575000763,-3.2245309352874756,26,6524.0,-1.8056154251098633,-32,9961.0
10760,0.35276174545288086,-1.50508451461792,-47,6524.0,-2.9645795822143555,-198,9961.0
10770,0.3529910743236542,-2.9594502449035645,-60,6524.0,-3.087808609008789,15,9961.0
10780,0.35314738750457764,-8.119418144226074,59,6524.0,1.062785267829895,-57,9961.0
10790,0.3533197343349457,-2.263159990310669,-78,6524.0,-9.103012084960938,-259,9961.0
10800,0.3535299301147461,-2.731949806213379,17,6524.0,-6.774867057800293,-51,9961.0
10810,0.35277244448661804,0.9699909090995789,0,6524.0,-3.292167901992798,-210,9961.0
10820,0.3529776632785797,0.6049469709396362,-93,6524.0,-1.6896852254867554,50,9961.0
10830,0.35319983959198,1.0114268064498901,150,6524.0,-2.779613971710205,32,9961.0
10840,0.3534321188926697,-1.3834933042526245,-29,6524.0,6.278905868530273,49,9961.0
10850,0.35179197788238525,-1.8346068859100342,8,6524.0,8.071209907531738,166,9961.0
10860,0.35184046626091003,-0.9650599360466003,-33,6524.0,9.586716651916504,-48,9961.0
10870,0.35193902254104614,-3.5153818130493164,-109,6524.0,10.217949867248535,132,9961.0
10880,0.3520020544528961,-1.946820616722107,51,6524.0,5.991490364074707,91,9961.0
10890,0.3520779311656952,-2.798198699951172,-12,6524.0,3.2456085681915283,-95,9961.0
10900,0.3508978486061096,1.1396549940109253,97,6524.0,-2.451066493988037,-51,9961.0
10910,0.35093143582344055,4.62483024597168,66,6524.0,-6.204269886016846,-272,9961.0
10920,0.350974440574646,3.331080675125122,2,6524.0,-9.81075668334961,-145,9961.0
10930,0.3510165810585022,5.885215759277344,175,6524.0,3.0438425540924072,17,9961.0
10940,0.3514254689216614,2.63769268989563,2,6524.0,-2.677849769592285,-56,9961.0
10950,0.35146984457969666,1.8067697286605835,46,6524.0,-1.0799561738967896,157,9961.0
10960,0.35152095556259155,1.4969316720962524,-118,6524.0,5.647252559661865,-89,9961.0
10970,0.35156169533729553,0.6663811802864075,108,6524.0,5.878316879272461,274,9961.0
10980,0.35157278180122375,-0.9233418703079224,-71,6524.0,9.278836250305176,112,9961.0
10990,0.34975987672805786,-0.36635667085647583,-5,6524.0,10.281665802001953,241,9961.0
11000,0.3496888279914856,-1.022917628288269,-12,6524.0,9.243271827697754,-15,9961.0
11010,0.3495798110961914,-0.9839764833450317,-156,6524.0,4.755514621734619,150,9961.0
11020,0.34945550560951233,0.8543176651000977,169,6524.0,-0.06150427833199501,35,9961.0
11030,0.3479368984699249,1.1569734811782837,6,6524.0,0.2248847782611847,-60,9961.0
11040,0.3477116823196411,-0.015316554345190525,40,6524.0,0.8565740585327148,87,9961.0
11050,0.3474430739879608,1.0903470516204834,13,6524.0,1.503443717956543,-85,9961.0
11060,0.34719187021255493,1.1153056621551514,-85,6524.0,2.0020391941070557,94,9961.0
11070,0.3461899161338806,-3.6974282264709473,51,6524.0,-1.2334420680999756,107,9961.0
11080,0.3459225594997406,1.5317552089691162,-35,6524.0,1.2618536949157715,-58,9961.0
11090,0.34563425183296204,-0.8162598609924316,-3,6524.0,7.323204517364502,205,9961.0
11100,0.3453385531902313,1.7038556337356567,104,6524.0,7.670271396636963,75,9961.0
11110,0.34510135650634766,5.204065322875977,-64,6524.0,5.664121627807617,121,9961.0
11120,0.3444082736968994,3.058856248855591,146,6524.0,11.31248664855957,492,9961.0
11130,0.3441601097583771,3.4825353622436523,197,6524.0,9.632299423217773,112,9961.0
11140,0.3440501093864441,4.329002857208252,-6,6524.0,3.3294100761413574,-34,9961.0
11150,0.34388288855552673,2.414029836654663,91,6524.0,-0.9243431091308594,63,9961.0
11160,0.34501391649246216,2.4562132358551025,32,6524.0,-5.690155506134033,-238,9961.0
11170,0.34498101472854614,1.5602188110351562,-143,6524.0,-7.57900857925415,-147,9961.0
11180,0.3450109362602234,-1.4459031820297241,21,6524.0,-6.553807735443115,-59,9961.0
11190,0.34504684805870056,-1.771744728088379,15,6524.0,-10.037339210510254,-189,9961.0
11200,0.3451339900493622,-0.9567411541938782,-85,6524.0,-7.1594133377075195,-105,9961.0
11210,0.344358891248703,-0.7699168920516968,90,6524.0,-4.799320697784424,35,9961.0
11220,0.3444279432296753,-1.2927789688110352,-51,6524.0,2.733696699142456,-92,9961.0
11230,0.3445611596107483,1.8200271129608154,-46,6524.0,-2.892364501953125,76,9961.0
11240,0.3446989953517914,-1.7534664869308472,46,6524.0,7.0767645835876465,136,9961.0
11250,0.34336057305336,-2.359459638595581,-63,6524.0,8.679706573486328,69,9961.0
11260,0.3433695435523987,-2.10541033744812,-115,6524.0,7.252373218536377,260,9961.0
11270,0.34332573413848877,-4.139739513397217,91,6524.0,5.156316757202148,89,9961.0
11280,0.34339460730552673,-4.1200056076049805,-59,6524.0,-0.4054710566997528,-178,9961.0
11290,0.344036340713501,-5.537497043609619,-152,6524.0,-5.671234607696533,-46,9961.0
11300,0.34408310055732727,-5.2923784255981445,-48,6524.0,-8.20844841003418,-97,9961.0
11310,0.3441064953804016,-3.2629148960113525,-130,6524.0,-9.813655853271484,-261,9961.0
11320,0.3441251218318939,-2.3389546871185303,-113,6524.0,-9.437466621398926,-54,9961.0
11330,0.34414851665496826,-2.9049453735351562,136,6524.0,-7.854501724243164,14,9961.0
11340,0.3453323245048523,0.6116530895233154,74,6524.0,-8.556135177612305,-139,9961.0
11350,0.3454880118370056,3.182140350341797,-2,6524.0,-1.4728724956512451,-10,9961.0
11360,0.345618337392807,1.6454880237579346,51,6524.0,-3.54521107673645,-47,9961.0
11370,0.34574875235557556,-0.9662809371948242,-42,6524.0,-2.1849746704101562,-276,9961.0
11380,0.34674957394599915,1.4056586027145386,-137,6524.0,1.1052093505859375,134,9961.0
11390,0.3469836711883545,0.5502032041549683,58,6524.0,2.3112103939056396,94,9961.0
11400,0.3472130596637726,1.7697875499725342,7,6524.0,1.4485843181610107,-14,9961.0
11410,0.3474118709564209,0.9216376543045044,-64,6524.0,2.6919174194335938,165,9961.0
11420,0.347594290971756,0.8008124828338623,168,6524.0,-0.4562760591506958,64,9961.0
11430,0.34834998846054077,-0.09304431825876236,-82,6524.0,-2.1266703605651855,-192,9961.0
11440,0.34857070446014404,-2.5813019275665283,-74,6524.0,-4.719144344329834,-129,9961.0
11450,0.3487963080406189,-2.366633892059326,-3,6524.0,-4.945340633392334,-143,9961.0
11460,0.3490123152732849,-2.133831262588501,-120,6524.0,-8.707133293151855,-187,9961.0
11470,0.3500591516494751,-3.758458137512207,8,6524.0,-4.709578514099121,142,9961.0
11480,0.35033297538757324,-2.5740537643432617,62,6524.0,-0.09466821700334549,-7,9961.0
11490,0.35062190890312195,1.143011450767517,-53,6524.0,0.22302956879138947,-75,9961.0
11500,0.35091984272003174,-2.192431926727295,39,6524.0,2.952439308166504,124,9961.0
11510,0.3527248799800873,2.6755354404449463,30,6524.0,3.341702938079834,-111,9961.0
11520,0.3530794680118561,3.4091668128967285,-38,6524.0,0.013037161901593208,88,9961.0
11530,0.3534281551837921,2.6537749767303467,176,6524.0,4.442120552062988,-138,9961.0
11540,0.3537692427635193,3.6269137859344482,-12,6524.0,3.623539447784424,55,9961.0
11550,0.35411736369132996,2.6369690895080566,80,6524.0,1.1968214511871338,-3,9961.0
11560,0.35521164536476135,2.1010098457336426,-48,6524.0,0.8795037269592285,-49,9961.0
11570,0.35563400387763977,3.230320930480957,77,6524.0,-4.932825565338135,75,9961.0
11580,0.356040894985199,0.6059052348136902,79,6524.0,-4.707998752593994,-149,9961.0
11590,0.3564114570617676,3.8527228832244873,0,6524.0,-2.881035089492798,-65,9961.0
11600,0.35645365715026855,2.640716314315796,55,6524.0,-0.30579760670661926,0,9961.0
11610,0.35676634311676025,3.550773859024048,-64,6524.0,0.011762158945202827,-13,9961.0
11620,0.3570900559425354,3.260369062423706,93,6524.0,-0.49663639068603516,253,9961.0
11630,0.35734954476356506,3.5311808586120605,119,6524.0,-0.5435165166854858,-57,9961.0
11640,0.35755273699760437,3.9754419326782227,20,6524.0,0.4305099546909332,50,9961.0
11650,0.35710278153419495,4.779735565185547,91,6524.0,4.487607955932617,-105,9961.0
11660,0.3572414219379425,3.3748269081115723,-87,6524.0,1.6197614669799805,70,9961.0
11670,0.35730481147766113,-0.11221089959144592,159,6524.0,4.478991985321045,11,9961.0
11680,0.357276976108551,-0.8585132360458374,-45,6524.0,3.263071060180664,-5,9961.0
11690,0.3574887812137604,-3.3122472763061523,-8,6524.0,-2.897188186645508,-52,9961.0
11700,0.3574168086051941,-3.072824001312256,-169,6524.0,-4.962794303894043,-216,9961.0
11710,0.3572608530521393,-6.178830623626709,-170,6524.0,-7.069718360900879,107,9961.0
11720,0.35710716247558594,-6.988602638244629,-15,6524.0,-4.5247111320495605,-90,9961.0
11730,0.35694387555122375,-4.763092994689941,-112,6524.0,-4.790457725524902,-33,9961.0
11740,0.35668042302131653,-2.032196521759033,61,6524.0,-7.404481887817383,-135,9961.0
11750,0.3564543128013611,-4.904696464538574,-150,6524.0,-2.7360169887542725,-197,9961.0
11760,0.35614389181137085,-3.3472654819488525,-12,6524.0,-4.166171073913574,12,9961.0
11770,0.3557724058628082,-1.3622117042541504,-31,6524.0,-5.47575569152832,-149,9961.0
11780,0.3559449017047882,-2.5062389373779297,-50,6524.0,-6.156655311584473,27,9961.0
11790,0.35551178455352783,-4.165231227874756,71,6524.0,-5.290733337402344,-169,9961.0
11800,0.35519397258758545,-3.809378147125244,-192,6524.0,-9.96585750579834,-217,9961.0
11810,0.3548542559146881,-6.229385852813721,-76,6524.0,-11.764496803283691,-108,9961.0
11820,0.3561420738697052,-5.100316047668457,-90,6524.0,-6.749384880065918,-229,9961.0
11830,0.3558940291404724,-3.9782276153564453,-59,6524.0,-3.0741305351257324,145,9961.0
11840,0.35567960143089294,-2.640587091445923,63,6524.0,2.7813971042633057,37,9961.0
11850,0.3554854393005371,-0.5274103283882141,-36,6524.0,5.881063461303711,174,9961.0
11860,0.3552970886230469,0.4261971116065979,143,6524.0,5.676575183868408,137,9961.0
11870,0.354962021112442,2.7103066444396973,-5,6524.0,2.8495311737060547,-59,9961.0
11880,0.35473358631134033,1.8147560358047485,-5,6524.0,1.2190676927566528,106,9961.0
11890,0.35453468561172485,-1.1499592065811157,24,6524.0,1.422096848487854,-113,9961.0
11900,0.3543858528137207,-1.5490293502807617,-111,6524.0,-3.9471001625061035,52,9961.0
11910,0.35410550236701965,-2.893993377685547,113,6524.0,-6.663487911224365,-72,9961.0
11920,0.3539777994155884,-1.879644513130188,-34,6524.0,-7.36069917678833,-155,9961.0
11930,0.3538801968097687,-0.36922168731689453,30,6524.0,-5.434581756591797,19,9961.0
11940,0.3538036346435547,1.4845679998397827,3,6524.0,-2.864407777786255,-242,9961.0
11950,0.3530197739601135,0.27026206254959106,-20,6524.0,1.5905556678771973,110,9961.0
11960,0.35289129614830017,-1.1249438524246216,-49,6524.0,5.306318759918213,15,9961.0
11970,0.3527223765850067,-4.100377082824707,-173,6524.0,9.05373477935791,232,9961.0
11980,0.3525678217411041,-3.180649995803833,113,6524.0,2.093346118927002,64,9961.0
11990,0.3524201512336731,-6.778521537780762,-141,6524.0,7.838294506072998,96,9961.0
12000,0.3525186777114868,-7.004560947418213,-8,6524.0,0.5395135879516602,64,9961.0
12010,0.35239261388778687,-4.9765729904174805,-174,6524.0,5.6074347496032715,-198,9961.0
12020,0.352315753698349,-6.147407531738281,-118,6524.0,0.6745657920837402,23,9961.0
12030,0.35226893424987793,-3.881791591644287,-47,6524.0,-1.3676440715789795,-90,9961.0
12040,0.35255926847457886,-3.766749858856201,-140,6524.0,-1.5930590629577637,55,9961.0
12050,0.35260146856307983,-3.556466817855835,141,6524.0,1.2547861337661743,127,9961.0
12060,0.35267162322998047,-3.1279449462890625,-34,6524.0,4.088029861450195,21,9961.0
12070,0.35277464985847473,-1.5728541612625122,34,6524.0,6.138067245483398,186,9961.0
12080,0.35288316011428833,-0.8175410032272339,-32,6524.0,8.857112884521484,-64,9961.0
12090,0.3534139096736908,-2.4980742931365967,-84,6524.0,6.7857441902160645,161,9961.0
12100,0.3535121977329254,-3.274015426635742,5,6524.0,7.39363431930542,116,9961.0
12110,0.3536260426044464,-1.474380612373352,-89,6524.0,3.413710117340088,56,9961.0
12120,0.3537568747997284,-2.4796841144561768,106,6524.0,3.670435667037964,102,9961.0
12130,0.3539642095565796,0.53172367811203,-4,6524.0,0.1576177179813385,-87,9961.0
12140,0.3540826439857483,3.4645943641662598,-18,6524.0,0.9071924686431885,65,9961.0
12150,0.354205846786499,2.032860279083252,-6,6524.0,2.661240577697754,36,9961.0
12160,0.35431596636772156,4.040716171264648,122,6524.0,5.612117290496826,285,9961.0
12170,0.3542490005493164,2.327104091644287,140,6524.0,1.496289849281311,-134,9961.0
12180,0.35434651374816895,2.7235984802246094,17,6524.0,5.726505279541016,17,9961.0
12190,0.35442423820495605,6.9157586097717285,121,6524.0,6.8545613288879395,91,9961.0
12200,0.3544710874557495,6.938318729400635,-14,6524.0,3.5269041061401367,-35,9961.0
12210,0.354458749294281,5.2464518547058105,71,6524.0,0.11204344034194946,180,9961.0
12220,0.3538810610771179,1.6790603399276733,74,6524.0,-0.5965646505355835,-62,9961.0
12230,0.3538292944431305,0.9269297122955322,-25,6524.0,1.024387240409851,58,9961.0
12240,0.3537243604660034,0.4571152329444885,134,6524.0,-0.18994875252246857,-102,9961.0
12250,0.3535938262939453,1.0884900093078613,-97,6524.0,1.591796875,-61,9961.0
12260,0.3525092601776123,3.91912579536438,89,6524.0,4.433211803436279,182,9961.0
12270,0.3523627817630768,4.991195201873779,89,6524.0,3.6545443534851074,-2,9961.0
12280,0.35220345854759216,5.407186031341553,18,6524.0,3.925546169281006,141,9961.0
12290,0.3520382344722748,4.834997177124023,259,6524.0,1.9080885648727417,64,9961.0
12300,0.3518702983856201,1.99012291431427,-20,6524.0,2.6555843353271484,-113,9961.0
12310,0.35257136821746826,2.5595524311065674,45,6524.0,-0.17639292776584625,42,9961.0
12320,0.352406769990921,1.056947112083435,59,6524.0,3.7367348670959473,-5,9961.0
12330,0.35228049755096436,3.109898090362549,-32,6524.0,0.18305975198745728,-92,9961.0
12340,0.35215839743614197,2.592176675796509,57,6524.0,-1.9031542539596558,216,9961.0
12350,0.3516072928905487,5.24078893661499,175,6524.0,2.0887064933776855,-28,9961.0
12360,0.3515338599681854,6.292407035827637,49,6524.0,3.470853805541992,42,9961.0
12370,0.35147079825401306,6.256192207336426,155,6524.0,-1.855342149734497,19,9961.0
12380,0.35141968727111816,5.092341899871826,43,6524.0,2.324157238006592,-236,9961.0
12390,0.3500562608242035,5.553873062133789,0,6524.0,-4.171393871307373,-29,9961.0
12400,0.3499926030635834,3.1739799976348877,150,6524.0,-2.7918577194213867,-12,9961.0
12410,0.3499166667461395,2.7006635665893555,-83,6524.0,1.1128467321395874,-38,9961.0
12420,0.34984639286994934,-0.6547969579696655,45,6524.0,0.6294397711753845,209,9961.0
12430,0.3498188257217407,-4.463601589202881,99,6524.0,0.8879486918449402,-45,9961.0
12440,0.3494678735733032,-1.284354329109192,-102,6524.0,1.5070490837097168,1,9961.0
12450,0.34940728545188904,-2.904068946838379,47,6524.0,-0.813898503780365,25,9961.0
12460,0.349333256483078,-1.3894425630569458,-61,6524.0,-1.6690661907196045,-242,9961.0
12470,0.3492475152015686,2.781423330307007,-198,6524.0,-2.943045139312744,178,9961.0
12480,0.3494129776954651,-7.168967247009277,17,6524.0,1.0691499710083008,-6,9961.0
12490,0.3492875397205353,-2.337662935256958,-59,6524.0,-2.984358549118042,-142,9961.0
12500,0.34918203949928284,0.8139018416404724,40,6524.0,-3.852350950241089,57,9961.0
12510,0.34906649589538574,-0.2099432349205017,180,6524.0,-1.7493776082992554,-68,9961.0
12520,0.34894895553588867,3.2188899517059326,-4,6524.0,-0.21220220625400543,-119,9961.0
12530,0.34844619035720825,4.631197452545166,94,6524.0,0.7983115911483765,68,9961.0
12540,0.3483295738697052,5.502660751342773,83,6524.0,-3.1753132343292236,-143,9961.0
12550,0.348245769739151,3.358222246170044,-52,6524.0,-0.8622125387191772,-23,9961.0
12560,0.3482241630554199,3.0590622425079346,100,6524.0,-10.153915405273438,-3,9961.0
12570,0.3473372459411621,2.8837432861328125,5,6524.0,-3.4879508018493652,-167,9961.0
12580,0.3473399579524994,-2.616163730621338,-75,6524.0,-2.08734393119812,100,9961.0
12590,0.34740227460861206,-2.775322198867798,107,6524.0,-3.042487144470215,-72,9961.0
12600,0.34756115078926086,-1.3088628053665161,-150,6524.0,3.06624698638916,-20,9961.0
12610,0.34772616624832153,-2.509939193725586,-66,6524.0,3.9141526222229004,93,9961.0
12620,0.34970518946647644,-1.274999976158142,-6,6524.0,-3.387230157852173,-103,9961.0
12630,0.35002174973487854,-2.308572292327881,-133,6524.0,-0.8833227157592773,-26,9961.0
12640,0.3504312336444855,-3.580695867538452,-15,6524.0,-0.14625319838523865,77,9961.0
12650,0.35087600350379944,-0.13968147337436676,-2,6524.0,-4.028707504272461,-88,9961.0
12660,0.3526254892349243,-0.5631967782974243,-31,6524.0,-4.687116622924805,6,9961.0
12670,0.353161484003067,1.9777414798736572,133,6524.0,-2.2531473636627197,-49,9961.0
12680,0.3537833094596863,2.5630855560302734,-26,6524.0,-1.9526002407073975,-163,9961.0
12690,0.3543674945831299,3.2075436115264893,69,6524.0,-2.510589599609375,32,9961.0
12700,0.3543989062309265,4.309617519378662,75,6524.0,1.960775375366211,-77,9961.0
12710,0.35492217540740967,4.690932750701904,-27,6524.0,3.9639573097229004,90,9961.0
12720,0.3554103374481201,3.934026002883911,191,6524.0,7.960082054138184,161,9961.0
12730,0.35588759183883667,3.108307361602783,28,6524.0,7.821627616882324,31,9961.0
12740,0.3563401699066162,4.482394218444824,87,6524.0,4.619058609008789,-14,9961.0
12750,0.355421781539917,0.04656793922185898,-129,6524.0,6.782468318939209,7,9961.0
12760,0.35574468970298767,-0.8955432772636414,20,6524.0,0.8597385883331299,126,9961.0
12770,0.35604119300842285,-0.5661929845809937,58,6524.0,0.042274367064237595,-96,9961.0
12780,0.35632845759391785,3.4362783432006836,111,6524.0,-3.2163045406341553,5,9961.0
12790,0.3556238114833832,4.698572635650635,178,6524.0,-6.1101393699646,-224,9961.0
12800,0.3557639718055725,2.2974205017089844,-133,6524.0,-0.7913124561309814,-81,9961.0
12810,0.35591959953308105,3.3822667598724365,164,6524.0,-1.8102021217346191,-39,9961.0
12820,0.3560706675052643,3.374342441558838,-2,6524.0,-2.6974129676818848,-120,9961.0
12830,0.35619980096817017,3.94101881980896,185,6524.0,0.07701471447944641,83,9961.0
12840,0.35578984022140503,2.9369611740112305,89,6524.0,-0.9936448335647583,-270,9961.0
12850,0.35580146312713623,0.604368269443512,-35,6524.0,3.4486615657806396,74,9961.0
12860,0.3558022081851959,2.315457344055176,27,6524.0,7.439565658569336,51,9961.0
12870,0.35578471422195435,2.0082852840423584,-86,6524.0,10.249774932861328,178,9961.0
12880,0.35702261328697205,-0.845592737197876,99,6524.0,8.709774017333984,300,9961.0
12890,0.35700473189353943,-1.8059659004211426,-22,6524.0,9.245009422302246,138,9961.0
12900,0.3569580912590027,-2.036349058151245,-39,6524.0,3.2284133434295654,163,9961.0
12910,0.35689619183540344,-3.3035171031951904,-65,6524.0,4.482799530029297,-121,9961.0
12920,0.35732677578926086,-0.5808203816413879,-158,6524.0,-2.3850674629211426,-5,9961.0
12930,0.3572979271411896,-3.5021297931671143,16,6524.0,-9.390934944152832,-134,9961.0
12940,0.35727569460868835,-8.250990867614746,-158,6524.0,-2.7373788356781006,31,9961.0
12950,0.3572424650192261,-9.306648254394531,-124,6524.0,-0.633286714553833,84,9961.0
12960,0.3572044372558594,-4.900227069854736,-134,6524.0,1.2708534002304077,-153,9961.0
12970,0.3566672205924988,-7.106269359588623,-130,6524.0,3.7671585083007812,137,9961.0
12980,0.3567582666873932,-2.1052098274230957,117,6524.0,1.9075744152069092,49,9961.0
12990,0.3566649258136749,-4.306819438934326,-129,6524.0,-2.7887110710144043,-55,9961.0
13000,0.356665700674057,-2.742496967315674,-25,6524.0,2.904249906539917,87,9961.0
13010,0.3563232123851776,-3.6039788722991943,-87,6524.0,1.035436987876892,-142,9961.0
13020,0.3563295900821686,-4.240284442901611,-75,6524.0,-5.455684185028076,102,9961.0
13030,0.35628262162208557,-3.970940589904785,-44,6524.0,-6.377162456512451,-72,9961.0
13040,0.3562893569469452,-3.0593602657318115,-101,6524.0,-5.034972667694092,-111,9961.0
13050,0.3565274775028229,-2.2250144481658936,29,6524.0,-2.536851644515991,-55,9961.0
13060,0.3564741313457489,1.340447187423706,-99,6524.0,-1.2532007694244385,-64,9961.0
13070,0.35641759634017944,2.1027166843414307,162,6524.0,4.281533718109131,74,9961.0
13080,0.35637181997299194,-0.8571135401725769,3,6524.0,4.38006591796875,-126,9961.0
13090,0.35627466440200806,0.1747877448797226,-83,6524.0,4.61025333404541,123,9961.0
13100,0.3551258146762848,0.5451433658599854,-9,6524.0,3.1419811248779297,-58,9961.0
13110,0.3551257252693176,-1.0642756223678589,-68,6524.0,-2.161435842514038,81,9961.0
13120,0.35488563776016235,-1.6282545328140259,77,6524.0,-4.6785407066345215,-177,9961.0
13130,0.35488277673721313,-2.723999261856079,-185,6524.0,-5.47098970413208,-147,9961.0
13140,0.35475075244903564,-4.077465534210205,-30,6524.0,-7.132216930389404,-140,9961.0
13150,0.3547542989253998,-5.39504337310791,-105,6524.0,-4.381176948547363,-82,9961.0
13160,0.35474005341529846,-3.3100595474243164,-12,6524.0,-6.712984561920166,67,9961.0
13170,0.3547361195087433,-2.6667354106903076,-94,6524.0,-1.5278968811035156,-189,9961.0
13180,0.35480260848999023,-5.668914794921875,-132,6524.0,1.0614972114562988,144,9961.0
13190,0.3557007312774658,-0.6056715846061707,52,6524.0,-0.21391506493091583,68,9961.0
13200,0.3557530641555786,-0.19031931459903717,-9,6524.0,5.455607891082764,94,9961.0
13210,0.35584455728530884,1.445087194442749,144,6524.0,0.40260446071624756,16,9961.0
13220,0.3560976982116699,2.060387134552002,-153,6524.0,-1.2344416379928589,-88,9961.0
13230,0.3569180965423584,-3.11146879196167,-7,6524.0,-0.14017954468727112,230,9961.0
13240,0.35703548789024353,-3.2648873329162598,-1,6524.0,-2.2235686779022217,-133,9961.0
13250,0.35726216435432434,0.46051985025405884,16,6524.0,-5.7049560546875,-19,9961.0
13260,0.35741114616394043,2.664574146270752,63,6524.0,-4.884206771850586,-177,9961.0
13270,0.3576987683773041,1.7161506414413452,-40,6524.0,-8.52741527557373,-14,9961.0
13280,0.35784611105918884,0.353411465883255,158,6524.0,-9.820611000061035,-153,9961.0
13290,0.35803332924842834,1.1644831895828247,-29,6524.0,-7.41024112701416,-84,9961.0
13300,0.3582421839237213,0.4428536593914032,37,6524.0,-2.057114839553833,-17,9961.0
13310,0.358432412147522,-0.8721312880516052,-91,6524.0,0.8124189376831055,91,9961.0
13320,0.357170969247818,-0.8556546568870544,148,6524.0,7.021660327911377,104,9961.0
13330,0.3572637438774109,-1.5963444709777832,-85,6524.0,6.527062892913818,242,9961.0
13340,0.35743439197540283,-3.695857048034668,-94,6524.0,12.03255558013916,125,9961.0
13350,0.35759463906288147,-3.823657989501953,-21,6524.0,10.186473846435547,312,9961.0
13360,0.35747846961021423,-5.726899147033691,-23,6524.0,11.083521842956543,-30,9961.0
13370,0.35761740803718567,-3.124852418899536,-142,6524.0,7.4127020835876465,91,9961.0
13380,0.3577527701854706,-3.220118999481201,-9,6524.0,-1.1055383682250977,-22,9961.0
13390,0.3578842580318451,-1.033160924911499,-56,6524.0,-6.508028030395508,-51,9961.0
13400,0.3580646514892578,-1.0663319826126099,97,6524.0,-8.310043334960938,-120,9961.0
13410,0.3560985028743744,0.03459317237138748,-173,6524.0,-13.3425874710083,-294,9961.0
13420,0.35605254769325256,-0.8363422155380249,44,6524.0,-15.135091781616211,-17,9961.0
13430,0.3559935390949249,0.04643537104129791,23,6524.0,-8.446736335754395,-128,9961.0
13440,0.35585924983024597,0.9441876411437988,55,6524.0,-0.8978922963142395,158,9961.0
13450,0.35703614354133606,1.5327684879302979,-25,6524.0,-1.1051232814788818,-95,9961.0
13460,0.35694360733032227,1.6528475284576416,69,6524.0,8.112539291381836,203,9961.0
13470,0.3568122088909149,1.8584297895431519,44,6524.0,8.009572982788086,106,9961.0
13480,0.3566875159740448,-0.5956809520721436,17,6524.0,9.526666641235352,317,9961.0
13490,0.35670557618141174,-2.606135129928589,-46,6524.0,9.06009578704834,8,9961.0
13500,0.3565792739391327,-7.475391864776611,-167,6524.0,6.4257330894470215,93,9961.0
13510,0.35645386576652527,-4.586183071136475,41,6524.0,-2.949045419692993,20,9961.0
13520,0.35627758502960205,-3.648167371749878,-102,6524.0,2.113318920135498,-23,9961.0
13530,0.3560962677001953,-1.636374592781067,21,6524.0,-3.868135929107666,-12,9961.0
13540,0.356363981962204,1.0935269594192505,-23,6524.0,-2.780877113342285,-285,9961.0
13550,0.3562958836555481,1.2713191509246826,-73,6524.0,-6.614349365234375,-11,9961.0
13560,0.35622256994247437,0.3218243718147278,135,6524.0,-11.502618789672852,-193,9961.0
13570,0.3561531603336334,1.164707899093628,0,6524.0,-7.956142902374268,-46,9961.0
13580,0.3564177453517914,1.9129562377929688,151,6524.0,-4.636495113372803,-18,9961.0
13590,0.3563551604747772,1.9947314262390137,-110,6524.0,-6.327930927276611,-299,9961.0
13600,0.3562585711479187,1.412584900856018,-36,6524.0,1.100734829902649,169,9961.0
13610,0.3562611937522888,0.010035357438027859,-9,6524.0,7.105404853820801,85,9961.0
13620,0.35625094175338745,0.5069299936294556,33,6524.0,9.521530151367188,319,9961.0
13630,0.3557967245578766,0.4887422025203705,94,6524.0,12.184812545776367,92,9961.0
13640,0.3558046519756317,0.8097487688064575,-90,6524.0,6.80849552154541,112,9961.0
13650,0.3558138906955719,0.9437103271484375,42,6524.0,6.052369117736816,166,9961.0
13660,0.35583314299583435,1.946305751800537,-22,6524.0,1.9365870952606201,-21,9961.0
13670,0.35595589876174927,0.9306448698043823,98,6524.0,-0.6371878385543823,77,9961.0
13680,0.35595908761024475,1.7323318719863892,81,6524.0,-5.1528639793396,-235,9961.0
13690,0.3559490740299225,2.3967583179473877,-67,6524.0,-7.986789703369141,-88,9961.0
13700,0.3559889495372772,3.1994755268096924,120,6524.0,-4.141850471496582,-98,9961.0
13710,0.35528844594955444,3.055363178253174,-23,6524.0,-2.816831588745117,-17,9961.0
13720,0.355360746383667,1.0787726640701294,153,6524.0,-1.7337079048156738,24,9961.0
13730,0.3554748594760895,-0.028806893154978752,-109,6524.0,-0.01729666069149971,-99,9961.0
13740,0.355629026889801,-1.5363030433654785,-27,6524.0,1.0631340742111206,65,9961.0
13750,0.3558332622051239,-2.896510124206543,-124,6524.0,3.775254249572754,-60,9961.0
13760,0.35522884130477905,-2.4754598140716553,-20,6524.0,1.8934284448623657,251,9961.0
13770,0.35537824034690857,-3.3102164268493652,-49,6524.0,0.7183788418769836,-115,9961.0
13780,0.3555174767971039,-3.1713099479675293,-58,6524.0,0.08988888561725616,9,9961.0
13790,0.3556906282901764,-0.8716273903846741,24,6524.0,0.9568256735801697,-120,9961.0
13800,0.35556760430336,1.4772083759307861,-58,6524.0,-0.7809339165687561,116,9961.0
13810,0.35580554604530334,2.7967514991760254,130,6524.0,1.8057299852371216,-24,9961.0
13820,0.35599642992019653,5.855917453765869,-9,6524.0,0.5462709665298462,17,9961.0
13830,0.3561789095401764,4.342769622802734,98,6524.0,2.007474422454834,10,9961.0
13840,0.3563670516014099,3.330442190170288,6,6524.0,4.0082502365112305,127,9961.0
13850,0.35715579986572266,5.300618648529053,228,6524.0,4.802787780761719,-24,9961.0
13860,0.3573894500732422,2.096562147140503,-60,6524.0,0.6686738729476929,-68,9961.0
13870,0.3575834333896637,0.7183274030685425,12,6524.0,3.809055805206299,172,9961.0
13880,0.3577621579170227,-0.02583884261548519,-52,6524.0,-0.23925387859344482,-51,9961.0
13890,0.35683292150497437,-1.7410310506820679,65,6524.0,-1.063671588897705,149,9961.0
13900,0.357030987739563,-0.559902012348175,-114,6524.0,-0.8762935996055603,-58,9961.0
13910,0.3572133183479309,-2.9676353931427,72,6524.0,2.9857165813446045,71,9961.0
13920,0.357368141412735,-2.183300495147705,-85,6524.0,0.7707124352455139,-72,9961.0
13930,0.3561815023422241,-4.195967197418213,66,6524.0,-0.6354820728302002,-63,9961.0
13940,0.3562593460083008,-3.030416488647461,-244,6524.0,-3.030883312225342,-51,9961.0
13950,0.35633528232574463,-2.5436832904815674,10,6524.0,-0.7169222235679626,26,9961.0
13960,0.3563934862613678,-4.357200622558594,-79,6524.0,-2.7672669887542725,-33,9961.0
13970,0.3564211428165436,-2.8182930946350098,8,6524.0,-2.467663288116455,51,9961.0
13980,0.3558529317378998,-0.9092147946357727,-111,6524.0,1.7327847480773926,-144,9961.0
13990,0.355802059173584,0.43838152289390564,56,6524.0,-0.9715594053268433,85,9961.0
14000,0.3557763695716858,1.697272777557373,59,6524.0,1.1179097890853882,-59,9961.0
14010,0.3557562530040741,3.194098949432373,90,6524.0,1.9592692852020264,145,9961.0
14020,0.35584139823913574,2.2691104412078857,87,6524.0,2.7260069847106934,-140,9961.0
14030,0.3558400571346283,0.9779775738716125,-87,6524.0,4.868022918701172,75,9961.0
14040,0.35583871603012085,2.0653913021087646,129,6524.0,1.0624350309371948,50,9961.0
14050,0.3558677136898041,4.4759931564331055,11,6524.0,-1.023291826248169,1,9961.0
14060,0.3558975160121918,2.1187219619750977,137,6524.0,-0.8821009397506714,76,9961.0
14070,0.3559209406375885,3.4444234371185303,-85,6524.0,3.404984474182129,-31,9961.0
14080,0.35587024688720703,3.3709306716918945,-66,6524.0,-0.47317230701446533,189,9961.0
14090,0.3558275103569031,-0.7153651714324951,-51,6524.0,0.23937587440013885,-28,9961.0
14100,0.35578060150146484,-1.5872000455856323,-12,6524.0,-0.6886661052703857,191,9961.0
14110,0.35464683175086975,-6.487277984619141,-50,6524.0,0.049317922443151474,-123,9961.0
14120,0.354488343000412,-3.6518537998199463,-198,6524.0,-2.162360191345215,5,9961.0
14130,0.3543297052383423,-5.374128818511963,-1,6524.0,0.37826216220855713,-10,9961.0
14140,0.35415738821029663,-4.066311359405518,-115,6524.0,1.8972668647766113,-24,9961.0
14150,0.35400617122650146,-3.068232297897339,68,6524.0,6.474938869476318,21,9961.0
14160,0.35380426049232483,-1.3548288345336914,-64,6524.0,0.4184602200984955,-233,9961.0
14170,0.35360413789749146,0.9838098287582397,-43,6524.0,1.9428373575210571,80,9961.0
14180,0.35340315103530884,4.465001583099365,117,6524.0,4.3951005935668945,69,9961.0
14190,0.35322433710098267,6.4517316818237305,52,6524.0,2.701094388961792,67,9961.0
