timestamp,kalman.stateZ,gyro.x,gyro.xRaw,gyro.xVariance,gyro.y,gyro.yRaw,gyro.yVariance
0,0.25142207741737366,-0.10658968240022659,0,6524.0,0.08264179527759552,5,9961.0
10,0.2514345943927765,-0.188803032040596,4,6524.0,0.4358925521373749,6,9961.0
20,0.2516128420829773,-0.2208324670791626,-3,6524.0,0.31254979968070984,6,9961.0
30,0.2516050636768341,0.02720762975513935,2,6524.0,0.22867661714553833,6,9961.0
40,0.2516132593154907,-0.08296877890825272,1,6524.0,0.2371123731136322,3,9961.0
50,0.2516024708747864,0.11354527622461319,4,6524.0,0.17025263607501984,9,9961.0
60,0.25132736563682556,-0.06439986079931259,0,6524.0,0.38569870591163635,10,9961.0
70,0.2513018250465393,0.0862482562661171,8,6524.0,0.20571383833885193,-2,9961.0
80,0.2512727379798889,-0.17585612833499908,-4,6524.0,0.354493647813797,3,9961.0
90,0.25124526023864746,-0.12633143365383148,-5,6524.0,0.24296315014362335,0,9961.0
100,0.25136107206344604,-0.013797368854284286,4,6524.0,0.11679106950759888,-2,9961.0
110,0.25157272815704346,0.0864168256521225,5,6524.0,-0.028172146528959274,3,9961.0
120,0.2515776753425598,-0.04033698886632919,7,6524.0,0.07256322354078293,-5,9961.0
130,0.25166356563568115,0.1213551014661789,0,6524.0,0.13823124766349792,5,9961.0
140,0.25172215700149536,0.11820366978645325,7,6524.0,-0.10600031912326813,-7,9961.0
150,0.2511887550354004,0.08881350606679916,3,6524.0,-0.013507998548448086,-4,9961.0
160,0.25120025873184204,-0.18694792687892914,-1,6524.0,-0.038347650319337845,5,9961.0
170,0.2511795461177826,-0.16957753896713257,0,6524.0,-0.3192552626132965,-5,9961.0
180,0.2511574923992157,-0.27871909737586975,-5,6524.0,-0.21756960451602936,-10,9961.0
190,0.2510945498943329,0.609124481678009,15,6524.0,-1.129154086112976,-18,9961.0
200,0.2510787546634674,1.4670641422271729,17,6524.0,-1.5937647819519043,-28,9961.0
210,0.2512127459049225,1.566382884979248,26,6524.0,-2.1553637981414795,-21,9961.0
220,0.25122109055519104,4.344537258148193,60,6524.0,-4.411007404327393,-69,9961.0
230,0.25125372409820557,5.416017055511475,146,6524.0,-4.513906955718994,-123,9961.0
240,0.25319695472717285,5.895934104919434,172,6524.0,-4.9052839279174805,-138,9961.0
250,0.25333142280578613,6.362712383270264,190,6524.0,-5.052364349365234,-145,9961.0
260,0.253559410572052,7.170221328735352,194,6524.0,-5.406181812286377,-114,9961.0
270,0.2537059485912323,9.133907318115234,145,6524.0,-7.273051738739014,-66,9961.0
280,0.2535410225391388,6.360432147979736,59,6524.0,-5.247344017028809,30,9961.0
290,0.25366735458374023,6.790870666503906,119,6524.0,2.047301769256592,-93,9961.0
300,0.25376570224761963,4.135996341705322,15,6524.0,-0.29737693071365356,89,9961.0
310,0.25387489795684814,1.5339428186416626,56,6524.0,2.757483959197998,-46,9961.0
320,0.25404706597328186,0.27936336398124695,-71,6524.0,1.7957594394683838,145,9961.0
330,0.2537367641925812,-1.320616364479065,44,6524.0,4.864438533782959,17,9961.0
340,0.2538810670375824,-0.08741309493780136,-47,6524.0,3.4398810863494873,102,9961.0
350,0.25402212142944336,0.8822019100189209,16,6524.0,1.6697344779968262,170,9961.0
360,0.25414860248565674,1.256947636604309,92,6524.0,2.6839728355407715,-78,9961.0
370,0.2541923522949219,2.1301143169403076,72,6524.0,3.299499988555908,-93,9961.0
380,0.2542962431907654,3.4773404598236084,12,6524.0,0.14166462421417236,90,9961.0
390,0.2543782889842987,3.8885724544525146,14,6524.0,-2.607940673828125,127,9961.0
400,0.2544475495815277,2.805957317352295,55,6524.0,-3.1359832286834717,-33,9961.0
410,0.25278326869010925,1.8428906202316284,73,6524.0,-2.1871628761291504,-150,9961.0
420,0.25278761982917786,0.12154160439968109,69,6524.0,-1.2102723121643066,-183,9961.0
430,0.2527846395969391,-2.2917909622192383,23,6524.0,0.30572834610939026,-123,9961.0
440,0.25278186798095703,-0.35012879967689514,30,6524.0,-0.8122962713241577,16,9961.0
450,0.2528672516345978,-1.990512490272522,-32,6524.0,-0.9243172407150269,90,9961.0
460,0.2528360188007355,-1.3956586122512817,3,6524.0,1.055853247642517,156,9961.0
470,0.2527678906917572,-2.8469936847686768,28,6524.0,1.720537543296814,278,9961.0
480,0.2526571750640869,-0.5601983666419983,-4,6524.0,0.39262405037879944,246,9961.0
490,0.2524702250957489,1.876603364944458,-4,6524.0,3.489873170852661,240,9961.0
500,0.25327253341674805,2.2192389965057373,-18,6524.0,6.078705310821533,256,9961.0
510,0.2530023753643036,2.971766233444214,-50,6524.0,4.594677925109863,279,9961.0
520,0.2525835633277893,2.7755684852600098,-55,6524.0,5.747795104980469,245,9961.0
530,0.25225722789764404,2.3895137310028076,-110,6524.0,4.140163898468018,151,9961.0
540,0.25221753120422363,1.3507118225097656,-64,6524.0,2.1214706897735596,86,9961.0
550,0.25190407037734985,-0.5575174689292908,33,6524.0,2.177259922027588,13,9961.0
560,0.25147438049316406,-0.44718796014785767,63,6524.0,0.7624337077140808,-116,9961.0
570,0.2510262429714203,-2.40407395362854,-40,6524.0,-0.6995616555213928,-140,9961.0
580,0.25073397159576416,-0.8444939255714417,-6,6524.0,-3.6503615379333496,-91,9961.0
590,0.2519318163394928,-1.1532105207443237,80,6524.0,-3.0089757442474365,-130,9961.0
600,0.25190818309783936,-1.9306976795196533,3,6524.0,-4.472492694854736,-177,9961.0
610,0.2518163025379181,-1.4749449491500854,30,6524.0,-3.965209484100342,20,9961.0
620,0.2516595423221588,-0.6482354998588562,-129,6524.0,-2.442549228668213,183,9961.0
630,0.25282934308052063,-1.6696358919143677,-75,6524.0,0.4451513886451721,68,9961.0
640,0.252712607383728,-0.7486810088157654,-12,6524.0,3.34120774269104,-154,9961.0
650,0.2526095509529114,-0.47984036803245544,105,6524.0,4.047680854797363,13,9961.0
660,0.2525627613067627,-0.16817884147167206,22,6524.0,5.795821666717529,115,9961.0
670,0.2539438307285309,1.4232453107833862,15,6524.0,4.425166130065918,103,9961.0
680,0.2540794909000397,0.8798942565917969,2,6524.0,4.504336833953857,169,9961.0
690,0.2541775703430176,1.4977823495864868,-56,6524.0,2.219120502471924,178,9961.0
700,0.2541291117668152,-1.6615545749664307,-65,6524.0,3.1411335468292236,-152,9961.0
710,0.25414109230041504,0.4928252398967743,85,6524.0,0.1963745653629303,-72,9961.0
720,0.25380024313926697,-1.3927632570266724,66,6524.0,-0.5706185102462769,59,9961.0
730,0.254006564617157,-0.9470985531806946,-128,6524.0,-1.1411482095718384,143,9961.0
740,0.25426313281059265,-0.5938936471939087,-69,6524.0,-1.395062804222107,-71,9961.0
750,0.25452643632888794,-1.4133304357528687,27,6524.0,-1.1302857398986816,-187,9961.0
760,0.2558062672615051,0.22391919791698456,45,6524.0,-3.685852289199829,14,9961.0
770,0.2562573552131653,2.1106820106506348,-3,6524.0,-2.207895278930664,21,9961.0
780,0.2568189799785614,1.065339207649231,9,6524.0,-1.4749864339828491,-25,9961.0
790,0.25747841596603394,0.652578592300415,-41,6524.0,0.35280102491378784,34,9961.0
800,0.25650033354759216,0.956137478351593,57,6524.0,1.5099009275436401,-196,9961.0
810,0.25705912709236145,0.8299016952514648,71,6524.0,0.5545898675918579,161,9961.0
820,0.25755468010902405,0.4970929026603699,-92,6524.0,1.846508502960205,183,9961.0
830,0.257978618144989,-0.9819695949554443,-77,6524.0,3.3473916053771973,-10,9961.0
840,0.2583674490451813,-1.9621416330337524,61,6524.0,4.509337425231934,-55,9961.0
850,0.2586497962474823,-1.9479665756225586,-24,6524.0,1.7884297370910645,96,9961.0
860,0.25901100039482117,-2.808051347732544,-52,6524.0,0.7355179190635681,35,9961.0
870,0.25933945178985596,-1.5555583238601685,9,6524.0,0.5875058770179749,-87,9961.0
880,0.2595309317111969,-1.0457000732421875,-35,6524.0,0.8515104055404663,0,9961.0
890,0.2585909962654114,1.077032208442688,113,6524.0,-1.3639196157455444,-37,9961.0
900,0.2585563361644745,0.9957222938537598,-19,6524.0,-2.294323444366455,112,9961.0
910,0.2583718001842499,5.402924060821533,37,6524.0,-4.995337963104248,-211,9961.0
920,0.25811487436294556,4.113720893859863,181,6524.0,-2.8631088733673096,-106,9961.0
930,0.25786563754081726,3.498291254043579,7,6524.0,-4.068275451660156,119,9961.0
940,0.257700651884079,2.538923740386963,-37,6524.0,-1.5899035930633545,-112,9961.0
950,0.2575021982192993,0.9522338509559631,84,6524.0,-1.5478872060775757,-14,9961.0
960,0.25735169649124146,-0.4328419864177704,-35,6524.0,-1.6149988174438477,-41,9961.0
970,0.2572314441204071,-1.452622890472412,-52,6524.0,-0.8224161863327026,85,9961.0
980,0.25742286443710327,-2.2368528842926025,-90,6524.0,-0.09658370912075043,-112,9961.0
990,0.257344126701355,-3.725510597229004,66,6524.0,-1.721238374710083,-20,9961.0
1000,0.257334440946579,-2.5269763469696045,-119,6524.0,-0.6083646416664124,138,9961.0
1010,0.2573823034763336,-3.312519073486328,-52,6524.0,0.5641083717346191,-168,9961.0
1020,0.25743597745895386,-2.0795135498046875,-60,6524.0,-0.023302793502807617,77,9961.0
1030,0.25767967104911804,-0.007420373149216175,-107,6524.0,-0.6475311517715454,-53,9961.0
1040,0.2576403021812439,1.537911295890808,115,6524.0,-2.8496367931365967,-55,9961.0
1050,0.25757837295532227,3.2445905208587646,55,6524.0,-3.4119820594787598,-86,9961.0
1060,0.25754210352897644,4.984224319458008,78,6524.0,-3.831641912460327,-25,9961.0
1070,0.2581418454647064,4.212069034576416,112,6524.0,-2.576073408126831,-89,9961.0
1080,0.2582736909389496,3.9690301418304443,-23,6524.0,-1.8538998365402222,-13,9961.0
1090,0.25845837593078613,1.4910520315170288,150,6524.0,-0.6225031614303589,-54,9961.0
1100,0.2586880922317505,1.3353283405303955,-96,6524.0,-0.7605898380279541,81,9961.0
1110,0.25748106837272644,-1.2439472675323486,14,6524.0,1.5387834310531616,-73,9961.0
1120,0.25765684247016907,-2.40610933303833,-74,6524.0,2.174734115600586,89,9961.0
1130,0.25786301493644714,-2.7709808349609375,-19,6524.0,2.474632740020752,15,9961.0
1140,0.25813502073287964,-4.0649943351745605,-23,6524.0,2.90729022026062,76,9961.0
1150,0.2584429085254669,-1.1756529808044434,-79,6524.0,1.9330155849456787,14,9961.0
1160,0.2572731077671051,-1.5877816677093506,143,6524.0,1.9112392663955688,-48,9961.0
1170,0.2573916018009186,-1.2720752954483032,-132,6524.0,1.8419240713119507,150,9961.0
1180,0.25750669836997986,2.4597866535186768,144,6524.0,-2.4673244953155518,21,9961.0
1190,0.25765541195869446,2.3635075092315674,-83,6524.0,-0.14905132353305817,22,9961.0
1200,0.257533997297287,4.258967399597168,159,6524.0,-2.322599172592163,-33,9961.0
1210,0.2576867938041687,4.334453105926514,46,6524.0,-1.463390827178955,-63,9961.0
1220,0.2576791048049927,2.5726137161254883,48,6524.0,0.5943977236747742,-78,9961.0
1230,0.2580806612968445,3.523676872253418,29,6524.0,-0.6124333143234253,167,9961.0
1240,0.25879332423210144,0.9609500765800476,55,6524.0,1.0302757024765015,-114,9961.0
1250,0.2592391073703766,1.0236481428146362,-40,6524.0,-0.5713382363319397,113,9961.0
1260,0.2592483460903168,-1.655088186264038,121,6524.0,0.9935566782951355,-105,9961.0
1270,0.259433388710022,-2.0129616260528564,-67,6524.0,2.1725356578826904,34,9961.0
1280,0.25962120294570923,-4.241781234741211,-33,6524.0,3.6329710483551025,45,9961.0
1290,0.2596651613712311,-1.3898688554763794,-28,6524.0,1.4062882661819458,105,9961.0
1300,0.25968971848487854,-0.3684045672416687,77,6524.0,-0.7465377449989319,-33,9961.0
1310,0.2599583566188812,1.9921696186065674,-99,6524.0,-0.013729138299822807,4,9961.0
1320,0.26030269265174866,1.7077827453613281,178,6524.0,-2.73561429977417,139,9961.0
1330,0.2600077986717224,1.3765442371368408,-75,6524.0,1.3928883075714111,-232,9961.0
1340,0.2606329321861267,1.0075652599334717,-2,6524.0,-1.5863085985183716,28,9961.0
1350,0.26063409447669983,1.8022513389587402,39,6524.0,-1.1282238960266113,-18,9961.0
1360,0.261434406042099,1.5369865894317627,58,6524.0,0.8596332669258118,104,9961.0
1370,0.26239460706710815,2.089970350265503,101,6524.0,1.2384932041168213,-61,9961.0
1380,0.2634204030036926,0.6102542281150818,-127,6524.0,1.7657219171524048,-1,9961.0
1390,0.2634265720844269,-4.684476852416992,84,6524.0,4.446606636047363,125,9961.0
1400,0.26453861594200134,-4.33373498916626,-160,6524.0,1.8829083442687988,-280,9961.0
1410,0.26453548669815063,-1.572448968887329,-55,6524.0,0.18437357246875763,135,9961.0
1420,0.2638876438140869,-1.2907670736312866,-8,6524.0,0.4012850224971771,3,9961.0
1430,0.2644382417201996,1.5319263935089111,-6,6524.0,-0.06826065480709076,95,9961.0
1440,0.26495328545570374,1.2674599885940552,142,6524.0,-0.06975821405649185,-55,9961.0
1450,0.2654779553413391,4.391510963439941,-127,6524.0,-0.37535277009010315,-29,9961.0
1460,0.2656335234642029,1.1434201002120972,150,6524.0,-3.1603150367736816,153,9961.0
1470,0.2661181688308716,-0.30298712849617004,-64,6524.0,4.654699802398682,-146,9961.0
1480,0.26656192541122437,-0.6429807543754578,-27,6524.0,3.0654172897338867,86,9961.0
1490,0.26694735884666443,0.15300247073173523,-50,6524.0,1.9876430034637451,-13,9961.0
1500,0.26714789867401123,-0.5711527466773987,78,6524.0,2.9758992195129395,106,9961.0
1510,0.26748716831207275,0.2518286406993866,71,6524.0,2.422165870666504,-189,9961.0
1520,0.26775678992271423,1.1512564420700073,-71,6524.0,2.8552701473236084,214,9961.0
1530,0.2680201232433319,1.9208593368530273,146,6524.0,-0.1568499058485031,30,9961.0
1540,0.2681727707386017,-0.836267352104187,-111,6524.0,1.8458789587020874,99,9961.0
1550,0.2686256766319275,-2.2168614864349365,-38,6524.0,4.753811836242676,77,9961.0
1560,0.2687150537967682,-2.1217222213745117,-101,6524.0,4.516873359680176,175,9961.0
1570,0.2687613368034363,0.16702981293201447,127,6524.0,4.123863697052002,41,9961.0
1580,0.2687983810901642,1.0650099515914917,-12,6524.0,4.361053943634033,224,9961.0
1590,0.2686636745929718,0.2561715841293335,77,6524.0,2.9831578731536865,-30,9961.0
1600,0.2686369717121124,-2.4042139053344727,-148,6524.0,5.154150485992432,-14,9961.0
1610,0.2685968577861786,-2.4420952796936035,50,6524.0,0.6105281114578247,-3,9961.0
1620,0.26853951811790466,-0.5041882395744324,10,6524.0,-0.4260128438472748,-31,9961.0
1630,0.2684737741947174,-1.3892213106155396,43,6524.0,-2.5888900756835938,49,9961.0
1640,0.2690487205982208,3.507185459136963,-68,6524.0,-1.9499197006225586,-166,9961.0
1650,0.26901334524154663,3.6051533222198486,35,6524.0,-1.8851444721221924,203,9961.0
1660,0.26896193623542786,3.6041476726531982,135,6524.0,-0.25590914487838745,-13,9961.0
1670,0.2689542770385742,1.6481152772903442,-60,6524.0,3.8600881099700928,-2,9961.0
1680,0.2697150409221649,-0.41771695017814636,46,6524.0,5.01221227645874,20,9961.0
1690,0.26976755261421204,0.28902336955070496,-49,6524.0,1.6610350608825684,48,9961.0
1700,0.26983848214149475,0.34665676951408386,144,6524.0,3.854982852935791,101,9961.0
1710,0.2698739469051361,-1.1917896270751953,-117,6524.0,1.5565680265426636,-204,9961.0
1720,0.26996859908103943,1.2469041347503662,-35,6524.0,-0.4786014258861542,144,9961.0
1730,0.27010244131088257,-0.18677456676959991,93,6524.0,-2.8951609134674072,-50,9961.0
1740,0.2701765298843384,1.7361468076705933,-39,6524.0,-3.310723066329956,-4,9961.0
1750,0.2703014016151428,2.393664836883545,86,6524.0,-1.504596471786499,-69,9961.0
1760,0.270402729511261,0.6134889721870422,-58,6524.0,-1.0967903137207031,-120,9961.0
1770,0.2703196108341217,0.09924162179231644,95,6524.0,-0.6474483013153076,276,9961.0
1780,0.27049827575683594,-1.2121572494506836,-4,6524.0,2.3745899200439453,-56,9961.0
1790,0.27075114846229553,2.1756820678710938,-70,6524.0,1.541184425354004,122,9961.0
1800,0.2709164023399353,1.4397799968719482,53,6524.0,1.030897855758667,81,9961.0
1810,0.2703488767147064,2.3352527618408203,-9,6524.0,2.4483656883239746,79,9961.0
1820,0.27044785022735596,0.9319942593574524,108,6524.0,-1.7120168209075928,-14,9961.0
1830,0.27052682638168335,0.48971477150917053,-33,6524.0,-1.5623083114624023,-212,9961.0
1840,0.2705904543399811,1.1706156730651855,-14,6524.0,-3.1820943355560303,252,9961.0
1850,0.27067816257476807,-2.445758104324341,88,6524.0,-0.5838686227798462,-85,9961.0
1860,0.27083033323287964,0.2538844347000122,-46,6524.0,-8.322989463806152,38,9961.0
1870,0.27087417244911194,-0.6474890112876892,3,6524.0,-2.030243396759033,-25,9961.0
1880,0.2709251046180725,0.5441431403160095,-99,6524.0,-1.377339243888855,-30,9961.0
1890,0.2709638774394989,-0.635152280330658,116,6524.0,1.102381944656372,165,9961.0
1900,0.27062177658081055,0.8129907250404358,2,6524.0,0.5141959190368652,-115,9961.0
1910,0.27065345644950867,0.19156795740127563,-78,6524.0,2.655803680419922,99,9961.0
1920,0.2707209885120392,-1.910131812095642,48,6524.0,3.8226194381713867,49,9961.0
1930,0.2708093225955963,-0.04527768865227699,-56,6524.0,-0.4108395576477051,33,9961.0
1940,0.27244454622268677,-3.125541925430298,45,6524.0,-2.3232369422912598,75,9961.0
1950,0.2726407051086426,-0.32423582673072815,-71,6524.0,-2.5977272987365723,-208,9961.0
1960,0.2729068398475647,-0.9843325018882751,-153,6524.0,0.5978265404701233,146,9961.0
1970,0.2732318043708801,-1.2121682167053223,131,6524.0,-4.438179969787598,-2,9961.0
1980,0.27351853251457214,-1.18050217628479,-113,6524.0,1.5614044666290283,-21,9961.0
1990,0.2734796106815338,-1.1182154417037964,26,6524.0,-1.0048586130142212,0,9961.0
2000,0.27376317977905273,0.3690853416919708,-53,6524.0,-1.1837691068649292,-137,9961.0
2010,0.27409249544143677,0.11698592454195023,15,6524.0,-0.848340630531311,192,9961.0
2020,0.2744429409503937,1.8430677652359009,217,6524.0,0.7979226112365723,-3,9961.0
2030,0.2745123505592346,-1.1841508150100708,-106,6524.0,0.8481449484825134,42,9961.0
2040,0.27485841512680054,-2.556300640106201,-19,6524.0,4.254254341125488,52,9961.0
2050,0.2752244770526886,-1.0986305475234985,-97,6524.0,2.27974796295166,17,9961.0
2060,0.27559539675712585,-1.155768632888794,95,6524.0,1.3353495597839355,166,9961.0
2070,0.2759784758090973,-0.10677454620599747,23,6524.0,1.0038323402404785,-209,9961.0
2080,0.2759479284286499,-0.6675691604614258,-130,6524.0,-3.8763561248779297,3,9961.0
2090,0.2762921154499054,-4.389479160308838,60,6524.0,2.0041844844818115,55,9961.0
2100,0.2766675353050232,-1.3940759897232056,-20,6524.0,-7.124686241149902,-73,9961.0
2110,0.27703845500946045,-2.10074782371521,24,6524.0,-2.710482120513916,121,9961.0
2120,0.27643245458602905,-0.6992733478546143,-87,6524.0,0.2748291492462158,-139,9961.0
2130,0.2766740024089813,-1.1002980470657349,-40,6524.0,2.6613354682922363,261,9961.0
2140,0.27690982818603516,-0.6334783434867859,92,6524.0,2.6678874492645264,0,9961.0
2150,0.27717286348342896,-1.0824086666107178,-85,6524.0,1.7199106216430664,7,9961.0
2160,0.27767184376716614,-1.1412609815597534,30,6524.0,2.1238036155700684,39,9961.0
2170,0.2779581546783447,-0.6630375385284424,-31,6524.0,0.7365818619728088,-40,9961.0
2180,0.2781986892223358,-0.7880168557167053,99,6524.0,-1.1291866302490234,194,9961.0
2190,0.27844658493995667,1.6714831590652466,-201,6524.0,-0.6368193626403809,-233,9961.0
2200,0.27870655059814453,-0.18769294023513794,88,6524.0,-5.577038764953613,46,9961.0
2210,0.278577983379364,-1.8194714784622192,-7,6524.0,0.3016597032546997,-96,9961.0
2220,0.2787538468837738,-0.5629838109016418,2,6524.0,-1.844697117805481,39,9961.0
2230,0.2788698673248291,-0.8093344569206238,-12,6524.0,-0.9515132904052734,-116,9961.0
2240,0.278987318277359,0.11288078874349594,-96,6524.0,0.47053277492523193,100,9961.0
2250,0.27867963910102844,-0.895260214805603,141,6524.0,2.2529561519622803,153,9961.0
2260,0.2787337899208069,-1.105858564376831,-124,6524.0,4.712914943695068,-45,9961.0
2270,0.278743177652359,-0.03980196267366409,20,6524.0,-0.5693174004554749,2,9961.0
2280,0.2787416875362396,-1.5294041633605957,-36,6524.0,4.828132629394531,-161,9961.0
2290,0.2787564992904663,2.8630154132843018,-62,6524.0,-0.08253554999828339,40,9961.0
2300,0.27925440669059753,2.519338369369507,236,6524.0,-4.0311665534973145,-64,9961.0
2310,0.27928680181503296,2.5079212188720703,-27,6524.0,-0.2431221902370453,-251,9961.0
2320,0.27933940291404724,4.602142810821533,39,6524.0,-3.6363232135772705,87,9961.0
2330,0.27949419617652893,-0.5060639381408691,-4,6524.0,1.1011662483215332,-12,9961.0
2340,0.2805236876010895,-0.4043002426624298,-89,6524.0,-0.3738996982574463,88,9961.0
2350,0.28071585297584534,-1.6132007837295532,106,6524.0,-0.8860464692115784,155,9961.0
2360,0.2809498906135559,-0.9238206148147583,-80,6524.0,0.7776417136192322,-209,9961.0
2370,0.28123748302459717,-1.8365254402160645,-117,6524.0,-2.0512688159942627,64,9961.0
2380,0.2809855341911316,0.5599163174629211,8,6524.0,0.10993349552154541,3,9961.0
2390,0.28133702278137207,1.8930493593215942,-39,6524.0,0.8108002543449402,50,9961.0
2400,0.28164127469062805,3.102490186691284,166,6524.0,-2.071946382522583,47,9961.0
2410,0.281986266374588,2.146477699279785,18,6524.0,0.778056800365448,-205,9961.0
2420,0.2822706699371338,-1.0519700050354004,-86,6524.0,4.144796371459961,131,9961.0
2430,0.282368540763855,-1.9899024963378906,78,6524.0,2.9768433570861816,62,9961.0
2440,0.28270426392555237,1.0768663883209229,-25,6524.0,4.76717472076416,145,9961.0
2450,0.28300294280052185,3.54964017868042,161,6524.0,4.843686580657959,231,9961.0
2460,0.28331613540649414,5.122410774230957,52,6524.0,3.3450329303741455,-198,9961.0
2470,0.28186604380607605,3.6891329288482666,-66,6524.0,10.818167686462402,205,9961.0
2480,0.2821033298969269,1.8076614141464233,126,6524.0,7.740426540374756,100,9961.0
2490,0.2823166847229004,2.547437906265259,-19,6524.0,8.389608383178711,61,9961.0
2500,0.28253766894340515,2.9853222370147705,112,6524.0,2.296689987182617,77,9961.0
2510,0.28288501501083374,4.127091407775879,115,6524.0,-1.105649709701538,-182,9961.0
2520,0.2820092737674713,6.235823154449463,1,6524.0,-1.5043374300003052,-36,9961.0
2530,0.2822591960430145,4.329725742340088,195,6524.0,-4.969333648681641,43,9961.0
2540,0.28249484300613403,0.4642275273799896,12,6524.0,-4.669454097747803,-178,9961.0
2550,0.28273722529411316,-2.397571086883545,-37,6524.0,-3.4837307929992676,-8,9961.0
2560,0.2829796373844147,-3.265279531478882,8,6524.0,-2.3253839015960693,-82,9961.0
2570,0.2831961214542389,-3.121593475341797,-163,6524.0,0.20462535321712494,82,9961.0
2580,0.28345200419425964,-3.6405189037323,0,6524.0,5.750876426696777,191,9961.0
2590,0.2837180495262146,-1.0953328609466553,-21,6524.0,0.1949024200439453,-29,9961.0
2600,0.2843828797340393,-2.112255811691284,-82,6524.0,5.6809492111206055,-6,9961.0
2610,0.2846805453300476,-3.0625009536743164,-38,6524.0,5.146502494812012,-19,9961.0
2620,0.28498193621635437,0.145980566740036,-102,6524.0,0.28194674849510193,-29,9961.0
2630,0.28526487946510315,-1.7369283437728882,53,6524.0,-1.909683108329773,200,9961.0
2640,0.285527765750885,1.122227668762207,129,6524.0,-7.315621852874756,-261,9961.0
2650,0.28587576746940613,3.1589653491973877,-140,6524.0,-6.689538478851318,-114,9961.0
2660,0.286159873008728,1.0649250745773315,52,6524.0,-2.320050001144409,96,9961.0
2670,0.28644052147865295,-0.3814795911312103,-70,6524.0,-4.1636271476745605,-92,9961.0
2680,0.2867024838924408,-0.9890430569648743,-30,6524.0,-4.36657190322876,135,9961.0
2690,0.2869890034198761,-1.1834696531295776,34,6524.0,-1.7236558198928833,108,9961.0
2700,0.287307471036911,-1.3586827516555786,-213,6524.0,0.9843839406967163,-44,9961.0
2710,0.28766748309135437,-1.7839972972869873,-35,6524.0,2.58945894241333,142,9961.0
2720,0.2880399227142334,-2.1929049491882324,-35,6524.0,4.514944076538086,-12,9961.0
2730,0.2883455455303192,-1.3727877140045166,-62,6524.0,2.6359593868255615,161,9961.0
2740,0.28932714462280273,-0.7075832486152649,218,6524.0,-0.7090480327606201,-101,9961.0
2750,0.28962481021881104,-0.7284951210021973,-27,6524.0,-0.02838921546936035,-166,9961.0
2760,0.28995785117149353,-1.7861777544021606,-84,6524.0,-0.18963085114955902,71,9961.0
2770,0.290232390165329,-1.9977288246154785,32,6524.0,-1.4948241710662842,-18,9961.0
2780,0.2915526032447815,-3.316096067428589,-70,6524.0,-4.115712642669678,9,9961.0
2790,0.29195618629455566,-2.2308454513549805,63,6524.0,-4.297232627868652,-214,9961.0
2800,0.2923274040222168,0.42060232162475586,-43,6524.0,-3.6637775897979736,-89,9961.0
2810,0.29270505905151367,-0.6039305329322815,-250,6524.0,-8.413849830627441,161,9961.0
2820,0.2922632396221161,-3.384399175643921,-2,6524.0,-4.60887336730957,-138,9961.0
2830,0.29252803325653076,-3.823239803314209,-172,6524.0,-1.7836710214614868,40,9961.0
2840,0.2928048372268677,-2.3701119422912598,24,6524.0,1.5774096250534058,-2,9961.0
2850,0.2930307388305664,-1.42903733253479,-130,6524.0,3.856215238571167,-9,9961.0
2860,0.29328280687332153,-1.9522863626480103,-30,6524.0,4.053094863891602,304,9961.0
2870,0.29369834065437317,-4.750174522399902,58,6524.0,7.330522060394287,64,9961.0
2880,0.29396334290504456,2.4227840900421143,-85,6524.0,0.6735668778419495,-66,9961.0
2890,0.2941766679286957,3.802482843399048,50,6524.0,-3.248499631881714,32,9961.0
2900,0.294389545917511,4.6562275886535645,66,6524.0,-4.673878192901611,-137,9961.0
2910,0.2959136962890625,6.941320896148682,64,6524.0,-5.605175018310547,-26,9961.0
2920,0.2962161898612976,5.805901527404785,234,6524.0,-4.311152458190918,-44,9961.0
2930,0.29655829071998596,1.7065609693527222,-50,6524.0,-4.755295753479004,-350,9961.0
2940,0.2969755530357361,0.3197230100631714,-104,6524.0,-0.6467637419700623,64,9961.0
2950,0.2973673641681671,-3.844043016433716,57,6524.0,-0.07089140266180038,-27,9961.0
2960,0.2979728579521179,-3.435636520385742,-104,6524.0,-0.5244019627571106,-26,9961.0
2970,0.29843586683273315,-2.502880096435547,71,6524.0,-5.633184909820557,111,9961.0
2980,0.29875728487968445,0.6388877630233765,46,6524.0,0.12129653245210648,-51,9961.0
2990,0.29903194308280945,4.492254257202148,-157,6524.0,-1.0737158060073853,41,9961.0
3000,0.29916197061538696,3.4297597408294678,89,6524.0,-0.6750437021255493,149,9961.0
3010,0.29934459924697876,1.100847601890564,10,6524.0,1.6025880575180054,-53,9961.0
3020,0.29968738555908203,4.879150390625,72,6524.0,-0.37697866559028625,63,9961.0
3030,0.29990893602371216,4.118122100830078,183,6524.0,-0.559829592704773,-22,9961.0
3040,0.3008319139480591,4.312469482421875,-30,6524.0,1.2322584390640259,-180,9961.0
3050,0.30107372999191284,1.894771933555603,52,6524.0,0.03313405439257622,-34,9961.0
3060,0.30129969120025635,2.0178146362304688,212,6524.0,-1.6315011978149414,-28,9961.0
3070,0.30147403478622437,-0.9045590758323669,4,6524.0,1.0990207195281982,4,9961.0
3080,0.30166566371917725,-1.4766044616699219,4,6524.0,1.2517354488372803,179,9961.0
3090,0.3028532862663269,-0.8865348100662231,-6,6524.0,1.1160809993743896,-165,9961.0
3100,0.3033536970615387,2.2749576568603516,-105,6524.0,-3.082756519317627,51,9961.0
3110,0.3035949170589447,-0.8830035328865051,70,6524.0,0.466843843460083,129,9961.0
3120,0.3038720190525055,-0.6771940588951111,-5,6524.0,3.2045252323150635,-47,9961.0
3130,0.30294445157051086,0.2159566879272461,-51,6524.0,0.8036381602287292,85,9961.0
3140,0.3030693829059601,-1.2500953674316406,49,6524.0,1.6151827573776245,20,9961.0
3150,0.30316194891929626,1.2806317806243896,-49,6524.0,-0.5114303827285767,-210,9961.0
3160,0.3032267093658447,2.4533119201660156,30,6524.0,-0.8451355695724487,2,9961.0
3170,0.3032771944999695,2.425645589828491,210,6524.0,1.057181477546692,-70,9961.0
3180,0.3023723363876343,-2.242781400680542,-24,6524.0,-0.7318135499954224,-212,9961.0
3190,0.30234459042549133,-4.368235111236572,-46,6524.0,0.868711531162262,75,9961.0
3200,0.3023272454738617,-5.288773059844971,-33,6524.0,3.606807231903076,-51,9961.0
3210,0.30249547958374023,-3.4817798137664795,-145,6524.0,1.481398344039917,-36,9961.0
3220,0.30272161960601807,-1.13932204246521,7,6524.0,-4.595768451690674,106,9961.0
3230,0.3027719259262085,-0.15711456537246704,139,6524.0,-1.8585504293441772,56,9961.0
3240,0.30285191535949707,1.0593926906585693,-91,6524.0,-2.956918478012085,-117,9961.0
3250,0.3029193878173828,5.957319259643555,-16,6524.0,-2.3822309970855713,23,9961.0
3260,0.30335718393325806,1.1170356273651123,45,6524.0,1.1179805994033813,-47,9961.0
3270,0.30341431498527527,2.0060412883758545,-16,6524.0,4.600178241729736,-159,9961.0
3280,0.3035200238227844,1.7230615615844727,-15,6524.0,-2.1808574199676514,180,9961.0
3290,0.30362001061439514,0.11505717784166336,218,6524.0,5.140467643737793,121,9961.0
3300,0.30374547839164734,-4.095906734466553,-142,6524.0,-1.7050420045852661,-189,9961.0
3310,0.30359530448913574,-4.90648078918457,-77,6524.0,0.1566600352525711,65,9961.0
3320,0.30371856689453125,-5.382997512817383,-32,6524.0,0.3939823806285858,-102,9961.0
3330,0.3038604259490967,-3.9421017169952393,-141,6524.0,-0.33985596895217896,-142,9961.0
3340,0.304043710231781,-3.949647903442383,-24,6524.0,-2.629899501800537,80,9961.0
3350,0.30455440282821655,-2.596558094024658,85,6524.0,0.7495135068893433,6,9961.0
3360,0.30483949184417725,-2.002167224884033,29,6524.0,-1.815050482749939,-228,9961.0
3370,0.3051345646381378,-2.939918279647827,7,6524.0,-2.848067283630371,-42,9961.0
3380,0.30541834235191345,2.3547887802124023,173,6524.0,-5.535331726074219,7,9961.0
3390,0.3057730197906494,5.492478847503662,16,6524.0,-0.2889881134033203,-103,9961.0
3400,0.3045482933521271,3.774735450744629,25,6524.0,0.9953039884567261,80,9961.0
3410,0.30477696657180786,7.017990589141846,188,6524.0,1.7849010229110718,206,9961.0
3420,0.30508890748023987,-0.9563146233558655,-18,6524.0,10.570402145385742,-89,9961.0
3430,0.30531322956085205,-1.0490813255310059,23,6524.0,3.455354928970337,111,9961.0
3440,0.30729982256889343,-1.8171823024749756,-30,6524.0,4.795925617218018,-19,9961.0
3450,0.30753663182258606,-1.3542524576187134,-114,6524.0,3.4187369346618652,65,9961.0
3460,0.3077848553657532,-1.354713797569275,85,6524.0,-2.6210575103759766,63,9961.0
3470,0.3080606758594513,0.7520632743835449,74,6524.0,0.06354660540819168,-185,9961.0
3480,0.3078162670135498,-0.4052896797657013,-124,6524.0,-4.100480079650879,-211,9961.0
3490,0.30802401900291443,1.0049670934677124,43,6524.0,-2.805316686630249,64,9961.0
3500,0.3082771599292755,0.5140458941459656,115,6524.0,-7.113763332366943,-205,9961.0
3510,0.30851614475250244,1.232412338256836,-3,6524.0,2.5150909423828125,55,9961.0
3520,0.3087266981601715,2.8164069652557373,137,6524.0,3.0408356189727783,187,9961.0
3530,0.30944371223449707,3.254533290863037,105,6524.0,4.232919216156006,-81,9961.0
3540,0.3096953332424164,1.2030644416809082,-116,6524.0,5.7514567375183105,-60,9961.0
3550,0.30993562936782837,2.125584602355957,55,6524.0,2.3136332035064697,310,9961.0
3560,0.31033802032470703,-3.0615053176879883,-6,6524.0,2.269402027130127,46,9961.0
3570,0.3108017146587372,-2.1022329330444336,-83,6524.0,-2.904569149017334,-15,9961.0
3580,0.31111380457878113,-3.0637800693511963,-11,6524.0,-3.9897820949554443,114,9961.0
3590,0.31135278940200806,-1.653184413909912,25,6524.0,-0.9063081741333008,-51,9961.0
3600,0.3115631937980652,1.819508671760559,-153,6524.0,-5.157557964324951,-126,9961.0
3610,0.31076735258102417,-0.8235292434692383,-76,6524.0,-3.794966459274292,-36,9961.0
3620,0.31176355481147766,-3.1651535034179688,97,6524.0,-0.7832282781600952,-80,9961.0
3630,0.31186607480049133,-1.8289693593978882,-51,6524.0,4.37069845199585,47,9961.0
3640,0.311992347240448,3.5714845657348633,134,6524.0,6.93826961517334,230,9961.0
3650,0.3122076392173767,4.943132400512695,158,6524.0,3.777970314025879,21,9961.0
3660,0.31222403049468994,5.204926013946533,45,6524.0,5.221280097961426,-70,9961.0
3670,0.312422513961792,4.364124298095703,15,6524.0,0.32172340154647827,139,9961.0
3680,0.31268346309661865,-0.6995058059692383,99,6524.0,0.31142422556877136,36,9961.0
3690,0.31343215703964233,0.11320409178733826,-33,6524.0,-1.9101295471191406,-69,9961.0
3700,0.3133605420589447,-2.0070953369140625,8,6524.0,-1.3404715061187744,26,9961.0
3710,0.3135764002799988,2.985793352127075,91,6524.0,-2.615466594696045,-26,9961.0
3720,0.31413334608078003,0.9341422915458679,38,6524.0,-5.12988805770874,-357,9961.0
3730,0.3151940107345581,4.236911773681641,-168,6524.0,-4.3688459396362305,-136,9961.0
3740,0.3155154883861542,-5.954621315002441,-7,6524.0,-9.520801544189453,110,9961.0
3750,0.31518882513046265,-5.772034645080566,-107,6524.0,1.8227546215057373,96,9961.0
3760,0.31542930006980896,-6.703369617462158,-201,6524.0,5.459372520446777,138,9961.0
3770,0.31565192341804504,-6.285050392150879,-50,6524.0,7.36752986907959,273,9961.0
3780,0.31585001945495605,-5.82700252532959,-1,6524.0,5.490087032318115,88,9961.0
3790,0.31482431292533875,-4.329590797424316,-163,6524.0,10.159214973449707,-176,9961.0
3800,0.31505468487739563,-2.3094775676727295,-96,6524.0,1.0288965702056885,38,9961.0
3810,0.31612175703048706,-3.625178813934326,40,6524.0,-0.3728216886520386,1,9961.0
3820,0.3162010610103607,1.2708959579467773,-5,6524.0,-2.56626296043396,-160,9961.0
3830,0.31628042459487915,5.554533958435059,89,6524.0,-3.132028579711914,-88,9961.0
3840,0.3163970410823822,5.517374515533447,176,6524.0,-7.5252861976623535,-54,9961.0
3850,0.31756433844566345,6.794588565826416,226,6524.0,-7.983396530151367,-290,9961.0
3860,0.31773170828819275,10.383780479431152,133,6524.0,-12.557295799255371,-303,9961.0
3870,0.31780481338500977,8.983165740966797,40,6524.0,-5.531235218048096,2,9961.0
3880,0.3172929883003235,4.125404357910156,187,6524.0,-1.613336205482483,17,9961.0
3890,0.3175528645515442,0.09202965348958969,-92,6524.0,3.462432622909546,36,9961.0
3900,0.3177154064178467,-5.804973602294922,-114,6524.0,8.447464942932129,407,9961.0
3910,0.31795448064804077,-8.403542518615723,-17,6524.0,11.760384559631348,222,9961.0
3920,0.3180761933326721,-14.001152992248535,-295,6524.0,12.616750717163086,53,9961.0
3930,0.3182641565799713,-14.594891548156738,-294,6524.0,5.749600410461426,223,9961.0
3940,0.3184376358985901,-13.973777770996094,-160,6524.0,7.537102222442627,115,9961.0
3950,0.3188075125217438,-6.516881942749023,-199,6524.0,-2.1393470764160156,-105,9961.0
3960,0.31923389434814453,-0.07053187489509583,-65,6524.0,-8.284642219543457,-176,9961.0
3970,0.319821834564209,8.212471961975098,176,6524.0,-10.199517250061035,-107,9961.0
3980,0.3199883699417114,11.283293724060059,330,6524.0,-12.016555786132812,-126,9961.0
3990,0.32001635432243347,18.038637161254883,189,6524.0,-10.827127456665039,-265,9961.0
4000,0.3210735023021698,9.787757873535156,23,6524.0,-3.9587738513946533,-1,9961.0
4010,0.31955280900001526,9.06438159942627,174,6524.0,1.9985421895980835,89,9961.0
4020,0.3205234408378601,5.193073749542236,76,6524.0,10.140923500061035,30,9961.0
4030,0.3208824694156647,5.779027462005615,-6,6524.0,13.38671875,217,9961.0
4040,0.3209351897239685,3.0560665130615234,166,6524.0,13.805425643920898,427,9961.0
4050,0.3220330774784088,-1.4564241170883179,-10,6524.0,10.822367668151855,120,9961.0
4060,0.3225648105144501,-4.512670516967773,-125,6524.0,9.375856399536133,188,9961.0
4070,0.3228236734867096,-9.610637664794922,-123,6524.0,5.108973503112793,44,9961.0
4080,0.32331612706184387,-8.786358833312988,-164,6524.0,-4.403278350830078,-159,9961.0
4090,0.3235819935798645,-8.10960578918457,-198,6524.0,-8.59175968170166,-65,9961.0
4100,0.3232654631137848,-9.284566879272461,-88,6524.0,-10.142401695251465,42,9961.0
4110,0.32383033633232117,-6.430356502532959,-55,6524.0,-7.2668304443359375,-316,9961.0
4120,0.32410576939582825,-2.2564005851745605,-191,6524.0,-3.3297886848449707,-69,9961.0
4130,0.3273636996746063,4.496175765991211,130,6524.0,-5.24011754989624,4,9961.0
4140,0.32785889506340027,8.879983901977539,177,6524.0,-1.545210599899292,-47,9961.0
4150,0.32914331555366516,9.063453674316406,88,6524.0,6.059376239776611,8,9961.0
4160,0.3299751281738281,5.451740264892578,165,6524.0,10.06391716003418,305,9961.0
4170,0.3305616080760956,7.128756523132324,453,6524.0,9.27357292175293,163,9961.0
4180,0.331843763589859,14.13821029663086,254,6524.0,15.304923057556152,-66,9961.0
4190,0.32785823941230774,20.309972763061523,237,6524.0,8.403336524963379,170,9961.0
4200,0.3296700417995453,12.204984664916992,195,6524.0,6.406010627746582,153,9961.0
4210,0.330384761095047,-3.9423093795776367,-206,6524.0,-0.4199073612689972,-115,9961.0
4220,0.3324531018733978,-21.45384407043457,-387,6524.0,-6.354167938232422,-43,9961.0
4230,0.3291662335395813,-34.04047775268555,-408,6524.0,-16.044771194458008,-286,9961.0
4240,0.32938235998153687,-39.218875885009766,-711,6524.0,-13.135976791381836,-351,9961.0
4250,0.330274373292923,-43.35042953491211,-766,6524.0,-15.809416770935059,-214,9961.0
4260,0.3309842050075531,-41.91538619995117,-633,6524.0,-12.685934066772461,-197,9961.0
4270,0.32923465967178345,-37.218597412109375,-639,6524.0,-11.807425498962402,-265,9961.0
4280,0.32941073179244995,-25.78598403930664,-454,6524.0,-12.199942588806152,-167,9961.0
4290,0.32962438464164734,-15.079695701599121,-85,6524.0,-8.7927885055542,-68,9961.0
4300,0.32973912358283997,-8.406363487243652,-3,6524.0,-2.063878297805786,-150,9961.0
4310,0.32985085248947144,-3.0051066875457764,-73,6524.0,-3.3116934299468994,-253,9961.0
4320,0.3283975124359131,0.08228910714387894,-168,6524.0,0.5267978310585022,72,9961.0
4330,0.32841163873672485,-2.358152389526367,50,6524.0,-2.223660945892334,124,9961.0
4340,0.32847800850868225,-0.8873343467712402,-69,6524.0,2.587418556213379,32,9961.0
4350,0.3285644054412842,-6.678910732269287,-154,6524.0,5.027729034423828,143,9961.0
4360,0.32718148827552795,-6.749453544616699,-32,6524.0,2.081768274307251,191,9961.0
4370,0.32708635926246643,-6.304394245147705,-107,6524.0,4.406386375427246,-14,9961.0
4380,0.3269786834716797,-3.839280843734741,-229,6524.0,6.838134288787842,140,9961.0
4390,0.32686522603034973,-6.392066478729248,-122,6524.0,-0.23388175666332245,104,9961.0
4400,0.3268892467021942,-2.7136831283569336,78,6524.0,-4.859771728515625,-45,9961.0
4410,0.32717034220695496,0.9744082093238831,-24,6524.0,0.4908868670463562,-64,9961.0
4420,0.32709264755249023,16.594635009765625,385,6524.0,-1.4541596174240112,24,9961.0
4430,0.32688724994659424,30.055320739746094,549,6524.0,2.25276255607605,65,9961.0
4440,0.32649028301239014,15.976705551147461,149,6524.0,4.687517166137695,-32,9961.0
4450,0.32512858510017395,1.8152458667755127,-216,6524.0,-3.248399496078491,-23,9961.0
4460,0.32505959272384644,-15.965042114257812,-258,6524.0,-3.439573049545288,8,9961.0
4470,0.32489877939224243,-25.714445114135742,-498,6524.0,-3.950515031814575,-176,9961.0
4480,0.32473984360694885,-30.440105438232422,-674,6524.0,-1.687576174736023,-34,9961.0
4490,0.32552558183670044,-25.656723022460938,-406,6524.0,3.3555593490600586,119,9961.0
4500,0.3254668414592743,-23.098527908325195,-197,6524.0,0.7721732258796692,-11,9961.0
4510,0.325491338968277,-16.863344192504883,-260,6524.0,3.3249289989471436,-97,9961.0
4520,0.3256757855415344,-3.061190605163574,-73,6524.0,0.2635557949542999,27,9961.0
4530,0.32584309577941895,4.8940653800964355,243,6524.0,4.822236061096191,175,9961.0
4540,0.32566210627555847,17.170774459838867,374,6524.0,7.53237771987915,102,9961.0
4550,0.3260510265827179,27.395490646362305,457,6524.0,8.847437858581543,42,9961.0
4560,0.3263642489910126,34.528751373291016,510,6524.0,3.4999520778656006,107,9961.0
4570,0.32657238841056824,30.360748291015625,600,6524.0,6.082303524017334,189,9961.0
4580,0.326391339302063,26.34762191772461,486,6524.0,4.266294002532959,-176,9961.0
4590,0.32670533657073975,18.535804748535156,194,6524.0,1.7396925687789917,-124,9961.0
4600,0.3269222378730774,11.053852081298828,165,6524.0,-1.1237202882766724,11,9961.0
4610,0.32700207829475403,1.4265248775482178,1,6524.0,-1.9185421466827393,-87,9961.0
4620,0.32712322473526,-9.373669624328613,-397,6524.0,-1.4928748607635498,-2,9961.0
4630,0.32712697982788086,-13.350993156433105,-192,6524.0,7.091541767120361,186,9961.0
4640,0.3271755576133728,-13.940723419189453,-159,6524.0,2.1962034702301025,-5,9961.0
4650,0.32725217938423157,-7.645758628845215,-84,6524.0,2.7154810428619385,18,9961.0
4660,0.32734936475753784,0.0770343616604805,101,6524.0,2.784649610519409,152,9961.0
4670,0.3276822566986084,8.217147827148438,302,6524.0,1.4192980527877808,-109,9961.0
4680,0.32787153124809265,15.217175483703613,166,6524.0,1.482021689414978,-21,9961.0
4690,0.328059583902359,15.725790977478027,167,6524.0,-2.996623992919922,60,9961.0
4700,0.3283196985721588,11.240407943725586,417,6524.0,-8.113669395446777,-99,9961.0
4710,0.3294910788536072,12.40535831451416,247,6524.0,-3.6509079933166504,-192,9961.0
4720,0.3297745883464813,8.941221237182617,125,6524.0,-8.382559776306152,-35,9961.0
4730,0.33023980259895325,5.67630672454834,186,6524.0,-0.5211769342422485,-45,9961.0
4740,0.3306419253349304,1.250447392463684,-33,6524.0,-0.3853468596935272,-287,9961.0
4750,0.33082064986228943,-2.6922788619995117,-91,6524.0,5.625534534454346,123,9961.0
4760,0.33035892248153687,-7.059699535369873,-6,6524.0,11.383323669433594,182,9961.0
4770,0.33042770624160767,-1.215639352798462,-81,6524.0,10.080109596252441,72,9961.0
4780,0.3305959701538086,3.5705549716949463,-11,6524.0,7.9202961921691895,249,9961.0
4790,0.33086341619491577,8.320314407348633,172,6524.0,9.45158863067627,310,9961.0
4800,0.33145657181739807,12.817889213562012,349,6524.0,10.68919563293457,129,9961.0
4810,0.3318054974079132,19.897335052490234,266,6524.0,3.570798873901367,-171,9961.0
4820,0.33212825655937195,23.963186264038086,118,6524.0,1.2871954441070557,36,9961.0
4830,0.33242493867874146,21.45304298400879,381,6524.0,0.7037075161933899,98,9961.0
4840,0.3327268362045288,16.58622169494629,420,6524.0,0.913226306438446,-25,9961.0
4850,0.3323118984699249,13.939191818237305,160,6524.0,7.448813438415527,12,9961.0
4860,0.33253657817840576,9.519241333007812,197,6524.0,5.840230464935303,161,9961.0
4870,0.33273255825042725,9.32296085357666,303,6524.0,-4.254557132720947,-55,9961.0
4880,0.33288824558258057,4.271203994750977,94,6524.0,3.171900749206543,-181,9961.0
4890,0.3338587284088135,9.524216651916504,72,6524.0,0.15952126681804657,10,9961.0
4900,0.3340514898300171,3.0901169776916504,92,6524.0,2.0166127681732178,117,9961.0
4910,0.33422523736953735,5.6628217697143555,55,6524.0,4.688990592956543,9,9961.0
4920,0.3344813287258148,4.5829291343688965,-9,6524.0,3.1420161724090576,107,9961.0
4930,0.33358678221702576,2.99074125289917,50,6524.0,1.405281901359558,222,9961.0
4940,0.33366328477859497,0.7661466002464294,153,6524.0,1.7078161239624023,-58,9961.0
4950,0.33372485637664795,3.3517136573791504,-33,6524.0,1.1906042098999023,-73,9961.0
4960,0.3337491750717163,2.274091958999634,18,6524.0,1.5196871757507324,103,9961.0
4970,0.3338220715522766,4.225064277648926,126,6524.0,0.7205191254615784,22,9961.0
4980,0.3338530957698822,7.541486740112305,12,6524.0,-2.633152961730957,-131,9961.0
4990,0.3338553309440613,7.1731109619140625,-37,6524.0,-5.516519069671631,-56,9961.0
5000,0.3338083028793335,10.888789176940918,240,6524.0,-1.0163377523422241,180,9961.0
5010,0.33383896946907043,9.662575721740723,190,6524.0,-0.4707217812538147,-57,9961.0
5020,0.33387133479118347,7.554580211639404,64,6524.0,0.0841803029179573,-34,9961.0
5030,0.33385908603668213,3.9409072399139404,119,6524.0,0.39169567823410034,128,9961.0
5040,0.3338330090045929,-2.1398909091949463,-39,6524.0,6.433749675750732,-19,9961.0
5050,0.3338549733161926,-4.01759147644043,-191,6524.0,-1.1042691469192505,-21,9961.0
5060,0.3335246741771698,-10.72089672088623,-194,6524.0,1.670729398727417,84,9961.0
5070,0.3335587680339813,-13.231230735778809,-190,6524.0,-1.7308448553085327,-80,9961.0
5080,0.33359137177467346,-9.241796493530273,-239,6524.0,-2.2429182529449463,-90,9961.0
5090,0.3336135745048523,-7.721934795379639,-129,6524.0,-5.660213470458984,26,9961.0
5100,0.33364272117614746,-4.937759876251221,47,6524.0,-4.608506679534912,84,9961.0
5110,0.33302754163742065,3.241429090499878,43,6524.0,-1.9162529706954956,-80,9961.0
5120,0.33305343985557556,4.830997467041016,-54,6524.0,3.5257723331451416,11,9961.0
5130,0.3330609202384949,6.686890125274658,204,6524.0,2.3613593578338623,108,9961.0
5140,0.3330473005771637,6.1364827156066895,94,6524.0,3.5173606872558594,-23,9961.0
5150,0.3333786725997925,4.247590065002441,-53,6524.0,4.246837139129639,-25,9961.0
5160,0.33339259028434753,-2.1342270374298096,-60,6524.0,1.4043679237365723,127,9961.0
5170,0.33355289697647095,-3.555671453475952,-30,6524.0,5.548479080200195,88,9961.0
5180,0.33359450101852417,-4.210692882537842,-110,6524.0,3.7525269985198975,-58,9961.0
5190,0.33362817764282227,-4.091715335845947,-134,6524.0,-3.1060967445373535,56,9961.0
5200,0.3329772651195526,-4.704978942871094,43,6524.0,-2.5683960914611816,74,9961.0
5210,0.33295685052871704,0.822912335395813,54,6524.0,-8.581233978271484,-91,9961.0
5220,0.3329336643218994,-5.156950950622559,-45,6524.0,-3.9496283531188965,-245,9961.0
5230,0.3329049348831177,4.286743640899658,-57,6524.0,-7.533305644989014,6,9961.0
5240,0.33336204290390015,3.1261770725250244,113,6524.0,-5.2228851318359375,-32,9961.0
5250,0.3334861993789673,3.254595994949341,43,6524.0,-2.22769832611084,-207,9961.0
5260,0.33368194103240967,0.8943901658058167,-41,6524.0,-0.3321797251701355,-28,9961.0
5270,0.3337765634059906,2.144551992416382,172,6524.0,-4.636566162109375,84,9961.0
5280,0.33429092168807983,1.5300283432006836,-87,6524.0,1.5921268463134766,-84,9961.0
5290,0.33431756496429443,-1.240297794342041,-14,6524.0,-1.2223714590072632,-150,9961.0
5300,0.33451172709465027,-2.5703463554382324,15,6524.0,-4.132258892059326,-117,9961.0
5310,0.33455532789230347,-7.160092830657959,-134,6524.0,-4.480373382568359,-266,9961.0
5320,0.33457064628601074,-8.767814636230469,-335,6524.0,-8.027486801147461,-145,9961.0
5330,0.3347584009170532,-8.458381652832031,-77,6524.0,-7.9271721839904785,-29,9961.0
5340,0.3347918391227722,-9.597243309020996,-149,6524.0,-0.2611372172832489,-46,9961.0
5350,0.3348587155342102,-8.389301300048828,-196,6524.0,2.9968464374542236,41,9961.0
5360,0.3349604904651642,-4.624098300933838,-50,6524.0,5.358309745788574,318,9961.0
5370,0.3342639207839966,-12.57027816772461,22,6524.0,8.268564224243164,-6,9961.0
5380,0.3344407081604004,1.757772445678711,33,6524.0,3.7805867195129395,-108,9961.0
5390,0.33462029695510864,0.01854533702135086,-27,6524.0,4.496315002441406,101,9961.0
5400,0.3348095417022705,3.499239921569824,93,6524.0,-1.233960747718811,114,9961.0
5410,0.33651503920555115,3.230050802230835,137,6524.0,0.782466471195221,-141,9961.0
5420,0.33678120374679565,5.994938373565674,-24,6524.0,-3.1248269081115723,-146,9961.0
5430,0.3370838463306427,2.4474072456359863,45,6524.0,-3.582960605621338,42,9961.0
5440,0.3374174237251282,0.6443619728088379,105,6524.0,-3.7276089191436768,-72,9961.0
5450,0.3377685248851776,1.159167766571045,-50,6524.0,-1.8138678073883057,-115,9961.0
5460,0.33941078186035156,-0.3789506256580353,-54,6524.0,0.33677929639816284,123,9961.0
5470,0.33984890580177307,-4.676114082336426,61,6524.0,-3.705785036087036,-5,9961.0
5480,0.3402600884437561,-1.8213483095169067,-50,6524.0,1.1674948930740356,-173,9961.0
5490,0.3406554162502289,-4.966058254241943,-165,6524.0,4.645930290222168,76,9961.0
5500,0.340609610080719,-3.245786666870117,15,6524.0,4.699341297149658,69,9961.0
5510,0.34090352058410645,-0.9820011854171753,-17,6524.0,1.452501893043518,-165,9961.0
5520,0.3411753475666046,-0.9332714676856995,-110,6524.0,3.145723342895508,-138,9961.0
5530,0.3414468467235565,-0.9839237332344055,65,6524.0,-1.0436819791793823,228,9961.0
5540,0.3417365849018097,1.2873581647872925,94,6524.0,2.4194531440734863,2,9961.0
5550,0.3428955376148224,1.3195358514785767,-19,6524.0,2.39705753326416,-10,9961.0
5560,0.34318462014198303,2.6333510875701904,101,6524.0,2.668898344039917,141,9961.0
5570,0.3434486985206604,2.4016594886779785,66,6524.0,-0.2905029058456421,-178,9961.0
5580,0.3436717391014099,4.011563301086426,-116,6524.0,0.9847618937492371,-30,9961.0
5590,0.34361526370048523,0.18432630598545074,41,6524.0,-6.291148662567139,52,9961.0
5600,0.3437681198120117,0.46511563658714294,44,6524.0,-2.555154800415039,-45,9961.0
5610,0.3439025580883026,-0.7762996554374695,-96,6524.0,0.5006109476089478,-1,9961.0
5620,0.34402912855148315,-1.8765392303466797,55,6524.0,-1.351269006729126,163,9961.0
5630,0.34486985206604004,3.154843807220459,107,6524.0,-9.235617637634277,-179,9961.0
5640,0.34502094984054565,0.41220593452453613,-142,6524.0,2.1094279289245605,71,9961.0
5650,0.3451717495918274,-1.6839479207992554,14,6524.0,6.714900493621826,206,9961.0
5660,0.34531697630882263,-1.8110603094100952,-5,6524.0,5.273794174194336,-51,9961.0
5670,0.34547409415245056,1.587096095085144,-150,6524.0,-0.20493696630001068,73,9961.0
5680,0.3462463617324829,1.9161806106567383,36,6524.0,-5.187541484832764,243,9961.0
5690,0.3465059995651245,-4.026197910308838,-56,6524.0,11.347356796264648,167,9961.0
5700,0.3466889560222626,-2.783942699432373,-81,6524.0,8.030800819396973,98,9961.0
5710,0.3468419313430786,0.818430483341217,89,6524.0,2.987668514251709,213,9961.0
5720,0.3474835157394409,0.6153492331504822,33,6524.0,1.6396162509918213,-66,9961.0
5730,0.3476557433605194,0.5086718201637268,-96,6524.0,-1.1387178897857666,-200,9961.0
5740,0.3477995693683624,0.21745312213897705,48,6524.0,-3.088782548904419,71,9961.0
5750,0.3479362726211548,0.4047911465167999,88,6524.0,1.4655073881149292,-121,9961.0
5760,0.34882548451423645,2.9588005542755127,-80,6524.0,-4.956754207611084,-158,9961.0
5770,0.3490511476993561,3.7620797157287598,115,6524.0,-2.1927731037139893,181,9961.0
5780,0.3492548167705536,-1.8202228546142578,125,6524.0,-1.7588425874710083,-97,9961.0
5790,0.34947291016578674,0.5652958750724792,-28,6524.0,-0.35650137066841125,-20,9961.0
5800,0.3496688902378082,-0.7297241687774658,68,6524.0,1.6118409633636475,103,9961.0
5810,0.34955620765686035,-0.24894863367080688,-36,6524.0,2.1706831455230713,-110,9961.0
5820,0.34968268871307373,-2.977738618850708,-119,6524.0,0.46919313073158264,5,9961.0
5830,0.34980353713035583,-2.8598852157592773,48,6524.0,0.5979510545730591,85,9961.0
5840,0.34990161657333374,-2.888777017593384,-89,6524.0,2.6116538047790527,-74,9961.0
5850,0.34922000765800476,-3.224088430404663,-56,6524.0,-0.022804968059062958,77,9961.0
5860,0.34934091567993164,-8.742137908935547,53,6524.0,3.7606918811798096,-16,9961.0
5870,0.3494596779346466,-4.449358940124512,-95,6524.0,-4.435384273529053,-148,9961.0
5880,0.34954193234443665,-3.262310028076172,-41,6524.0,-5.733315944671631,-83,9961.0
5890,0.3496245741844177,-5.562160015106201,12,6524.0,-3.789930582046509,-190,9961.0
5900,0.3490360379219055,-2.175726890563965,-122,6524.0,-5.452328205108643,55,9961.0
5910,0.34904858469963074,-4.995880603790283,88,6524.0,-0.2787124216556549,-68,9961.0
5920,0.34902793169021606,-2.5440666675567627,-96,6524.0,-0.6923247575759888,-57,9961.0
5930,0.3490291237831116,0.42164912819862366,31,6524.0,1.2819567918777466,180,9961.0
5940,0.34898895025253296,2.4829142093658447,124,6524.0,2.498749017715454,19,9961.0
5950,0.34893733263015747,3.7316715717315674,-89,6524.0,8.204839706420898,-73,9961.0
5960,0.3488834798336029,2.556633949279785,-36,6524.0,7.646543025970459,250,9961.0
5970,0.3488549292087555,1.5909836292266846,73,6524.0,3.2102205753326416,-18,9961.0
5980,0.3488752245903015,-0.3112392723560333,-112,6524.0,0.7356119751930237,-34,9961.0
5990,0.34851357340812683,-1.1435922384262085,16,6524.0,-3.3943495750427246,161,9961.0
6000,0.34851768612861633,-3.609445095062256,10,6524.0,-2.3725554943084717,-148,9961.0
6010,0.34852540493011475,-0.34702470898628235,-187,6524.0,-3.690368175506592,-158,9961.0
6020,0.3485080599784851,-0.07456076145172119,48,6524.0,-9.381332397460938,-17,9961.0
6030,0.34787648916244507,1.7842963933944702,33,6524.0,-4.212109565734863,-176,9961.0
6040,0.34782713651657104,1.891499638557434,-117,6524.0,-0.01974298059940338,65,9961.0
6050,0.34776684641838074,0.9903060793876648,110,6524.0,-0.07667586207389832,64,9961.0
6060,0.3477080166339874,-1.2966688871383667,-19,6524.0,6.45145320892334,2,9961.0
6070,0.3477219045162201,3.6076292991638184,13,6524.0,4.053610324859619,163,9961.0
6080,0.3476627767086029,0.8250267505645752,163,6524.0,4.162708282470703,87,9961.0
6090,0.34764784574508667,-2.326932430267334,-68,6524.0,6.263697624206543,-70,9961.0
6100,0.3476198613643646,0.03834816813468933,-28,6524.0,1.6859662532806396,105,9961.0
6110,0.3476056754589081,-1.0707594156265259,31,6524.0,-3.410949230194092,-83,9961.0
6120,0.34902605414390564,-0.4188576638698578,-84,6524.0,-2.811018943786621,-150,9961.0
6130,0.3490825593471527,-1.0001294612884521,6,6524.0,-1.7625452280044556,64,9961.0
6140,0.34918156266212463,-1.9938676357269287,94,6524.0,-3.7214715480804443,-60,9961.0
6150,0.34928441047668457,-2.1599180698394775,-70,6524.0,-0.9970086812973022,-76,9961.0
6160,0.34767967462539673,-1.5370947122573853,31,6524.0,-3.385704517364502,79,9961.0
6170,0.3477270305156708,-0.7245709896087646,140,6524.0,-3.5913760662078857,-88,9961.0
6180,0.34782329201698303,-3.0150365829467773,-120,6524.0,-0.10687848925590515,-61,9961.0
6190,0.347882479429245,-3.82765793800354,-2,6524.0,-1.6579177379608154,84,9961.0
6200,0.34675538539886475,-2.140660047531128,-23,6524.0,-1.0473389625549316,-121,9961.0
6210,0.34676820039749146,-0.45675355195999146,-228,6524.0,-1.5488866567611694,-48,9961.0
6220,0.3467670977115631,0.4760877192020416,3,6524.0,2.3270294666290283,156,9961.0
6230,0.34678658843040466,-3.399785280227661,-73,6524.0,1.8215523958206177,-28,9961.0
6240,0.346819132566452,-4.366876602172852,-170,6524.0,1.7247998714447021,98,9961.0
6250,0.3493191599845886,-6.786396503448486,-38,6524.0,3.994654655456543,136,9961.0
6260,0.3494222164154053,-7.199489593505859,-102,6524.0,3.0872690677642822,-148,9961.0
6270,0.34958234429359436,-6.427151679992676,-114,6524.0,4.746170520782471,67,9961.0
6280,0.34970182180404663,-4.011382102966309,-6,6524.0,2.720346212387085,86,9961.0
6290,0.3511234223842621,-4.90492057800293,-145,6524.0,1.481940507888794,-118,9961.0
6300,0.3513059914112091,-0.9822004437446594,-99,6524.0,0.8625791072845459,34,9961.0
6310,0.35150182247161865,-2.5569467544555664,22,6524.0,3.3838913440704346,50,9961.0
6320,0.3516944348812103,0.6516110897064209,-29,6524.0,1.159591794013977,-87,9961.0
6330,0.3523525893688202,3.141373634338379,46,6524.0,-4.579885482788086,142,9961.0
6340,0.3525918126106262,4.090817928314209,210,6524.0,-0.7871521711349487,29,9961.0
6350,0.3528377413749695,2.328249454498291,-64,6524.0,3.6177425384521484,19,9961.0
6360,0.35311585664749146,1.4836407899856567,18,6524.0,8.85324764251709,256,9961.0
6370,0.35338157415390015,-1.1919142007827759,19,6524.0,9.145214080810547,67,9961.0
6380,0.35426682233810425,1.9659994840621948,-161,6524.0,9.791820526123047,109,9961.0
6390,0.3545324206352234,-1.9732111692428589,10,6524.0,3.540882110595703,216,9961.0
6400,0.3548046350479126,-2.0522401332855225,-60,6524.0,0.5024771094322205,-32,9961.0
6410,0.35506492853164673,-4.038189888000488,-92,6524.0,-2.258530855178833,-6,9961.0
6420,0.35560178756713867,-2.0108108520507812,100,6524.0,-4.497136116027832,-55,9961.0
6430,0.35591182112693787,1.1170905828475952,-15,6524.0,-9.427397727966309,-350,9961.0
6440,0.3562203049659729,0.3421379029750824,-104,6524.0,-6.809506893157959,-38,9961.0
6450,0.35648679733276367,2.4473161697387695,94,6524.0,-1.7867261171340942,-15,9961.0
6460,0.3567398488521576,1.3965798616409302,-45,6524.0,2.3363969326019287,47,9961.0
6470,0.357042521238327,1.1178308725357056,64,6524.0,3.4848361015319824,220,9961.0
6480,0.3572356700897217,2.753880023956299,-20,6524.0,3.2942309379577637,-57,9961.0
6490,0.35740146040916443,-0.1222703829407692,-65,6524.0,5.960881233215332,72,9961.0
6500,0.35752877593040466,1.7779327630996704,44,6524.0,2.141853094100952,48,9961.0
6510,0.3582368791103363,3.784940481185913,-36,6524.0,0.3178778290748596,-57,9961.0
6520,0.3584107756614685,2.241086483001709,27,6524.0,-0.931887686252594,256,9961.0
6530,0.35856544971466064,1.495198130607605,31,6524.0,1.0820187330245972,-182,9961.0
6540,0.3586737811565399,1.5497432947158813,-5,6524.0,-0.48880836367607117,41,9961.0
6550,0.3587699830532074,2.357783555984497,43,6524.0,0.556140124797821,-66,9961.0
6560,0.3593679666519165,2.5212337970733643,-19,6524.0,-0.49573054909706116,73,9961.0
6570,0.3594389259815216,4.464447021484375,161,6524.0,-2.9935226440429688,51,9961.0
6580,0.35947945713996887,2.8599612712860107,-46,6524.0,-0.14110663533210754,-139,9961.0
6590,0.35949766635894775,1.9094960689544678,28,6524.0,3.2952499389648438,59,9961.0
6600,0.3580878674983978,2.8179328441619873,51,6524.0,-0.4395667314529419,-59,9961.0
6610,0.35796740651130676,1.9701415300369263,-78,6524.0,-7.645232200622559,-44,9961.0
6620,0.3578192889690399,-1.2036598920822144,107,6524.0,1.8510547876358032,188,9961.0
6630,0.35762739181518555,-0.1444346159696579,41,6524.0,0.2505742013454437,-75,9961.0
6640,0.357295423746109,1.7038280963897705,12,6524.0,3.188102960586548,118,9961.0
6650,0.35713914036750793,2.424844264984131,91,6524.0,6.06003475189209,-26,9961.0
6660,0.356926292181015,2.0219802856445312,-103,6524.0,3.108346939086914,-113,9961.0
6670,0.35669246315956116,-0.24609948694705963,81,6524.0,8.335494041442871,200,9961.0
6680,0.3564811646938324,-0.6680107116699219,-2,6524.0,5.937295436859131,33,9961.0
6690,0.35648852586746216,2.206350326538086,50,6524.0,4.13868522644043,179,9961.0
6700,0.35628509521484375,4.023417949676514,173,6524.0,-0.32082638144493103,20,9961.0
6710,0.35607537627220154,3.9850215911865234,-2,6524.0,-5.331640243530273,-199,9961.0
6720,0.35588493943214417,6.424586296081543,90,6524.0,-5.303702354431152,7,9961.0
6730,0.355361670255661,5.630402088165283,80,6524.0,-5.06610631942749,-88,9961.0
6740,0.35517582297325134,3.38571834564209,-27,6524.0,-3.7440667152404785,-34,9961.0
6750,0.35498303174972534,2.7089040279388428,112,6524.0,-0.23386456072330475,84,9961.0
6760,0.35483935475349426,1.355696201324463,-29,6524.0,0.6249799728393555,-87,9961.0
6770,0.3544139564037323,0.06285171210765839,-6,6524.0,0.041947681456804276,91,9961.0
6780,0.3541907072067261,-1.6371482610702515,77,6524.0,0.9000025987625122,-15,9961.0
6790,0.35397830605506897,-1.6513258218765259,-131,6524.0,3.2292232513427734,-78,9961.0
6800,0.3537902534008026,-0.7468522787094116,14,6524.0,5.53916072845459,105,9961.0
6810,0.35360202193260193,-0.5643536448478699,8,6524.0,-2.2573208808898926,-122,9961.0
6820,0.3540220856666565,-0.016916770488023758,-127,6524.0,-0.7576059103012085,-50,9961.0
6830,0.35389086604118347,-1.3056602478027344,30,6524.0,-2.8841147422790527,88,9961.0
6840,0.3538011610507965,-1.0066595077514648,52,6524.0,-0.19532686471939087,-75,9961.0
6850,0.35369643568992615,1.4897972345352173,-30,6524.0,-1.1659793853759766,-22,9961.0
6860,0.3521495759487152,1.6069930791854858,108,6524.0,-1.8204874992370605,96,9961.0
6870,0.3520274758338928,0.0173298642039299,-117,6524.0,-1.3445818424224854,-142,9961.0
6880,0.35193905234336853,-0.04176536202430725,-60,6524.0,-4.39108943939209,-25,9961.0
6890,0.35183191299438477,-0.2365526705980301,84,6524.0,-3.072103261947632,-10,9961.0
6900,0.3517301082611084,-0.58701491355896,-100,6524.0,-5.578929424285889,-230,9961.0
6910,0.35304537415504456,0.031422968953847885,-37,6524.0,-2.95115065574646,88,9961.0
6920,0.35307708382606506,-2.0208353996276855,65,6524.0,3.812926769256592,-47,9961.0
6930,0.3530882000923157,-2.2399518489837646,-106,6524.0,7.6794753074646,24,9961.0
6940,0.3531019687652588,-1.7202568054199219,65,6524.0,4.766945838928223,246,9961.0
6950,0.35309073328971863,2.222322940826416,137,6524.0,1.947371006011963,-36,9961.0
6960,0.3530774414539337,3.9793593883514404,-37,6524.0,-0.31636932492256165,6,9961.0
6970,0.3530217409133911,3.3194806575775146,131,6524.0,1.091810941696167,88,9961.0
6980,0.3529511094093323,1.6863054037094116,10,6524.0,0.5870075225830078,-158,9961.0
6990,0.3533306121826172,0.5231242179870605,-110,6524.0,-3.7926735877990723,-6,9961.0
7000,0.35326796770095825,-2.3552329540252686,23,6524.0,-1.9680596590042114,-18,9961.0
7010,0.35321521759033203,-3.220064878463745,-164,6524.0,-3.3090076446533203,-172,9961.0
7020,0.3531815707683563,-6.21560001373291,-156,6524.0,1.7481200695037842,78,9961.0
7030,0.3531365692615509,-5.046880722045898,30,6524.0,-2.001662015914917,-77,9961.0
7040,0.35217493772506714,-2.210873603820801,-124,6524.0,-7.628641605377197,-141,9961.0
7050,0.35205140709877014,-3.2152504920959473,-24,6524.0,-4.488117218017578,112,9961.0
7060,0.3519463539123535,-1.8851103782653809,135,6524.0,-1.2557624578475952,-109,9961.0
7070,0.3518376648426056,-1.0030968189239502,-8,6524.0,2.225325345993042,-79,9961.0
7080,0.3518083989620209,-0.9515886902809143,73,6524.0,1.5416051149368286,81,9961.0
7090,0.35168203711509705,0.6766268014907837,-8,6524.0,2.3123838901519775,-79,9961.0
7100,0.35165640711784363,0.25837743282318115,-109,6524.0,-1.5992823839187622,-60,9961.0
7110,0.3515692949295044,-0.7800363898277283,88,6524.0,-1.5960274934768677,17,9961.0
7120,0.35147789120674133,1.2762359380722046,-11,6524.0,-2.118736743927002,-229,9961.0
7130,0.3516193628311157,1.4717352390289307,-82,6524.0,-3.690194845199585,-29,9961.0
7140,0.3515613377094269,1.8104729652404785,50,6524.0,-3.1294307708740234,12,9961.0
7150,0.35150447487831116,0.7901021242141724,-77,6524.0,0.18160885572433472,-42,9961.0
7160,0.3514374792575836,-1.7093240022659302,133,6524.0,-0.5439379811286926,72,9961.0
7170,0.3508252501487732,-1.2264046669006348,-73,6524.0,7.354657173156738,-5,9961.0
7180,0.3507990539073944,-1.6413553953170776,-34,6524.0,3.734323501586914,146,9961.0
7190,0.35078901052474976,-2.305551767349243,66,6524.0,7.329364776611328,89,9961.0
7200,0.35084155201911926,2.1401138305664062,-58,6524.0,1.7160893678665161,-40,9961.0
7210,0.3509248197078705,0.15505820512771606,-51,6524.0,-0.5148506164550781,85,9961.0
7220,0.3518811762332916,-1.1618002653121948,49,6524.0,0.13184162974357605,-106,9961.0
7230,0.35204291343688965,3.3351845741271973,-120,6524.0,-3.9154093265533447,-81,9961.0
7240,0.35222938656806946,-0.12417863309383392,-13,6524.0,-2.91135311126709,97,9961.0
7250,0.352431058883667,2.5645501613616943,16,6524.0,-4.939753532409668,-163,9961.0
7260,0.35447028279304504,-0.5320627093315125,-55,6524.0,-4.233018398284912,-140,9961.0
7270,0.35477957129478455,-1.9392447471618652,39,6524.0,3.3465449810028076,-18,9961.0
7280,0.3551063537597656,-2.7631537914276123,-105,6524.0,7.3255791664123535,36,9961.0
7290,0.3554370701313019,-1.4515862464904785,21,6524.0,7.849553108215332,254,9961.0
7300,0.3559679388999939,-2.6358094215393066,-45,6524.0,9.816286087036133,93,9961.0
7310,0.35627904534339905,-2.7740542888641357,-44,6524.0,7.026190280914307,192,9961.0
7320,0.356640487909317,-2.8987433910369873,63,6524.0,3.9104621410369873,7,9961.0
7330,0.3570414185523987,-3.8549792766571045,-199,6524.0,2.7347793579101562,-59,9961.0
7340,0.3573755919933319,-4.575773239135742,-81,6524.0,-1.9684367179870605,20,9961.0
7350,0.3574835956096649,-3.5258920192718506,-90,6524.0,-1.513317346572876,-187,9961.0
7360,0.3577553927898407,-5.5816650390625,-54,6524.0,1.3565348386764526,107,9961.0
7370,0.35804620385169983,-1.7023804187774658,68,6524.0,2.968848466873169,35,9961.0
7380,0.3583463132381439,4.575005531311035,34,6524.0,-3.370107412338257,11,9961.0
7390,0.3580937385559082,6.53385066986084,222,6524.0,-1.1912586688995361,89,9961.0
7400,0.35834944248199463,5.858340740203857,4,6524.0,1.2307579517364502,-17,9961.0
7410,0.3583517372608185,6.3795647621154785,144,6524.0,4.28333854675293,52,9961.0
7420,0.35879597067832947,8.696189880371094,94,6524.0,3.5072808265686035,-84,9961.0
7430,0.35888949036598206,8.632664680480957,-14,6524.0,-0.8181554079055786,159,9961.0
7440,0.35924413800239563,5.610124588012695,102,6524.0,5.430243492126465,177,9961.0
7450,0.3592562973499298,2.617084503173828,-33,6524.0,1.5370349884033203,136,9961.0
7460,0.35936567187309265,-1.0320870876312256,156,6524.0,-3.2356395721435547,-94,9961.0
7470,0.3594653308391571,0.927392840385437,-37,6524.0,-4.208315849304199,-115,9961.0
7480,0.36051204800605774,-0.305244117975235,66,6524.0,-3.3490726947784424,-3,9961.0
7490,0.3606487512588501,-0.06801530718803406,-105,6524.0,-3.3097476959228516,-203,9961.0
7500,0.3607683479785919,2.976473093032837,32,6524.0,-5.423868179321289,-4,9961.0
7510,0.36085450649261475,1.1765519380569458,-5,6524.0,2.0201222896575928,-88,9961.0
7520,0.36055994033813477,-2.2339909076690674,11,6524.0,5.538070201873779,189,9961.0
7530,0.36065420508384705,-1.5645384788513184,36,6524.0,4.631124973297119,25,9961.0
7540,0.36064061522483826,0.01458179671317339,-10,6524.0,8.47443962097168,251,9961.0
7550,0.3607936501502991,-0.4851408302783966,118,6524.0,8.108925819396973,39,9961.0
7560,0.3608068525791168,1.7832601070404053,-70,6524.0,5.8243088722229,176,9961.0
7570,0.36131396889686584,2.54258394241333,137,6524.0,2.306143283843994,-214,9961.0
7580,0.36131080985069275,2.580333948135376,-140,6524.0,5.703000545501709,61,9961.0
7590,0.3612908720970154,-0.3413657546043396,67,6524.0,3.324655055999756,34,9961.0
7600,0.36129501461982727,0.6004024744033813,-117,6524.0,1.2428646087646484,3,9961.0
7610,0.36194315552711487,3.0759801864624023,113,6524.0,4.260417461395264,97,9961.0
7620,0.36193791031837463,3.0267906188964844,-26,6524.0,-1.8005907535552979,-25,9961.0
7630,0.3619198203086853,-0.6724799871444702,96,6524.0,-1.5352917909622192,19,9961.0
7640,0.3618423342704773,-2.799740791320801,-98,6524.0,-4.95253849029541,-137,9961.0
7650,0.3606415390968323,-3.507617235183716,-79,6524.0,-6.224775791168213,45,9961.0
7660,0.3606415390968323,-6.670494556427002,-144,6524.0,-0.151148721575737,-123,9961.0
7670,0.36056119203567505,-7.150424003601074,-110,6524.0,-0.12297182530164719,91,9961.0
7680,0.3604578971862793,-7.115288734436035,-152,6524.0,1.029901146888733,-84,9961.0
7690,0.3603360950946808,-7.267677307128906,-98,6524.0,3.331759214401245,182,9961.0
7700,0.36009854078292847,-4.872383117675781,-20,6524.0,3.160693645477295,5,9961.0
7710,0.3599056899547577,-2.377669334411621,-39,6524.0,3.2472891807556152,166,9961.0
7720,0.35970672965049744,-0.053753484040498734,84,6524.0,3.1575820446014404,-6,9961.0
7730,0.3595028221607208,1.154563069343567,-77,6524.0,0.48039552569389343,-15,9961.0
7740,0.35955849289894104,1.5426979064941406,77,6524.0,-3.5137760639190674,-141,9961.0
7750,0.35932669043540955,0.9736717343330383,-139,6524.0,-5.993823051452637,-73,9961.0
7760,0.35903987288475037,-1.0837043523788452,74,6524.0,-7.4444098472595215,-18,9961.0
7770,0.35874515771865845,-1.3056999444961548,-66,6524.0,-5.3028764724731445,-39,9961.0
7780,0.3584870398044586,-4.285854339599609,-7,6524.0,-4.768448352813721,-141,9961.0
7790,0.35773295164108276,-4.743480205535889,-254,6524.0,-1.3714513778686523,-39,9961.0
7800,0.3574139475822449,-5.818021297454834,-38,6524.0,-1.3741817474365234,-44,9961.0
7810,0.3571198582649231,-5.765661716461182,-234,6524.0,0.5659138560295105,-6,9961.0
7820,0.35678812861442566,-4.273164749145508,13,6524.0,1.1865870952606201,117,9961.0
7830,0.35667577385902405,-3.0478124618530273,-63,6524.0,2.0263078212738037,-75,9961.0
7840,0.3564184010028839,-1.3496615886688232,-8,6524.0,2.617278575897217,249,9961.0
7850,0.3561919927597046,-3.4597582817077637,71,6524.0,2.832301378250122,-49,9961.0
7860,0.3559657633304596,1.7799090147018433,-55,6524.0,-0.8346463441848755,138,9961.0
7870,0.3554544150829315,-0.6731193661689758,34,6524.0,1.8647912740707397,-18,9961.0
7880,0.3552120625972748,2.038393020629883,-120,6524.0,-2.129847526550293,-108,9961.0
7890,0.3549928367137909,-1.9319255352020264,31,6524.0,-4.598647594451904,3,9961.0
7900,0.3547520935535431,-0.5398688316345215,-42,6524.0,1.5358432531356812,-75,9961.0
7910,0.35447654128074646,1.5858266353607178,51,6524.0,-0.7798835635185242,160,9961.0
7920,0.35608187317848206,-1.6518646478652954,110,6524.0,1.8131452798843384,-107,9961.0
7930,0.35597169399261475,2.8224263191223145,21,6524.0,2.749816656112671,35,9961.0
7940,0.35592004656791687,3.9281363487243652,120,6524.0,-0.4143889248371124,29,9961.0
7950,0.3558799922466278,2.194418430328369,-46,6524.0,0.8241192698478699,-80,9961.0
7960,0.35551485419273376,1.9925178289413452,48,6524.0,-2.6843576431274414,-9,9961.0
7970,0.35548633337020874,1.1201905012130737,-40,6524.0,1.4861162900924683,-80,9961.0
7980,0.3555087447166443,0.581749677658081,12,6524.0,-3.6568820476531982,108,9961.0
7990,0.355558305978775,1.493112564086914,113,6524.0,-1.8427902460098267,-90,9961.0
8000,0.35558298230171204,0.9103662371635437,-30,6524.0,0.5431607365608215,127,9961.0
8010,0.35615482926368713,-0.8635955452919006,116,6524.0,0.7854557037353516,-37,9961.0
8020,0.3562147915363312,-2.7082512378692627,-143,6524.0,0.6188993453979492,-65,9961.0
8030,0.35631248354911804,-0.28876516222953796,56,6524.0,3.8844916820526123,93,9961.0
8040,0.3564412593841553,-0.3349778950214386,-75,6524.0,4.305019378662109,-60,9961.0
8050,0.3575296103954315,0.5036520957946777,8,6524.0,8.710612297058105,215,9961.0
8060,0.3577427864074707,4.036022663116455,108,6524.0,0.5169719457626343,5,9961.0
8070,0.3579482138156891,3.851649045944214,11,6524.0,3.1291303634643555,124,9961.0
8080,0.35814693570137024,4.827375888824463,206,6524.0,-2.6250243186950684,-82,9961.0
8090,0.3585992753505707,2.2170801162719727,-24,6524.0,-2.6322522163391113,-192,9961.0
8100,0.35881444811820984,3.6348042488098145,183,6524.0,-5.032797336578369,-114,9961.0
8110,0.35898783802986145,4.042281150817871,-2,6524.0,-5.078476905822754,-127,9961.0
8120,0.3591381907463074,4.359949111938477,47,6524.0,-1.140514850616455,55,9961.0
8130,0.35929593443870544,3.3291845321655273,76,6524.0,3.3426434993743896,-14,9961.0
8140,0.3581254184246063,1.713963508605957,39,6524.0,-0.6528703570365906,186,9961.0
8150,0.35822227597236633,-0.6231223344802856,24,6524.0,3.2218515872955322,-2,9961.0
8160,0.3583123981952667,0.9517481923103333,-34,6524.0,1.7499873638153076,132,9961.0
8170,0.35831478238105774,-1.6628754138946533,8,6524.0,5.086427688598633,-27,9961.0
8180,0.36050501465797424,-4.9263787269592285,-193,6524.0,1.902403473854065,-21,9961.0
8190,0.3606366813182831,-2.156315803527832,36,6524.0,-3.009964942932129,-74,9961.0
8200,0.360762357711792,-1.8552910089492798,-131,6524.0,1.6876941919326782,-13,9961.0
8210,0.3608783185482025,-0.20573028922080994,45,6524.0,-1.1002373695373535,33,9961.0
8220,0.36097443103790283,0.6060319542884827,-26,6524.0,-4.778602123260498,-183,9961.0
8230,0.36141496896743774,1.1564226150512695,85,6524.0,-2.4728617668151855,-47,9961.0
8240,0.3614405691623688,2.6116597652435303,7,6524.0,-1.0921053886413574,-182,9961.0
8250,0.36144983768463135,3.6192574501037598,8,6524.0,-2.034958600997925,-34,9961.0
8260,0.36143195629119873,1.2398418188095093,30,6524.0,-3.353642225265503,-106,9961.0
8270,0.36044687032699585,0.19715361297130585,-105,6524.0,-1.164514422416687,63,9961.0
8280,0.3602888584136963,-1.686122179031372,80,6524.0,5.363541603088379,51,9961.0
8290,0.36012470722198486,1.6765930652618408,-34,6524.0,-5.110838890075684,56,9961.0
8300,0.3599710464477539,1.0471274852752686,136,6524.0,-0.29944726824760437,111,9961.0
8310,0.360264390707016,4.601895332336426,-25,6524.0,0.6061975359916687,-143,9961.0
8320,0.3601250946521759,2.094298839569092,46,6524.0,0.6716984510421753,46,9961.0
8330,0.3599402606487274,2.7747371196746826,23,6524.0,-1.5754224061965942,-151,9961.0
8340,0.35973528027534485,1.7772396802902222,-6,6524.0,0.7561984658241272,96,9961.0
8350,0.3595455288887024,2.589952230453491,13,6524.0,-2.859309434890747,-96,9961.0
8360,0.3588303029537201,2.4592127799987793,62,6524.0,-1.198812484741211,-2,9961.0
8370,0.35864418745040894,0.8432770371437073,27,6524.0,1.2289971113204956,65,9961.0
8380,0.3584383726119995,0.5525627732276917,-46,6524.0,-0.9833027720451355,-121,9961.0
8390,0.358266681432724,2.7321865558624268,88,6524.0,-3.1314191818237305,-61,9961.0
8400,0.35804086923599243,3.239759683609009,-93,6524.0,-4.183891773223877,-110,9961.0
8410,0.3579180836677551,1.788103461265564,97,6524.0,-1.4378925561904907,52,9961.0
8420,0.3578098714351654,1.6718589067459106,-29,6524.0,1.4318382740020752,-67,9961.0
8430,0.3576805591583252,2.4985687732696533,3,6524.0,-1.9328117370605469,232,9961.0
8440,0.35755783319473267,-1.4268041849136353,95,6524.0,-1.1955595016479492,-69,9961.0
8450,0.35807639360427856,0.20100261270999908,-8,6524.0,-4.575662136077881,-24,9961.0
8460,0.35805651545524597,-1.8334345817565918,73,6524.0,-3.772016763687134,-115,9961.0
8470,0.3580343723297119,-3.0811269283294678,-172,6524.0,-4.389910697937012,-95,9961.0
8480,0.35798636078834534,-2.8704068660736084,52,6524.0,-5.79943323135376,-14,9961.0
8490,0.35759860277175903,-1.708703875541687,-46,6524.0,-0.29151326417922974,-130,9961.0
8500,0.35757148265838623,-2.9576756954193115,-25,6524.0,3.732361078262329,74,9961.0
8510,0.3575632870197296,-0.9947763085365295,53,6524.0,0.7421595454216003,-2,9961.0
8520,0.3575113117694855,0.5003847479820251,-35,6524.0,0.22238703072071075,31,9961.0
8530,0.35727572441101074,1.4745125770568848,155,6524.0,-1.616721272468567,2,9961.0
8540,0.35720619559288025,1.8949781656265259,-20,6524.0,-1.899878978729248,-110,9961.0
8550,0.3571656346321106,-0.1657058298587799,48,6524.0,-3.7047524452209473,12,9961.0
8560,0.35714778304100037,-0.8220027685165405,-13,6524.0,0.21906064450740814,-159,9961.0
8570,0.3571503162384033,-1.7935230731964111,-98,6524.0,1.224562406539917,73,9961.0
8580,0.35709434747695923,-1.3096495866775513,4,6524.0,2.059483528137207,60,9961.0
8590,0.35711193084716797,-1.8435672521591187,-131,6524.0,4.5017805099487305,68,9961.0
8600,0.35714173316955566,-1.6965409517288208,48,6524.0,7.819889545440674,276,9961.0
8610,0.3571547269821167,-0.6226968765258789,-67,6524.0,5.226719379425049,-53,9961.0
8620,0.3566940724849701,-0.6236515045166016,6,6524.0,2.60947585105896,132,9961.0
8630,0.35666123032569885,-2.8845221996307373,20,6524.0,-0.5943537354469299,-92,9961.0
8640,0.356662780046463,-2.642090320587158,-186,6524.0,-6.237181186676025,-113,9961.0
8650,0.3566533625125885,-3.166832685470581,16,6524.0,0.22587375342845917,-8,9961.0
8660,0.3566453158855438,-3.3959603309631348,-138,6524.0,-1.9028961658477783,-95,9961.0
8670,0.35634270310401917,-3.5391287803649902,-69,6524.0,0.9747055172920227,230,9961.0
8680,0.3562844395637512,-3.984196662902832,-53,6524.0,-5.70134973526001,-62,9961.0
8690,0.3562706410884857,-4.161364555358887,-85,6524.0,3.181246280670166,99,9961.0
8700,0.35623958706855774,-0.36921900510787964,122,6524.0,1.6257985830307007,-18,9961.0
8710,0.35611236095428467,2.9350059032440186,-53,6524.0,-2.743621587753296,-157,9961.0
8720,0.35609033703804016,1.1915291547775269,36,6524.0,1.0858924388885498,138,9961.0
8730,0.3560960590839386,-0.5409826636314392,-32,6524.0,6.671290874481201,-39,9961.0
8740,0.35613200068473816,-2.248579740524292,-95,6524.0,5.310815811157227,227,9961.0
8750,0.3549768626689911,-0.6182239055633545,75,6524.0,-0.9723151922225952,28,9961.0
8760,0.355042964220047,-2.8051276206970215,-134,6524.0,0.9925705194473267,119,9961.0
8770,0.3550693392753601,-3.5763890743255615,25,6524.0,2.099543571472168,46,9961.0
8780,0.3550974428653717,-2.7607791423797607,-102,6524.0,-0.8887296915054321,-170,9961.0
8790,0.35511448979377747,-1.0246528387069702,-38,6524.0,-7.321942329406738,-10,9961.0
8800,0.3546620011329651,-1.0139436721801758,161,6524.0,-5.422266006469727,-130,9961.0
8810,0.35459378361701965,-0.9380790591239929,9,6524.0,1.744457483291626,27,9961.0
8820,0.3545754849910736,3.2323951721191406,153,6524.0,5.79007625579834,92,9961.0
8830,0.3545249402523041,3.755347490310669,-37,6524.0,-4.422002792358398,-165,9961.0
8840,0.3546502888202667,3.9286720752716064,60,6524.0,-1.6656885147094727,-53,9961.0
8850,0.35454061627388,3.715545415878296,52,6524.0,-0.24511224031448364,-43,9961.0
8860,0.354432076215744,3.388948678970337,-24,6524.0,-2.4143893718719482,69,9961.0
8870,0.35435307025909424,1.7836109399795532,133,6524.0,-3.4845540523529053,32,9961.0
8880,0.3542417585849762,0.476959228515625,8,6524.0,-4.363657474517822,-130,9961.0
8890,0.354405015707016,-1.8757950067520142,0,6524.0,0.3486948013305664,107,9961.0
8900,0.3542575240135193,-2.025259256362915,-39,6524.0,-0.31969699263572693,-182,9961.0
8910,0.35412734746932983,-2.456549644470215,-86,6524.0,-0.8211812973022461,47,9961.0
8920,0.35402923822402954,-1.3644517660140991,38,6524.0,-1.3863322734832764,-11,9961.0
8930,0.35355862975120544,-0.11778225004673004,-113,6524.0,-0.33348217606544495,7,9961.0
8940,0.3534241020679474,-0.09472537785768509,104,6524.0,-0.05152849853038788,194,9961.0
8950,0.3532957136631012,0.3969448506832123,4,6524.0,0.16476136445999146,-135,9961.0
8960,0.3531992733478546,1.139115810394287,45,6524.0,-5.020198345184326,12,9961.0
8970,0.3530649244785309,2.3832650184631348,115,6524.0,-0.9836411476135254,-121,9961.0
8980,0.3529537320137024,2.357819080352783,-79,6524.0,-2.4426817893981934,106,9961.0
8990,0.3528631925582886,3.6863062381744385,77,6524.0,-2.4241275787353516,-83,9961.0
9000,0.3527931571006775,1.1421928405761719,-37,6524.0,-0.6625498533248901,53,9961.0
9010,0.35275381803512573,-0.9242862462997437,134,6524.0,-0.08928946405649185,70,9961.0
9020,0.35285061597824097,-0.1380365639925003,-40,6524.0,-0.6839094161987305,-159,9961.0
9030,0.3528828024864197,-3.1969728469848633,21,6524.0,1.5592122077941895,57,9961.0
9040,0.35293543338775635,-4.038471698760986,-48,6524.0,3.046361207962036,-153,9961.0
9050,0.35299697518348694,-2.812565803527832,-184,6524.0,0.9092157483100891,124,9961.0
9060,0.3534158170223236,-4.8896708488464355,-14,6524.0,4.776949405670166,71,9961.0
9070,0.3535393178462982,-2.158057689666748,-86,6524.0,0.04490218684077263,13,9961.0
9080,0.35368016362190247,1.220027208328247,102,6524.0,-2.1197023391723633,145,9961.0
9090,0.35386911034584045,0.2836134135723114,42,6524.0,1.0047472715377808,-95,9961.0
9100,0.3541039526462555,3.5355427265167236,-55,6524.0,-3.072462797164917,-44,9961.0
9110,0.3542706370353699,0.3455328345298767,33,6524.0,-0.1340746432542801,-65,9961.0
9120,0.3544732630252838,0.44849756360054016,-92,6524.0,-2.371546983718872,-91,9961.0
9130,0.3546619713306427,-2.0034828186035156,44,6524.0,-8.235712051391602,29,9961.0
9140,0.3548426628112793,-0.3496493697166443,-38,6524.0,-5.366697788238525,-94,9961.0
9150,0.35584312677383423,-0.7988665103912354,-30,6524.0,-3.4071903228759766,77,9961.0
9160,0.3560616970062256,-0.9582269787788391,37,6524.0,-0.7115793824195862,-112,9961.0
9170,0.356266051530838,-1.8151681423187256,-145,6524.0,5.965061664581299,-60,9961.0
9180,0.3564608693122864,1.2748717069625854,130,6524.0,-2.4856786727905273,35,9961.0
9190,0.35794490575790405,4.52462100982666,32,6524.0,2.705357313156128,64,9961.0
9200,0.35821279883384705,3.3559720516204834,137,6524.0,7.4664201736450195,212,9961.0
9210,0.3584294319152832,4.88946533203125,38,6524.0,9.670616149902344,-61,9961.0
9220,0.3586430251598358,4.03143310546875,36,6524.0,9.017247200012207,217,9961.0
9230,0.3588837683200836,2.2151291370391846,21,6524.0,5.4110894203186035,58,9961.0
9240,0.35956859588623047,0.8288626074790955,-30,6524.0,0.6902729272842407,115,9961.0
9250,0.35983431339263916,-1.4702954292297363,96,6524.0,-3.086669921875,-84,9961.0
9260,0.3600497543811798,-2.1004080772399902,-169,6524.0,-4.144494533538818,-107,9961.0
9270,0.3602259159088135,-3.2893993854522705,-74,6524.0,-3.78996205329895,53,9961.0
9280,0.35946011543273926,-2.1819770336151123,-83,6524.0,-3.5527288913726807,-52,9961.0
9290,0.35961616039276123,-1.9129794836044312,57,6524.0,-0.5114465951919556,180,9961.0
9300,0.35973984003067017,0.01026101689785719,-37,6524.0,3.006765842437744,-92,9961.0
9310,0.3598267138004303,1.306768536567688,-15,6524.0,2.6716442108154297,61,9961.0
9320,0.3598805069923401,4.701775550842285,89,6524.0,1.0934765338897705,-41,9961.0
9330,0.3603516221046448,2.9726054668426514,-23,6524.0,1.4873923063278198,66,9961.0
9340,0.36040130257606506,-0.5217054486274719,173,6524.0,2.5552961826324463,7,9961.0
9350,0.36043235659599304,-4.314180374145508,-134,6524.0,-1.5808113813400269,-161,9961.0
9360,0.360416978597641,-2.3839306831359863,-13,6524.0,0.9220443964004517,8,9961.0
9370,0.3594042658805847,-2.1360726356506348,-85,6524.0,2.52951717376709,-33,9961.0
9380,0.3592827320098877,-1.067260503768921,83,6524.0,4.042848110198975,228,9961.0
9390,0.3591669499874115,-0.4020930230617523,-20,6524.0,4.955885410308838,-58,9961.0
9400,0.35902950167655945,-0.47822579741477966,-29,6524.0,4.0853352546691895,95,9961.0
9410,0.3585659861564636,1.9740363359451294,30,6524.0,5.470022678375244,43,9961.0
9420,0.3583972156047821,6.320052623748779,-12,6524.0,2.4541540145874023,168,9961.0
9430,0.3582201898097992,4.124680519104004,206,6524.0,2.9205243587493896,149,9961.0
9440,0.3580854535102844,1.8421599864959717,12,6524.0,-1.7029396295547485,-207,9961.0
9450,0.3580058813095093,4.752730369567871,51,6524.0,-6.392563819885254,-54,9961.0
9460,0.35674813389778137,0.28508567810058594,-2,6524.0,-4.786239147186279,-137,9961.0
9470,0.35664719343185425,1.4854203462600708,-1,6524.0,-3.410761594772339,98,9961.0
9480,0.3565261960029602,5.089085102081299,233,6524.0,-4.80910062789917,-160,9961.0
9490,0.3564133048057556,3.6757781505584717,-67,6524.0,3.0247228145599365,-82,9961.0
9500,0.3562111258506775,2.5559465885162354,71,6524.0,6.757699012756348,83,9961.0
9510,0.3561329245567322,3.107898235321045,-44,6524.0,5.962422847747803,113,9961.0
9520,0.35602205991744995,2.72585129737854,122,6524.0,6.053336143493652,245,9961.0
9530,0.3559999465942383,3.3630175590515137,-13,6524.0,2.8941118717193604,-106,9961.0
9540,0.3559899628162384,0.19638362526893616,-13,6524.0,2.20898175239563,29,9961.0
9550,0.3568112552165985,0.7902236580848694,-2,6524.0,-2.3350741863250732,-110,9961.0
9560,0.35690468549728394,0.6923421621322632,-107,6524.0,-5.235885143280029,-54,9961.0
9570,0.3570125102996826,-0.3029046654701233,169,6524.0,-5.492713451385498,-81,9961.0
9580,0.35711973905563354,0.06498919427394867,-55,6524.0,-5.252493858337402,-258,9961.0
9590,0.3567901849746704,0.11778125166893005,12,6524.0,-4.179325580596924,-29,9961.0
9600,0.3569616675376892,3.3480966091156006,-8,6524.0,-1.97127366065979,-102,9961.0
9610,0.35712671279907227,1.2814927101135254,-31,6524.0,4.412369251251221,256,9961.0
9620,0.3573102056980133,4.019311904907227,148,6524.0,4.790131568908691,-110,9961.0
9630,0.35654041171073914,0.29983845353126526,43,6524.0,7.408314228057861,134,9961.0
9640,0.3566967844963074,1.6345133781433105,60,6524.0,3.919738531112671,17,9961.0
9650,0.35690343379974365,2.425935983657837,49,6524.0,3.214935779571533,170,9961.0
9660,0.3570609986782074,2.0568959712982178,132,6524.0,3.193660259246826,-61,9961.0
9670,0.35715827345848083,2.3698742389678955,-111,6524.0,-1.5709866285324097,23,9961.0
9680,0.3571467399597168,1.088642954826355,85,6524.0,-2.6645305156707764,35,9961.0
9690,0.357271283864975,-0.084868885576725,-48,6524.0,-4.268205165863037,-75,9961.0
9700,0.35742509365081787,-1.4052388668060303,86,6524.0,-0.8695722222328186,87,9961.0
9710,0.3575710952281952,-1.9896856546401978,-76,6524.0,-2.634220600128174,-251,9961.0
9720,0.35781511664390564,-3.1532227993011475,-94,6524.0,-4.091930389404297,11,9961.0
9730,0.35793912410736084,-3.2182796001434326,3,6524.0,-2.7844247817993164,0,9961.0
9740,0.3580738604068756,-2.80355167388916,-50,6524.0,1.8116095066070557,124,9961.0
9750,0.35822319984436035,-0.6207822561264038,59,6524.0,-3.444772481918335,-157,9961.0
9760,0.35834217071533203,-0.4553222954273224,-230,6524.0,0.9170791506767273,-47,9961.0
9770,0.3574845790863037,-1.3514790534973145,24,6524.0,3.526029348373413,139,9961.0
9780,0.35744473338127136,-0.9638094305992126,-66,6524.0,1.3183221817016602,81,9961.0
9790,0.3573974370956421,-0.28371134400367737,19,6524.0,1.5719932317733765,104,9961.0
9800,0.3573891222476959,-1.516348123550415,-62,6524.0,1.864365816116333,-129,9961.0
9810,0.35720670223236084,-0.07373920828104019,-22,6524.0,0.2273741364479065,100,9961.0
9820,0.35712409019470215,0.13842737674713135,169,6524.0,-1.308211326599121,-99,9961.0
9830,0.3570254147052765,1.7895879745483398,15,6524.0,-0.903649091720581,-46,9961.0
9840,0.3569395840167999,2.4274845123291016,109,6524.0,-0.4567168354988098,-66,9961.0
9850,0.3554454445838928,3.601212501525879,-53,6524.0,-1.3665523529052734,-45,9961.0
9860,0.3553508520126343,2.7461063861846924,127,6524.0,-2.016474962234497,159,9961.0
9870,0.35523080825805664,1.5508885383605957,62,6524.0,-0.3224896192550659,-197,9961.0
9880,0.3551122844219208,-1.285064935684204,-56,6524.0,0.3108467757701874,-19,9961.0
9890,0.35500985383987427,-0.23385608196258545,-20,6524.0,-2.9088363647460938,-101,9961.0
9900,0.35413116216659546,-1.2236238718032837,-109,6524.0,-2.9680752754211426,21,9961.0
9910,0.3539860248565674,-3.8343489170074463,71,6524.0,5.5015435218811035,163,9961.0
9920,0.3538118302822113,-4.2502641677856445,-129,6524.0,-2.176516056060791,-119,9961.0
9930,0.35362038016319275,-4.84526252746582,-86,6524.0,-1.4265326261520386,55,9961.0
9940,0.3532532751560211,-5.14740514755249,-82,6524.0,-1.793268084526062,-90,9961.0
9950,0.3530563414096832,-5.020165920257568,-179,6524.0,-2.8199424743652344,33,9961.0
9960,0.35292983055114746,-4.36880350112915,110,6524.0,-3.175499200820923,-12,9961.0
9970,0.35277271270751953,-1.9418457746505737,-27,6524.0,-1.1158857345581055,-260,9961.0
9980,0.35315439105033875,1.9728026390075684,-93,6524.0,-5.641693115234375,-50,9961.0
9990,0.3530644476413727,-0.6761606335639954,-5,6524.0,-1.1005067825317383,-20,9961.0
10000,0.3529823124408722,0.5746973156929016,-47,6524.0,-2.2378909587860107,40,9961.0
10010,0.35290297865867615,1.1815769672393799,146,6524.0,-1.101997971534729,34,9961.0
10020,0.35287749767303467,0.36249831318855286,-80,6524.0,6.813988208770752,-33,9961.0
10030,0.3529473543167114,0.46858975291252136,-23,6524.0,2.8321001529693604,124,9961.0
10040,0.3530091941356659,0.2440662384033203,61,6524.0,7.450971603393555,89,9961.0
10050,0.35304877161979675,-0.009646913036704063,-36,6524.0,3.214238405227661,114,9961.0
10060,0.353050172328949,-0.3514898121356964,45,6524.0,1.6187942028045654,15,9961.0
10070,0.3538263440132141,-3.175718069076538,-156,6524.0,1.6907929182052612,-193,9961.0
10080,0.3540429472923279,-2.829312801361084,-59,6524.0,-6.546844005584717,4,9961.0
10090,0.35420358180999756,-4.437167644500732,115,6524.0,-5.22482967376709,-194,9961.0
10100,0.35435399413108826,-1.8214218616485596,-116,6524.0,-7.683382511138916,-90,9961.0
10110,0.3545375466346741,-0.8368942141532898,16,6524.0,-6.5337958335876465,-65,9961.0
10120,0.3553465008735657,-1.6262967586517334,-80,6524.0,-2.3258912563323975,-103,9961.0
10130,0.35561084747314453,-2.1135075092315674,-27,6524.0,-1.3845609426498413,149,9961.0
10140,0.35587427020072937,-2.0181190967559814,151,6524.0,-0.7833576798439026,-82,9961.0
10150,0.35614949464797974,0.4675331711769104,-103,6524.0,3.3345868587493896,-71,9961.0
10160,0.35626959800720215,1.1096476316452026,29,6524.0,3.59283447265625,126,9961.0
10170,0.3565641939640045,0.811048150062561,23,6524.0,3.939704179763794,59,9961.0
10180,0.3568432927131653,0.8122124671936035,84,6524.0,3.686176300048828,125,9961.0
10190,0.3571305274963379,2.9282050132751465,99,6524.0,1.4182339906692505,-66,9961.0
10200,0.35745444893836975,0.9188560843467712,-83,6524.0,4.943821430206299,89,9961.0
10210,0.35801994800567627,1.1179766654968262,152,6524.0,-0.22401587665081024,102,9961.0
10220,0.3583696782588959,-0.21359872817993164,-25,6524.0,-1.05979585647583,-59,9961.0
10230,0.35868600010871887,-0.47928479313850403,-31,6524.0,-0.189010351896286,47,9961.0
10240,0.35893714427948,-0.7978707551956177,-37,6524.0,-1.3864951133728027,50,9961.0
10250,0.3590891659259796,-1.4730008840560913,89,6524.0,-2.038816213607788,-58,9961.0
10260,0.3592800498008728,-0.6441320776939392,-145,6524.0,-1.778018593788147,-74,9961.0
10270,0.3594318628311157,-0.4265763759613037,63,6524.0,1.0539309978485107,225,9961.0
10280,0.3595314621925354,-1.0570107698440552,-16,6524.0,2.8263332843780518,-3,9961.0
10290,0.3589807450771332,0.37247830629348755,1,6524.0,1.833842396736145,57,9961.0
10300,0.3589760661125183,0.04955267533659935,15,6524.0,-1.0245784521102905,-60,9961.0
10310,0.3589659333229065,0.639599084854126,-17,6524.0,-0.6684115529060364,27,9961.0
10320,0.35896387696266174,1.1288748979568481,96,6524.0,-5.429873943328857,-105,9961.0
10330,0.3589138686656952,1.7426037788391113,-133,6524.0,-4.297403335571289,-162,9961.0
10340,0.3569149672985077,1.0063531398773193,67,6524.0,-7.963782787322998,-33,9961.0
10350,0.35674160718917847,-0.9878033995628357,-62,6524.0,-4.290800094604492,-249,9961.0
10360,0.35659101605415344,-0.8606172204017639,-60,6524.0,-5.29595422744751,-42,9961.0
10370,0.3564278185367584,-1.9013811349868774,5,6524.0,-7.315168857574463,-114,9961.0
10380,0.3573136627674103,0.373866468667984,-2,6524.0,-5.6247148513793945,-40,9961.0
10390,0.3571520447731018,0.5798831582069397,105,6524.0,-7.847739219665527,-242,9961.0
10400,0.356964647769928,2.05617094039917,-92,6524.0,0.366058349609375,-40,9961.0
10410,0.3568001687526703,1.500864028930664,88,6524.0,0.12193773686885834,77,9961.0
10420,0.35561078786849976,1.305280089378357,36,6524.0,1.91200590133667,-73,9961.0
10430,0.35532495379447937,-0.4016772508621216,38,6524.0,6.017851829528809,89,9961.0
10440,0.35501089692115784,1.6941813230514526,12,6524.0,6.142481327056885,-45,9961.0
10450,0.35470619797706604,3.017887830734253,20,6524.0,5.823546886444092,184,9961.0
10460,0.3544073700904846,0.7550882697105408,167,6524.0,8.196023941040039,42,9961.0
10470,0.3542972207069397,2.527557611465454,-61,6524.0,-1.2191530466079712,-163,9961.0
10480,0.35394272208213806,1.5579129457473755,35,6524.0,-5.090328216552734,48,9961.0
10490,0.35353773832321167,-1.3562430143356323,-8,6524.0,-2.8631696701049805,-62,9961.0
10500,0.35319602489471436,-1.9140852689743042,-34,6524.0,-3.608258008956909,-26,9961.0
10510,0.35370901226997375,-1.9650473594665527,-10,6524.0,-3.595205068588257,-133,9961.0
10520,0.35342302918434143,-2.1758739948272705,-185,6524.0,-3.910081624984741,-74,9961.0
10530,0.3531671166419983,-5.968068599700928,72,6524.0,0.10070224851369858,185,9961.0
10540,0.352956622838974,-2.702665090560913,-57,6524.0,1.62313973903656,-78,9961.0
10550,0.35281339287757874,-0.9569981694221497,-31,6524.0,4.9210944175720215,101,9961.0
10560,0.3519057631492615,0.10617019236087799,16,6524.0,5.637019634246826,76,9961.0
10570,0.35169029235839844,1.6189044713974,-78,6524.0,7.9676737785339355,143,9961.0
10580,0.35153141617774963,-1.388014793395996,107,6524.0,8.748867988586426,252,9961.0
10590,0.3515183925628662,0.36212435364723206,23,6524.0,5.345699787139893,-132,9961.0
10600,0.3516325354576111,0.3459278345108032,-192,6524.0,7.277600288391113,35,9961.0
10610,0.3515799343585968,-2.5048906803131104,59,6524.0,-1.2903391122817993,86,9961.0
10620,0.35157254338264465,2.706728935241699,65,6524.0,-6.9607391357421875,-143,9961.0
10630,0.3515698313713074,0.8954436182975769,-36,6524.0,-3.197368860244751,-9,9961.0
10640,0.3517387807369232,1.0988694429397583,78,6524.0,-4.3066086769104,-36,9961.0
10650,0.3517676889896393,0.13964512944221497,-45,6524.0,-5.587984085083008,-161,9961.0
10660,0.35186702013015747,2.27398681640625,107,6524.0,-3.7687036991119385,121,9961.0
10670,0.3520320951938629,4.9241814613342285,102,6524.0,-2.2962615489959717,-45,9961.0
10680,0.35217514634132385,2.8790230751037598,-78,6524.0,5.4270734786987305,43,9961.0
10690,0.35466188192367554,1.8685429096221924,67,6524.0,5.807565212249756,98,9961.0
10700,0.3549322783946991,0.6816906929016113,-49,6524.0,5.9962897300720215,97,9961.0
10710,0.35524287819862366,-2.2472527027130127,7,6524.0,5.971302032470703,145,9961.0
10720,0.35555577278137207,-1.723527431488037,21,6524.0,5.782115459442139,-37,9961.0
10730,0.35551074147224426,-0.7126926779747009,-203,6524.0,2.110196590423584,-65,9961.0
10740,0.3558116853237152,-2.3284382820129395,53,6524.0,-4.614053726196289,-14,9961.0
10750,0.3561394512653351,-3.4705822467803955,-32,6524.0,-0.3820689916610718,-65,9961.0
10760,0.35645392537117004,-2.556818723678589,-35,6524.0,3.670321464538574,49,9961.0
10770,0.35671767592430115,0.37579265236854553,-5,6524.0,2.93086314201355,-31,9961.0
10780,0.3558409810066223,1.8235281705856323,-49,6524.0,2.9019980430603027,96,9961.0
10790,0.3560344874858856,2.6530463695526123,185,6524.0,2.7025136947631836,73,9961.0
10800,0.35622549057006836,2.7322347164154053,-72,6524.0,2.9654972553253174,-31,9961.0
10810,0.35638701915740967,3.867149829864502,5,6524.0,1.5710275173187256,143,9961.0
10820,0.3563568890094757,2.468997001647949,70,6524.0,-1.2989308834075928,25,9961.0
10830,0.35645824670791626,2.274033308029175,8,6524.0,0.13476891815662384,20,9961.0
10840,0.3565627336502075,-0.10039305686950684,93,6524.0,-0.9725601673126221,-129,9961.0
10850,0.3566336929798126,1.2192713022232056,-147,6524.0,-3.260854959487915,63,9961.0
10860,0.3567872941493988,-0.48514142632484436,129,6524.0,-5.468197822570801,-141,9961.0
10870,0.356783390045166,-0.772679328918457,-149,6524.0,-1.3163020610809326,-68,9961.0
10880,0.3567562997341156,-0.09580423682928085,5,6524.0,3.0657718181610107,83,9961.0
10890,0.356743723154068,-0.24181771278381348,-57,6524.0,5.891352653503418,76,9961.0
10900,0.356717586517334,-0.7370027303695679,73,6524.0,3.845574378967285,177,9961.0
10910,0.3575652241706848,-2.9434118270874023,-82,6524.0,8.913651466369629,-80,9961.0
10920,0.3575163781642914,-0.03337378799915314,-107,6524.0,-2.578996419906616,64,9961.0
10930,0.35747644305229187,-5.247691631317139,11,6524.0,1.814061164855957,79,9961.0
10940,0.3574814796447754,-3.2072784900665283,-108,6524.0,1.9608935117721558,-22,9961.0
10950,0.35688793659210205,-0.9861776828765869,5,6524.0,-1.0098406076431274,37,9961.0
10960,0.3568415641784668,0.2498156726360321,-5,6524.0,-2.53515362739563,-164,9961.0
10970,0.35682806372642517,2.709362506866455,-87,6524.0,0.024628033861517906,29,9961.0
10980,0.35681575536727905,-0.312995582818985,165,6524.0,-0.4408525824546814,1,9961.0
10990,0.35762494802474976,4.888087272644043,59,6524.0,1.894995093345642,-88,9961.0
11000,0.35759806632995605,2.2007339000701904,43,6524.0,1.8374139070510864,65,9961.0
11010,0.35755541920661926,0.41676685214042664,-51,6524.0,6.788560390472412,-28,9961.0
11020,0.35754284262657166,0.6368115544319153,-55,6524.0,4.846214294433594,207,9961.0
11030,0.3575460612773895,-4.375974655151367,79,6524.0,3.6916587352752686,72,9961.0
11040,0.3573317229747772,-2.8977644443511963,-112,6524.0,2.2099156379699707,-36,9961.0
11050,0.3573271930217743,-2.111755132675171,-41,6524.0,3.1156811714172363,106,9961.0
11060,0.35735806822776794,-3.0876307487487793,-62,6524.0,0.4173804521560669,-60,9961.0
11070,0.35743340849876404,0.15569642186164856,-110,6524.0,-5.023953437805176,25,9961.0
11080,0.3577145040035248,-2.173624277114868,98,6524.0,-2.477717399597168,8,9961.0
11090,0.35784512758255005,-1.5679442882537842,-94,6524.0,-4.202111721038818,-173,9961.0
11100,0.3580038845539093,1.9974169731140137,-101,6524.0,-2.867391586303711,12,9961.0
11110,0.35815179347991943,0.14645305275917053,66,6524.0,-2.8821446895599365,-3,9961.0
11120,0.35822200775146484,3.6128580570220947,29,6524.0,1.2182945013046265,9,9961.0
11130,0.35734477639198303,3.2170934677124023,129,6524.0,0.7698025107383728,118,9961.0
11140,0.35728397965431213,2.1210029125213623,-40,6524.0,3.835479736328125,-49,9961.0
11150,0.3571896553039551,-0.6222113966941833,-88,6524.0,2.896385431289673,218,9961.0
11160,0.35703858733177185,0.27517786622047424,94,6524.0,4.275429725646973,143,9961.0
11170,0.3552637994289398,0.14022576808929443,-36,6524.0,4.466760635375977,122,9961.0
11180,0.35498636960983276,-1.924234390258789,56,6524.0,3.6007351875305176,101,9961.0
11190,0.3547108471393585,0.057504504919052124,-94,6524.0,-0.20146667957305908,-138,9961.0
11200,0.3544132709503174,-0.08505221456289291,-100,6524.0,-1.902239203453064,207,9961.0
11210,0.354069322347641,-2.737813711166382,207,6524.0,-5.947216510772705,-15,9961.0
11220,0.35379451513290405,3.1693389415740967,-12,6524.0,-3.2507505416870117,-98,9961.0
11230,0.35356011986732483,2.728464365005493,99,6524.0,-5.99453067779541,-47,9961.0
11240,0.35335105657577515,4.3449201583862305,27,6524.0,-6.3423638343811035,-187,9961.0
11250,0.35314562916755676,4.844470024108887,6,6524.0,-3.8161892890930176,-9,9961.0
11260,0.3528943955898285,2.860039234161377,219,6524.0,-2.905447006225586,-29,9961.0
11270,0.3527548909187317,1.5084983110427856,12,6524.0,1.678491473197937,-129,9961.0
11280,0.35260048508644104,-0.3008822500705719,36,6524.0,3.068168878555298,99,9961.0
11290,0.3524266481399536,-1.309638500213623,-35,6524.0,3.877877712249756,-50,9961.0
11300,0.3529580533504486,-2.7459499835968018,-136,6524.0,4.705636024475098,143,9961.0
11310,0.35285452008247375,-3.634965181350708,84,6524.0,2.597611904144287,83,9961.0
11320,0.35278141498565674,-3.838320255279541,-104,6524.0,2.2452785968780518,-63,9961.0
11330,0.3527083396911621,-4.818899154663086,-38,6524.0,0.6700416803359985,20,9961.0
11340,0.3526484966278076,-2.885651111602783,-38,6524.0,-0.581687867641449,-112,9961.0
11350,0.35276877880096436,-1.1054452657699585,-115,6524.0,-4.385506629943848,-47,9961.0
11360,0.3527672290802002,0.15801768004894257,59,6524.0,-5.980773448944092,155,9961.0
11370,0.352768212556839,1.489363431930542,-14,6524.0,-4.90425443649292,-169,9961.0
11380,0.3527880907058716,3.481214761734009,-1,6524.0,-3.9844257831573486,8,9961.0
11390,0.35333797335624695,3.3356242179870605,156,6524.0,-3.3243215084075928,17,9961.0
11400,0.353473961353302,4.317803859710693,19,6524.0,-3.052562952041626,-127,9961.0
11410,0.35360851883888245,3.5180490016937256,158,6524.0,0.3459383249282837,204,9961.0
11420,0.35374030470848083,1.2175222635269165,54,6524.0,1.921199083328247,-16,9961.0
11430,0.3535366356372833,0.6850676536560059,-19,6524.0,-3.846186876296997,28,9961.0
11440,0.35366424918174744,-3.13835072517395,0,6524.0,0.0430125929415226,-27,9961.0
11450,0.35375553369522095,-2.8811378479003906,-26,6524.0,4.316438674926758,71,9961.0
11460,0.3537870943546295,-1.396708607673645,97,6524.0,1.967307448387146,177,9961.0
11470,0.3538093566894531,-2.1973767280578613,-122,6524.0,6.205883979797363,-76,9961.0
11480,0.35228490829467773,-1.5336236953735352,31,6524.0,8.64877986907959,126,9961.0
11490,0.3522220849990845,-0.25084900856018066,-38,6524.0,3.0981693267822266,-10,9961.0
11500,0.3521139919757843,0.4796832203865051,69,6524.0,-1.8817195892333984,94,9961.0
11510,0.351963609457016,0.5565653443336487,79,6524.0,-2.4536447525024414,-225,9961.0
11520,0.3514970541000366,1.5184826850891113,-154,6524.0,-5.104428768157959,-89,9961.0
11530,0.3513176739215851,1.4830650091171265,51,6524.0,-6.65317964553833,-10,9961.0
11540,0.3511020839214325,-1.5038090944290161,-68,6524.0,-4.14844274520874,-136,9961.0
11550,0.35086554288864136,-3.457379102706909,34,6524.0,-6.349952697753906,62,9961.0
11560,0.35065793991088867,-3.208324670791626,-13,6524.0,0.1783573478460312,-7,9961.0
11570,0.3510426878929138,-0.9331270456314087,-153,6524.0,1.8929141759872437,18,9961.0
11580,0.3509351313114166,-2.9416165351867676,-49,6524.0,5.564602375030518,114,9961.0
11590,0.3508101999759674,-3.9634602069854736,-105,6524.0,5.301504135131836,-71,9961.0
11600,0.3506964147090912,-3.9476938247680664,-67,6524.0,4.715598106384277,244,9961.0
11610,0.3503163754940033,-0.6021417379379272,76,6524.0,1.2115373611450195,-26,9961.0
11620,0.35019394755363464,0.18632030487060547,-105,6524.0,-0.26960980892181396,38,9961.0
11630,0.3500860035419464,-2.8417887687683105,28,6524.0,0.8390622735023499,42,9961.0
11640,0.3499734103679657,-1.1829830408096313,-58,6524.0,1.4547128677368164,-50,9961.0
11650,0.3511175811290741,-1.4363526105880737,-97,6524.0,-0.0736762136220932,85,9961.0
11660,0.3511260449886322,-3.710228681564331,118,6524.0,-0.9428660869598389,-46,9961.0
11670,0.35114747285842896,-0.6578851342201233,6,6524.0,-3.319577693939209,-237,9961.0
11680,0.3512086868286133,-0.1261979043483734,-3,6524.0,-1.0126808881759644,-20,9961.0
11690,0.35130488872528076,-0.808376669883728,66,6524.0,-0.6572999954223633,-168,9961.0
11700,0.35168540477752686,-0.3591255247592926,-173,6524.0,-0.19875460863113403,-94,9961.0
11710,0.3517933487892151,-3.478423833847046,29,6524.0,-3.927931070327759,28,9961.0
11720,0.35192739963531494,-0.1744517832994461,20,6524.0,-1.3840464353561401,-98,9961.0
11730,0.35216131806373596,-1.331663966178894,-10,6524.0,-1.087644100189209,-27,9961.0
11740,0.3530096411705017,-2.546703338623047,34,6524.0,-2.8886666297912598,-44,9961.0
11750,0.3531912565231323,-1.887497901916504,-181,6524.0,-0.7617639899253845,-170,9961.0
11760,0.3533431887626648,-2.1421005725860596,-45,6524.0,-4.846614837646484,57,9961.0
11770,0.35356515645980835,-5.343162536621094,8,6524.0,1.799025297164917,33,9961.0
11780,0.3531261384487152,-1.3158620595932007,-75,6524.0,-3.502136707305908,102,9961.0
11790,0.35332155227661133,-6.74545431137085,-4,6524.0,0.5266452431678772,131,9961.0
11800,0.35351479053497314,-5.191145896911621,-133,6524.0,1.87222421169281,-240,9961.0
11810,0.35374823212623596,-5.72227668762207,-177,6524.0,2.272216558456421,146,9961.0
11820,0.3539765477180481,-5.891888618469238,-30,6524.0,0.11390017718076706,-23,9961.0
11830,0.35414057970046997,-4.389193058013916,-88,6524.0,-3.7680721282958984,-31,9961.0
11840,0.3542170822620392,-4.216561794281006,7,6524.0,-6.927762985229492,18,9961.0
11850,0.35424932837486267,-2.4592232704162598,-82,6524.0,-6.860076427459717,-308,9961.0
11860,0.3542250096797943,1.8930671215057373,-132,6524.0,-10.730746269226074,-16,9961.0
11870,0.35328081250190735,-0.14343184232711792,83,6524.0,-5.267887592315674,-18,9961.0
11880,0.35312870144844055,0.3465270698070526,-29,6524.0,3.1256794929504395,59,9961.0
11890,0.3529778718948364,1.034226894378662,40,6524.0,5.238866806030273,243,9961.0
11900,0.35281673073768616,3.1693437099456787,-15,6524.0,8.369490623474121,-6,9961.0
11910,0.35262295603752136,5.2964582443237305,-75,6524.0,8.205619812011719,269,9961.0
11920,0.3525400161743164,5.598503589630127,162,6524.0,5.738890171051025,266,9961.0
11930,0.3523021340370178,2.1325976848602295,35,6524.0,4.913883209228516,76,9961.0
11940,0.3520722985267639,2.1211373805999756,45,6524.0,0.5279031991958618,136,9961.0
11950,0.35185837745666504,2.599222183227539,75,6524.0,-4.990615367889404,-142,9961.0
11960,0.35174691677093506,2.2360455989837646,-131,6524.0,-6.458346366882324,-160,9961.0
11970,0.35159045457839966,-2.1765127182006836,-14,6524.0,-5.795634746551514,6,9961.0
11980,0.35142025351524353,-1.283266305923462,-9,6524.0,-5.345120429992676,-74,9961.0
11990,0.3512270450592041,-5.073341369628906,-71,6524.0,-5.192038536071777,-10,9961.0
12000,0.35141515731811523,-3.435582160949707,39,6524.0,1.3785367012023926,-21,9961.0
12010,0.35123905539512634,-0.7951610684394836,-11,6524.0,0.20892581343650818,-170,9961.0
12020,0.3510696589946747,1.0919811725616455,5,6524.0,0.9904682636260986,-4,9961.0
12030,0.3509267568588257,3.3418478965759277,145,6524.0,3.8755180835723877,158,9961.0
12040,0.3508281111717224,4.897335052490234,99,6524.0,7.44193172454834,24,9961.0
12050,0.35164785385131836,4.719295501708984,198,6524.0,7.111608982086182,68,9961.0
12060,0.351655513048172,5.986209392547607,154,6524.0,3.260427474975586,-34,9961.0
12070,0.3517158627510071,4.4609198570251465,-103,6524.0,-0.06133580952882767,127,9961.0
12080,0.35175156593322754,2.0753438472747803,47,6524.0,0.9383788108825684,-10,9961.0
12090,0.35265204310417175,0.053920600563287735,164,6524.0,2.149237871170044,-213,9961.0
12100,0.3526705503463745,1.3707756996154785,-10,6524.0,-3.5031661987304688,-36,9961.0
12110,0.3526883125305176,2.608795642852783,56,6524.0,-1.224413514137268,-92,9961.0
12120,0.35272571444511414,2.2770707607269287,-40,6524.0,0.3489192724227905,15,9961.0
12130,0.352752685546875,2.234147310256958,72,6524.0,-1.1737055778503418,140,9961.0
12140,0.3529524803161621,3.7203149795532227,50,6524.0,0.6599660515785217,-52,9961.0
12150,0.35301485657691956,2.154064655303955,20,6524.0,4.999696731567383,113,9961.0
12160,0.35309648513793945,2.3193411827087402,60,6524.0,5.215837478637695,17,9961.0
12170,0.3531982898712158,3.0658607482910156,-56,6524.0,2.0090696811676025,37,9961.0
12180,0.35321006178855896,3.131425380706787,67,6524.0,0.27721527218818665,282,9961.0
12190,0.35329315066337585,4.370274066925049,117,6524.0,1.8277266025543213,-137,9961.0
12200,0.3533795177936554,1.9281672239303589,-70,6524.0,-2.515955924987793,-69,9961.0
12210,0.35345685482025146,1.2258881330490112,22,6524.0,-3.8990960121154785,-16,9961.0
12220,0.3537168800830841,-1.0229604244232178,-59,6524.0,-6.834973335266113,-236,9961.0
12230,0.35380446910858154,-0.235422283411026,-18,6524.0,-8.749019622802734,30,9961.0
12240,0.35387322306632996,-0.3860778212547302,128,6524.0,-6.704739093780518,-163,9961.0
12250,0.3539150059223175,0.407985657453537,-85,6524.0,-1.389677882194519,-138,9961.0
12260,0.3539297878742218,1.544735312461853,55,6524.0,-1.7596861124038696,15,9961.0
12270,0.3535511791706085,1.3422588109970093,-19,6524.0,0.05868734046816826,-104,9961.0
12280,0.35350045561790466,1.3429644107818604,-30,6524.0,0.6970155239105225,164,9961.0
12290,0.3533966541290283,1.4728715419769287,235,6524.0,1.3737733364105225,-8,9961.0
12300,0.3532603979110718,1.7468008995056152,-44,6524.0,2.6143195629119873,-36,9961.0
12310,0.3530083894729614,2.4963619709014893,100,6524.0,1.4473214149475098,68,9961.0
12320,0.35287338495254517,2.96659255027771,35,6524.0,1.8407459259033203,-61,9961.0
12330,0.3527452051639557,3.555344820022583,-62,6524.0,-3.174995183944702,70,9961.0
12340,0.3526674509048462,0.8545275330543518,173,6524.0,-1.9568132162094116,33,9961.0
12350,0.3525855243206024,3.294436454772949,57,6524.0,-2.949563503265381,-166,9961.0
12360,0.3522695302963257,1.1553959846496582,8,6524.0,-3.1072094440460205,15,9961.0
12370,0.3521649241447449,0.4340757131576538,46,6524.0,0.3563152551651001,1,9961.0
12380,0.35203105211257935,-1.323694109916687,-159,6524.0,4.397033214569092,-7,9961.0
12390,0.3518863022327423,-4.164541244506836,-70,6524.0,0.6573163866996765,304,9961.0
12400,0.3505607545375824,-4.134733200073242,60,6524.0,3.237062931060791,9,9961.0
12410,0.3503474295139313,-2.0828540325164795,-96,6524.0,-5.060014724731445,-90,9961.0
12420,0.35011571645736694,-1.775229573249817,-2,6524.0,-4.861239433288574,51,9961.0
12430,0.3499252498149872,0.46313658356666565,9,6524.0,-3.435380220413208,-113,9961.0
12440,0.3494282364845276,-0.29621171951293945,-88,6524.0,0.10405638068914413,6,9961.0
12450,0.34917593002319336,1.2415851354599,126,6524.0,-4.009452819824219,170,9961.0
12460,0.3489265739917755,0.22427082061767578,51,6524.0,5.020111083984375,104,9961.0
12470,0.3486911952495575,-2.2459280490875244,-73,6524.0,4.453407287597656,60,9961.0
12480,0.34845519065856934,-2.578535795211792,47,6524.0,2.6407105922698975,87,9961.0
12490,0.3483860492706299,0.11004626750946045,55,6524.0,3.520981788635254,-114,9961.0
12500,0.348095178604126,3.2253310680389404,-103,6524.0,4.180177211761475,-8,9961.0
12510,0.3478187322616577,3.697601795196533,96,6524.0,0.5146870613098145,125,9961.0
12520,0.3475629687309265,1.6380971670150757,205,6524.0,-1.2967640161514282,-63,9961.0
12530,0.3471289873123169,2.4078476428985596,27,6524.0,-2.282505989074707,-162,9961.0
12540,0.3469069302082062,3.106445074081421,80,6524.0,-4.577178955078125,-18,9961.0
12550,0.346699595451355,1.511613368988037,106,6524.0,-1.8766356706619263,-106,9961.0
12560,0.3465501666069031,2.9903018474578857,-23,6524.0,-2.2531044483184814,-210,9961.0
12570,0.3470572531223297,2.3864688873291016,-159,6524.0,2.713303804397583,59,9961.0
12580,0.34695595502853394,3.5800788402557373,90,6524.0,-0.8651784658432007,66,9961.0
12590,0.3468799591064453,0.7947956919670105,6,6524.0,2.2214016914367676,-59,9961.0
12600,0.34683024883270264,1.0047963857650757,-47,6524.0,0.47229695320129395,79,9961.0
12610,0.34679991006851196,0.5057441592216492,44,6524.0,3.3584165573120117,175,9961.0
12620,0.34690046310424805,2.286146640777588,20,6524.0,2.2021923065185547,-16,9961.0
12630,0.34695321321487427,-3.4188315868377686,-117,6524.0,5.244257926940918,-4,9961.0
12640,0.346968412399292,-4.463892936706543,-57,6524.0,2.996035575866699,145,9961.0
12650,0.3469732999801636,-4.4209418296813965,-22,6524.0,1.7160073518753052,-24,9961.0
12660,0.346972793340683,-4.993809223175049,-112,6524.0,-2.943953514099121,-267,9961.0
12670,0.34704479575157166,-1.953078269958496,-136,6524.0,-6.993387222290039,119,9961.0
12680,0.3471158444881439,-3.804037570953369,22,6524.0,-3.3336987495422363,12,9961.0
12690,0.34721893072128296,-2.4393274784088135,-84,6524.0,1.171648383140564,-10,9961.0
12700,0.34727177023887634,-0.5405802130699158,-54,6524.0,-2.0343732833862305,80,9961.0
12710,0.3480292558670044,1.6099027395248413,54,6524.0,-1.1485817432403564,65,9961.0
12720,0.34809210896492004,0.5257519483566284,-96,6524.0,1.5299190282821655,-100,9961.0
12730,0.3481379449367523,-2.7221298217773438,-54,6524.0,0.44777846336364746,132,9961.0
12740,0.3481679856777191,-1.2703202962875366,50,6524.0,2.6209754943847656,-7,9961.0
12750,0.3477376699447632,0.22080166637897491,-38,6524.0,3.7457468509674072,-27,9961.0
12760,0.3477286398410797,0.5412002801895142,-27,6524.0,2.4523963928222656,139,9961.0
12770,0.34774136543273926,0.8686954975128174,186,6524.0,-1.9334694147109985,-50,9961.0
12780,0.3477706015110016,-1.9922202825546265,44,6524.0,3.0436747074127197,-141,9961.0
12790,0.3486725986003876,3.4041242599487305,-118,6524.0,-3.5331387519836426,35,9961.0
12800,0.3487069606781006,0.9206733107566833,48,6524.0,-5.2638258934021,-40,9961.0
12810,0.3487089276313782,-1.540858268737793,24,6524.0,-5.956211566925049,-198,9961.0
12820,0.34868261218070984,0.19868826866149902,-73,6524.0,-6.8965744972229,-193,9961.0
12830,0.34865236282348633,-5.024283409118652,-65,6524.0,-8.07571029663086,12,9961.0
12840,0.348346084356308,-4.319422721862793,62,6524.0,-0.3338529169559479,-49,9961.0
12850,0.348264217376709,-3.179739236831665,-93,6524.0,1.5994008779525757,-52,9961.0
12860,0.34822729229927063,-1.2675504684448242,-53,6524.0,1.702994704246521,162,9961.0
12870,0.34817320108413696,-1.248551607131958,-36,6524.0,-3.300906181335449,234,9961.0
12880,0.348087340593338,-1.6037311553955078,-49,6524.0,9.344766616821289,133,9961.0
12890,0.3480775058269501,0.09971711784601212,-83,6524.0,8.089856147766113,174,9961.0
12900,0.34806162118911743,0.4695103168487549,61,6524.0,5.290626049041748,232,9961.0
12910,0.3480319678783417,3.0808210372924805,128,6524.0,1.3397821187973022,109,9961.0
12920,0.34798499941825867,6.3210248947143555,68,6524.0,4.5048370361328125,-117,9961.0
12930,0.3471372425556183,0.6294623613357544,-34,6524.0,-5.718787670135498,-37,9961.0
12940,0.34702250361442566,-0.6878923773765564,39,6524.0,-4.922883987426758,-50,9961.0
12950,0.34690776467323303,-1.5715693235397339,-43,6524.0,-6.523739337921143,-222,9961.0
12960,0.34678810834884644,-0.6458733677864075,-136,6524.0,-6.599672794342041,-118,9961.0
12970,0.3463408052921295,-4.351227283477783,45,6524.0,-6.013021469116211,54,9961.0
12980,0.34621959924697876,-1.0978550910949707,104,6524.0,-2.4086053371429443,-79,9961.0
12990,0.34611767530441284,-1.090545415878296,-30,6524.0,2.4932358264923096,-73,9961.0
13000,0.3459652364253998,1.1150298118591309,-16,6524.0,4.149436950683594,124,9961.0
13010,0.34749099612236023,3.6468863487243652,88,6524.0,1.3035792112350464,196,9961.0
13020,0.3474084436893463,-3.96795392036438,-22,6524.0,9.665839195251465,166,9961.0
13030,0.3473100960254669,-1.9709815979003906,-124,6524.0,6.293045997619629,93,9961.0
13040,0.3471953272819519,-2.34431529045105,-4,6524.0,11.844499588012695,278,9961.0
13050,0.3471606373786926,-0.7321111559867859,108,6524.0,4.855227947235107,177,9961.0
13060,0.3469962775707245,-0.580865204334259,4,6524.0,6.03845739364624,23,9961.0
13070,0.34693169593811035,3.855727434158325,-86,6524.0,2.1461994647979736,-129,9961.0
13080,0.3468154966831207,-0.49907243251800537,-66,6524.0,-7.763308048248291,-82,9961.0
13090,0.3467095196247101,-1.7402251958847046,29,6524.0,-5.815895080566406,-28,9961.0
13100,0.34789395332336426,-0.42210057377815247,-14,6524.0,-3.557159423828125,-104,9961.0
13110,0.3478938639163971,3.253340005874634,9,6524.0,-1.6852550506591797,-128,9961.0
13120,0.34788915514945984,3.908210515975952,89,6524.0,-0.18674840033054352,27,9961.0
13130,0.3479028344154358,4.897332668304443,119,6524.0,-3.1099231243133545,26,9961.0
13140,0.3479388654232025,1.2547765970230103,193,6524.0,1.986369013786316,8,9961.0
13150,0.3478989899158478,-0.5633776187896729,9,6524.0,13.944217681884766,36,9961.0
13160,0.34782105684280396,3.41890287399292,84,6524.0,5.337480545043945,129,9961.0
13170,0.3477279841899872,4.340194225311279,118,6524.0,3.5770163536071777,97,9961.0
13180,0.3476638197898865,4.1187849044799805,93,6524.0,1.4260108470916748,-152,9961.0
13190,0.34645628929138184,3.2382094860076904,-10,6524.0,-1.245877981185913,-155,9961.0
13200,0.3462662696838379,-1.0367032289505005,-46,6524.0,-6.976832866668701,-53,9961.0
13210,0.34606602787971497,-1.917008876800537,30,6524.0,-9.458420753479004,-23,9961.0
13220,0.34584325551986694,-4.063900947570801,-85,6524.0,-6.906404972076416,-163,9961.0
13230,0.3464528024196625,-4.141673564910889,-144,6524.0,-7.26676607131958,-64,9961.0
13240,0.3462202847003937,-4.645926475524902,-15,6524.0,-3.791553020477295,99,9961.0
13250,0.3460061252117157,-3.3190102577209473,97,6524.0,0.9740647673606873,-21,9961.0
13260,0.3457815647125244,-2.37642765045166,-57,6524.0,5.5139641761779785,35,9961.0
13270,0.34560108184814453,0.5186631083488464,-112,6524.0,-2.7734146118164062,-4,9961.0
13280,0.3456113934516907,-0.5382785797119141,25,6524.0,-1.2804217338562012,76,9961.0
13290,0.34545060992240906,-3.516031503677368,89,6524.0,1.97012460231781,-33,9961.0
13300,0.3453035354614258,4.776120185852051,-96,6524.0,-3.539485454559326,-177,9961.0
13310,0.34515655040740967,1.0630630254745483,-185,6524.0,-5.407482624053955,-65,9961.0
13320,0.3445269465446472,-1.6944270133972168,-49,6524.0,-3.5664515495300293,125,9961.0
13330,0.3443378508090973,-2.22352933883667,94,6524.0,-7.3946146965026855,33,9961.0
13340,0.34410008788108826,-3.323146343231201,-143,6524.0,0.2242496907711029,94,9961.0
13350,0.3438509702682495,-4.345580577850342,7,6524.0,0.7760565280914307,74,9961.0
13360,0.34360554814338684,-3.3499033451080322,68,6524.0,2.2068910598754883,87,9961.0
13370,0.34352654218673706,-0.38882774114608765,-68,6524.0,2.120863437652588,32,9961.0
13380,0.3433357775211334,0.5264353156089783,8,6524.0,2.2256217002868652,-71,9961.0
13390,0.34312477707862854,-1.527166724205017,43,6524.0,6.286708354949951,172,9961.0
13400,0.3428672254085541,-1.3628453016281128,92,6524.0,-0.37781259417533875,-35,9961.0
13410,0.34341782331466675,0.1727546602487564,-67,6524.0,1.0991864204406738,-27,9961.0
13420,0.34312891960144043,0.39900946617126465,-21,6524.0,2.9043736457824707,128,9961.0
13430,0.342842698097229,1.550392508506775,91,6524.0,1.2136305570602417,137,9961.0
13440,0.3425760269165039,2.5635886192321777,100,6524.0,-2.7164804935455322,-8,9961.0
13450,0.3432643711566925,-2.847602367401123,-200,6524.0,1.29685378074646,-77,9961.0
13460,0.34311607480049133,0.7374564409255981,-98,6524.0,-0.19928622245788574,-2,9961.0
13470,0.3430185317993164,0.9438560009002686,10,6524.0,2.2955739498138428,152,9961.0
13480,0.34292855858802795,0.0807243138551712,7,6524.0,2.336528778076172,-58,9961.0
13490,0.3428899943828583,4.480033874511719,-56,6524.0,-3.7653939723968506,-72,9961.0
13500,0.34458109736442566,2.2693283557891846,-91,6524.0,-0.3685000240802765,38,9961.0
13510,0.3447234630584717,2.641357183456421,58,6524.0,-1.0884612798690796,156,9961.0
13520,0.3449070453643799,-0.7540857791900635,114,6524.0,-0.6706517338752747,111,9961.0
13530,0.34513792395591736,-3.3743107318878174,-106,6524.0,4.344461441040039,13,9961.0
13540,0.3453354239463806,-2.391845941543579,-74,6524.0,6.010357856750488,143,9961.0
13550,0.34559622406959534,-2.0966126918792725,16,6524.0,7.73393440246582,200,9961.0
13560,0.34586095809936523,1.7796422243118286,126,6524.0,9.517333030700684,97,9961.0
13570,0.3461446762084961,3.182051420211792,63,6524.0,6.358480453491211,-238,9961.0
13580,0.3442484736442566,7.101278781890869,-182,6524.0,-3.132725238800049,-184,9961.0
13590,0.3445756435394287,2.3767662048339844,93,6524.0,3.274129629135132,94,9961.0
13600,0.3445935845375061,1.507649302482605,114,6524.0,5.863338947296143,-60,9961.0
13610,0.34491151571273804,0.7532157897949219,33,6524.0,0.9708713293075562,-69,9961.0
13620,0.34491366147994995,3.2167139053344727,51,6524.0,1.307011604309082,23,9961.0
13630,0.34637272357940674,1.5022355318069458,133,6524.0,2.2055983543395996,133,9961.0
13640,0.34637394547462463,0.7354456186294556,51,6524.0,1.024717092514038,-94,9961.0
13650,0.3465557396411896,-0.25605303049087524,2,6524.0,-1.3259754180908203,-189,9961.0
13660,0.34676364064216614,-0.8319533467292786,-37,6524.0,-1.1252021789550781,14,9961.0
13670,0.3465898036956787,-3.1839869022369385,58,6524.0,1.9009085893630981,56,9961.0
13680,0.3467152416706085,-1.607962727546692,-55,6524.0,5.026573657989502,-14,9961.0
13690,0.3467826545238495,-2.0902342796325684,-78,6524.0,5.568531036376953,140,9961.0
13700,0.34681686758995056,0.3055228590965271,19,6524.0,4.236490249633789,276,9961.0
13710,0.3468513488769531,-1.8334237337112427,61,6524.0,6.465408802032471,52,9961.0
13720,0.3473126292228699,0.7189338207244873,-5,6524.0,6.374364376068115,-136,9961.0
13730,0.3473508656024933,3.501269817352295,-61,6524.0,-7.327262878417969,-137,9961.0
13740,0.3473671078681946,1.8913657665252686,70,6524.0,-7.823494911193848,-37,9961.0
13750,0.34741905331611633,4.169862747192383,100,6524.0,-6.997745990753174,-157,9961.0
13760,0.3472506105899811,4.387040615081787,44,6524.0,-4.738649845123291,-145,9961.0
13770,0.3472645580768585,2.982465982437134,94,6524.0,-1.8083195686340332,127,9961.0
13780,0.34715232253074646,0.47047922015190125,149,6524.0,1.7586854696273804,37,9961.0
13790,0.3471531271934509,-2.3822200298309326,-45,6524.0,0.2850850522518158,-118,9961.0
13800,0.34709078073501587,-3.599843978881836,-146,6524.0,4.220549583435059,5,9961.0
13810,0.34700918197631836,-6.52510929107666,-49,6524.0,1.2789303064346313,61,9961.0
13820,0.34690001606941223,-7.423257827758789,-70,6524.0,2.102905035018921,-67,9961.0
13830,0.34681135416030884,-5.454911708831787,-84,6524.0,0.6761642098426819,-135,9961.0
13840,0.3467708230018616,-1.1697256565093994,-15,6524.0,-2.0762386322021484,52,9961.0
13850,0.34757000207901,1.1277453899383545,173,6524.0,-0.2565559148788452,118,9961.0
13860,0.34749189019203186,0.07572808861732483,152,6524.0,-0.6383737325668335,-2,9961.0
13870,0.3474409282207489,-0.40406420826911926,-19,6524.0,-0.07375790923833847,-190,9961.0
13880,0.34743690490722656,0.792683482170105,-28,6524.0,-3.516751289367676,-79,9961.0
13890,0.3476526439189911,3.2391257286071777,50,6524.0,-6.438199043273926,58,9961.0
13900,0.3476618230342865,1.4505285024642944,33,6524.0,-5.4069719314575195,-54,9961.0
13910,0.3476797640323639,1.5716595649719238,2,6524.0,-0.9935336709022522,33,9961.0
13920,0.34768736362457275,1.7449889183044434,55,6524.0,2.69710111618042,156,9961.0
13930,0.34770575165748596,1.1587179899215698,83,6524.0,2.91190242767334,-103,9961.0
13940,0.34824302792549133,0.6250175833702087,-43,6524.0,3.5301098823547363,-116,9961.0
13950,0.34829673171043396,-2.7922632694244385,-96,6524.0,3.3989107608795166,194,9961.0
13960,0.34831103682518005,-1.2912702560424805,133,6524.0,-3.5339603424072266,-49,9961.0
13970,0.34831681847572327,1.3311680555343628,-62,6524.0,2.302034378051758,-1,9961.0
13980,0.34858936071395874,-0.23704181611537933,48,6524.0,1.4194878339767456,98,9961.0
13990,0.3485935628414154,-0.5517123341560364,34,6524.0,-0.3470136821269989,-84,9961.0
14000,0.34861794114112854,-2.384779453277588,-65,6524.0,0.3757587969303131,-167,9961.0
14010,0.3486528992652893,0.14744478464126587,-76,6524.0,-0.17912697792053223,69,9961.0
14020,0.3488025665283203,-4.974301815032959,120,6524.0,-3.0178942680358887,-10,9961.0
14030,0.34882187843322754,-5.700044631958008,-63,6524.0,0.07968424260616302,-287,9961.0
14040,0.3488021492958069,-8.140356063842773,-279,6524.0,7.351400375366211,47,9961.0
14050,0.3487602770328522,-4.392355918884277,-28,6524.0,-5.269449234008789,12,9961.0
14060,0.348705917596817,-1.981119155883789,113,6524.0,-7.704309940338135,-202,9961.0
14070,0.3503515124320984,-0.5390597581863403,39,6524.0,-7.51823091506958,-200,9961.0
14080,0.3503634035587311,2.4082772731781006,70,6524.0,-3.849261999130249,38,9961.0
14090,0.3503791093826294,2.7934410572052,112,6524.0,-2.75131893157959,-98,9961.0
14100,0.3503935635089874,4.048098564147949,-45,6524.0,5.450648784637451,-25,9961.0
14110,0.3510199189186096,3.7472596168518066,12,6524.0,5.415689945220947,177,9961.0
14120,0.3510958254337311,2.5094499588012695,188,6524.0,7.828906536102295,234,9961.0
14130,0.3511750400066376,0.3074560761451721,-32,6524.0,3.8640658855438232,-47,9961.0
14140,0.35122203826904297,-0.5371419787406921,-114,6524.0,4.531530380249023,19,9961.0
14150,0.35125496983528137,-0.3363673985004425,-7,6524.0,-2.9736597537994385,48,9961.0
14160,0.3515651524066925,-1.4858142137527466,-80,6524.0,-6.560070991516113,-150,9961.0
14170,0.3515249192714691,-3.924541711807251,-78,6524.0,-8.82131576538086,-139,9961.0
14180,0.35145238041877747,-1.629544973373413,24,6524.0,-11.428913116455078,-96,9961.0
14190,0.3513832688331604,-0.8688383102416992,4,6524.0,-6.294797420501709,-286,9961.0
14200,0.3504599332809448,-1.609839677810669,-157,6524.0,0.43873122334480286,90,9961.0
