timestamp,kalman.stateZ,gyro.x,gyro.xRaw,gyro.xVariance,gyro.y,gyro.yRaw,gyro.yVariance
0,0.30482617020606995,-1.452161192893982,-45,7370.0,-6.453558444976807,-87,9973.0
10,0.3048582375049591,-5.962001323699951,-119,7370.0,-3.2803714275360107,-31,9973.0
20,0.3048502206802368,-10.17270565032959,-180,7370.0,0.7960177659988403,31,9973.0
30,0.30483269691467285,-11.7965669631958,-182,7370.0,4.147439479827881,72,9973.0
40,0.3047572076320648,-9.119397163391113,-130,7370.0,5.403371810913086,88,9973.0
50,0.303842157125473,-4.764503002166748,-49,7370.0,5.942451477050781,101,9973.0
60,0.3038092255592346,1.5790116786956787,59,7370.0,4.871402263641357,65,9973.0
70,0.3038259744644165,7.3342180252075195,141,7370.0,1.7756569385528564,16,9973.0
80,0.30390194058418274,10.696195602416992,191,7370.0,-2.055370807647705,-56,9973.0
90,0.30250149965286255,12.73049545288086,207,7370.0,-8.196746826171875,-162,9973.0
100,0.3025836646556854,10.966753959655762,162,7370.0,-13.98774528503418,-249,9973.0
110,0.3027927577495575,6.120413780212402,86,7370.0,-19.480459213256836,-342,9973.0
120,0.30290254950523376,1.7757619619369507,11,7370.0,-24.194290161132812,-419,9973.0
130,0.3029196262359619,-2.1352882385253906,-52,7370.0,-29.4910831451416,-500,9973.0
140,0.3032695949077606,-6.865537643432617,-131,7370.0,-32.59690856933594,-529,9973.0
150,0.30328401923179626,-10.704920768737793,-171,7370.0,-30.742584228515625,-470,9973.0
160,0.303146094083786,-9.488359451293945,-149,7370.0,-22.48127555847168,-328,9973.0
170,0.30308797955513,-8.224943161010742,-120,7370.0,-13.271747589111328,-177,9973.0
180,0.30337977409362793,-2.6401329040527344,6,7370.0,-5.920391082763672,-81,9973.0
190,0.3031790852546692,6.464388847351074,131,7370.0,-3.2684550285339355,-67,9973.0
200,0.3029429316520691,10.954676628112793,201,7370.0,-5.55924129486084,-125,9973.0
210,0.3028585910797119,11.005467414855957,177,7370.0,-17.475547790527344,-347,9973.0
220,0.30276724696159363,4.59241247177124,34,7370.0,-36.39402389526367,-688,9973.0
230,0.30327659845352173,-2.835998296737671,-13,7370.0,-60.721885681152344,-1142,9973.0
240,0.3036622703075409,-1.125779151916504,-16,7370.0,-89.09395599365234,-1542,9973.0
250,0.30362409353256226,-0.6806730628013611,32,7370.0,-113.67884826660156,-1962,9973.0
260,0.30437755584716797,1.7460216283798218,124,7370.0,-131.95249938964844,-2288,9973.0
270,0.304226815700531,8.905349731445312,215,7370.0,-150.4220428466797,-2590,9973.0
280,0.30282390117645264,16.266063690185547,218,7370.0,-159.36703491210938,-2513,9973.0
290,0.30101239681243896,11.618460655212402,115,7370.0,-141.1895294189453,-2095,9973.0
300,0.30408793687820435,5.319458961486816,13,7370.0,-93.72195434570312,-1240,9973.0
310,0.30661723017692566,1.8755133152008057,-7,7370.0,-46.90237045288086,-459,9973.0
320,0.3070407509803772,0.47889503836631775,-19,7370.0,5.905882835388184,351,9973.0
330,0.3080812990665436,-0.8832729458808899,0,7370.0,57.181888580322266,1289,9973.0
340,0.30814820528030396,-3.7644541263580322,-51,7370.0,92.74381256103516,1720,9973.0
350,0.3098805844783783,0.3078785836696625,31,7370.0,109.69097900390625,1902,9973.0
360,0.30938979983329773,5.928153038024902,171,7370.0,112.00698852539062,1573,9973.0
370,0.3099808394908905,7.962766170501709,138,7370.0,95.54845428466797,1515,9973.0
380,0.31044071912765503,4.142724990844727,22,7370.0,77.57611083984375,1256,9973.0
390,0.31097671389579773,-0.6297251582145691,21,7370.0,51.064998626708984,547,9973.0
400,0.3094449043273926,-1.0485183000564575,-17,7370.0,14.013540267944336,-141,9973.0
410,0.3102249801158905,-2.627333641052246,-88,7370.0,-30.253734588623047,-683,9973.0
420,0.310863733291626,-7.476809978485107,-110,7370.0,-72.49329376220703,-1427,9973.0
430,0.31173473596572876,-10.296289443969727,-123,7370.0,-110.50080108642578,-2145,9973.0
440,0.3121137320995331,-9.018731117248535,-106,7370.0,-129.2978515625,-2137,9973.0
450,0.3117440640926361,-4.704716205596924,-14,7370.0,-104.09735870361328,-1436,9973.0
460,0.3132043480873108,3.54719614982605,126,7370.0,-51.89268493652344,-661,9973.0
470,0.3140207529067993,7.343695640563965,194,7370.0,-1.7035622596740723,76,9973.0
480,0.3150632083415985,4.999278545379639,179,7370.0,39.15203857421875,640,9973.0
490,0.3158813714981079,10.647233009338379,232,7370.0,72.41996002197266,1181,9973.0
500,0.31591737270355225,9.111861228942871,12,7370.0,89.58737182617188,1683,9973.0
510,0.3160344958305359,-2.0974864959716797,-186,7370.0,95.89743041992188,1780,9973.0
520,0.3159787058830261,-10.105128288269043,-289,7370.0,87.51970672607422,1526,9973.0
530,0.3118644654750824,-15.448358535766602,-354,7370.0,64.45352935791016,1017,9973.0
540,0.311792254447937,-19.663005828857422,-323,7370.0,28.310928344726562,285,9973.0
550,0.31261613965034485,-11.97907829284668,-296,7370.0,-23.222862243652344,-548,9973.0
560,0.3132724463939667,-1.6818283796310425,-73,7370.0,-76.21809387207031,-1476,9973.0
570,0.3141423761844635,8.72575855255127,153,7370.0,-105.3754653930664,-1784,9973.0
580,0.3123045563697815,19.06924819946289,247,7370.0,-107.67200469970703,-1691,9973.0
590,0.3137592375278473,12.67882251739502,149,7370.0,-99.06405639648438,-1551,9973.0
600,0.31422877311706543,6.790009498596191,31,7370.0,-82.8016586303711,-1225,9973.0
610,0.3147757947444916,-11.444270133972168,-213,7370.0,-44.95745086669922,-526,9973.0
620,0.3170991837978363,-13.12455940246582,-203,7370.0,6.926300048828125,349,9973.0
630,0.31829532980918884,-1.3034077882766724,66,7370.0,52.28478240966797,1084,9973.0
640,0.3194805681705475,14.54617977142334,315,7370.0,76.62324523925781,1301,9973.0
650,0.3198232352733612,29.085880279541016,462,7370.0,89.96391296386719,1489,9973.0
660,0.31790605187416077,27.14522933959961,418,7370.0,97.22913360595703,1530,9973.0
670,0.31824710965156555,18.336711883544922,334,7370.0,83.05796813964844,1270,9973.0
680,0.31750980019569397,4.997085094451904,37,7370.0,57.49378967285156,769,9973.0
690,0.3172166347503662,-16.604761123657227,-324,7370.0,22.156705856323242,176,9973.0
700,0.317436158657074,-28.684619903564453,-471,7370.0,-26.29115104675293,-518,9973.0
710,0.31377822160720825,-32.244834899902344,-512,7370.0,-67.0269546508789,-1053,9973.0
720,0.3137204647064209,-13.920256614685059,-322,7370.0,-98.84832763671875,-1580,9973.0
730,0.313656747341156,-8.520413398742676,-117,7370.0,-122.2277603149414,-2038,9973.0
740,0.313069224357605,4.713218688964844,219,7370.0,-132.86093139648438,-2256,9973.0
750,0.31365567445755005,28.037446975708008,577,7370.0,-114.5,-1812,9973.0
760,0.31449031829833984,34.12859344482422,508,7370.0,-72.0667953491211,-765,9973.0
770,0.3149182200431824,29.528060913085938,502,7370.0,-6.979115009307861,-8,9973.0
780,0.3165540099143982,9.705828666687012,14,7370.0,45.872196197509766,1009,9973.0
790,0.31722700595855713,-17.39107894897461,-337,7370.0,88.316650390625,1577,9973.0
800,0.3197905123233795,-32.32537078857422,-595,7370.0,116.2545166015625,1952,9973.0
810,0.3199751675128937,-32.85943603515625,-463,7370.0,127.06565856933594,2030,9973.0
820,0.3196934163570404,-25.893728256225586,-301,7370.0,121.42823028564453,1838,9973.0
830,0.32078149914741516,-21.204023361206055,-245,7370.0,106.55928802490234,1458,9973.0
840,0.3166137635707855,-11.138561248779297,-80,7370.0,68.13079833984375,773,9973.0
850,0.3160671293735504,1.9716694355010986,54,7370.0,25.841161727905273,84,9973.0
860,0.3165583908557892,10.634160995483398,113,7370.0,-19.654497146606445,-497,9973.0
870,0.31697168946266174,15.859309196472168,195,7370.0,-68.38833618164062,-1343,9973.0
880,0.3142549693584442,18.2840576171875,226,7370.0,-111.8163070678711,-1838,9973.0
890,0.31434181332588196,11.784050941467285,126,7370.0,-122.90306091308594,-1949,9973.0
900,0.31425240635871887,12.015892028808594,248,7370.0,-99.36119842529297,-1475,9973.0
910,0.3156372308731079,18.63813018798828,265,7370.0,-58.599449157714844,-641,9973.0
920,0.3156568109989166,13.294766426086426,187,7370.0,-12.546159744262695,90,9973.0
930,0.31473445892333984,6.2365617752075195,24,7370.0,26.615650177001953,678,9973.0
940,0.3147340416908264,0.110262930393219,-68,7370.0,58.08393478393555,1136,9973.0
950,0.3142825663089752,-1.4266387224197388,37,7370.0,74.39640808105469,1060,9973.0
960,0.3134896457195282,6.385642051696777,192,7370.0,72.43080139160156,957,9973.0
970,0.3126698136329651,6.946867942810059,82,7370.0,57.515445709228516,795,9973.0
980,0.31176233291625977,3.136815071105957,46,7370.0,40.36509704589844,617,9973.0
990,0.3107786774635315,2.2970166206359863,-34,7370.0,22.70890998840332,257,9973.0
1000,0.3103483319282532,-12.64840030670166,-313,7370.0,-4.046790599822998,-246,9973.0
1010,0.30997878313064575,-26.165220260620117,-451,7370.0,-31.224191665649414,-673,9973.0
1020,0.3089277744293213,-40.070281982421875,-726,7370.0,-51.786277770996094,-865,9973.0
1030,0.3088128864765167,-42.92162322998047,-729,7370.0,-65.59284210205078,-849,9973.0
1040,0.30887892842292786,-22.919618606567383,-336,7370.0,-54.77226257324219,-720,9973.0
1050,0.3084006905555725,8.113602638244629,212,7370.0,-25.71282386779785,-253,9973.0
1060,0.31218472123146057,30.52158546447754,617,7370.0,6.673334121704102,119,9973.0
1070,0.31223565340042114,40.83846664428711,794,7370.0,31.371707916259766,329,9973.0
1080,0.3120753765106201,49.4152946472168,735,7370.0,46.02689743041992,779,9973.0
1090,0.3116258382797241,34.07575607299805,552,7370.0,55.9391975402832,798,9973.0
1100,0.3112927973270416,12.929492950439453,215,7370.0,51.16687774658203,513,9973.0
1110,0.3110780119895935,-12.91000747680664,-313,7370.0,32.18406295776367,309,9973.0
1120,0.3107816278934479,-41.47468566894531,-686,7370.0,7.797243118286133,-50,9973.0
1130,0.31031662225723267,-50.669376373291016,-652,7370.0,-26.056379318237305,-611,9973.0
1140,0.3104229271411896,-33.79136657714844,-360,7370.0,-65.32653045654297,-1384,9973.0
1150,0.30957815051078796,4.837010383605957,298,7370.0,-94.44525909423828,-1699,9973.0
1160,0.3102429211139679,36.101409912109375,593,7370.0,-113.21772766113281,-1892,9973.0
1170,0.3106527626514435,43.12681198120117,718,7370.0,-124.47164154052734,-2101,9973.0
1180,0.31047388911247253,33.659847259521484,455,7370.0,-117.10929107666016,-1827,9973.0
1190,0.31402236223220825,24.561813354492188,417,7370.0,-80.88951873779297,-1236,9973.0
1200,0.3157341480255127,27.732162475585938,450,7370.0,-41.59098815917969,-383,9973.0
1210,0.31759583950042725,9.573808670043945,28,7370.0,14.25289249420166,652,9973.0
1220,0.31967753171920776,-0.24804037809371948,12,7370.0,81.41432189941406,1533,9973.0
1230,0.3214844763278961,0.7670873403549194,86,7370.0,124.91958618164062,2123,9973.0
1240,0.32541829347610474,-3.273904323577881,-91,7370.0,150.78672790527344,2695,9973.0
1250,0.3260653018951416,-7.461422920227051,-100,7370.0,160.4221649169922,2627,9973.0
1260,0.32643240690231323,-9.798955917358398,-257,7370.0,144.39492797851562,2388,9973.0
1270,0.32677000761032104,-14.533855438232422,-142,7370.0,108.82379913330078,1555,9973.0
1280,0.3220676779747009,-17.486783981323242,-266,7370.0,59.427734375,581,9973.0
1290,0.3229226768016815,-22.180456161499023,-491,7370.0,0.21911002695560455,-140,9973.0
1300,0.323800653219223,-29.033462524414062,-488,7370.0,-58.64399337768555,-1133,9973.0
1310,0.3253690004348755,-29.782079696655273,-392,7370.0,-115.82988739013672,-2332,9973.0
1320,0.32167676091194153,-26.47637939453125,-457,7370.0,-168.69000244140625,-2900,9973.0
1330,0.32267946004867554,-25.02457618713379,-438,7370.0,-187.7270050048828,-3040,9973.0
1340,0.3226727843284607,-7.763543128967285,-91,7370.0,-176.19796752929688,-2622,9973.0
1350,0.3243136703968048,15.310850143432617,214,7370.0,-143.11813354492188,-2113,9973.0
1360,0.3252026438713074,14.331727027893066,233,7370.0,-84.96499633789062,-1001,9973.0
1370,0.33021923899650574,10.875039100646973,100,7370.0,-15.477290153503418,57,9973.0
1380,0.3327372670173645,2.077441930770874,28,7370.0,44.915462493896484,942,9973.0
1390,0.3352179527282715,5.349806308746338,120,7370.0,99.64533233642578,1688,9973.0
1400,0.33867043256759644,13.184739112854004,229,7370.0,137.45184326171875,2207,9973.0
1410,0.3350210189819336,15.011853218078613,125,7370.0,159.14053344726562,2647,9973.0
1420,0.33610445261001587,10.690520286560059,208,7370.0,172.03285217285156,2703,9973.0
1430,0.3371480405330658,14.478461265563965,177,7370.0,165.81239318847656,2764,9973.0
1440,0.3373073935508728,19.613548278808594,326,7370.0,144.44032287597656,2274,9973.0
1450,0.33971428871154785,18.291900634765625,263,7370.0,103.85234832763672,1442,9973.0
1460,0.33274343609809875,3.5240252017974854,28,7370.0,46.255924224853516,479,9973.0
1470,0.3333561420440674,-14.850748062133789,-307,7370.0,-20.04491424560547,-795,9973.0
1480,0.33564651012420654,-32.002197265625,-664,7370.0,-82.26600646972656,-1384,9973.0
1490,0.33677712082862854,-48.00589370727539,-918,7370.0,-108.4793701171875,-1625,9973.0
1500,0.3328961730003357,-49.93778991699219,-777,7370.0,-107.79246520996094,-1687,9973.0
1510,0.3333030939102173,-25.18738555908203,-250,7370.0,-94.24461364746094,-1400,9973.0
1520,0.3334829807281494,2.7352304458618164,106,7370.0,-68.94952392578125,-828,9973.0
1530,0.33443349599838257,20.968975067138672,462,7370.0,-44.90533447265625,-573,9973.0
1540,0.32972708344459534,32.437320709228516,505,7370.0,-20.131547927856445,-128,9973.0
1550,0.3294384479522705,34.03887176513672,592,7370.0,1.251659631729126,162,9973.0
1560,0.32871389389038086,31.550270080566406,463,7370.0,21.54141616821289,343,9973.0
1570,0.32797348499298096,18.94373893737793,219,7370.0,36.54339599609375,525,9973.0
1580,0.3268190920352936,5.641781330108643,16,7370.0,47.021751403808594,640,9973.0
1590,0.32334810495376587,-14.986746788024902,-286,7370.0,51.065311431884766,791,9973.0
1600,0.3224497437477112,-20.2695369720459,-329,7370.0,39.2746696472168,388,9973.0
1610,0.3217284679412842,-31.3857421875,-586,7370.0,6.2652482986450195,-96,9973.0
1620,0.32081058621406555,-29.108932495117188,-371,7370.0,-30.73651885986328,-828,9973.0
1630,0.319841206073761,-13.224188804626465,-178,7370.0,-79.15288543701172,-1335,9973.0
1640,0.3197033405303955,-7.634593963623047,-164,7370.0,-104.65290069580078,-1620,9973.0
1650,0.31918036937713623,-16.90232276916504,-335,7370.0,-80.4570083618164,-923,9973.0
1660,0.3200428783893585,-13.01216983795166,-57,7370.0,-34.18980407714844,-210,9973.0
1670,0.31983426213264465,7.353495121002197,285,7370.0,6.634739398956299,336,9973.0
1680,0.31970545649528503,20.160369873046875,474,7370.0,37.69401931762695,792,9973.0
1690,0.31941697001457214,30.83048439025879,509,7370.0,58.07382583618164,1039,9973.0
1700,0.3189735412597656,36.391990661621094,642,7370.0,64.28660583496094,1011,9973.0
1710,0.31815439462661743,46.02574157714844,742,7370.0,60.41086959838867,1076,9973.0
1720,0.3176487386226654,42.58659362792969,764,7370.0,54.58810806274414,697,9973.0
1730,0.31736892461776733,42.33173370361328,675,7370.0,26.59773063659668,220,9973.0
1740,0.3175959587097168,17.871536254882812,255,7370.0,-0.5564021468162537,-346,9973.0
1750,0.31724461913108826,-8.524953842163086,-272,7370.0,-29.149621963500977,-604,9973.0
1760,0.3174420893192291,-33.853267669677734,-584,7370.0,-59.48544692993164,-1299,9973.0
1770,0.317612886428833,-52.59368896484375,-1004,7370.0,-91.8253173828125,-1583,9973.0
1780,0.31769564747810364,-68.72119140625,-1197,7370.0,-111.27533721923828,-1921,9973.0
1790,0.31743791699409485,-73.94722747802734,-1248,7370.0,-114.58601379394531,-1816,9973.0
1800,0.31634894013404846,-62.05878829956055,-967,7370.0,-92.05227661132812,-1250,9973.0
1810,0.31597113609313965,-29.90447998046875,-361,7370.0,-52.1781120300293,-684,9973.0
1820,0.3213214576244354,0.9349569082260132,114,7370.0,-4.609872817993164,170,9973.0
1830,0.3217400908470154,25.586915969848633,433,7370.0,41.62187194824219,900,9973.0
1840,0.32270026206970215,41.06356430053711,644,7370.0,72.15543365478516,1347,9973.0
1850,0.32434895634651184,42.5703125,707,7370.0,90.69082641601562,1539,9973.0
1860,0.32451191544532776,38.9882698059082,575,7370.0,99.8450698852539,1834,9973.0
1870,0.32479649782180786,39.49162673950195,695,7370.0,106.83849334716797,1741,9973.0
1880,0.32488659024238586,38.294254302978516,713,7370.0,99.9922103881836,1441,9973.0
1890,0.32192695140838623,32.4495849609375,560,7370.0,74.94994354248047,1074,9973.0
1900,0.3234694302082062,23.96497344970703,369,7370.0,44.250492095947266,437,9973.0
1910,0.323846697807312,5.832582950592041,-15,7370.0,6.678530216217041,-91,9973.0
1920,0.3247296214103699,-19.442121505737305,-479,7370.0,-35.12038040161133,-760,9973.0
1930,0.3261522650718689,-46.59318161010742,-929,7370.0,-76.81554412841797,-1288,9973.0
1940,0.323514461517334,-55.58442687988281,-1019,7370.0,-113.34812927246094,-1869,9973.0
1950,0.3241007328033447,-60.93128967285156,-1025,7370.0,-123.77885437011719,-1895,9973.0
1960,0.3240812122821808,-50.531494140625,-734,7370.0,-105.4192123413086,-1462,9973.0
1970,0.3252990245819092,-23.027421951293945,-277,7370.0,-56.95463180541992,-670,9973.0
1980,0.32633012533187866,4.517063617706299,162,7370.0,-0.6606661677360535,226,9973.0
1990,0.32709643244743347,28.428442001342773,562,7370.0,53.016475677490234,1084,9973.0
2000,0.32812970876693726,46.78521728515625,830,7370.0,97.02682495117188,1654,9973.0
2010,0.32919245958328247,45.56582260131836,666,7370.0,119.90682220458984,1981,9973.0
2020,0.3292895555496216,40.43913650512695,515,7370.0,114.30978393554688,1808,9973.0
2030,0.32882535457611084,17.787084579467773,142,7370.0,91.8665542602539,1382,9973.0
2040,0.3289565145969391,0.12720368802547455,-65,7370.0,68.1751937866211,1101,9973.0
2050,0.32885071635246277,-5.02011775970459,-133,7370.0,36.39990234375,565,9973.0
2060,0.3291543424129486,-6.183195114135742,-50,7370.0,-0.2748940587043762,-212,9973.0
2070,0.32693541049957275,-10.537221908569336,-191,7370.0,-33.69085693359375,-649,9973.0
2080,0.32725757360458374,-24.206356048583984,-418,7370.0,-58.79840087890625,-1270,9973.0
2090,0.3276178538799286,-39.8361701965332,-673,7370.0,-79.63833618164062,-1305,9973.0
2100,0.3277977406978607,-29.458091735839844,-221,7370.0,-73.8711929321289,-1224,9973.0
2110,0.32741543650627136,1.6383687257766724,161,7370.0,-43.02719497680664,-492,9973.0
2120,0.32757920026779175,32.250099182128906,663,7370.0,8.637968063354492,218,9973.0
2130,0.32761260867118835,42.56106948852539,723,7370.0,48.86470413208008,988,9973.0
2140,0.3275129795074463,48.92839431762695,952,7370.0,82.8893051147461,1485,9973.0
2150,0.32688596844673157,46.98432159423828,715,7370.0,99.27008056640625,1618,9973.0
2160,0.3258700966835022,32.34916305541992,549,7370.0,91.54435729980469,1270,9973.0
2170,0.32469502091407776,18.076171875,210,7370.0,65.98028564453125,951,9973.0
2180,0.32361066341400146,4.466665744781494,35,7370.0,29.228879928588867,273,9973.0
2190,0.3242091238498688,-5.447295188903809,-282,7370.0,-17.04944610595703,-284,9973.0
2200,0.32273298501968384,-19.00320816040039,-372,7370.0,-59.376609802246094,-1246,9973.0
2210,0.32197362184524536,-34.14789962768555,-644,7370.0,-99.10572052001953,-1846,9973.0
2220,0.3217955529689789,-48.247779846191406,-817,7370.0,-138.5838623046875,-2520,9973.0
2230,0.32140788435935974,-53.39247512817383,-907,7370.0,-166.0123291015625,-2609,9973.0
2240,0.32060450315475464,-40.14744186401367,-555,7370.0,-150.6177520751953,-2237,9973.0
2250,0.31985267996788025,-9.425580024719238,-71,7370.0,-109.59898376464844,-1501,9973.0
2260,0.3194458782672882,6.553037643432617,151,7370.0,-58.89457702636719,-472,9973.0
2270,0.32236993312835693,24.42991828918457,455,7370.0,11.060683250427246,554,9973.0
2280,0.3227354884147644,30.8890323638916,467,7370.0,64.5487060546875,1324,9973.0
2290,0.3244789242744446,30.28077507019043,361,7370.0,96.38661193847656,1737,9973.0
2300,0.32457858324050903,23.575170516967773,284,7370.0,105.10523223876953,1718,9973.0
2310,0.3250523805618286,16.560836791992188,216,7370.0,96.46259307861328,1590,9973.0
2320,0.32487404346466064,7.533214569091797,57,7370.0,79.50293731689453,1195,9973.0
2330,0.3249669373035431,2.833423376083374,210,7370.0,54.593875885009766,502,9973.0
2340,0.3216879665851593,1.7346415519714355,-13,7370.0,19.140819549560547,82,9973.0
2350,0.3223695456981659,-3.262709379196167,-166,7370.0,-22.872713088989258,-624,9973.0
2360,0.323086678981781,-22.653194427490234,-485,7370.0,-70.14054870605469,-1321,9973.0
2370,0.32397890090942383,-44.828834533691406,-845,7370.0,-109.9546890258789,-1784,9973.0
2380,0.3215214014053345,-48.94284439086914,-752,7370.0,-133.56918334960938,-2213,9973.0
2390,0.3218010365962982,-37.40621566772461,-449,7370.0,-118.1834716796875,-1806,9973.0
2400,0.3232136070728302,-14.167694091796875,-124,7370.0,-79.18877410888672,-1032,9973.0
2410,0.3236689865589142,-4.7270894050598145,55,7370.0,-31.2408447265625,-323,9973.0
2420,0.32350409030914307,6.4098920822143555,223,7370.0,13.740840911865234,534,9973.0
2430,0.3247475326061249,23.625686645507812,465,7370.0,56.09024429321289,1137,9973.0
2440,0.32483261823654175,28.62210464477539,521,7370.0,86.79754638671875,1484,9973.0
2450,0.3260352313518524,22.042476654052734,330,7370.0,108.61732482910156,1812,9973.0
2460,0.32638463377952576,24.863250732421875,463,7370.0,107.75146484375,1703,9973.0
2470,0.3250681161880493,24.083955764770508,439,7370.0,90.19198608398438,1269,9973.0
2480,0.3259545564651489,20.18392562866211,312,7370.0,57.927242279052734,681,9973.0
2490,0.32655176520347595,10.656156539916992,38,7370.0,22.32652473449707,246,9973.0
2500,0.32739174365997314,-14.845239639282227,-418,7370.0,-14.877118110656738,-434,9973.0
2510,0.32403334975242615,-43.4930534362793,-837,7370.0,-48.401180267333984,-851,9973.0
2520,0.3251057267189026,-52.120418548583984,-796,7370.0,-62.34773254394531,-868,9973.0
2530,0.3261680603027344,-35.28767395019531,-542,7370.0,-55.1046028137207,-795,9973.0
2540,0.32701945304870605,-22.501352310180664,-360,7370.0,-41.66588592529297,-556,9973.0
2550,0.3245975077152252,-6.5099873542785645,-47,7370.0,-11.007613182067871,54,9973.0
2560,0.3262495696544647,12.411992073059082,267,7370.0,31.03345489501953,614,9973.0
2570,0.32709547877311707,27.118871688842773,529,7370.0,54.97208023071289,1020,9973.0
2580,0.3280075192451477,48.85273742675781,818,7370.0,76.47093200683594,1245,9973.0
2590,0.3283028304576874,57.521358489990234,863,7370.0,86.01702880859375,1420,9973.0
2600,0.3260079026222229,48.651756286621094,776,7370.0,82.6458969116211,1169,9973.0
2610,0.32549038529396057,38.07848358154297,478,7370.0,65.59732818603516,975,9973.0
2620,0.32558876276016235,23.415393829345703,409,7370.0,47.843040466308594,589,9973.0
2630,0.3259236514568329,15.535176277160645,83,7370.0,14.646551132202148,41,9973.0
2640,0.32606998085975647,-8.691781997680664,-304,7370.0,-29.75171661376953,-719,9973.0
2650,0.32675474882125854,-40.538639068603516,-877,7370.0,-74.09779357910156,-1335,9973.0
2660,0.3273465037345886,-69.39082336425781,-1217,7370.0,-104.53298950195312,-1831,9973.0
2670,0.3276815712451935,-73.88101196289062,-1269,7370.0,-116.3873062133789,-1839,9973.0
2680,0.3292582929134369,-67.05341339111328,-1011,7370.0,-100.62667083740234,-1631,9973.0
2690,0.32675716280937195,-46.45354461669922,-643,7370.0,-72.70578002929688,-1092,9973.0
2700,0.32694828510284424,-9.495706558227539,36,7370.0,-35.999515533447266,-626,9973.0
2710,0.32739830017089844,13.524678230285645,302,7370.0,-7.9680938720703125,-78,9973.0
2720,0.3283037543296814,31.02524185180664,580,7370.0,10.217982292175293,122,9973.0
2730,0.3274085819721222,38.35288619995117,709,7370.0,37.45639419555664,646,9973.0
2740,0.3273950517177582,40.09918975830078,601,7370.0,60.4436149597168,1190,9973.0
2750,0.3272780478000641,40.469215393066406,703,7370.0,66.17669677734375,1098,9973.0
2760,0.32808658480644226,31.313873291015625,461,7370.0,48.222373962402344,847,9973.0
2770,0.32551756501197815,27.351844787597656,423,7370.0,26.806753158569336,440,9973.0
2780,0.32557159662246704,22.9980525970459,354,7370.0,10.173068046569824,212,9973.0
2790,0.32537519931793213,10.946494102478027,48,7370.0,-1.9299111366271973,48,9973.0
2800,0.3257269561290741,-5.897284507751465,-207,7370.0,-9.22127914428711,-245,9973.0
2810,0.32578325271606445,-36.3119010925293,-812,7370.0,-12.054737091064453,-165,9973.0
2820,0.3226616084575653,-77.52303314208984,-1363,7370.0,-3.273465871810913,-187,9973.0
2830,0.3223940134048462,-92.038330078125,-1481,7370.0,5.431914329528809,83,9973.0
2840,0.3221306800842285,-72.0773696899414,-1022,7370.0,7.552375316619873,-89,9973.0
2850,0.3243097960948944,-43.12682342529297,-509,7370.0,0.8281188011169434,33,9973.0
2860,0.32127293944358826,0.8647200465202332,239,7370.0,-7.825977802276611,-74,9973.0
2870,0.3216162323951721,43.412227630615234,941,7370.0,-25.706863403320312,-504,9973.0
2880,0.3222525417804718,72.77735137939453,1275,7370.0,-34.0985221862793,-541,9973.0
2890,0.32275986671447754,91.34648132324219,1632,7370.0,-37.34914779663086,-608,9973.0
2900,0.3228794038295746,104.1859359741211,1822,7370.0,-27.950986862182617,-344,9973.0
2910,0.3217537999153137,100.93854522705078,1456,7370.0,-9.635059356689453,122,9973.0
2920,0.32245635986328125,65.7612075805664,710,7370.0,6.82466459274292,261,9973.0
2930,0.3250868022441864,11.625476837158203,-92,7370.0,17.48833656311035,207,9973.0
2940,0.32581448554992676,-35.27501678466797,-826,7370.0,16.68672752380371,91,9973.0
2950,0.32511311769485474,-79.33035278320312,-1476,7370.0,18.21438980102539,390,9973.0
2960,0.3258839547634125,-106.84664154052734,-1838,7370.0,30.143007278442383,686,9973.0
2970,0.32674849033355713,-117.58718872070312,-1898,7370.0,54.38911437988281,1139,9973.0
2980,0.32705429196357727,-105.02513885498047,-1494,7370.0,69.1169204711914,1081,9973.0
2990,0.32773083448410034,-74.04472351074219,-1069,7370.0,55.76421356201172,767,9973.0
3000,0.3227692246437073,-30.629867553710938,-287,7370.0,33.60220718383789,377,9973.0
3010,0.3235122859477997,-1.468507170677185,80,7370.0,15.742691993713379,89,9973.0
3020,0.32388463616371155,24.743452072143555,544,7370.0,-5.645900249481201,-289,9973.0
3030,0.3240734338760376,52.8496208190918,977,7370.0,-36.96516799926758,-676,9973.0
3040,0.3212287724018097,85.6954116821289,1608,7370.0,-59.04240798950195,-1013,9973.0
3050,0.3206220865249634,114.72235107421875,1904,7370.0,-69.41132354736328,-1077,9973.0
3060,0.3200787305831909,129.0736083984375,2167,7370.0,-81.60791015625,-1396,9973.0
3070,0.3195570707321167,125.02925872802734,2073,7370.0,-76.84044647216797,-1271,9973.0
3080,0.31873178482055664,84.72461700439453,1144,7370.0,-63.11907196044922,-917,9973.0
3090,0.3213806450366974,12.289776802062988,-173,7370.0,-44.37989807128906,-444,9973.0
3100,0.3217565715312958,-66.49726867675781,-1457,7370.0,-2.0949480533599854,217,9973.0
3110,0.3241168260574341,-124.78608703613281,-2218,7370.0,45.208377838134766,880,9973.0
3120,0.3253426253795624,-148.04281616210938,-2399,7370.0,69.62103271484375,1180,9973.0
3130,0.3245263695716858,-135.93890380859375,-2188,7370.0,79.62496185302734,1292,9973.0
3140,0.3247188925743103,-113.66574096679688,-1787,7370.0,87.98287963867188,1461,9973.0
3150,0.3243422210216522,-72.5461196899414,-899,7370.0,83.1504898071289,1214,9973.0
3160,0.32552093267440796,-13.056885719299316,64,7370.0,55.835296630859375,882,9973.0
3170,0.32483550906181335,56.18684768676758,1287,7370.0,9.288525581359863,-194,9973.0
3180,0.325784295797348,109.08341217041016,1867,7370.0,-37.96821594238281,-626,9973.0
3190,0.3268037438392639,141.31459045410156,2427,7370.0,-64.4307861328125,-1246,9973.0
3200,0.32743117213249207,149.73817443847656,2524,7370.0,-94.28929901123047,-1755,9973.0
3210,0.32691019773483276,142.84886169433594,2187,7370.0,-105.1344223022461,-1654,9973.0
3220,0.3262802064418793,109.83609771728516,1543,7370.0,-89.10560607910156,-1382,9973.0
3230,0.3264186382293701,55.68952941894531,625,7370.0,-65.9002685546875,-961,9973.0
3240,0.3269897997379303,-6.475208759307861,-366,7370.0,-27.79811668395996,-375,9973.0
3250,0.32824215292930603,-64.88646697998047,-1297,7370.0,-0.6860442757606506,73,9973.0
3260,0.32896578311920166,-106.89683532714844,-1861,7370.0,36.895503997802734,692,9973.0
3270,0.32984763383865356,-119.82699584960938,-1959,7370.0,76.70008087158203,1538,9973.0
3280,0.33117738366127014,-116.40117645263672,-1817,7370.0,108.19463348388672,1906,9973.0
3290,0.3309502899646759,-103.34796905517578,-1471,7370.0,118.70733642578125,1823,9973.0
3300,0.3296301066875458,-84.51739501953125,-1333,7370.0,109.12181854248047,1745,9973.0
3310,0.329759418964386,-47.13820266723633,-534,7370.0,82.34526062011719,1046,9973.0
3320,0.33016571402549744,6.4449639320373535,362,7370.0,36.34681701660156,413,9973.0
3330,0.3311752676963806,62.33391571044922,1269,7370.0,-15.139893531799316,-437,9973.0
3340,0.3322657644748688,106.556396484375,1908,7370.0,-67.90531158447266,-1314,9973.0
3350,0.3288666903972626,126.87364959716797,2038,7370.0,-87.74457550048828,-1377,9973.0
3360,0.32912877202033997,111.62442779541016,1665,7370.0,-65.90907287597656,-930,9973.0
3370,0.3299283981323242,78.3244857788086,1093,7370.0,-32.55607223510742,-221,9973.0
3380,0.33177298307418823,30.302696228027344,249,7370.0,5.31825590133667,324,9973.0
3390,0.3306533098220825,-21.62432289123535,-552,7370.0,30.3328857421875,699,9973.0
3400,0.33101049065589905,-63.121334075927734,-1156,7370.0,45.268218994140625,792,9973.0
3410,0.3308659493923187,-83.35173034667969,-1315,7370.0,53.50275802612305,892,9973.0
3420,0.331073522567749,-83.95232391357422,-1235,7370.0,52.93459701538086,786,9973.0
3430,0.3281952738761902,-73.46643829345703,-1146,7370.0,50.38865280151367,783,9973.0
3440,0.32796424627304077,-58.463294982910156,-888,7370.0,49.391319274902344,783,9973.0
3450,0.32632604241371155,-39.8127326965332,-583,7370.0,27.94537925720215,357,9973.0
3460,0.32655662298202515,-17.357664108276367,-89,7370.0,-1.0881092548370361,-186,9973.0
3470,0.32617074251174927,16.15837860107422,306,7370.0,-33.87089157104492,-590,9973.0
3480,0.326368510723114,50.04111862182617,1023,7370.0,-73.52664184570312,-1580,9973.0
3490,0.32655173540115356,71.21382141113281,1150,7370.0,-104.02857971191406,-1687,9973.0
3500,0.32662642002105713,70.15568542480469,1094,7370.0,-98.49417114257812,-1525,9973.0
3510,0.3265901803970337,52.466800689697266,628,7370.0,-73.53682708740234,-1043,9973.0
3520,0.32447123527526855,26.55446434020996,294,7370.0,-30.445415496826172,-312,9973.0
3530,0.32444873452186584,14.058549880981445,93,7370.0,8.880929946899414,230,9973.0
3540,0.32413265109062195,-9.170246124267578,-334,7370.0,40.19574737548828,863,9973.0
3550,0.3237835168838501,-30.993825912475586,-511,7370.0,72.74525451660156,1216,9973.0
3560,0.32168781757354736,-38.37031936645508,-648,7370.0,81.1564712524414,1149,9973.0
3570,0.3207220137119293,-35.575984954833984,-608,7370.0,71.90753936767578,1246,9973.0
3580,0.3194226026535034,-26.29630470275879,-396,7370.0,53.11360549926758,723,9973.0
3590,0.31985554099082947,-9.956090927124023,-73,7370.0,15.252976417541504,-102,9973.0
3600,0.31994301080703735,-3.265738010406494,-87,7370.0,-26.900850296020508,-590,9973.0
3610,0.31874844431877136,-0.40146392583847046,-29,7370.0,-65.69599914550781,-1207,9973.0
3620,0.31854239106178284,-4.044273853302002,-33,7370.0,-88.24669647216797,-1572,9973.0
3630,0.3182580769062042,-1.2530709505081177,104,7370.0,-114.53417205810547,-2100,9973.0
3640,0.3181924819946289,6.864007472991943,102,7370.0,-115.61035919189453,-1762,9973.0
3650,0.3179846405982971,3.8810150623321533,30,7370.0,-86.30120086669922,-1130,9973.0
3660,0.3181052803993225,-8.708335876464844,-216,7370.0,-40.620975494384766,-378,9973.0
3670,0.31971311569213867,-14.243817329406738,-176,7370.0,17.747163772583008,494,9973.0
3680,0.32041656970977783,-15.80643081665039,-265,7370.0,68.10309600830078,1277,9973.0
3690,0.3210430145263672,-16.285310745239258,-250,7370.0,104.49313354492188,1894,9973.0
3700,0.3234233260154724,-8.197585105895996,8,7370.0,120.71575164794922,1952,9973.0
3710,0.3247532844543457,9.227001190185547,237,7370.0,104.199462890625,1552,9973.0
3720,0.32477685809135437,30.666038513183594,553,7370.0,71.10208129882812,1077,9973.0
3730,0.32464084029197693,40.25559997558594,670,7370.0,39.4019889831543,435,9973.0
3740,0.3207680881023407,27.43018341064453,436,7370.0,9.140830039978027,-77,9973.0
3750,0.3213205337524414,5.51559591293335,-48,7370.0,-29.053424835205078,-667,9973.0
3760,0.32148727774620056,-16.078807830810547,-379,7370.0,-63.02134323120117,-1114,9973.0
3770,0.3215784728527069,-29.05476188659668,-492,7370.0,-95.39924621582031,-1610,9973.0
3780,0.3192696273326874,-28.67555046081543,-527,7370.0,-123.5711669921875,-2021,9973.0
3790,0.3196893632411957,-26.426250457763672,-440,7370.0,-140.82249450683594,-2289,9973.0
3800,0.319139689207077,-16.21637535095215,-156,7370.0,-139.88528442382812,-2108,9973.0
3810,0.318725049495697,0.8642328381538391,59,7370.0,-116.25686645507812,-1624,9973.0
3820,0.3176560699939728,15.89768123626709,323,7370.0,-62.25648880004883,-791,9973.0
3830,0.3223452568054199,21.402048110961914,326,7370.0,7.90415620803833,318,9973.0
3840,0.32410794496536255,11.62085247039795,191,7370.0,82.21529388427734,1565,9973.0
3850,0.3254662752151489,1.6480538845062256,108,7370.0,140.90370178222656,2495,9973.0
3860,0.3275441527366638,-8.591882705688477,-110,7370.0,176.54457092285156,2972,9973.0
3870,0.3275153338909149,-8.66125774383545,-21,7370.0,188.0516357421875,3067,9973.0
3880,0.32849130034446716,19.238468170166016,480,7370.0,169.80517578125,2562,9973.0
3890,0.3287845253944397,36.50920867919922,571,7370.0,131.83026123046875,2000,9973.0
3900,0.3283066153526306,30.69415855407715,399,7370.0,81.99006652832031,1157,9973.0
3910,0.32432663440704346,10.574762344360352,66,7370.0,29.065332412719727,283,9973.0
3920,0.32657620310783386,-15.429927825927734,-307,7370.0,-23.358795166015625,-690,9973.0
3930,0.32765519618988037,-30.523887634277344,-496,7370.0,-69.68161010742188,-1413,9973.0
3940,0.32900360226631165,-29.951534271240234,-473,7370.0,-113.40544891357422,-2075,9973.0
3950,0.32984164357185364,-25.59234046936035,-400,7370.0,-144.55545043945312,-2460,9973.0
3960,0.32708558440208435,-12.503867149353027,-129,7370.0,-147.6730499267578,-2416,9973.0
3970,0.32751500606536865,8.066017150878906,199,7370.0,-136.46974182128906,-2222,9973.0
3980,0.32880768179893494,13.553583145141602,212,7370.0,-110.14837646484375,-1599,9973.0
3990,0.32943424582481384,18.796710968017578,289,7370.0,-46.95427322387695,-463,9973.0
4000,0.3327392637729645,19.103836059570312,268,7370.0,26.96595573425293,774,9973.0
4010,0.3347248435020447,12.596076965332031,195,7370.0,91.89608764648438,1789,9973.0
4020,0.33626237511634827,5.42077112197876,32,7370.0,141.81362915039062,2594,9973.0
4030,0.3369874656200409,-9.95760726928711,-288,7370.0,177.56459045410156,3076,9973.0
4040,0.33878758549690247,-22.931255340576172,-470,7370.0,184.82894897460938,3011,9973.0
4050,0.3331962823867798,-27.913206100463867,-447,7370.0,161.9999542236328,2533,9973.0
4060,0.33272331953048706,-23.767793655395508,-266,7370.0,115.25755310058594,1392,9973.0
4070,0.33300283551216125,-17.355302810668945,-339,7370.0,50.534114837646484,623,9973.0
4080,0.33557578921318054,-12.163497924804688,-118,7370.0,-10.694364547729492,-618,9973.0
4090,0.3307649493217468,10.07247257232666,380,7370.0,-101.91259765625,-2199,9973.0
4100,0.3323892056941986,30.949832916259766,531,7370.0,-165.68484497070312,-2968,9973.0
4110,0.33301037549972534,43.16703414916992,725,7370.0,-206.34681701660156,-3340,9973.0
4120,0.3350304663181305,45.18436813354492,670,7370.0,-183.78656005859375,-2598,9973.0
4130,0.3302607238292694,36.421119689941406,477,7370.0,-128.6851806640625,-1697,9973.0
4140,0.33006957173347473,25.732030868530273,410,7370.0,-71.2203598022461,-734,9973.0
4150,0.3303717076778412,12.297738075256348,74,7370.0,-6.526632785797119,88,9973.0
4160,0.33248957991600037,-9.387927055358887,-299,7370.0,40.137176513671875,885,9973.0
4170,0.33294588327407837,-30.679872512817383,-587,7370.0,85.78494262695312,1621,9973.0
4180,0.3290650546550751,-43.96371841430664,-729,7370.0,114.41207885742188,1829,9973.0
4190,0.3283555507659912,-45.3314323425293,-804,7370.0,116.11803436279297,1807,9973.0
4200,0.3288261294364929,-43.914432525634766,-751,7370.0,100.5588607788086,1606,9973.0
4210,0.3277687430381775,-38.792362213134766,-461,7370.0,68.62265014648438,724,9973.0
4220,0.3231872320175171,-20.01255226135254,-253,7370.0,19.45272445678711,90,9973.0
4230,0.3233177661895752,7.431371212005615,355,7370.0,-43.777610778808594,-1156,9973.0
4240,0.32380616664886475,27.839828491210938,557,7370.0,-97.36083984375,-1803,9973.0
4250,0.32447564601898193,42.7542610168457,677,7370.0,-125.43883514404297,-1986,9973.0
4260,0.325120747089386,41.98054885864258,605,7370.0,-115.36691284179688,-1645,9973.0
4270,0.32125458121299744,35.806854248046875,548,7370.0,-76.828857421875,-1015,9973.0
4280,0.32228949666023254,22.23585319519043,274,7370.0,-22.93509864807129,-75,9973.0
4290,0.3234917223453522,7.542978286743164,63,7370.0,29.750629425048828,766,9973.0
4300,0.32425186038017273,-0.8031724691390991,14,7370.0,68.15308380126953,1307,9973.0
4310,0.3216369152069092,-7.034177780151367,-107,7370.0,86.47322845458984,1453,9973.0
4320,0.32127103209495544,-17.680030822753906,-320,7370.0,83.9151840209961,1318,9973.0
4330,0.32157087326049805,-19.84959602355957,-193,7370.0,69.63850402832031,865,9973.0
4340,0.3214337229728699,-21.377714157104492,-394,7370.0,39.15199661254883,526,9973.0
4350,0.3195997178554535,-21.489030838012695,-369,7370.0,2.122910499572754,-128,9973.0
4360,0.319902241230011,-19.221147537231445,-328,7370.0,-45.2998161315918,-904,9973.0
4370,0.32036709785461426,-13.298079490661621,-132,7370.0,-94.29502868652344,-1920,9973.0
4380,0.3209518790245056,-2.093228578567505,-38,7370.0,-121.00475311279297,-1930,9973.0
4390,0.3212398886680603,18.443479537963867,368,7370.0,-112.29905700683594,-1677,9973.0
4400,0.3200329542160034,22.994565963745117,297,7370.0,-81.23432159423828,-1031,9973.0
4410,0.3217923045158386,10.644447326660156,29,7370.0,-30.224239349365234,-57,9973.0
4420,0.3230684697628021,-3.5452349185943604,-194,7370.0,34.14296340942383,862,9973.0
4430,0.3242762088775635,-2.683727502822876,-11,7370.0,85.58094787597656,1547,9973.0
4440,0.32548776268959045,6.558614730834961,135,7370.0,115.82926940917969,2011,9973.0
4450,0.32644107937812805,13.903592109680176,189,7370.0,125.30178833007812,2198,9973.0
4460,0.3267979621887207,12.793793678283691,246,7370.0,118.87854766845703,1820,9973.0
4470,0.3267245292663574,6.444572925567627,55,7370.0,90.84906005859375,1308,9973.0
4480,0.32162630558013916,-2.7599735260009766,-27,7370.0,54.04547882080078,660,9973.0
4490,0.32406607270240784,-8.192635536193848,-257,7370.0,17.383211135864258,275,9973.0
4500,0.32438209652900696,-17.736621856689453,-239,7370.0,-22.866106033325195,-641,9973.0
4510,0.32542499899864197,-19.122272491455078,-297,7370.0,-71.23439025878906,-1431,9973.0
4520,0.32664763927459717,-20.96800994873047,-344,7370.0,-112.85553741455078,-2060,9973.0
4530,0.32444360852241516,-19.435508728027344,-299,7370.0,-131.44760131835938,-2021,9973.0
4540,0.32533374428749084,-3.394629955291748,48,7370.0,-111.72383117675781,-1593,9973.0
4550,0.3261326551437378,21.502534866333008,347,7370.0,-65.69845581054688,-781,9973.0
4560,0.3278972804546356,28.7277774810791,455,7370.0,-11.030860900878906,52,9973.0
4570,0.32601380348205566,29.000173568725586,512,7370.0,47.55596923828125,878,9973.0
4580,0.3276086747646332,22.075950622558594,287,7370.0,93.48639678955078,1558,9973.0
4590,0.32847872376441956,10.841882705688477,70,7370.0,120.081298828125,2009,9973.0
4600,0.328846275806427,-11.237068176269531,-132,7370.0,129.60638427734375,1874,9973.0
4610,0.33107703924179077,-27.271663665771484,-537,7370.0,105.44416809082031,1580,9973.0
4620,0.3276287317276001,-35.76861572265625,-563,7370.0,76.80840301513672,1051,9973.0
4630,0.327649861574173,-26.02617835998535,-482,7370.0,35.8209228515625,573,9973.0
4640,0.3280792832374573,-13.002543449401855,-106,7370.0,-2.6278514862060547,-260,9973.0
4650,0.32862618565559387,-0.9539975523948669,38,7370.0,-47.2545166015625,-1075,9973.0
4660,0.32568997144699097,6.730097770690918,159,7370.0,-88.49115753173828,-1584,9973.0
4670,0.3264426589012146,13.54632568359375,192,7370.0,-111.50934600830078,-1806,9973.0
4680,0.32694703340530396,17.40427017211914,288,7370.0,-112.39008331298828,-1757,9973.0
4690,0.32715749740600586,19.254117965698242,316,7370.0,-95.55001068115234,-1379,9973.0
4700,0.32750204205513,28.925832748413086,452,7370.0,-55.9583854675293,-823,9973.0
4710,0.3280172049999237,19.683040618896484,266,7370.0,-0.4787105321884155,46,9973.0
4720,0.3287050127983093,-2.398448944091797,-112,7370.0,51.32585525512695,960,9973.0
4730,0.3295629620552063,-21.070478439331055,-436,7370.0,79.62967681884766,1498,9973.0
4740,0.32962024211883545,-32.3657112121582,-504,7370.0,89.35844421386719,1450,9973.0
4750,0.3259783983230591,-34.782894134521484,-492,7370.0,82.7599868774414,1224,9973.0
4760,0.3251773715019226,-35.240116119384766,-541,7370.0,64.57293701171875,863,9973.0
4770,0.324154794216156,-25.622556686401367,-261,7370.0,32.735225677490234,424,9973.0
4780,0.32495924830436707,-3.5990965366363525,-12,7370.0,-3.467787504196167,-104,9973.0
4790,0.3219074010848999,23.25477409362793,560,7370.0,-27.060489654541016,-631,9973.0
4800,0.32184696197509766,34.06499099731445,536,7370.0,-39.26871871948242,-765,9973.0
4810,0.321915864944458,27.78387451171875,316,7370.0,-56.5030403137207,-1014,9973.0
4820,0.3218928873538971,17.296701431274414,105,7370.0,-75.46239471435547,-1093,9973.0
4830,0.3220653831958771,5.4835991859436035,109,7370.0,-83.29520416259766,-1274,9973.0
4840,0.32011744379997253,11.257405281066895,166,7370.0,-65.16606903076172,-835,9973.0
4850,0.3199891448020935,4.37445592880249,-63,7370.0,-34.31757736206055,-198,9973.0
4860,0.3219292163848877,-1.1146633625030518,-60,7370.0,14.945433616638184,636,9973.0
4870,0.3220684230327606,-4.2614359855651855,-139,7370.0,55.69227981567383,1113,9973.0
4880,0.32208624482154846,-17.105865478515625,-408,7370.0,68.70948028564453,1228,9973.0
4890,0.32190439105033875,-35.58823013305664,-669,7370.0,73.71218872070312,1267,9973.0
4900,0.3218594491481781,-36.918582916259766,-486,7370.0,64.92494201660156,841,9973.0
4910,0.32151758670806885,-26.268918991088867,-304,7370.0,33.86311721801758,381,9973.0
4920,0.3212391138076782,-5.859734535217285,49,7370.0,-4.452664852142334,-316,9973.0
4930,0.3191054165363312,16.684389114379883,366,7370.0,-42.4910888671875,-813,9973.0
4940,0.31891462206840515,36.762184143066406,780,7370.0,-66.27830505371094,-1305,9973.0
4950,0.31879740953445435,41.1270866394043,613,7370.0,-73.48294067382812,-1210,9973.0
4960,0.3185476064682007,27.595609664916992,360,7370.0,-72.82987976074219,-1085,9973.0
4970,0.3192286789417267,-0.11447817832231522,-44,7370.0,-64.92398071289062,-870,9973.0
4980,0.3202154338359833,-5.881532669067383,-171,7370.0,-33.22000503540039,-375,9973.0
4990,0.320602148771286,-4.145339012145996,-137,7370.0,-3.052865743637085,-70,9973.0
5000,0.32097166776657104,1.66959547996521,15,7370.0,28.288314819335938,812,9973.0
5010,0.32112306356430054,2.334622621536255,112,7370.0,74.73455047607422,1229,9973.0
5020,0.32178184390068054,6.698168754577637,157,7370.0,100.58539581298828,1747,9973.0
5030,0.32209858298301697,12.309151649475098,39,7370.0,111.44255828857422,1882,9973.0
5040,0.32226213812828064,7.331055164337158,104,7370.0,101.50439453125,1585,9973.0
5050,0.3220330774784088,8.739397048950195,179,7370.0,69.62334442138672,1031,9973.0
5060,0.32019099593162537,9.872198104858398,185,7370.0,31.928071975708008,185,9973.0
5070,0.320376992225647,12.241695404052734,194,7370.0,-8.249588012695312,-198,9973.0
5080,0.3202474117279053,12.56977367401123,136,7370.0,-42.56156921386719,-808,9973.0
5090,0.32078173756599426,4.312000274658203,120,7370.0,-72.5100326538086,-1379,9973.0
5100,0.3207451403141022,-7.665805816650391,-212,7370.0,-102.68331146240234,-1824,9973.0
5110,0.3212698698043823,-23.90772819519043,-483,7370.0,-124.81019592285156,-2197,9973.0
5120,0.32188844680786133,-31.335067749023438,-405,7370.0,-125.64886474609375,-1984,9973.0
5130,0.3221799433231354,-14.88375473022461,-228,7370.0,-82.76513671875,-1139,9973.0
5140,0.322226881980896,-1.4532091617584229,-40,7370.0,-28.76735496520996,-259,9973.0
5150,0.3235972225666046,10.178474426269531,174,7370.0,32.183021545410156,739,9973.0
5160,0.32520341873168945,22.890878677368164,407,7370.0,83.4526596069336,1387,9973.0
5170,0.3260938227176666,21.181432723999023,496,7370.0,120.6432876586914,1990,9973.0
5180,0.3268568217754364,17.910419464111328,249,7370.0,135.541259765625,2135,9973.0
5190,0.326040655374527,0.8891667127609253,-56,7370.0,115.14356231689453,1679,9973.0
5200,0.3259737491607666,-15.438243865966797,-239,7370.0,84.40680694580078,1216,9973.0
5210,0.3255540132522583,-17.18990707397461,-347,7370.0,49.2711067199707,711,9973.0
5220,0.3256048262119293,-15.379733085632324,-269,7370.0,3.0672669410705566,-136,9973.0
5230,0.3264315724372864,-17.50600814819336,-284,7370.0,-51.90608215332031,-1122,9973.0
5240,0.3271328806877136,-20.018465042114258,-310,7370.0,-102.17787170410156,-1959,9973.0
5250,0.32759037613868713,-32.66748809814453,-666,7370.0,-129.2996063232422,-2145,9973.0
5260,0.32788321375846863,-31.935964584350586,-448,7370.0,-128.16748046875,-1992,9973.0
5270,0.32954198122024536,-7.6569647789001465,-77,7370.0,-105.49517822265625,-1486,9973.0
5280,0.3265564739704132,9.26208209991455,152,7370.0,-63.34598922729492,-710,9973.0
5290,0.32715746760368347,24.0645751953125,364,7370.0,-9.844741821289062,0,9973.0
5300,0.3280729353427887,33.25642776489258,475,7370.0,36.331478118896484,648,9973.0
5310,0.328718900680542,25.388553619384766,304,7370.0,69.40382385253906,1071,9973.0
5320,0.32642704248428345,17.30470085144043,208,7370.0,84.64923095703125,1422,9973.0
5330,0.32614997029304504,5.706714153289795,162,7370.0,95.08366394042969,1427,9973.0
5340,0.3256365954875946,-5.930015563964844,-144,7370.0,90.23783111572266,1301,9973.0
5350,0.3252285420894623,-10.380805015563965,-226,7370.0,66.14021301269531,994,9973.0
5360,0.3237098157405853,-13.190178871154785,-225,7370.0,29.231840133666992,302,9973.0
5370,0.3233063220977783,-11.075522422790527,-237,7370.0,-13.83780288696289,-260,9973.0
5380,0.3235754370689392,-11.843643188476562,-162,7370.0,-47.08085632324219,-903,9973.0
5390,0.32447201013565063,-24.692609786987305,-449,7370.0,-80.86383819580078,-1426,9973.0
5400,0.32472044229507446,-37.978267669677734,-581,7370.0,-88.69391632080078,-1549,9973.0
5410,0.3225313127040863,-55.102420806884766,-930,7370.0,-76.302734375,-1236,9973.0
5420,0.3230377435684204,-53.246063232421875,-774,7370.0,-47.16608428955078,-709,9973.0
5430,0.32369065284729004,-22.74953842163086,-154,7370.0,-11.424847602844238,-170,9973.0
5440,0.3246513903141022,7.419814109802246,143,7370.0,23.46207618713379,517,9973.0
5450,0.32382291555404663,26.295806884765625,462,7370.0,50.374778747558594,1002,9973.0
5460,0.32478153705596924,37.8541145324707,646,7370.0,72.16788482666016,1262,9973.0
5470,0.3252488374710083,49.923248291015625,741,7370.0,64.27530670166016,1157,9973.0
5480,0.3258123993873596,55.17763137817383,800,7370.0,43.70357131958008,625,9973.0
5490,0.3261125385761261,42.78632354736328,604,7370.0,25.404787063598633,506,9973.0
5500,0.3243033289909363,44.065223693847656,811,7370.0,14.947237014770508,240,9973.0
5510,0.3243836760520935,51.63846969604492,884,7370.0,6.8302812576293945,138,9973.0
5520,0.3252447247505188,59.166473388671875,949,7370.0,-3.8715884685516357,-94,9973.0
5530,0.3251863718032837,30.550458908081055,283,7370.0,-12.532487869262695,-308,9973.0
5540,0.3239179253578186,-13.320107460021973,-479,7370.0,-26.114168167114258,-390,9973.0
5550,0.32468169927597046,-54.222904205322266,-1095,7370.0,-46.12718200683594,-846,9973.0
5560,0.32483604550361633,-88.62006378173828,-1609,7370.0,-60.36641311645508,-911,9973.0
5570,0.3250020146369934,-104.1966552734375,-1734,7370.0,-70.36988830566406,-1093,9973.0
5580,0.32258617877960205,-96.50685119628906,-1472,7370.0,-72.0130615234375,-1025,9973.0
5590,0.3223172426223755,-65.98866271972656,-788,7370.0,-52.133506774902344,-558,9973.0
5600,0.324051171541214,-11.918742179870605,139,7370.0,-26.094144821166992,-224,9973.0
5610,0.32427167892456055,31.181659698486328,602,7370.0,-4.0563578605651855,236,9973.0
5620,0.3245440125465393,50.92839431762695,845,7370.0,13.092766761779785,388,9973.0
5630,0.3249936103820801,54.09420394897461,856,7370.0,28.59620475769043,696,9973.0
5640,0.325334370136261,49.912654876708984,735,7370.0,55.359195709228516,1067,9973.0
5650,0.3257656693458557,49.28883361816406,860,7370.0,69.22114562988281,1333,9973.0
5660,0.32615897059440613,68.59667205810547,1200,7370.0,69.86621856689453,1269,9973.0
5670,0.3233676552772522,77.87322998046875,1209,7370.0,65.41006469726562,1054,9973.0
5680,0.3227899670600891,59.30134201049805,825,7370.0,57.036109924316406,889,9973.0
5690,0.3244275450706482,10.626388549804688,-60,7370.0,26.97247886657715,350,9973.0
5700,0.3253484070301056,-43.129695892333984,-984,7370.0,-13.343629837036133,-246,9973.0
5710,0.3266524374485016,-83.86119842529297,-1536,7370.0,-47.559139251708984,-902,9973.0
5720,0.32484376430511475,-112.60214233398438,-1939,7370.0,-77.45587921142578,-1229,9973.0
5730,0.3255563974380493,-120.06983184814453,-1950,7370.0,-80.01776123046875,-1158,9973.0
5740,0.32626059651374817,-100.09877014160156,-1522,7370.0,-59.51153564453125,-792,9973.0
5750,0.32653358578681946,-57.95846176147461,-732,7370.0,-37.169185638427734,-427,9973.0
5760,0.32619813084602356,-7.45649528503418,166,7370.0,-0.08440621197223663,280,9973.0
5770,0.32901474833488464,44.015533447265625,1018,7370.0,40.41633987426758,826,9973.0
5780,0.3306032419204712,73.44346618652344,1363,7370.0,64.3389892578125,1044,9973.0
5790,0.3319849669933319,92.85670471191406,1600,7370.0,72.20314025878906,981,9973.0
5800,0.328483909368515,99.60971069335938,1674,7370.0,64.68753051757812,991,9973.0
5810,0.3291154205799103,94.5921630859375,1444,7370.0,53.561649322509766,715,9973.0
5820,0.3292509913444519,69.99435424804688,1079,7370.0,34.924224853515625,411,9973.0
5830,0.3293268084526062,43.825927734375,488,7370.0,14.233177185058594,83,9973.0
5840,0.3304505944252014,2.0130302906036377,-56,7370.0,-10.520956993103027,-440,9973.0
5850,0.3274826407432556,-35.81403350830078,-845,7370.0,-39.05506896972656,-804,9973.0
5860,0.327894926071167,-72.56696319580078,-1217,7370.0,-67.11304473876953,-1300,9973.0
5870,0.32818877696990967,-92.18924713134766,-1519,7370.0,-91.95304870605469,-1604,9973.0
5880,0.32797226309776306,-84.69110870361328,-1249,7370.0,-104.79691314697266,-1736,9973.0
5890,0.3272986114025116,-49.272151947021484,-568,7370.0,-87.0106201171875,-1158,9973.0
5900,0.32733336091041565,5.729961395263672,296,7370.0,-30.536319732666016,-91,9973.0
5910,0.32996422052383423,35.62455368041992,636,7370.0,38.10152816772461,988,9973.0
5920,0.33187782764434814,44.92930221557617,725,7370.0,100.27705383300781,1946,9973.0
5930,0.3287229537963867,53.26515197753906,881,7370.0,130.16998291015625,2212,9973.0
5940,0.3291972577571869,55.594085693359375,822,7370.0,134.14932250976562,2291,9973.0
5950,0.3290610611438751,47.17844772338867,725,7370.0,121.32262420654297,1943,9973.0
5960,0.3289196193218231,30.827180862426758,371,7370.0,88.55587768554688,1301,9973.0
5970,0.3313589096069336,10.665903091430664,169,7370.0,37.939697265625,285,9973.0
5980,0.3277657628059387,-10.219818115234375,-269,7370.0,-13.927061080932617,-539,9973.0
5990,0.3282446265220642,-30.58917999267578,-585,7370.0,-68.08604431152344,-1454,9973.0
6000,0.32923412322998047,-50.448116302490234,-1025,7370.0,-118.73432159423828,-2067,9973.0
6010,0.3291546404361725,-72.50151824951172,-1270,7370.0,-148.36346435546875,-2491,9973.0
6020,0.3257657587528229,-79.09458923339844,-1305,7370.0,-164.53147888183594,-2575,9973.0
6030,0.32553088665008545,-67.99796295166016,-998,7370.0,-167.3146514892578,-2580,9973.0
6040,0.3243701159954071,-32.296836853027344,-381,7370.0,-141.04446411132812,-2009,9973.0
6050,0.3242781460285187,6.264334201812744,250,7370.0,-90.14158630371094,-1167,9973.0
6060,0.32950079441070557,33.398075103759766,601,7370.0,-30.703359603881836,-50,9973.0
6070,0.32903027534484863,48.2409782409668,810,7370.0,37.741859436035156,947,9973.0
6080,0.3306722640991211,62.306270599365234,1047,7370.0,95.56056213378906,1688,9973.0
6090,0.33210378885269165,59.50939178466797,918,7370.0,138.39195251464844,2305,9973.0
6100,0.33243682980537415,47.768653869628906,659,7370.0,157.4913787841797,2592,9973.0
6110,0.32987797260284424,26.21587562561035,361,7370.0,153.82786560058594,2208,9973.0
6120,0.32913005352020264,15.017333030700684,164,7370.0,124.2992172241211,1908,9973.0
6130,0.3285074532032013,12.862040519714355,198,7370.0,80.72200012207031,1136,9973.0
6140,0.3310878574848175,3.5976057052612305,-166,7370.0,26.635841369628906,269,9973.0
6150,0.32576489448547363,-23.92245101928711,-524,7370.0,-24.583099365234375,-866,9973.0
6160,0.3269386887550354,-58.510257720947266,-1129,7370.0,-88.92110443115234,-1712,9973.0
6170,0.32813286781311035,-75.49813079833984,-1216,7370.0,-134.00054931640625,-2530,9973.0
6180,0.32858914136886597,-71.44851684570312,-1141,7370.0,-156.25465393066406,-2527,9973.0
6190,0.3290858268737793,-44.03335189819336,-440,7370.0,-139.8552703857422,-2048,9973.0
6200,0.3262655436992645,3.945756435394287,303,7370.0,-93.72946166992188,-1228,9973.0
6210,0.3270643651485443,36.46988296508789,705,7370.0,-37.58898162841797,-319,9973.0
6220,0.3287452459335327,53.63654327392578,886,7370.0,25.93996810913086,722,9973.0
6230,0.33022230863571167,51.81681823730469,824,7370.0,82.54893493652344,1466,9973.0
6240,0.32855919003486633,44.17125701904297,748,7370.0,115.37406921386719,1850,9973.0
6250,0.32892709970474243,33.244720458984375,477,7370.0,128.34706115722656,2048,9973.0
6260,0.3297697901725769,25.743873596191406,494,7370.0,117.52664947509766,1751,9973.0
6270,0.3294421136379242,19.474552154541016,281,7370.0,95.36261749267578,1282,9973.0
6280,0.328730970621109,7.868222236633301,168,7370.0,60.914493560791016,659,9973.0
6290,0.3256998360157013,-20.078685760498047,-495,7370.0,10.093117713928223,-109,9973.0
6300,0.32553499937057495,-44.967308044433594,-835,7370.0,-43.69525146484375,-950,9973.0
6310,0.32625967264175415,-67.67481231689453,-1329,7370.0,-88.98368072509766,-1445,9973.0
6320,0.32651597261428833,-91.30409240722656,-1589,7370.0,-104.73760223388672,-1759,9973.0
6330,0.3242327570915222,-101.19054412841797,-1671,7370.0,-105.59904479980469,-1521,9973.0
6340,0.32579168677330017,-66.80889129638672,-794,7370.0,-74.22975158691406,-1037,9973.0
6350,0.3259202539920807,-11.00391674041748,108,7370.0,-33.027992248535156,-392,9973.0
6360,0.326906681060791,33.53620910644531,741,7370.0,6.936306476593018,186,9973.0
6370,0.32567551732063293,63.3980598449707,1181,7370.0,34.492027282714844,498,9973.0
6380,0.3262782394886017,83.86044311523438,1375,7370.0,52.09390640258789,882,9973.0
6390,0.327682763338089,91.5761489868164,1509,7370.0,60.172916412353516,912,9973.0
6400,0.3286435902118683,84.26260375976562,1294,7370.0,71.2462158203125,1088,9973.0
6410,0.32918581366539,57.14579391479492,713,7370.0,77.95301055908203,1282,9973.0
6420,0.32686764001846313,19.766637802124023,111,7370.0,72.02521514892578,956,9973.0
6430,0.3290776014328003,-19.301498413085938,-445,7370.0,42.16285705566406,427,9973.0
6440,0.3303266167640686,-51.94065856933594,-991,7370.0,3.95620059967041,-99,9973.0
6450,0.3324510455131531,-78.65572357177734,-1343,7370.0,-29.23500633239746,-786,9973.0
6460,0.3316662013530731,-96.2776870727539,-1605,7370.0,-60.18037796020508,-1094,9973.0
6470,0.333390474319458,-101.60199737548828,-1658,7370.0,-69.58016204833984,-1072,9973.0
6480,0.33472830057144165,-81.40482330322266,-1247,7370.0,-56.04889678955078,-905,9973.0
6490,0.3359425961971283,-35.26310729980469,-366,7370.0,-37.22460174560547,-411,9973.0
6500,0.33688634634017944,13.592449188232422,336,7370.0,0.8177128434181213,213,9973.0
6510,0.33868297934532166,51.20913314819336,1023,7370.0,30.473020553588867,497,9973.0
6520,0.34023919701576233,90.6983871459961,1470,7370.0,47.88227081298828,887,9973.0
6530,0.34173154830932617,107.07839965820312,1799,7370.0,57.326866149902344,939,9973.0
6540,0.34253400564193726,112.7898178100586,1774,7370.0,50.139404296875,898,9973.0
6550,0.3405025601387024,106.47027587890625,1590,7370.0,30.6848087310791,449,9973.0
6560,0.3405277132987976,79.73970794677734,1129,7370.0,7.895527362823486,-22,9973.0
6570,0.34150755405426025,32.848880767822266,253,7370.0,-9.749348640441895,-319,9973.0
6580,0.3424612283706665,-31.703102111816406,-832,7370.0,-29.201749801635742,-712,9973.0
6590,0.3410715162754059,-103.35508728027344,-1951,7370.0,-66.58486938476562,-1224,9973.0
6600,0.34171992540359497,-147.64248657226562,-2482,7370.0,-98.89688110351562,-1636,9973.0
6610,0.3419131636619568,-152.92691040039062,-2445,7370.0,-106.27561950683594,-1542,9973.0
6620,0.3411003649234772,-112.12239837646484,-1569,7370.0,-84.24259948730469,-1240,9973.0
6630,0.3468579053878784,-56.637386322021484,-684,7370.0,-42.972957611083984,-576,9973.0
6640,0.34501442313194275,4.407024383544922,352,7370.0,-10.114410400390625,-74,9973.0
6650,0.3459620475769043,64.92352294921875,1405,7370.0,17.063276290893555,346,9973.0
6660,0.34768837690353394,104.06272888183594,1748,7370.0,48.36964797973633,975,9973.0
6670,0.348074734210968,111.53215789794922,1894,7370.0,77.40876007080078,1245,9973.0
6680,0.34470340609550476,96.89459991455078,1444,7370.0,89.93544006347656,1638,9973.0
6690,0.34443309903144836,69.06613159179688,1038,7370.0,81.18373107910156,1254,9973.0
6700,0.34448784589767456,38.35109329223633,524,7370.0,52.6201057434082,819,9973.0
6710,0.34617605805397034,35.111305236816406,605,7370.0,18.625993728637695,68,9973.0
6720,0.3415534794330597,41.999881744384766,651,7370.0,-6.838488578796387,-346,9973.0
6730,0.3414452373981476,11.944822311401367,26,7370.0,-34.65874099731445,-797,9973.0
6740,0.3410469889640808,-34.271644592285156,-764,7370.0,-61.319820404052734,-1066,9973.0
6750,0.34052368998527527,-80.2624282836914,-1513,7370.0,-77.7940444946289,-1240,9973.0
6760,0.34010422229766846,-113.44517517089844,-2106,7370.0,-83.97893524169922,-1298,9973.0
6770,0.33644822239875793,-137.20309448242188,-2238,7370.0,-67.95565032958984,-1064,9973.0
6780,0.33453384041786194,-121.47673797607422,-1752,7370.0,-34.885135650634766,-568,9973.0
6790,0.33525562286376953,-75.76173400878906,-793,7370.0,1.383352518081665,11,9973.0
6800,0.3362121284008026,-7.542802333831787,338,7370.0,23.221965789794922,378,9973.0
6810,0.3323802947998047,55.99826431274414,1063,7370.0,45.918827056884766,882,9973.0
6820,0.33166515827178955,80.11509704589844,1361,7370.0,72.4167251586914,1345,9973.0
6830,0.3311038613319397,88.18571472167969,1393,7370.0,91.81098175048828,1462,9973.0
6840,0.3309052586555481,76.3954849243164,1036,7370.0,88.03898620605469,1565,9973.0
6850,0.32986825704574585,52.9749755859375,700,7370.0,80.18473052978516,1292,9973.0
6860,0.32626092433929443,29.14672088623047,301,7370.0,59.66231918334961,883,9973.0
6870,0.3255317211151123,7.2641448974609375,29,7370.0,33.09375,403,9973.0
6880,0.32642850279808044,-9.840889930725098,-175,7370.0,6.216402530670166,-209,9973.0
6890,0.3266870379447937,-27.6434383392334,-583,7370.0,-21.395078659057617,-549,9973.0
6900,0.3209492266178131,-48.90742492675781,-791,7370.0,-48.5615119934082,-1156,9973.0
6910,0.3217795193195343,-60.96963882446289,-1026,7370.0,-82.1756362915039,-1480,9973.0
6920,0.32252243161201477,-70.12947082519531,-1178,7370.0,-96.74794006347656,-1580,9973.0
6930,0.32336971163749695,-68.12187194824219,-1059,7370.0,-86.95956420898438,-1193,9973.0
6940,0.32132238149642944,-45.49622344970703,-632,7370.0,-53.21992874145508,-717,9973.0
6950,0.3222448229789734,-15.186885833740234,-151,7370.0,-20.123409271240234,-181,9973.0
6960,0.3237302899360657,21.20612144470215,495,7370.0,19.929813385009766,467,9973.0
6970,0.32467561960220337,51.51475524902344,848,7370.0,61.44949722290039,1184,9973.0
6980,0.32611116766929626,71.05799102783203,1134,7370.0,88.51536560058594,1595,9973.0
6990,0.3261953592300415,83.89952087402344,1321,7370.0,97.93423461914062,1620,9973.0
7000,0.32690927386283875,73.79456329345703,1058,7370.0,94.16144561767578,1547,9973.0
7010,0.326854944229126,59.42589569091797,853,7370.0,79.38097381591797,1321,9973.0
7020,0.3260553479194641,47.43674087524414,754,7370.0,55.320125579833984,758,9973.0
7030,0.3235357999801636,22.065664291381836,253,7370.0,22.79397201538086,191,9973.0
7040,0.3230888545513153,3.2217249870300293,50,7370.0,-17.824214935302734,-551,9973.0
7050,0.32438626885414124,-21.862957000732422,-401,7370.0,-42.042137145996094,-876,9973.0
7060,0.3247118592262268,-30.80750274658203,-619,7370.0,-66.18798065185547,-1195,9973.0
7070,0.3244239091873169,-43.237613677978516,-750,7370.0,-87.08079528808594,-1500,9973.0
7080,0.3228772282600403,-52.48933029174805,-987,7370.0,-92.16321563720703,-1493,9973.0
7090,0.3218339681625366,-62.19184494018555,-1099,7370.0,-72.58130645751953,-1109,9973.0
7100,0.3210841417312622,-70.07211303710938,-1193,7370.0,-41.760520935058594,-572,9973.0
7110,0.3204866945743561,-53.66606521606445,-756,7370.0,-3.747169256210327,71,9973.0
7120,0.3197272717952728,-4.5061540603637695,148,7370.0,22.097047805786133,474,9973.0
7130,0.31884118914604187,47.00052261352539,904,7370.0,52.279422760009766,1091,9973.0
7140,0.3185972273349762,67.67022705078125,1184,7370.0,84.07020568847656,1425,9973.0
7150,0.3175814747810364,69.499755859375,1055,7370.0,83.0361099243164,1265,9973.0
7160,0.3149857819080353,46.836246490478516,671,7370.0,72.35992431640625,1076,9973.0
7170,0.31399932503700256,22.91294288635254,244,7370.0,40.26933670043945,591,9973.0
7180,0.31276872754096985,9.164868354797363,155,7370.0,3.015442132949829,-76,9973.0
7190,0.3111817240715027,3.828831434249878,4,7370.0,-33.66790008544922,-725,9973.0
7200,0.30950719118118286,4.723458290100098,78,7370.0,-51.5622673034668,-921,9973.0
7210,0.3068850040435791,11.352622985839844,216,7370.0,-65.60523223876953,-1182,9973.0
7220,0.3047128915786743,15.248170852661133,329,7370.0,-74.49297332763672,-1264,9973.0
7230,0.3021910488605499,8.14191722869873,29,7370.0,-72.0322036743164,-1166,9973.0
7240,0.3001389503479004,-26.010852813720703,-583,7370.0,-51.591976165771484,-717,9973.0
7250,0.29911568760871887,-49.92019271850586,-959,7370.0,-23.455652236938477,-237,9973.0
7260,0.29723700881004333,-63.27017593383789,-1060,7370.0,8.203790664672852,288,9973.0
7270,0.2955441176891327,-54.41386413574219,-735,7370.0,37.91466522216797,727,9973.0
7280,0.29443585872650146,-28.621667861938477,-224,7370.0,84.74591827392578,1450,9973.0
7290,0.29435592889785767,9.75375747680664,220,7370.0,109.85844421386719,1950,9973.0
7300,0.292676717042923,41.6559944152832,870,7370.0,121.79352569580078,1904,9973.0
7310,0.2912499010562897,58.11058044433594,906,7370.0,111.18817138671875,1771,9973.0
7320,0.2896634638309479,55.00669860839844,831,7370.0,76.25812530517578,1057,9973.0
7330,0.28963738679885864,34.51304244995117,472,7370.0,24.992101669311523,184,9973.0
7340,0.28765198588371277,11.023335456848145,35,7370.0,-15.871573448181152,-306,9973.0
7350,0.28599876165390015,1.5652978420257568,52,7370.0,-46.51753616333008,-879,9973.0
7360,0.2841944992542267,-1.5950390100479126,-73,7370.0,-55.77434539794922,-822,9973.0
7370,0.28243544697761536,-5.92537784576416,-95,7370.0,-45.431053161621094,-732,9973.0
7380,0.28085485100746155,-3.6817188262939453,17,7370.0,-38.03965759277344,-699,9973.0
7390,0.2801412045955658,-2.116102695465088,-87,7370.0,-35.01904296875,-452,9973.0
7400,0.28002262115478516,-8.848761558532715,-283,7370.0,-14.733536720275879,-104,9973.0
7410,0.2796204090118408,-30.135377883911133,-433,7370.0,17.890161514282227,440,9973.0
7420,0.28109896183013916,-31.129499435424805,-554,7370.0,59.31545639038086,1261,9973.0
7430,0.2815455496311188,-32.77872848510742,-471,7370.0,100.25634002685547,1881,9973.0
7440,0.28264540433883667,-24.15174674987793,-342,7370.0,131.72152709960938,2258,9973.0
7450,0.2836725413799286,-13.979515075683594,-29,7370.0,137.0662384033203,2161,9973.0
7460,0.28460875153541565,12.74186897277832,246,7370.0,123.67967987060547,1958,9973.0
7470,0.2843838930130005,33.39393615722656,668,7370.0,93.35360717773438,1223,9973.0
7480,0.2844957113265991,43.76231002807617,735,7370.0,53.24641418457031,614,9973.0
7490,0.2850842773914337,44.990169525146484,629,7370.0,-0.7627521753311157,-250,9973.0
7500,0.2882193922996521,31.26349639892578,497,7370.0,-68.13445281982422,-1626,9973.0
7510,0.28945067524909973,10.222187995910645,73,7370.0,-121.37895965576172,-2217,9973.0
7520,0.28927862644195557,-1.8026463985443115,-74,7370.0,-145.13966369628906,-2508,9973.0
7530,0.2895042598247528,-8.704302787780762,-130,7370.0,-162.64833068847656,-2802,9973.0
7540,0.29243671894073486,-12.393616676330566,-160,7370.0,-169.8323516845703,-2796,9973.0
7550,0.2924152910709381,-11.432342529296875,-179,7370.0,-166.9650115966797,-2559,9973.0
7560,0.29098063707351685,-7.6026930809021,-74,7370.0,-145.12522888183594,-2147,9973.0
7570,0.29056164622306824,6.041796684265137,138,7370.0,-108.49227905273438,-1541,9973.0
7580,0.2963692843914032,10.46678352355957,159,7370.0,-56.077938079833984,-478,9973.0
7590,0.2974640429019928,0.7276701331138611,-9,7370.0,27.41476821899414,883,9973.0
7600,0.29774561524391174,-4.018041610717773,36,7370.0,110.39613342285156,2120,9973.0
7610,0.30054396390914917,-6.585710525512695,-31,7370.0,156.7122802734375,2696,9973.0
7620,0.30022475123405457,-13.17409610748291,-179,7370.0,183.39773559570312,2978,9973.0
7630,0.3016330301761627,-13.769359588623047,-353,7370.0,182.19154357910156,3071,9973.0
7640,0.30225005745887756,-16.22920036315918,-229,7370.0,155.4615020751953,2263,9973.0
7650,0.30107381939888,-14.717864990234375,-243,7370.0,100.30632781982422,1316,9973.0
7660,0.3035579323768616,-19.422134399414062,-272,7370.0,37.22303009033203,209,9973.0
7670,0.30344629287719727,-19.629592895507812,-406,7370.0,-15.257437705993652,-307,9973.0
7680,0.30338308215141296,-13.230947494506836,-122,7370.0,-62.49435806274414,-1216,9973.0
7690,0.30128902196884155,-2.9145424365997314,-85,7370.0,-101.58860778808594,-1712,9973.0
7700,0.3011581301689148,2.747840404510498,80,7370.0,-128.94764709472656,-2240,9973.0
7710,0.30078554153442383,4.7681074142456055,113,7370.0,-151.21197509765625,-2652,9973.0
7720,0.3003884553909302,2.241541624069214,-35,7370.0,-156.30197143554688,-2538,9973.0
7730,0.3000999987125397,2.9142308235168457,40,7370.0,-134.46630859375,-1916,9973.0
7740,0.30278563499450684,16.580657958984375,323,7370.0,-90.98692321777344,-1172,9973.0
7750,0.3030218482017517,17.35030746459961,270,7370.0,-35.69626998901367,-264,9973.0
7760,0.3046780824661255,-4.428950786590576,-79,7370.0,26.594562530517578,615,9973.0
7770,0.3073050081729889,-23.982463836669922,-414,7370.0,78.0926742553711,1366,9973.0
7780,0.3039931654930115,-32.79595947265625,-415,7370.0,120.4891357421875,2087,9973.0
7790,0.305015504360199,-21.493032455444336,-260,7370.0,145.31063842773438,2554,9973.0
7800,0.3056313097476959,-5.096637725830078,-85,7370.0,150.0220947265625,2573,9973.0
7810,0.30585482716560364,7.1097002029418945,178,7370.0,135.48245239257812,2016,9973.0
7820,0.3062130808830261,20.72906494140625,385,7370.0,98.36907196044922,1472,9973.0
7830,0.30599579215049744,32.64745330810547,487,7370.0,54.47385025024414,732,9973.0
7840,0.30543598532676697,30.30052947998047,536,7370.0,5.022585391998291,-201,9973.0
7850,0.3055027425289154,19.563634872436523,250,7370.0,-44.94432067871094,-952,9973.0
7860,0.30548977851867676,8.528128623962402,153,7370.0,-77.94473266601562,-1380,9973.0
7870,0.3076215386390686,0.7013404369354248,70,7370.0,-92.82049560546875,-1591,9973.0
7880,0.30722638964653015,8.02953815460205,199,7370.0,-69.98262023925781,-1013,9973.0
7890,0.3072330355644226,11.106708526611328,79,7370.0,-30.59703826904297,-175,9973.0
7900,0.3077396750450134,1.504260778427124,-45,7370.0,17.153573989868164,576,9973.0
7910,0.30480027198791504,-0.40616899728775024,-47,7370.0,61.19193649291992,1254,9973.0
7920,0.30486759543418884,4.801235675811768,145,7370.0,92.97420501708984,1611,9973.0
7930,0.30427226424217224,7.704609394073486,199,7370.0,109.44386291503906,1722,9973.0
7940,0.3031284213066101,6.641720294952393,46,7370.0,102.499755859375,1615,9973.0
7950,0.3048231601715088,3.487959623336792,166,7370.0,77.82476043701172,1105,9973.0
7960,0.30356866121292114,10.813027381896973,214,7370.0,42.749202728271484,533,9973.0
7970,0.3026399612426758,13.421849250793457,198,7370.0,9.952665328979492,85,9973.0
7980,0.3020547032356262,9.29830551147461,180,7370.0,-24.703330993652344,-626,9973.0
7990,0.30113640427589417,0.08533187955617905,-114,7370.0,-58.77626037597656,-1031,9973.0
8000,0.2991127371788025,-6.489372730255127,-90,7370.0,-86.4107894897461,-1557,9973.0
8010,0.2979932427406311,-14.432741165161133,-278,7370.0,-99.4045181274414,-1685,9973.0
8020,0.2968132197856903,-33.251731872558594,-623,7370.0,-95.26270294189453,-1485,9973.0
8030,0.2970882058143616,-36.94794464111328,-608,7370.0,-67.41761016845703,-834,9973.0
8040,0.2944818139076233,-29.663728713989258,-443,7370.0,-24.757089614868164,-239,9973.0
8050,0.29424887895584106,-25.200843811035156,-382,7370.0,26.004552841186523,579,9973.0
8060,0.2942064106464386,-24.67472267150879,-377,7370.0,70.73892974853516,1422,9973.0
8070,0.293215811252594,-17.672000885009766,-247,7370.0,90.36504364013672,1413,9973.0
8080,0.29330164194107056,-15.859514236450195,-302,7370.0,78.48845672607422,1247,9973.0
8090,0.29068833589553833,-9.99763011932373,-7,7370.0,59.771148681640625,780,9973.0
8100,0.29008907079696655,-0.2809261977672577,-44,7370.0,44.26577377319336,722,9973.0
8110,0.2897014915943146,11.892171859741211,334,7370.0,30.910741806030273,387,9973.0
8120,0.2888745665550232,30.57468605041504,662,7370.0,6.49386739730835,-197,9973.0
8130,0.2829875349998474,34.08568572998047,463,7370.0,-28.078054428100586,-550,9973.0
8140,0.28219074010849,28.85486602783203,515,7370.0,-55.30580139160156,-1018,9973.0
8150,0.28146111965179443,22.413400650024414,207,7370.0,-61.171329498291016,-907,9973.0
8160,0.2805756628513336,10.141322135925293,111,7370.0,-60.70487594604492,-988,9973.0
8170,0.2799294590950012,-5.6826066970825195,-198,7370.0,-50.666954040527344,-789,9973.0
8180,0.2751345932483673,-18.605478286743164,-324,7370.0,-26.337766647338867,-142,9973.0
8190,0.2746720016002655,-16.03169822692871,-155,7370.0,12.06924819946289,408,9973.0
8200,0.2744419276714325,-4.935610771179199,-31,7370.0,55.74052429199219,1129,9973.0
8210,0.2740764021873474,-1.7087396383285522,-92,7370.0,77.81985473632812,1324,9973.0
8220,0.27005869150161743,-8.426459312438965,-142,7370.0,76.3222427368164,1218,9973.0
8230,0.2707934081554413,-14.693156242370605,-278,7370.0,59.808475494384766,700,9973.0
8240,0.27001121640205383,-15.025626182556152,-238,7370.0,29.769041061401367,428,9973.0
8250,0.2693593502044678,-17.428855895996094,-245,7370.0,10.284849166870117,-37,9973.0
8260,0.26770830154418945,-25.604631423950195,-495,7370.0,-12.55502700805664,-299,9973.0
8270,0.26771047711372375,-27.187576293945312,-334,7370.0,-43.686466217041016,-774,9973.0
8280,0.26753419637680054,-6.145885467529297,50,7370.0,-75.18623352050781,-1420,9973.0
8290,0.2674119472503662,12.143205642700195,228,7370.0,-97.17110443115234,-1489,9973.0
8300,0.2670001983642578,27.9749755859375,569,7370.0,-100.01071166992188,-1733,9973.0
8310,0.26440754532814026,36.031707763671875,583,7370.0,-90.59956359863281,-1327,9973.0
8320,0.26612764596939087,43.57685470581055,809,7370.0,-68.75313568115234,-1079,9973.0
8330,0.26657065749168396,59.7686767578125,991,7370.0,-34.46016311645508,-334,9973.0
8340,0.267141193151474,44.4007453918457,586,7370.0,15.383284568786621,502,9973.0
8350,0.26652488112449646,22.20368003845215,321,7370.0,56.87914276123047,1002,9973.0
8360,0.2686805725097656,-4.063551902770996,-157,7370.0,86.04468536376953,1510,9973.0
8370,0.2699125409126282,-19.260601043701172,-444,7370.0,100.08804321289062,1656,9973.0
8380,0.27084091305732727,-33.297096252441406,-520,7370.0,77.1095199584961,1040,9973.0
8390,0.2717141807079315,-39.38876724243164,-686,7370.0,44.02061080932617,658,9973.0
8400,0.27398404479026794,-37.178855895996094,-619,7370.0,14.945422172546387,125,9973.0
8410,0.2752757668495178,-30.425113677978516,-465,7370.0,-15.12243938446045,-394,9973.0
8420,0.27685755491256714,-18.303741455078125,-276,7370.0,-46.76069259643555,-842,9973.0
8430,0.2783454358577728,-13.456347465515137,-153,7370.0,-75.01368713378906,-1345,9973.0
8440,0.2762608528137207,-5.808130741119385,-66,7370.0,-96.47929382324219,-1705,9973.0
8450,0.27722713351249695,-4.001227855682373,-115,7370.0,-111.21385192871094,-1755,9973.0
8460,0.2783363461494446,-7.482889652252197,-63,7370.0,-107.19232940673828,-1747,9973.0
8470,0.2790612578392029,-4.550413608551025,18,7370.0,-85.93811798095703,-1278,9973.0
8480,0.28144213557243347,-0.5095804333686829,-81,7370.0,-35.17902374267578,-232,9973.0
8490,0.2830315828323364,-8.789484024047852,-260,7370.0,22.570383071899414,619,9973.0
8500,0.2857445776462555,-13.497722625732422,-287,7370.0,59.303062438964844,1185,9973.0
8510,0.2876950204372406,-16.865121841430664,-244,7370.0,82.1494369506836,1325,9973.0
8520,0.28895530104637146,-14.215237617492676,-159,7370.0,90.79524993896484,1534,9973.0
8530,0.28841474652290344,-2.6016409397125244,-55,7370.0,87.02115631103516,1448,9973.0
8540,0.28956139087677,4.80125617980957,139,7370.0,71.60480499267578,967,9973.0
8550,0.29035478830337524,4.395716667175293,7,7370.0,39.75313949584961,625,9973.0
8560,0.2918577492237091,2.5839970111846924,89,7370.0,13.92528247833252,42,9973.0
8570,0.2929207384586334,6.8807597160339355,52,7370.0,-5.139490127563477,-53,9973.0
8580,0.2935846745967865,8.506868362426758,161,7370.0,-21.72657585144043,-489,9973.0
8590,0.2941785156726837,6.214098930358887,120,7370.0,-37.500858306884766,-668,9973.0
8600,0.2946794927120209,2.9646801948547363,6,7370.0,-46.84852981567383,-689,9973.0
8610,0.2971094250679016,1.3490495681762695,30,7370.0,-48.44376754760742,-848,9973.0
8620,0.29810473322868347,-3.3225040435791016,-25,7370.0,-44.59814453125,-731,9973.0
8630,0.2979412376880646,-9.347356796264648,-199,7370.0,-29.45989990234375,-351,9973.0
8640,0.2998489737510681,-10.853425979614258,-279,7370.0,-0.20346829295158386,166,9973.0
8650,0.3008134961128235,-29.635196685791016,-586,7370.0,31.215560913085938,708,9973.0
8660,0.30350083112716675,-36.57539749145508,-532,7370.0,78.90351867675781,1335,9973.0
8670,0.3043035864830017,-25.522676467895508,-341,7370.0,109.06555938720703,1901,9973.0
8680,0.30479633808135986,-1.6344051361083984,99,7370.0,116.13750457763672,1858,9973.0
8690,0.3071427047252655,23.765457153320312,458,7370.0,93.34456634521484,1394,9973.0
8700,0.3081273138523102,34.988407135009766,625,7370.0,53.1396369934082,590,9973.0
8710,0.30878984928131104,31.035139083862305,382,7370.0,9.030657768249512,27,9973.0
8720,0.30883702635765076,18.470918655395508,303,7370.0,-24.372440338134766,-628,9973.0
8730,0.31003525853157043,8.061432838439941,48,7370.0,-60.76910400390625,-1104,9973.0
8740,0.3114243447780609,-5.586972713470459,-152,7370.0,-85.66139221191406,-1393,9973.0
8750,0.3119265139102936,-16.569475173950195,-288,7370.0,-105.44837188720703,-1884,9973.0
8760,0.3122580051422119,-27.834426879882812,-566,7370.0,-118.83308410644531,-1923,9973.0
8770,0.31401875615119934,-36.07999038696289,-637,7370.0,-122.114990234375,-1868,9973.0
8780,0.3145724833011627,-39.79167938232422,-511,7370.0,-102.51997375488281,-1599,9973.0
8790,0.3143540918827057,-26.340782165527344,-388,7370.0,-63.717750549316406,-851,9973.0
8800,0.3154292106628418,-12.237738609313965,-115,7370.0,-14.017568588256836,121,9973.0
8810,0.31723588705062866,11.05819034576416,236,7370.0,39.98343276977539,979,9973.0
8820,0.31870606541633606,24.825773239135742,551,7370.0,76.90245819091797,1407,9973.0
8830,0.31873804330825806,39.012908935546875,749,7370.0,101.5181655883789,1721,9973.0
8840,0.3193412125110626,48.175472259521484,752,7370.0,106.04507446289062,1695,9973.0
8850,0.32037976384162903,49.99775314331055,817,7370.0,87.9609603881836,1354,9973.0
8860,0.3207648992538452,41.95529556274414,648,7370.0,63.768882751464844,707,9973.0
8870,0.3211190700531006,29.621997833251953,394,7370.0,23.952987670898438,231,9973.0
8880,0.31878775358200073,8.666677474975586,9,7370.0,-12.331975936889648,-345,9973.0
8890,0.3190452456474304,-5.621109962463379,-121,7370.0,-36.13959503173828,-771,9973.0
8900,0.3191768527030945,-9.17414379119873,-68,7370.0,-57.37905502319336,-1099,9973.0
8910,0.31905046105384827,-9.257039070129395,-152,7370.0,-75.26277160644531,-1247,9973.0
8920,0.3184645175933838,-12.634157180786133,-277,7370.0,-71.98634338378906,-1057,9973.0
8930,0.3184853196144104,-23.546072006225586,-468,7370.0,-55.503170013427734,-776,9973.0
8940,0.318305104970932,-33.78593444824219,-504,7370.0,-37.40007400512695,-467,9973.0
8950,0.3178339898586273,-22.646657943725586,-194,7370.0,-17.06497573852539,-182,9973.0
8960,0.3152916431427002,-2.302638292312622,131,7370.0,16.305156707763672,317,9973.0
8970,0.3149581849575043,21.671531677246094,413,7370.0,50.86620330810547,948,9973.0
8980,0.3145848512649536,42.41637420654297,733,7370.0,79.16657257080078,1538,9973.0
8990,0.31394442915916443,51.58871841430664,881,7370.0,98.85738372802734,1532,9973.0
9000,0.3126161992549896,42.615211486816406,643,7370.0,91.2519302368164,1375,9973.0
9010,0.31159090995788574,27.342998504638672,302,7370.0,55.250267028808594,752,9973.0
9020,0.31178444623947144,7.128400802612305,67,7370.0,5.632207870483398,-174,9973.0
9030,0.31112363934516907,-10.676072120666504,-233,7370.0,-38.6838493347168,-756,9973.0
9040,0.3108768165111542,-14.456363677978516,-276,7370.0,-76.07986450195312,-1399,9973.0
9050,0.31062236428260803,-22.57368278503418,-323,7370.0,-106.69625854492188,-1903,9973.0
9060,0.3100115954875946,-23.5190372467041,-421,7370.0,-122.64970397949219,-1900,9973.0
9070,0.3089897036552429,-9.636474609375,-63,7370.0,-110.72312927246094,-1710,9973.0
9080,0.30832284688949585,3.5174365043640137,154,7370.0,-79.5523452758789,-1182,9973.0
9090,0.3068338930606842,13.052783966064453,190,7370.0,-34.64221954345703,-311,9973.0
9100,0.3082253932952881,6.343559265136719,8,7370.0,6.160207748413086,368,9973.0
9110,0.30813607573509216,-1.26027512550354,64,7370.0,52.92909622192383,1035,9973.0
9120,0.30838921666145325,1.0392874479293823,74,7370.0,81.47720336914062,1277,9973.0
9130,0.30815985798835754,2.065700054168701,-55,7370.0,77.50313568115234,1332,9973.0
9140,0.30544018745422363,-5.0574493408203125,-120,7370.0,76.9096908569336,1207,9973.0
9150,0.30507564544677734,-20.861845016479492,-362,7370.0,67.75203704833984,1018,9973.0
9160,0.3048889935016632,-27.96605682373047,-423,7370.0,38.61347579956055,442,9973.0
9170,0.3048115670681,-21.963651657104492,-271,7370.0,4.247564315795898,-109,9973.0
9180,0.30351802706718445,-11.1712646484375,-172,7370.0,-19.727367401123047,-405,9973.0
9190,0.3032852113246918,-5.115408897399902,-68,7370.0,-49.53792190551758,-940,9973.0
9200,0.3030707836151123,-2.8526268005371094,-67,7370.0,-67.86029815673828,-1119,9973.0
9210,0.3027401864528656,-2.7148611545562744,-7,7370.0,-80.67656707763672,-1414,9973.0
9220,0.30299365520477295,1.177770733833313,101,7370.0,-76.93707275390625,-1174,9973.0
9230,0.3023439049720764,22.903305053710938,425,7370.0,-48.41279220581055,-611,9973.0
9240,0.3027914762496948,35.044578552246094,535,7370.0,-18.77549934387207,-85,9973.0
9250,0.3028999865055084,24.82501220703125,329,7370.0,25.99748420715332,566,9973.0
9260,0.3038160800933838,-2.945791721343994,-50,7370.0,60.23239517211914,1030,9973.0
9270,0.30434972047805786,-15.958722114562988,-282,7370.0,89.64592742919922,1571,9973.0
9280,0.3048287332057953,-15.329132080078125,-335,7370.0,106.11614990234375,1805,9973.0
9290,0.305209755897522,-17.047605514526367,-249,7370.0,110.3957290649414,1774,9973.0
9300,0.30621498823165894,-16.364723205566406,-260,7370.0,87.95060729980469,1252,9973.0
9310,0.3064301013946533,-21.42414665222168,-423,7370.0,36.501304626464844,349,9973.0
9320,0.30713510513305664,-22.14565658569336,-336,7370.0,-17.684364318847656,-518,9973.0
9330,0.30759406089782715,-12.914326667785645,-158,7370.0,-63.48365783691406,-1196,9973.0
9340,0.30792999267578125,-9.453421592712402,-143,7370.0,-91.89350128173828,-1623,9973.0
9350,0.3079841434955597,-15.751294136047363,-325,7370.0,-98.54199981689453,-1472,9973.0
9360,0.3080873191356659,-19.261993408203125,-320,7370.0,-91.04032135009766,-1474,9973.0
9370,0.3082531690597534,-21.081344604492188,-319,7370.0,-82.29155731201172,-1395,9973.0
9380,0.309659481048584,-31.476608276367188,-649,7370.0,-68.21408081054688,-949,9973.0
9390,0.3103122115135193,-39.703060150146484,-589,7370.0,-27.161325454711914,-111,9973.0
9400,0.311149537563324,-30.010887145996094,-338,7370.0,23.348480224609375,486,9973.0
9410,0.31276682019233704,-13.668951034545898,-93,7370.0,60.111900329589844,1036,9973.0
9420,0.31433460116386414,12.945266723632812,366,7370.0,82.76954650878906,1482,9973.0
9430,0.3154412508010864,30.353172302246094,564,7370.0,89.9972915649414,1386,9973.0
9440,0.31661707162857056,31.296998977661133,360,7370.0,78.74378204345703,1212,9973.0
9450,0.3164069950580597,22.983076095581055,396,7370.0,56.118141174316406,801,9973.0
9460,0.3172503113746643,19.709157943725586,215,7370.0,30.419837951660156,369,9973.0
9470,0.318587064743042,15.049907684326172,273,7370.0,-3.4027836322784424,-345,9973.0
9480,0.31943121552467346,8.256875991821289,63,7370.0,-35.279781341552734,-593,9973.0
9490,0.3208408057689667,11.39943790435791,297,7370.0,-50.49131774902344,-927,9973.0
9500,0.3215027153491974,19.91444969177246,402,7370.0,-50.548805236816406,-765,9973.0
9510,0.3224371671676636,27.325769424438477,406,7370.0,-40.35602569580078,-502,9973.0
9520,0.3233059048652649,27.216291427612305,364,7370.0,-21.782331466674805,-230,9973.0
9530,0.323005348443985,10.58560562133789,119,7370.0,3.8287899494171143,88,9973.0
9540,0.3242374360561371,-11.496868133544922,-212,7370.0,24.40082550048828,533,9973.0
9550,0.3254615366458893,-23.44588279724121,-425,7370.0,40.709571838378906,849,9973.0
9560,0.32661598920822144,-21.88028907775879,-432,7370.0,53.745723724365234,937,9973.0
9570,0.3273082375526428,-11.770271301269531,-95,7370.0,64.41574096679688,979,9973.0
9580,0.3273632228374481,-1.454595685005188,10,7370.0,58.434024810791016,852,9973.0
9590,0.3277505934238434,9.310340881347656,199,7370.0,55.48316192626953,929,9973.0
9600,0.3277312219142914,15.930980682373047,276,7370.0,43.41273880004883,486,9973.0
9610,0.3281410336494446,16.718433380126953,291,7370.0,22.64010238647461,108,9973.0
9620,0.327966570854187,9.08309268951416,115,7370.0,-4.653781414031982,-222,9973.0
9630,0.32836222648620605,3.6415789127349854,-51,7370.0,-31.197071075439453,-578,9973.0
9640,0.32834625244140625,-1.4016441106796265,-4,7370.0,-45.03014373779297,-647,9973.0
9650,0.32813897728919983,-3.493222236633301,-67,7370.0,-39.30171203613281,-665,9973.0
9660,0.3279471695423126,-13.258115768432617,-180,7370.0,-32.29052734375,-550,9973.0
9670,0.32670852541923523,-21.34693717956543,-375,7370.0,-15.386392593383789,-207,9973.0
9680,0.32662075757980347,-26.974159240722656,-485,7370.0,0.2631921172142029,-8,9973.0
9690,0.32643771171569824,-29.12055015563965,-567,7370.0,6.594103813171387,196,9973.0
9700,0.3260951638221741,-35.19804382324219,-673,7370.0,11.304003715515137,241,9973.0
9710,0.3242679834365845,-29.899526596069336,-402,7370.0,8.92068099975586,169,9973.0
9720,0.3238479793071747,-18.59787940979004,-184,7370.0,14.394792556762695,234,9973.0
9730,0.32349228858947754,-5.148535251617432,-10,7370.0,24.658130645751953,395,9973.0
9740,0.323079913854599,11.80671501159668,189,7370.0,24.07408332824707,392,9973.0
9750,0.32103458046913147,27.229896545410156,492,7370.0,21.27381706237793,372,9973.0
9760,0.32026997208595276,32.05647659301758,577,7370.0,17.45557403564453,195,9973.0
9770,0.3194939196109772,26.53177261352539,346,7370.0,8.095826148986816,129,9973.0
9780,0.3186030387878418,13.501372337341309,157,7370.0,-4.253972053527832,-103,9973.0
9790,0.31751930713653564,4.541383266448975,151,7370.0,-18.99446678161621,-492,9973.0
9800,0.3166366219520569,8.49537467956543,150,7370.0,-36.1439094543457,-616,9973.0
9810,0.3155849277973175,11.279134750366211,92,7370.0,-45.96876525878906,-768,9973.0
9820,0.3144688606262207,3.956488609313965,138,7370.0,-53.86396789550781,-971,9973.0
9830,0.3132348358631134,-2.846888542175293,-76,7370.0,-58.10019302368164,-992,9973.0
9840,0.31028422713279724,-10.995745658874512,-257,7370.0,-48.74892044067383,-606,9973.0
9850,0.3095885217189789,-11.727153778076172,-176,7370.0,-9.420413970947266,150,9973.0
9860,0.30924192070961,2.0158193111419678,198,7370.0,37.80524444580078,646,9973.0
9870,0.308697372674942,14.580875396728516,279,7370.0,67.87726593017578,1293,9973.0
9880,0.30802711844444275,19.248950958251953,277,7370.0,88.9083480834961,1523,9973.0
9890,0.30636945366859436,25.816864013671875,485,7370.0,76.69109344482422,1115,9973.0
9900,0.305641770362854,30.45513153076172,471,7370.0,44.945892333984375,571,9973.0
9910,0.304967999458313,33.49049377441406,522,7370.0,4.8464460372924805,-86,9973.0
9920,0.3048948049545288,32.341068267822266,538,7370.0,-29.826139450073242,-662,9973.0
9930,0.3046146333217621,18.96432113647461,203,7370.0,-51.457820892333984,-841,9973.0
9940,0.30408188700675964,4.410728931427002,14,7370.0,-62.03264236450195,-1122,9973.0
9950,0.3037633001804352,-0.8571560978889465,18,7370.0,-67.79866027832031,-1075,9973.0
9960,0.30370011925697327,2.763909339904785,35,7370.0,-58.04420471191406,-856,9973.0
9970,0.30370989441871643,2.1571760177612305,77,7370.0,-53.04573440551758,-981,9973.0
9980,0.3036503791809082,-4.093308448791504,-256,7370.0,-43.43439483642578,-411,9973.0
9990,0.30417579412460327,-20.767988204956055,-360,7370.0,-3.0795419216156006,143,9973.0
10000,0.30547472834587097,-19.420286178588867,-228,7370.0,38.548946380615234,637,9973.0
10010,0.30669063329696655,-15.36403751373291,-260,7370.0,42.00197982788086,790,9973.0
10020,0.3067243993282318,-3.9303171634674072,43,7370.0,50.33660125732422,849,9973.0
10030,0.30785709619522095,10.459433555603027,190,7370.0,63.13698959350586,1090,9973.0
10040,0.3091786503791809,27.08161163330078,593,7370.0,59.323726654052734,842,9973.0
10050,0.3103558421134949,40.90116882324219,629,7370.0,35.397613525390625,559,9973.0
10060,0.31223762035369873,41.087989807128906,623,7370.0,11.883552551269531,15,9973.0
10070,0.3135135769844055,22.654224395751953,128,7370.0,-8.540949821472168,-145,9973.0
10080,0.3152486979961395,-4.732478141784668,-163,7370.0,-33.35144805908203,-735,9973.0
10090,0.3163369596004486,-28.6452693939209,-642,7370.0,-48.4866828918457,-757,9973.0
10100,0.31782636046409607,-36.62117004394531,-550,7370.0,-62.27110290527344,-1146,9973.0
10110,0.31770947575569153,-31.0311336517334,-435,7370.0,-78.09069061279297,-1401,9973.0
10120,0.31853681802749634,-24.898399353027344,-414,7370.0,-86.30352783203125,-1329,9973.0
10130,0.3205924928188324,-12.626535415649414,-52,7370.0,-73.53913116455078,-995,9973.0
10140,0.32180944085121155,10.699312210083008,364,7370.0,-36.704952239990234,-429,9973.0
10150,0.3209835886955261,32.961181640625,574,7370.0,3.4469001293182373,362,9973.0
10160,0.32255417108535767,31.479557037353516,383,7370.0,45.61088562011719,1165,9973.0
10170,0.3241659700870514,14.496930122375488,98,7370.0,79.83367919921875,1435,9973.0
10180,0.3254505395889282,-6.082560062408447,-60,7370.0,99.91515350341797,1577,9973.0
10190,0.3267575204372406,-1.181099534034729,48,7370.0,90.70942687988281,1395,9973.0
10200,0.32749685645103455,5.53118896484375,69,7370.0,67.39939880371094,873,9973.0
10210,0.32991987466812134,2.502244234085083,44,7370.0,35.0420036315918,318,9973.0
10220,0.3310517370700836,-11.001462936401367,-300,7370.0,-4.3793864250183105,-119,9973.0
10230,0.33243662118911743,-29.249305725097656,-508,7370.0,-40.29029083251953,-964,9973.0
10240,0.3322194218635559,-47.152313232421875,-910,7370.0,-74.39811706542969,-1280,9973.0
10250,0.3330520987510681,-59.521236419677734,-979,7370.0,-98.69047546386719,-1735,9973.0
10260,0.333942174911499,-55.03594207763672,-770,7370.0,-112.18682098388672,-1936,9973.0
10270,0.3344343304634094,-30.127853393554688,-421,7370.0,-122.60733032226562,-1955,9973.0
10280,0.3318214416503906,-6.011574745178223,-21,7370.0,-111.05726623535156,-1719,9973.0
10290,0.33423668146133423,9.978067398071289,293,7370.0,-83.8698959350586,-1262,9973.0
10300,0.33500275015830994,15.501136779785156,281,7370.0,-33.67732620239258,-317,9973.0
10310,0.33595725893974304,19.922840118408203,263,7370.0,21.92653465270996,616,9973.0
10320,0.33799099922180176,12.976686477661133,91,7370.0,61.47972869873047,1228,9973.0
10330,0.33518630266189575,9.229338645935059,150,7370.0,92.1520004272461,1669,9973.0
10340,0.3358113467693329,16.141984939575195,351,7370.0,101.8758316040039,1590,9973.0
10350,0.3360784649848938,24.225807189941406,439,7370.0,93.89254760742188,1397,9973.0
10360,0.33601123094558716,18.470672607421875,185,7370.0,70.41471099853516,1022,9973.0
10370,0.335013210773468,4.5187296867370605,15,7370.0,37.90712356567383,472,9973.0
10380,0.33496397733688354,-4.752903938293457,-90,7370.0,-1.433329701423645,-296,9973.0
10390,0.3352104425430298,-11.330111503601074,-296,7370.0,-38.07821273803711,-740,9973.0
10400,0.3353886902332306,-17.289255142211914,-298,7370.0,-67.62638854980469,-1089,9973.0
10410,0.334893137216568,-3.205930471420288,53,7370.0,-73.6684341430664,-1221,9973.0
10420,0.3349008560180664,13.149580001831055,308,7370.0,-60.683258056640625,-972,9973.0
10430,0.33467090129852295,20.55685043334961,294,7370.0,-28.54623031616211,-336,9973.0
10440,0.3348022699356079,4.050039291381836,-95,7370.0,11.193492889404297,340,9973.0
10450,0.3353564441204071,-14.069202423095703,-279,7370.0,44.9439582824707,899,9973.0
10460,0.332712858915329,-19.805397033691406,-438,7370.0,65.60746765136719,1179,9973.0
10470,0.33222687244415283,-20.74521255493164,-279,7370.0,75.12255859375,1287,9973.0
10480,0.33167216181755066,-16.679922103881836,-175,7370.0,75.2680892944336,1105,9973.0
10490,0.3310408592224121,-12.78704833984375,-221,7370.0,57.10054397583008,748,9973.0
10500,0.33098942041397095,-11.104643821716309,-203,7370.0,16.80689811706543,185,9973.0
10510,0.33070334792137146,-8.794587135314941,-24,7370.0,-18.24422836303711,-537,9973.0
10520,0.330405592918396,-11.629684448242188,-314,7370.0,-53.17731475830078,-974,9973.0
10530,0.329909086227417,-17.04643440246582,-284,7370.0,-78.6403579711914,-1284,9973.0
10540,0.32944396138191223,-14.074864387512207,-159,7370.0,-83.61836242675781,-1399,9973.0
10550,0.3289378881454468,-15.723422050476074,-295,7370.0,-71.24392700195312,-1077,9973.0
10560,0.32828330993652344,-15.558292388916016,-246,7370.0,-42.51597595214844,-501,9973.0
10570,0.3279567062854767,2.2965707778930664,218,7370.0,-12.098759651184082,24,9973.0
10580,0.3288770020008087,42.56882858276367,822,7370.0,19.249303817749023,474,9973.0
10590,0.3288131654262543,58.334625244140625,1039,7370.0,51.7790412902832,965,9973.0
10600,0.3287842571735382,38.463985443115234,461,7370.0,75.1291275024414,1339,9973.0
10610,0.32865098118782043,4.718007564544678,-185,7370.0,91.16068267822266,1543,9973.0
10620,0.32910656929016113,-22.962825775146484,-419,7370.0,89.9455795288086,1470,9973.0
10630,0.33065181970596313,-33.58207321166992,-523,7370.0,73.93968963623047,994,9973.0
10640,0.3305288553237915,-39.312355041503906,-716,7370.0,38.826988220214844,546,9973.0
10650,0.3305550515651703,-41.01184844970703,-591,7370.0,5.118927001953125,-290,9973.0
10660,0.3310662806034088,-35.89971160888672,-609,7370.0,-35.71305847167969,-642,9973.0
10670,0.3312264382839203,-26.65544319152832,-265,7370.0,-60.43043899536133,-1168,9973.0
10680,0.330401211977005,-11.356639862060547,-145,7370.0,-82.18318939208984,-1328,9973.0
10690,0.33065757155418396,3.7147576808929443,237,7370.0,-90.12264251708984,-1610,9973.0
10700,0.3315833806991577,15.552125930786133,221,7370.0,-83.39408874511719,-1207,9973.0
10710,0.3318893313407898,27.461946487426758,636,7370.0,-63.20204162597656,-854,9973.0
10720,0.3317186236381531,46.69712829589844,832,7370.0,-30.29415512084961,-275,9973.0
10730,0.3330855071544647,47.27645492553711,659,7370.0,14.779464721679688,589,9973.0
10740,0.33428385853767395,35.85762405395508,520,7370.0,65.85537719726562,1438,9973.0
10750,0.33571159839630127,28.33884048461914,525,7370.0,107.41338348388672,1782,9973.0
10760,0.336953729391098,27.911062240600586,405,7370.0,114.0766372680664,1867,9973.0
10770,0.3363572061061859,19.050952911376953,261,7370.0,100.83367156982422,1550,9973.0
10780,0.33834490180015564,15.192005157470703,324,7370.0,70.92139434814453,845,9973.0
10790,0.3388586938381195,25.153724670410156,442,7370.0,16.05937385559082,2,9973.0
10800,0.3400125801563263,28.64825439453125,458,7370.0,-34.16742706298828,-863,9973.0
10810,0.3388240337371826,14.436175346374512,180,7370.0,-78.76191711425781,-1447,9973.0
10820,0.3394237160682678,-3.888895034790039,-163,7370.0,-104.61921691894531,-1712,9973.0
10830,0.340257853269577,-11.604348182678223,-261,7370.0,-116.2368392944336,-2001,9973.0
10840,0.3408004939556122,-22.45547866821289,-353,7370.0,-121.36251068115234,-2037,9973.0
10850,0.340779572725296,-31.13713836669922,-466,7370.0,-119.09656524658203,-1955,9973.0
10860,0.33851444721221924,-32.924072265625,-509,7370.0,-94.59185028076172,-1467,9973.0
10870,0.34055089950561523,-23.74477767944336,-366,7370.0,-66.672607421875,-1013,9973.0
10880,0.34101995825767517,-7.953866481781006,-109,7370.0,-46.83052444458008,-581,9973.0
10890,0.3411369323730469,-0.0647682473063469,-61,7370.0,-4.878203868865967,168,9973.0
10900,0.34189721941947937,8.727663040161133,137,7370.0,48.4144287109375,1051,9973.0
10910,0.3432892858982086,8.38164234161377,42,7370.0,95.52615356445312,1750,9973.0
10920,0.3441626727581024,-2.798204183578491,-47,7370.0,109.68101501464844,1884,9973.0
10930,0.34558823704719543,-4.261557102203369,45,7370.0,108.72737121582031,1619,9973.0
10940,0.3435133695602417,6.987423419952393,193,7370.0,94.31120300292969,1394,9973.0
10950,0.3444419205188751,23.395376205444336,393,7370.0,67.53321075439453,1025,9973.0
10960,0.3448200523853302,38.49884796142578,652,7370.0,36.87622833251953,515,9973.0
10970,0.3451554477214813,37.98667907714844,658,7370.0,2.7246134281158447,-238,9973.0
10980,0.3456939160823822,19.191513061523438,184,7370.0,-35.93949508666992,-792,9973.0
10990,0.3450086712837219,-16.305599212646484,-485,7370.0,-60.1619873046875,-1027,9973.0
11000,0.3455045521259308,-53.78990173339844,-1116,7370.0,-75.78887176513672,-1270,9973.0
11010,0.345790833234787,-80.87415313720703,-1410,7370.0,-81.9328384399414,-1208,9973.0
11020,0.3462536633014679,-84.795166015625,-1433,7370.0,-68.412841796875,-973,9973.0
11030,0.34397271275520325,-73.32130432128906,-1114,7370.0,-49.706520080566406,-647,9973.0
11040,0.34442421793937683,-48.88676071166992,-612,7370.0,-26.68572235107422,-339,9973.0
11050,0.34531596302986145,-25.290855407714844,-227,7370.0,-2.2780826091766357,-29,9973.0
11060,0.3462613523006439,-10.913348197937012,-56,7370.0,20.857704162597656,360,9973.0
11070,0.3441097140312195,6.820651531219482,238,7370.0,57.37234878540039,1053,9973.0
11080,0.3454459607601166,40.167293548583984,740,7370.0,84.34783935546875,1507,9973.0
11090,0.3457818329334259,64.83856964111328,1128,7370.0,103.82300567626953,1836,9973.0
11100,0.34641268849372864,78.00484466552734,1343,7370.0,108.65547943115234,1717,9973.0
11110,0.34673699736595154,84.29096221923828,1420,7370.0,92.24679565429688,1366,9973.0
11120,0.34565484523773193,68.23997497558594,1009,7370.0,72.36280822753906,1045,9973.0
11130,0.34539201855659485,35.419132232666016,413,7370.0,51.338314056396484,738,9973.0
11140,0.3452613055706024,-2.234856128692627,-244,7370.0,15.124197959899902,130,9973.0
11150,0.3456090986728668,-34.064762115478516,-732,7370.0,-24.263198852539062,-501,9973.0
11160,0.34512847661972046,-60.38616180419922,-994,7370.0,-53.894569396972656,-1008,9973.0
11170,0.34513911604881287,-62.324222564697266,-936,7370.0,-70.28032684326172,-1300,9973.0
11180,0.34502145648002625,-45.5950927734375,-674,7370.0,-66.44581604003906,-990,9973.0
11190,0.34597477316856384,-25.646236419677734,-354,7370.0,-51.685142517089844,-696,9973.0
11200,0.3460039794445038,-1.4986106157302856,119,7370.0,-30.206729888916016,-366,9973.0
11210,0.3443925082683563,25.297910690307617,583,7370.0,-1.0106953382492065,36,9973.0
11220,0.3447365164756775,35.768821716308594,593,7370.0,22.7669620513916,418,9973.0
11230,0.3451812267303467,23.112199783325195,190,7370.0,36.82742691040039,628,9973.0
11240,0.3448890447616577,0.6910555362701416,-80,7370.0,50.072410583496094,913,9973.0
11250,0.3436574935913086,-3.6937007904052734,-111,7370.0,61.71905517578125,1100,9973.0
11260,0.34336182475090027,4.464977264404297,197,7370.0,60.285179138183594,1010,9973.0
11270,0.3429754376411438,21.774232864379883,453,7370.0,56.28466033935547,817,9973.0
11280,0.34258928894996643,24.97922134399414,335,7370.0,40.07587432861328,591,9973.0
11290,0.3416033983230591,20.849416732788086,285,7370.0,23.276697158813477,372,9973.0
11300,0.3412783145904541,12.672589302062988,234,7370.0,-0.4888511598110199,-246,9973.0
11310,0.34109392762184143,4.566822052001953,-35,7370.0,-25.18607521057129,-400,9973.0
11320,0.34101402759552,-4.50949239730835,-116,7370.0,-35.14909362792969,-544,9973.0
11330,0.34090107679367065,-5.1158037185668945,-45,7370.0,-32.07596206665039,-536,9973.0
11340,0.3399149775505066,-11.08535099029541,-196,7370.0,-20.70799446105957,-314,9973.0
11350,0.339697003364563,-12.381781578063965,-216,7370.0,-11.559720039367676,-95,9973.0
11360,0.3396206796169281,-0.36360880732536316,106,7370.0,2.410094738006592,182,9973.0
11370,0.3393177390098572,10.605866432189941,293,7370.0,15.5597562789917,194,9973.0
11380,0.33726319670677185,13.547524452209473,232,7370.0,26.3635196685791,464,9973.0
11390,0.33677634596824646,10.83726692199707,79,7370.0,30.153656005859375,560,9973.0
11400,0.3363560736179352,-2.087970733642578,-197,7370.0,15.41079330444336,134,9973.0
11410,0.3357483446598053,-22.878114700317383,-422,7370.0,-6.177937030792236,-231,9973.0
11420,0.3350054919719696,-38.19321823120117,-684,7370.0,-20.395856857299805,-429,9973.0
11430,0.33440813422203064,-35.704010009765625,-472,7370.0,-33.52663040161133,-522,9973.0
11440,0.3337692618370056,-17.387638092041016,-45,7370.0,-37.07635498046875,-680,9973.0
11450,0.3332037031650543,5.529973983764648,139,7370.0,-35.108741760253906,-512,9973.0
11460,0.332968533039093,12.585957527160645,175,7370.0,-24.902971267700195,-249,9973.0
11470,0.3317376375198364,4.7031097412109375,107,7370.0,-8.20041561126709,-123,9973.0
11480,0.331616073846817,1.076055645942688,59,7370.0,7.11260461807251,214,9973.0
11490,0.33153975009918213,8.366484642028809,232,7370.0,17.412771224975586,381,9973.0
11500,0.3314570486545563,23.594003677368164,490,7370.0,26.38887596130371,477,9973.0
11510,0.3307095170021057,34.79042434692383,595,7370.0,39.03218460083008,621,9973.0
11520,0.3308398425579071,41.03828430175781,601,7370.0,48.14047622680664,922,9973.0
11530,0.330501914024353,37.76134490966797,659,7370.0,42.43431854248047,507,9973.0
11540,0.33016330003738403,26.22858238220215,335,7370.0,23.20978546142578,286,9973.0
11550,0.32988235354423523,2.4479033946990967,-104,7370.0,-4.567959785461426,-119,9973.0
11560,0.32859763503074646,-19.51886749267578,-362,7370.0,-31.335756301879883,-710,9973.0
11570,0.32815808057785034,-36.431392669677734,-646,7370.0,-53.250370025634766,-946,9973.0
11580,0.3279950022697449,-44.89472961425781,-766,7370.0,-72.46591186523438,-1149,9973.0
11590,0.32756292819976807,-40.436161041259766,-581,7370.0,-92.13372802734375,-1696,9973.0
11600,0.3271710276603699,-27.894168853759766,-409,7370.0,-104.54525756835938,-1633,9973.0
11610,0.3279396891593933,-5.387253761291504,28,7370.0,-84.0844955444336,-1170,9973.0
11620,0.3280463218688965,28.262678146362305,629,7370.0,-42.17344665527344,-536,9973.0
11630,0.3290145993232727,50.277862548828125,906,7370.0,0.6300607323646545,141,9973.0
11640,0.3298299014568329,51.2530632019043,713,7370.0,44.44571304321289,991,9973.0
11650,0.32903656363487244,35.2594108581543,493,7370.0,80.96991729736328,1411,9973.0
11660,0.3295116424560547,24.55529022216797,364,7370.0,83.41133880615234,1339,9973.0
11670,0.33006802201271057,10.247184753417969,225,7370.0,66.31838989257812,886,9973.0
11680,0.33052024245262146,-3.345073938369751,-209,7370.0,32.171241760253906,453,9973.0
11690,0.3311461806297302,-24.2147159576416,-451,7370.0,-4.253157615661621,-350,9973.0
11700,0.3319503664970398,-42.2708625793457,-751,7370.0,-40.52346420288086,-713,9973.0
11710,0.33276620507240295,-44.41774368286133,-679,7370.0,-57.92226791381836,-958,9973.0
11720,0.3337690234184265,-41.82029724121094,-678,7370.0,-59.05744552612305,-977,9973.0
11730,0.33471328020095825,-34.09976577758789,-564,7370.0,-49.82223892211914,-717,9973.0
11740,0.33597075939178467,-29.495800018310547,-412,7370.0,-44.63824462890625,-810,9973.0
11750,0.33737725019454956,-25.69437026977539,-386,7370.0,-34.5716667175293,-485,9973.0
11760,0.33899396657943726,-13.868122100830078,-127,7370.0,-13.009839057922363,-51,9973.0
11770,0.34081724286079407,11.430852890014648,340,7370.0,19.944293975830078,484,9973.0
11780,0.34184062480926514,29.185916900634766,586,7370.0,59.69125747680664,1045,9973.0
11790,0.3438316881656647,35.92295455932617,525,7370.0,80.50963592529297,1435,9973.0
11800,0.3454152047634125,30.108976364135742,431,7370.0,82.95782470703125,1341,9973.0
11810,0.347420334815979,21.361845016479492,327,7370.0,62.63328552246094,783,9973.0
11820,0.34806397557258606,2.687904119491577,-79,7370.0,23.312009811401367,288,9973.0
11830,0.3494160771369934,-11.979254722595215,-229,7370.0,-7.710810661315918,-238,9973.0
11840,0.35057753324508667,-21.512292861938477,-319,7370.0,-32.209327697753906,-691,9973.0
11850,0.35139164328575134,-21.2916316986084,-366,7370.0,-43.16773986816406,-586,9973.0
11860,0.351426362991333,-15.73902416229248,-275,7370.0,-51.520748138427734,-856,9973.0
11870,0.3522249162197113,-11.338083267211914,-92,7370.0,-59.91997146606445,-1056,9973.0
11880,0.35299989581108093,-5.802496910095215,-110,7370.0,-57.7423095703125,-869,9973.0
11890,0.3538711667060852,-2.3085715770721436,-57,7370.0,-46.21602249145508,-628,9973.0
11900,0.35508808493614197,1.1159870624542236,-13,7370.0,-29.116779327392578,-339,9973.0
11910,0.3547973036766052,7.656848907470703,229,7370.0,-6.232602596282959,-36,9973.0
11920,0.35557839274406433,17.666446685791016,433,7370.0,18.24693489074707,367,9973.0
11930,0.3562028408050537,28.324542999267578,496,7370.0,38.140377044677734,690,9973.0
11940,0.35672178864479065,28.03215980529785,352,7370.0,56.92346954345703,982,9973.0
11950,0.3558192849159241,19.198589324951172,267,7370.0,68.3528823852539,1193,9973.0
11960,0.35574620962142944,13.434883117675781,139,7370.0,60.144962310791016,951,9973.0
11970,0.35568100214004517,2.0189170837402344,-2,7370.0,33.05964660644531,376,9973.0
11980,0.3564537465572357,-19.688156127929688,-362,7370.0,-0.44662952423095703,-200,9973.0
11990,0.35672909021377563,-32.718040466308594,-591,7370.0,-26.74140167236328,-482,9973.0
12000,0.3553283214569092,-37.61455535888672,-601,7370.0,-38.42295455932617,-622,9973.0
12010,0.3551957309246063,-29.899812698364258,-396,7370.0,-42.53702926635742,-814,9973.0
12020,0.35498517751693726,-22.04372215270996,-252,7370.0,-38.382503509521484,-637,9973.0
12030,0.35491523146629333,-10.57433795928955,-253,7370.0,-40.944332122802734,-519,9973.0
12040,0.35359713435173035,-9.926191329956055,-166,7370.0,-29.665756225585938,-371,9973.0
12050,0.35361844301223755,-8.104461669921875,-39,7370.0,-15.772970199584961,-239,9973.0
12060,0.35360029339790344,7.73944616317749,265,7370.0,-4.42216157913208,-16,9973.0
12070,0.353430837392807,25.508081436157227,500,7370.0,15.086969375610352,409,9973.0
12080,0.35227298736572266,45.771461486816406,791,7370.0,37.104881286621094,761,9973.0
12090,0.35168591141700745,46.51001739501953,725,7370.0,57.61905288696289,992,9973.0
12100,0.3511691093444824,29.271364212036133,421,7370.0,61.46873092651367,868,9973.0
12110,0.3500154912471771,14.619636535644531,144,7370.0,54.12864303588867,795,9973.0
12120,0.3497454524040222,9.445883750915527,122,7370.0,33.713783264160156,379,9973.0
12130,0.34892359375953674,6.681667327880859,110,7370.0,7.78736686706543,-101,9973.0
12140,0.3480817973613739,-5.752193927764893,-169,7370.0,-17.598037719726562,-363,9973.0
12150,0.3471137285232544,-16.092397689819336,-361,7370.0,-42.45240020751953,-857,9973.0
12160,0.34662529826164246,-22.68275260925293,-292,7370.0,-62.925106048583984,-1174,9973.0
12170,0.3456345796585083,-19.717199325561523,-331,7370.0,-71.7062759399414,-1151,9973.0
12180,0.3448609411716461,-18.864097595214844,-363,7370.0,-70.6337661743164,-1063,9973.0
12190,0.3441462516784668,-19.93463706970215,-235,7370.0,-54.2858772277832,-760,9973.0
12200,0.3435313403606415,-6.33160924911499,8,7370.0,-24.110607147216797,-342,9973.0
12210,0.3431816101074219,21.644092559814453,388,7370.0,4.2739577293396,298,9973.0
12220,0.34100767970085144,40.6925163269043,699,7370.0,35.239967346191406,709,9973.0
12230,0.3408013582229614,45.82829666137695,817,7370.0,65.19639587402344,1133,9973.0
12240,0.3403187096118927,39.0216064453125,532,7370.0,90.4023208618164,1514,9973.0
12250,0.33954277634620667,20.17193031311035,211,7370.0,86.20303344726562,1317,9973.0
12260,0.33922386169433594,-5.086953639984131,-175,7370.0,57.13994216918945,760,9973.0
12270,0.33862513303756714,-21.333133697509766,-387,7370.0,24.6532039642334,287,9973.0
12280,0.33827388286590576,-35.85841369628906,-658,7370.0,-0.5957812666893005,-175,9973.0
12290,0.33783701062202454,-46.88129425048828,-830,7370.0,-23.42865753173828,-451,9973.0
12300,0.3381830155849457,-45.073638916015625,-677,7370.0,-38.59464645385742,-641,9973.0
12310,0.3382137417793274,-36.484256744384766,-538,7370.0,-52.22134017944336,-1044,9973.0
12320,0.3383052945137024,-27.581912994384766,-504,7370.0,-66.14498138427734,-957,9973.0
12330,0.33852455019950867,-16.093111038208008,-44,7370.0,-52.10920715332031,-896,9973.0
12340,0.33911439776420593,15.720778465270996,354,7370.0,-30.64059066772461,-238,9973.0
12350,0.34077444672584534,49.8769645690918,934,7370.0,9.489718437194824,259,9973.0
12360,0.341317355632782,63.720703125,1085,7370.0,43.380889892578125,800,9973.0
12370,0.3416883647441864,66.25947570800781,1006,7370.0,64.6163101196289,1202,9973.0
12380,0.34188300371170044,54.40459442138672,865,7370.0,79.37286376953125,1193,9973.0
12390,0.3432233929634094,33.912200927734375,315,7370.0,67.01480102539062,1048,9973.0
12400,0.3436945378780365,3.684037685394287,2,7370.0,32.04831314086914,290,9973.0
12410,0.3442806601524353,-20.25895118713379,-534,7370.0,-4.715226173400879,-248,9973.0
12420,0.34515348076820374,-47.88795852661133,-884,7370.0,-34.94406509399414,-660,9973.0
12430,0.3461358845233917,-60.129547119140625,-899,7370.0,-46.46403503417969,-852,9973.0
12440,0.3464891016483307,-47.31016159057617,-760,7370.0,-63.649925231933594,-1073,9973.0
12450,0.3469834327697754,-39.28554916381836,-609,7370.0,-70.57862091064453,-1175,9973.0
12460,0.34744155406951904,-34.43627166748047,-500,7370.0,-59.48197555541992,-864,9973.0
12470,0.34853073954582214,-28.77959442138672,-519,7370.0,-39.58720779418945,-446,9973.0
12480,0.3472835123538971,-23.537120819091797,-237,7370.0,-10.036909103393555,-110,9973.0
12490,0.34815514087677,3.389326333999634,219,7370.0,18.997089385986328,435,9973.0
12500,0.3487456440925598,32.40703201293945,524,7370.0,40.55325698852539,821,9973.0
12510,0.34925466775894165,43.47654342651367,818,7370.0,62.69637680053711,1023,9973.0
12520,0.35050609707832336,42.933780670166016,603,7370.0,73.37763977050781,1199,9973.0
12530,0.35067570209503174,27.9775333404541,371,7370.0,68.29961395263672,1078,9973.0
12540,0.3511950969696045,4.998071670532227,42,7370.0,44.763126373291016,484,9973.0
12550,0.35205474495887756,-12.160478591918945,-341,7370.0,5.966157913208008,14,9973.0
12560,0.3526408076286316,-23.89191246032715,-422,7370.0,-24.252111434936523,-511,9973.0
12570,0.35688814520835876,-32.995731353759766,-554,7370.0,-45.28480911254883,-840,9973.0
12580,0.3574676215648651,-40.436336517333984,-749,7370.0,-65.91803741455078,-1092,9973.0
12590,0.3580418825149536,-39.23543930053711,-559,7370.0,-69.56969451904297,-1117,9973.0
12600,0.35874688625335693,-26.51102638244629,-368,7370.0,-67.02572631835938,-1132,9973.0
12610,0.3584233820438385,-13.927499771118164,-258,7370.0,-54.74490737915039,-780,9973.0
12620,0.3592437505722046,-11.000537872314453,-177,7370.0,-43.96399688720703,-631,9973.0
12630,0.3604450821876526,-13.377202987670898,-230,7370.0,-18.905513763427734,-189,9973.0
12640,0.36119115352630615,-15.309327125549316,-68,7370.0,32.09568405151367,677,9973.0
12650,0.3624997138977051,6.280807971954346,169,7370.0,70.07157135009766,1305,9973.0
12660,0.3635639250278473,20.719924926757812,307,7370.0,82.06768798828125,1422,9973.0
12670,0.3645462095737457,21.175825119018555,376,7370.0,74.77877044677734,1087,9973.0
12680,0.3654119670391083,10.036431312561035,62,7370.0,58.56774139404297,982,9973.0
12690,0.36618852615356445,5.479380130767822,146,7370.0,46.689727783203125,620,9973.0
12700,0.36718839406967163,16.9446964263916,419,7370.0,14.591090202331543,86,9973.0
12710,0.36816808581352234,29.726669311523438,446,7370.0,-18.006698608398438,-404,9973.0
12720,0.369087278842926,29.293668746948242,394,7370.0,-43.798484802246094,-732,9973.0
12730,0.3698970079421997,9.1554594039917,106,7370.0,-53.25008010864258,-1000,9973.0
12740,0.37073367834091187,-5.84193754196167,-128,7370.0,-55.122406005859375,-843,9973.0
12750,0.3712743818759918,-14.624971389770508,-358,7370.0,-42.66413116455078,-549,9973.0
12760,0.37217286229133606,-23.355064392089844,-431,7370.0,-29.365528106689453,-378,9973.0
12770,0.372803658246994,-23.25716209411621,-394,7370.0,-21.965927124023438,-196,9973.0
12780,0.37357378005981445,-20.137876510620117,-223,7370.0,-1.4717789888381958,169,9973.0
12790,0.3726916015148163,-6.889278888702393,-36,7370.0,21.456499099731445,489,9973.0
12800,0.3732770085334778,7.038576126098633,249,7370.0,46.842716217041016,840,9973.0
12810,0.37370765209198,21.39281463623047,495,7370.0,64.2208480834961,1042,9973.0
12820,0.3739897906780243,26.197498321533203,456,7370.0,74.27838897705078,1170,9973.0
12830,0.37297001481056213,29.20546531677246,441,7370.0,73.0291748046875,1232,9973.0
12840,0.37307628989219666,33.29783630371094,494,7370.0,58.86886978149414,975,9973.0
12850,0.3726019859313965,24.648902893066406,355,7370.0,33.06110763549805,341,9973.0
12860,0.37207019329071045,4.272008419036865,21,7370.0,6.87518310546875,-45,9973.0
12870,0.37362390756607056,-5.328486919403076,-153,7370.0,-21.415525436401367,-384,9973.0
12880,0.37292543053627014,-7.252493858337402,-122,7370.0,-46.058990478515625,-801,9973.0
12890,0.37239474058151245,-5.329057216644287,22,7370.0,-61.08426284790039,-1070,9973.0
12900,0.37154871225357056,3.4619333744049072,41,7370.0,-61.588565826416016,-1036,9973.0
12910,0.37071406841278076,1.9379584789276123,-11,7370.0,-58.99666976928711,-891,9973.0
12920,0.3690761923789978,-2.4043867588043213,-108,7370.0,-46.99787521362305,-578,9973.0
12930,0.36835137009620667,-8.405617713928223,-95,7370.0,-18.5216007232666,-136,9973.0
12940,0.36764413118362427,-1.402018666267395,90,7370.0,14.503113746643066,274,9973.0
12950,0.36728471517562866,8.076705932617188,184,7370.0,41.8033561706543,763,9973.0
12960,0.36446037888526917,23.31070899963379,400,7370.0,64.46813201904297,1211,9973.0
12970,0.36365002393722534,44.27458953857422,792,7370.0,76.98954772949219,1335,9973.0
12980,0.36275216937065125,53.38739013671875,885,7370.0,81.84859466552734,1226,9973.0
12990,0.36161231994628906,45.743080139160156,563,7370.0,67.15950775146484,1125,9973.0
13000,0.36054813861846924,14.002340316772461,102,7370.0,45.355613708496094,592,9973.0
13010,0.3594869375228882,-9.795571327209473,-224,7370.0,21.913890838623047,214,9973.0
13020,0.3581646680831909,-26.76081085205078,-563,7370.0,-0.9193028807640076,-119,9973.0
13030,0.3568366765975952,-48.575950622558594,-793,7370.0,-39.388427734375,-912,9973.0
13040,0.3555884063243866,-53.9923095703125,-927,7370.0,-77.70230865478516,-1289,9973.0
13050,0.35174959897994995,-50.17597198486328,-686,7370.0,-108.53263092041016,-2006,9973.0
13060,0.35014012455940247,-32.999691009521484,-496,7370.0,-131.21490478515625,-2049,9973.0
13070,0.34781932830810547,-15.352519035339355,-161,7370.0,-127.54766082763672,-2043,9973.0
13080,0.34593912959098816,-3.819709300994873,-33,7370.0,-103.91061401367188,-1608,9973.0
13090,0.34321659803390503,-0.90854811668396,-26,7370.0,-65.96728515625,-796,9973.0
13100,0.34217482805252075,-1.8948456048965454,52,7370.0,-21.11884880065918,-206,9973.0
13110,0.341309517621994,5.168760776519775,174,7370.0,20.233415603637695,552,9973.0
13120,0.3415927290916443,29.389236450195312,581,7370.0,62.924644470214844,1256,9973.0
13130,0.34050044417381287,54.98521041870117,1043,7370.0,99.46315002441406,1696,9973.0
13140,0.33701837062835693,72.40586853027344,1103,7370.0,121.2150650024414,2099,9973.0
13150,0.33610638976097107,68.84841918945312,1127,7370.0,117.14598083496094,1773,9973.0
13160,0.3350042998790741,48.78843307495117,613,7370.0,89.19174194335938,1423,9973.0
13170,0.335764080286026,19.269447326660156,208,7370.0,54.245033264160156,710,9973.0
13180,0.33223673701286316,-5.94270658493042,-198,7370.0,16.805694580078125,33,9973.0
13190,0.33177027106285095,-25.79452896118164,-513,7370.0,-12.163756370544434,-242,9973.0
13200,0.3315628170967102,-37.48706817626953,-564,7370.0,-36.7782096862793,-761,9973.0
13210,0.3311718702316284,-41.57861328125,-753,7370.0,-62.624595642089844,-1002,9973.0
13220,0.3285483121871948,-42.366798400878906,-552,7370.0,-74.66957092285156,-1421,9973.0
13230,0.32830536365509033,-22.684772491455078,-341,7370.0,-88.11156463623047,-1274,9973.0
13240,0.3281756341457367,2.316545248031616,242,7370.0,-73.96092987060547,-1214,9973.0
13250,0.3306322395801544,24.36711883544922,338,7370.0,-31.07637596130371,-145,9973.0
13260,0.3313160240650177,21.56792449951172,282,7370.0,15.22812271118164,411,9973.0
13270,0.33002546429634094,20.037269592285156,449,7370.0,50.0565071105957,864,9973.0
13280,0.3313494920730591,28.552745819091797,442,7370.0,72.52913665771484,1307,9973.0
13290,0.3322218358516693,25.220529556274414,395,7370.0,93.30943298339844,1600,9973.0
13300,0.33343246579170227,15.203191757202148,212,7370.0,103.05570220947266,1570,9973.0
13310,0.33208033442497253,-2.505784749984741,-184,7370.0,83.7862319946289,1317,9973.0
13320,0.3332427740097046,-15.201835632324219,-284,7370.0,54.35734558105469,731,9973.0
13330,0.3351275324821472,-23.384876251220703,-433,7370.0,19.330156326293945,127,9973.0
13340,0.33610233664512634,-28.212690353393555,-470,7370.0,-9.442717552185059,-320,9973.0
13350,0.33703991770744324,-35.996543884277344,-580,7370.0,-37.00212860107422,-800,9973.0
13360,0.3375124931335449,-44.956363677978516,-816,7370.0,-60.437843322753906,-1075,9973.0
13370,0.3384338617324829,-49.61874008178711,-763,7370.0,-77.3896713256836,-1247,9973.0
13380,0.3392040729522705,-34.733238220214844,-370,7370.0,-79.0888442993164,-1271,9973.0
13390,0.3401409089565277,-7.6449503898620605,49,7370.0,-60.93768310546875,-831,9973.0
13400,0.3405960202217102,20.93256378173828,337,7370.0,-21.779918670654297,52,9973.0
13410,0.3422941267490387,14.019869804382324,115,7370.0,30.09749984741211,799,9973.0
13420,0.34382978081703186,-6.710287570953369,-99,7370.0,67.79216003417969,1226,9973.0
13430,0.3452534079551697,-14.512913703918457,-133,7370.0,90.72579956054688,1471,9973.0
13440,0.34460702538490295,-1.363706111907959,-2,7370.0,87.75697326660156,1384,9973.0
13450,0.3454033434391022,4.63904333114624,17,7370.0,65.42585754394531,770,9973.0
13460,0.34682995080947876,-6.279573440551758,-114,7370.0,30.755268096923828,274,9973.0
13470,0.3472560942173004,-15.666213035583496,-327,7370.0,-3.0320723056793213,-123,9973.0
13480,0.3479657471179962,-16.182945251464844,-257,7370.0,-27.493072509765625,-525,9973.0
13490,0.34975993633270264,-10.543586730957031,-106,7370.0,-40.816768646240234,-772,9973.0
13500,0.3501288890838623,0.3822716474533081,13,7370.0,-46.451942443847656,-679,9973.0
13510,0.35050076246261597,2.1042094230651855,33,7370.0,-45.330162048339844,-771,9973.0
13520,0.350911945104599,-1.8997011184692383,32,7370.0,-40.94145584106445,-703,9973.0
13530,0.3511585593223572,-6.011523246765137,-208,7370.0,-27.590219497680664,-321,9973.0
13540,0.3518757224082947,-17.05035972595215,-339,7370.0,-2.434164524078369,115,9973.0
13550,0.3523993194103241,-11.632952690124512,-173,7370.0,17.718780517578125,479,9973.0
13560,0.35283923149108887,4.624635219573975,155,7370.0,39.16251754760742,655,9973.0
13570,0.353182852268219,17.425031661987305,348,7370.0,53.29399490356445,853,9973.0
13580,0.3532339036464691,33.869163513183594,585,7370.0,51.635887145996094,909,9973.0
13590,0.3532550036907196,44.74948501586914,718,7370.0,44.4058952331543,667,9973.0
13600,0.3532525300979614,36.0096321105957,525,7370.0,23.17772674560547,207,9973.0
13610,0.35346999764442444,8.379401206970215,-29,7370.0,0.2914281487464905,-38,9973.0
13620,0.3542397618293762,-15.135269165039062,-365,7370.0,-25.440370559692383,-516,9973.0
13630,0.3541125953197479,-26.737895965576172,-385,7370.0,-51.072662353515625,-1021,9973.0
13640,0.3542577624320984,-25.468427658081055,-364,7370.0,-72.50709533691406,-1290,9973.0
13650,0.35383304953575134,-21.93724250793457,-396,7370.0,-80.92649841308594,-1304,9973.0
13660,0.35356399416923523,-20.95469856262207,-343,7370.0,-80.66360473632812,-1227,9973.0
13670,0.3531201481819153,-13.62395191192627,-113,7370.0,-72.26749420166016,-1197,9973.0
13680,0.3527359664440155,-7.045054912567139,-170,7370.0,-66.22875213623047,-1096,9973.0
13690,0.352367639541626,-21.40081214904785,-407,7370.0,-39.07419967651367,-421,9973.0
13700,0.3530522584915161,-26.80014991760254,-468,7370.0,4.365116119384766,319,9973.0
13710,0.35267457365989685,-19.824188232421875,-249,7370.0,30.389802932739258,550,9973.0
13720,0.3524777591228485,-4.813839435577393,31,7370.0,48.19476318359375,808,9973.0
13730,0.35224124789237976,14.100346565246582,314,7370.0,62.931358337402344,1156,9973.0
13740,0.3520272970199585,38.847320556640625,739,7370.0,64.96613311767578,936,9973.0
13750,0.3508172929286957,51.3747444152832,854,7370.0,49.998802185058594,815,9973.0
13760,0.3504413068294525,50.72818374633789,891,7370.0,24.91355323791504,127,9973.0
13770,0.35036271810531616,46.4683837890625,698,7370.0,-2.7601466178894043,-51,9973.0
13780,0.3499530851840973,33.7715950012207,459,7370.0,-27.606273651123047,-619,9973.0
13790,0.3501315116882324,7.74855899810791,-11,7370.0,-51.04755783081055,-942,9973.0
13800,0.3500784933567047,-21.094554901123047,-482,7370.0,-61.60765838623047,-1000,9973.0
13810,0.35000380873680115,-27.426681518554688,-408,7370.0,-71.56819915771484,-1238,9973.0
13820,0.34979039430618286,-22.08759117126465,-310,7370.0,-76.80465698242188,-1267,9973.0
13830,0.3498634696006775,-14.53646183013916,-256,7370.0,-62.20444869995117,-839,9973.0
13840,0.3483966588973999,-13.235823631286621,-338,7370.0,-36.134437561035156,-334,9973.0
13850,0.34854477643966675,-24.331012725830078,-373,7370.0,6.194444179534912,239,9973.0
13860,0.34880250692367554,-21.461828231811523,-289,7370.0,44.52482223510742,855,9973.0
13870,0.34912410378456116,-10.941621780395508,-131,7370.0,73.02940368652344,1335,9973.0
13880,0.3486778736114502,4.925909996032715,188,7370.0,90.13423156738281,1479,9973.0
13890,0.34856534004211426,18.60720443725586,269,7370.0,92.27125549316406,1526,9973.0
13900,0.3480479419231415,28.347137451171875,521,7370.0,66.9792251586914,811,9973.0
13910,0.3499389588832855,33.25392150878906,537,7370.0,22.83238983154297,183,9973.0
13920,0.35002151131629944,26.564762115478516,353,7370.0,-15.945541381835938,-380,9973.0
13930,0.35057199001312256,8.148153305053711,12,7370.0,-45.46565246582031,-951,9973.0
13940,0.3511040508747101,-11.598655700683594,-277,7370.0,-75.54029846191406,-1422,9973.0
13950,0.35134533047676086,-20.407812118530273,-403,7370.0,-95.81607055664062,-1536,9973.0
13960,0.3518998622894287,-21.791074752807617,-301,7370.0,-102.49488830566406,-1746,9973.0
13970,0.3494220972061157,-22.144241333007812,-339,7370.0,-94.4516372680664,-1394,9973.0
13980,0.3499024510383606,-12.633087158203125,-215,7370.0,-72.80039978027344,-942,9973.0
13990,0.3513857424259186,-4.8348164558410645,-20,7370.0,-39.26155090332031,-380,9973.0
14000,0.35214942693710327,-2.8509998321533203,35,7370.0,3.785874843597412,294,9973.0
14010,0.3536643385887146,5.125608921051025,104,7370.0,46.23283386230469,913,9973.0
