timestamp,kalman.stateZ,gyro.x,gyro.xRaw,gyro.xVariance,gyro.y,gyro.yRaw,gyro.yVariance
0,0.30443906784057617,20.366546630859375,322,7370.0,2.7548153400421143,-7,9973.0
10,0.3032556176185608,17.457937240600586,254,7370.0,-5.6671366691589355,-132,9973.0
20,0.3035372495651245,11.889823913574219,164,7370.0,-11.735637664794922,-214,9973.0
30,0.3036973476409912,5.984058856964111,54,7370.0,-15.957282066345215,-272,9973.0
40,0.30384373664855957,-0.8103882074356079,-43,7370.0,-20.09574317932129,-342,9973.0
50,0.3031739294528961,-5.0663933753967285,-84,7370.0,-24.399686813354492,-416,9973.0
60,0.3032083511352539,-6.6531853675842285,-123,7370.0,-28.358551025390625,-469,9973.0
70,0.3034510314464569,-9.467733383178711,-170,7370.0,-28.836172103881836,-460,9973.0
80,0.3035186529159546,-12.627420425415039,-221,7370.0,-24.41321563720703,-375,9973.0
90,0.3035100996494293,-16.044536590576172,-276,7370.0,-20.80385398864746,-326,9973.0
100,0.30322694778442383,-17.27829360961914,-282,7370.0,-19.486513137817383,-314,9973.0
110,0.30302461981773376,-15.655268669128418,-230,7370.0,-20.794504165649414,-344,9973.0
120,0.3031975328922272,-7.8687543869018555,-78,7370.0,-22.120073318481445,-370,9973.0
130,0.3033173978328705,3.54842209815979,113,7370.0,-24.63974952697754,-408,9973.0
140,0.3034926950931549,15.38822078704834,297,7370.0,-25.747520446777344,-411,9973.0
150,0.3036498427391052,25.525127410888672,468,7370.0,-23.655357360839844,-363,9973.0
160,0.30442100763320923,30.377092361450195,481,7370.0,-17.31648063659668,-253,9973.0
170,0.3048715889453888,24.489238739013672,359,7370.0,-13.262855529785156,-210,9973.0
180,0.3048325777053833,14.02586555480957,185,7370.0,-11.753655433654785,-195,9973.0
190,0.3051769733428955,2.019040107727051,-22,7370.0,-12.767465591430664,-207,9973.0
200,0.3052757680416107,-8.788923263549805,-169,7370.0,-12.932266235351562,-248,9973.0
210,0.3053116202354431,-15.292372703552246,-272,7370.0,-20.097124099731445,-362,9973.0
220,0.30539292097091675,-14.377561569213867,-229,7370.0,-30.60951805114746,-547,9973.0
230,0.30523982644081116,-10.803110122680664,-107,7370.0,-43.1430778503418,-770,9973.0
240,0.3052946925163269,-9.791569709777832,-165,7370.0,-48.285221099853516,-795,9973.0
250,0.30560970306396484,-11.807995796203613,-218,7370.0,-49.417869567871094,-806,9973.0
260,0.3056654632091522,-17.96442413330078,-284,7370.0,-45.17672348022461,-769,9973.0
270,0.30549293756484985,-13.316967010498047,-173,7370.0,-53.07234573364258,-889,9973.0
280,0.30586811900138855,-4.635759353637695,-30,7370.0,-59.774044036865234,-1025,9973.0
290,0.3058800995349884,2.4099009037017822,95,7370.0,-67.14763641357422,-1138,9973.0
300,0.30564311146736145,11.091651916503906,161,7370.0,-79.05663299560547,-1316,9973.0
310,0.3044052720069885,23.319353103637695,432,7370.0,-87.24195861816406,-1417,9973.0
320,0.30626940727233887,39.289451599121094,745,7370.0,-79.84537506103516,-1276,9973.0
330,0.30588650703430176,50.712547302246094,849,7370.0,-58.090614318847656,-803,9973.0
340,0.3058842718601227,47.46184158325195,716,7370.0,-36.64381408691406,-557,9973.0
350,0.3063209652900696,26.5585880279541,317,7370.0,-24.02005958557129,-388,9973.0
360,0.30822592973709106,-0.31626784801483154,-161,7370.0,-15.696885108947754,-204,9973.0
370,0.308691143989563,-20.460094451904297,-421,7370.0,-5.521024227142334,29,9973.0
380,0.30922338366508484,-35.99546432495117,-586,7370.0,11.237857818603516,343,9973.0
390,0.3099328577518463,-40.39895248413086,-648,7370.0,30.991573333740234,540,9973.0
400,0.30932173132896423,-36.840999603271484,-541,7370.0,42.61670684814453,593,9973.0
410,0.3097611665725708,-27.017963409423828,-435,7370.0,45.02115249633789,694,9973.0
420,0.309903621673584,-19.0622501373291,-323,7370.0,49.213191986083984,932,9973.0
430,0.3097735643386841,-11.1292085647583,-136,7370.0,50.13660430908203,768,9973.0
440,0.31104347109794617,2.9115467071533203,164,7370.0,40.95808410644531,578,9973.0
450,0.3092418909072876,23.362031936645508,440,7370.0,25.92767906188965,451,9973.0
460,0.3094136714935303,41.90127182006836,673,7370.0,10.967870712280273,247,9973.0
470,0.30954352021217346,49.65081024169922,828,7370.0,-3.1124801635742188,-111,9973.0
480,0.30997154116630554,48.757118225097656,816,7370.0,-26.678207397460938,-652,9973.0
490,0.3102644085884094,35.26081848144531,573,7370.0,-51.06456756591797,-953,9973.0
500,0.31052008271217346,12.524993896484375,169,7370.0,-67.32543182373047,-1195,9973.0
510,0.3105440139770508,-15.056669235229492,-310,7370.0,-79.8484878540039,-1451,9973.0
520,0.3100060522556305,-34.99072265625,-614,7370.0,-89.79822540283203,-1405,9973.0
530,0.3122921288013458,-47.31681823730469,-777,7370.0,-84.5833969116211,-1266,9973.0
540,0.3117290437221527,-43.512046813964844,-742,7370.0,-64.1070327758789,-814,9973.0
550,0.31094929575920105,-37.50471496582031,-643,7370.0,-40.11549377441406,-390,9973.0
560,0.3138861358165741,-35.177330017089844,-539,7370.0,-1.1067880392074585,136,9973.0
570,0.31548720598220825,-20.446937561035156,-278,7370.0,46.031490325927734,1034,9973.0
580,0.31655964255332947,-11.69597339630127,11,7370.0,94.62255859375,1738,9973.0
590,0.31705808639526367,1.3816348314285278,119,7370.0,120.67407989501953,1982,9973.0
600,0.31735655665397644,11.532186508178711,346,7370.0,115.5113754272461,1705,9973.0
610,0.31860148906707764,28.4921875,550,7370.0,95.59590148925781,1380,9973.0
620,0.3145658075809479,40.30575180053711,764,7370.0,69.07978057861328,877,9973.0
630,0.3145575523376465,53.54570388793945,858,7370.0,35.01145935058594,346,9973.0
640,0.3150699734687805,45.27463912963867,620,7370.0,-1.6781270503997803,-217,9973.0
650,0.3162250816822052,29.80743980407715,383,7370.0,-35.9996452331543,-606,9973.0
660,0.3169839084148407,16.85732078552246,92,7370.0,-68.25371551513672,-1080,9973.0
670,0.3165639340877533,-5.421024322509766,-321,7370.0,-97.30457305908203,-1561,9973.0
680,0.31700921058654785,-30.643388748168945,-623,7370.0,-115.09220123291016,-2134,9973.0
690,0.31899067759513855,-46.69683837890625,-730,7370.0,-122.61677551269531,-1959,9973.0
700,0.31991052627563477,-52.41325378417969,-745,7370.0,-90.48064422607422,-1266,9973.0
710,0.3186521530151367,-39.36359405517578,-734,7370.0,-47.34068298339844,-597,9973.0
720,0.3196491003036499,-31.479400634765625,-534,7370.0,-9.963724136352539,151,9973.0
730,0.32054877281188965,-25.595243453979492,-352,7370.0,46.857269287109375,886,9973.0
740,0.32203084230422974,-13.292308807373047,-58,7370.0,93.97688293457031,1643,9973.0
750,0.3223089873790741,-0.08342786878347397,35,7370.0,116.58446502685547,1979,9973.0
760,0.32040396332740784,18.46685791015625,301,7370.0,109.23715209960938,1788,9973.0
770,0.3210415542125702,22.2312068939209,322,7370.0,86.08692932128906,1310,9973.0
780,0.320492684841156,22.972776412963867,469,7370.0,52.091278076171875,621,9973.0
790,0.32063525915145874,30.473773956298828,584,7370.0,29.704954147338867,393,9973.0
800,0.31646332144737244,40.123748779296875,704,7370.0,4.722103118896484,33,9973.0
810,0.3165346682071686,34.79542541503906,488,7370.0,-28.441408157348633,-548,9973.0
820,0.3167790472507477,21.541454315185547,232,7370.0,-61.06572723388672,-1116,9973.0
830,0.3175862431526184,-0.1486974060535431,-158,7370.0,-90.3997573852539,-1592,9973.0
840,0.31572920083999634,-23.37074089050293,-471,7370.0,-104.5431900024414,-1747,9973.0
850,0.31691789627075195,-34.20988845825195,-638,7370.0,-96.23328399658203,-1442,9973.0
860,0.31740543246269226,-40.84260177612305,-694,7370.0,-59.19007873535156,-686,9973.0
870,0.31801626086235046,-32.307125091552734,-551,7370.0,-11.402584075927734,12,9973.0
880,0.31871694326400757,-20.6073055267334,-319,7370.0,27.129138946533203,606,9973.0
890,0.31957849860191345,-20.8454532623291,-281,7370.0,57.07295227050781,1013,9973.0
900,0.3196635842323303,-16.73635482788086,-222,7370.0,72.38734436035156,1205,9973.0
910,0.31936925649642944,-4.604747772216797,13,7370.0,68.84738159179688,1035,9973.0
920,0.31919795274734497,19.34797477722168,401,7370.0,52.0819206237793,652,9973.0
930,0.3156367540359497,42.44581604003906,824,7370.0,30.88848876953125,229,9973.0
940,0.31532683968544006,65.75588989257812,1191,7370.0,8.369587898254395,-90,9973.0
950,0.3142656683921814,68.25272369384766,1102,7370.0,-12.9254732131958,-306,9973.0
960,0.31458356976509094,45.56346893310547,515,7370.0,-27.09303855895996,-305,9973.0
970,0.3148519992828369,4.1869330406188965,-188,7370.0,-42.857627868652344,-716,9973.0
980,0.31312793493270874,-40.8967399597168,-767,7370.0,-61.498504638671875,-1240,9973.0
990,0.3132575750350952,-61.098594665527344,-991,7370.0,-74.15033721923828,-1277,9973.0
1000,0.3131985664367676,-61.27284622192383,-966,7370.0,-69.4801025390625,-913,9973.0
1010,0.31322675943374634,-38.967708587646484,-532,7370.0,-38.66576385498047,-441,9973.0
1020,0.3158303499221802,-14.50986099243164,-101,7370.0,5.751199245452881,176,9973.0
1030,0.31654873490333557,4.998077392578125,144,7370.0,46.54519271850586,999,9973.0
1040,0.31707653403282166,15.330329895019531,193,7370.0,60.7377815246582,1065,9973.0
1050,0.3170336186885834,14.008254051208496,260,7370.0,62.45289611816406,1050,9973.0
1060,0.3151584565639496,13.69974136352539,263,7370.0,67.05284881591797,1104,9973.0
1070,0.31461432576179504,14.811573028564453,210,7370.0,60.95600128173828,898,9973.0
1080,0.3137684464454651,15.378244400024414,236,7370.0,45.45357894897461,556,9973.0
1090,0.3133610486984253,22.700599670410156,511,7370.0,23.036834716796875,-6,9973.0
1100,0.31369471549987793,31.52254295349121,606,7370.0,1.3679063320159912,-182,9973.0
1110,0.3107201159000397,23.779708862304688,305,7370.0,-15.700567245483398,-336,9973.0
1120,0.3106938302516937,4.291543960571289,-50,7370.0,-39.450660705566406,-687,9973.0
1130,0.3105314075946808,-7.580323696136475,-218,7370.0,-70.95889282226562,-1184,9973.0
1140,0.3107108473777771,-22.684383392333984,-402,7370.0,-92.12652587890625,-1490,9973.0
1150,0.3110049068927765,-38.26420974731445,-749,7370.0,-98.96549987792969,-1546,9973.0
1160,0.31072166562080383,-53.91825866699219,-844,7370.0,-81.83761596679688,-1368,9973.0
1170,0.31080079078674316,-42.53850555419922,-608,7370.0,-40.03357696533203,-402,9973.0
1180,0.3137879967689514,-18.19093132019043,-133,7370.0,8.469270706176758,405,9973.0
1190,0.3171606957912445,15.106053352355957,354,7370.0,63.61389923095703,1442,9973.0
1200,0.31786757707595825,48.1655158996582,875,7370.0,103.78339385986328,1849,9973.0
1210,0.31814810633659363,53.28219985961914,777,7370.0,115.46730041503906,1955,9973.0
1220,0.3187794089317322,41.812774658203125,585,7370.0,110.3166275024414,1744,9973.0
1230,0.3180813789367676,27.810482025146484,351,7370.0,102.5159683227539,1622,9973.0
1240,0.31595122814178467,9.880688667297363,-45,7370.0,82.88259887695312,1308,9973.0
1250,0.31549206376075745,-14.753771781921387,-395,7370.0,52.60167694091797,643,9973.0
1260,0.3160758316516876,-27.549636840820312,-539,7370.0,11.208587646484375,-149,9973.0
1270,0.3162934184074402,-25.34113121032715,-301,7370.0,-40.24483871459961,-991,9973.0
1280,0.3150108754634857,-11.918293952941895,-128,7370.0,-87.745849609375,-1623,9973.0
1290,0.3151158094406128,-2.369769334793091,-138,7370.0,-122.99424743652344,-2143,9973.0
1300,0.3150767385959625,-7.799699306488037,-127,7370.0,-145.6749725341797,-2533,9973.0
1310,0.3173038959503174,-12.4486083984375,-100,7370.0,-152.018310546875,-2558,9973.0
1320,0.31752142310142517,2.9332258701324463,256,7370.0,-130.65232849121094,-1939,9973.0
1330,0.3177497386932373,31.389894485473633,756,7370.0,-89.88325500488281,-1205,9973.0
1340,0.32036906480789185,41.758216857910156,663,7370.0,-20.467103958129883,201,9973.0
1350,0.3231927752494812,27.270278930664062,311,7370.0,61.9805908203125,1386,9973.0
1360,0.32636162638664246,10.75853443145752,16,7370.0,111.5817642211914,2094,9973.0
1370,0.32942429184913635,-5.51373291015625,-208,7370.0,138.02590942382812,2513,9973.0
1380,0.330739289522171,-15.414639472961426,-339,7370.0,154.15061950683594,2623,9973.0
1390,0.33260127902030945,-25.652883529663086,-418,7370.0,148.967529296875,2206,9973.0
1400,0.3330325782299042,-24.77848243713379,-361,7370.0,112.33515167236328,1598,9973.0
1410,0.3294036388397217,-19.891334533691406,-301,7370.0,60.66509246826172,823,9973.0
1420,0.3302403688430786,-12.367389678955078,-178,7370.0,7.7462544441223145,-118,9973.0
1430,0.33127641677856445,-0.8471087217330933,29,7370.0,-44.67829132080078,-988,9973.0
1440,0.3322983682155609,5.43755578994751,161,7370.0,-90.34891510009766,-1609,9973.0
1450,0.33291059732437134,4.554898262023926,-65,7370.0,-118.5087661743164,-1898,9973.0
1460,0.32893481850624084,-3.331045389175415,-108,7370.0,-134.0214385986328,-2151,9973.0
1470,0.3307468891143799,-11.874972343444824,-227,7370.0,-140.006103515625,-2269,9973.0
1480,0.3303852677345276,-10.481834411621094,-143,7370.0,-144.5873260498047,-2198,9973.0
1490,0.3305211365222931,4.679957866668701,158,7370.0,-132.02598571777344,-1984,9973.0
1500,0.3282432556152344,15.725776672363281,227,7370.0,-96.83439636230469,-1415,9973.0
1510,0.33170855045318604,3.0589659214019775,-58,7370.0,-49.25288391113281,-621,9973.0
1520,0.33304548263549805,-14.78582763671875,-296,7370.0,13.143332481384277,519,9973.0
1530,0.33734333515167236,-23.609130859375,-387,7370.0,89.77271270751953,1834,9973.0
1540,0.33835887908935547,-26.047677993774414,-393,7370.0,150.96092224121094,2712,9973.0
1550,0.33923277258872986,-14.316343307495117,-194,7370.0,194.32162475585938,3415,9973.0
1560,0.34046435356140137,7.182667255401611,335,7370.0,211.03469848632812,3480,9973.0
1570,0.3407701253890991,39.966148376464844,682,7370.0,199.27220153808594,3244,9973.0
1580,0.33867064118385315,64.22476959228516,1143,7370.0,175.0020294189453,2736,9973.0
1590,0.33665943145751953,71.39098358154297,1008,7370.0,129.8910369873047,1982,9973.0
1600,0.33546125888824463,49.12668228149414,565,7370.0,66.08844757080078,779,9973.0
1610,0.3354569673538208,4.490481853485107,-84,7370.0,3.239360809326172,-358,9973.0
1620,0.33754801750183105,-39.69277572631836,-805,7370.0,-58.20246505737305,-1201,9973.0
1630,0.33358195424079895,-68.37894439697266,-1144,7370.0,-102.81555938720703,-1895,9973.0
1640,0.33380645513534546,-76.84209442138672,-1209,7370.0,-125.20911407470703,-2065,9973.0
1650,0.3337348699569702,-61.73794174194336,-857,7370.0,-119.90398406982422,-1836,9973.0
1660,0.3335433304309845,-33.46805953979492,-411,7370.0,-102.24031066894531,-1618,9973.0
1670,0.33323749899864197,0.27716121077537537,146,7370.0,-70.48400115966797,-898,9973.0
1680,0.32933539152145386,30.956832885742188,631,7370.0,-21.88290786743164,-211,9973.0
1690,0.3283865749835968,48.74848937988281,787,7370.0,6.174722194671631,308,9973.0
1700,0.32703283429145813,47.59781265258789,804,7370.0,25.30750274658203,500,9973.0
1710,0.3251460790634155,38.732242584228516,606,7370.0,38.32868576049805,579,9973.0
1720,0.32165130972862244,29.911428451538086,389,7370.0,35.898170471191406,728,9973.0
1730,0.3203671872615814,18.810161590576172,201,7370.0,27.42193031311035,357,9973.0
1740,0.3191993236541748,1.4235528707504272,-156,7370.0,-2.9524316787719727,-95,9973.0
1750,0.31908270716667175,-23.610841751098633,-502,7370.0,-43.2973747253418,-868,9973.0
1760,0.31664103269577026,-54.471153259277344,-1081,7370.0,-83.18167877197266,-1580,9973.0
1770,0.316042959690094,-77.17870330810547,-1188,7370.0,-103.52500915527344,-1698,9973.0
1780,0.3155818581581116,-59.420249938964844,-751,7370.0,-97.24732971191406,-1626,9973.0
1790,0.3160572946071625,-10.212567329406738,114,7370.0,-64.96954345703125,-846,9973.0
1800,0.31717240810394287,26.557506561279297,492,7370.0,-19.43042755126953,-62,9973.0
1810,0.3179208040237427,31.721710205078125,512,7370.0,25.18727684020996,617,9973.0
1820,0.3183566927909851,41.392818450927734,651,7370.0,63.59031295776367,1360,9973.0
1830,0.3188776671886444,39.07699203491211,651,7370.0,86.1794204711914,1485,9973.0
1840,0.3205300569534302,36.4780158996582,538,7370.0,89.95386505126953,1391,9973.0
1850,0.31958436965942383,34.165897369384766,617,7370.0,71.66045379638672,892,9973.0
1860,0.319953590631485,29.14572525024414,457,7370.0,38.3687858581543,477,9973.0
1870,0.32046303153038025,22.234882354736328,437,7370.0,5.48038387298584,-245,9973.0
1880,0.32093578577041626,16.323400497436523,159,7370.0,-36.855464935302734,-762,9973.0
1890,0.3221871554851532,2.7295687198638916,-119,7370.0,-78.2415771484375,-1504,9973.0
1900,0.3194068670272827,-22.3664608001709,-519,7370.0,-114.38424682617188,-1912,9973.0
1910,0.3186790645122528,-44.79244613647461,-864,7370.0,-140.74586486816406,-2361,9973.0
1920,0.3219326138496399,-60.341278076171875,-1006,7370.0,-165.4892120361328,-2751,9973.0
1930,0.3207516670227051,-53.84358215332031,-869,7370.0,-172.58822631835938,-2536,9973.0
1940,0.3199208974838257,-32.70350646972656,-412,7370.0,-141.43450927734375,-1912,9973.0
1950,0.32249221205711365,-10.309769630432129,-65,7370.0,-83.5271224975586,-973,9973.0
1960,0.3244010806083679,2.8869786262512207,56,7370.0,-20.848487854003906,-27,9973.0
1970,0.32640042901039124,5.714097023010254,23,7370.0,36.465087890625,958,9973.0
1980,0.3333902657032013,2.926194429397583,68,7370.0,99.75724792480469,1938,9973.0
1990,0.335552453994751,6.629819869995117,121,7370.0,144.7870635986328,2537,9973.0
2000,0.3375471830368042,7.126474380493164,160,7370.0,172.95712280273438,2764,9973.0
2010,0.33949318528175354,11.551289558410645,219,7370.0,177.5716094970703,2919,9973.0
2020,0.3411448895931244,12.119950294494629,194,7370.0,157.1237030029297,2293,9973.0
2030,0.3358311653137207,12.638931274414062,339,7370.0,117.93377685546875,1708,9973.0
2040,0.3371090292930603,14.705758094787598,191,7370.0,84.36100769042969,1282,9973.0
2050,0.3394969403743744,6.608363151550293,156,7370.0,49.98509216308594,701,9973.0
2060,0.3415907919406891,-9.855257034301758,-362,7370.0,10.072980880737305,123,9973.0
2070,0.33293217420578003,-39.942298889160156,-801,7370.0,-27.906808853149414,-551,9973.0
2080,0.33474093675613403,-44.536216735839844,-686,7370.0,-42.7705078125,-619,9973.0
2090,0.3369429409503937,-34.50850296020508,-500,7370.0,-26.241043090820312,-61,9973.0
2100,0.3388461172580719,2.6567282676696777,147,7370.0,2.0687968730926514,295,9973.0
2110,0.34086328744888306,33.7917366027832,711,7370.0,38.614906311035156,714,9973.0
2120,0.3353239595890045,60.09716796875,1116,7370.0,62.1755256652832,1073,9973.0
2130,0.3363121747970581,64.76496124267578,958,7370.0,72.24807739257812,1074,9973.0
2140,0.3362027406692505,45.45123291015625,669,7370.0,66.12763977050781,870,9973.0
2150,0.3356625735759735,16.930641174316406,203,7370.0,55.5675048828125,781,9973.0
2160,0.3335745632648468,-8.771942138671875,-258,7370.0,37.10882568359375,391,9973.0
2170,0.33261239528656006,-27.573196411132812,-397,7370.0,6.09989070892334,-151,9973.0
2180,0.3319377601146698,-33.30418395996094,-479,7370.0,-26.199970245361328,-556,9973.0
2190,0.3312661349773407,-30.857736587524414,-521,7370.0,-51.55555725097656,-885,9973.0
2200,0.33003169298171997,-20.07781410217285,-235,7370.0,-68.49512481689453,-1154,9973.0
2210,0.32903748750686646,3.509319543838501,115,7370.0,-76.4836654663086,-1180,9973.0
2220,0.3282207250595093,23.156049728393555,375,7370.0,-84.4264144897461,-1408,9973.0
2230,0.32738128304481506,34.38740921020508,573,7370.0,-80.7872085571289,-1108,9973.0
2240,0.3268875479698181,37.415775299072266,590,7370.0,-49.84334945678711,-658,9973.0
2250,0.3235746920108795,35.30968475341797,556,7370.0,-5.7150750160217285,220,9973.0
2260,0.3225216567516327,30.768718719482422,371,7370.0,40.715675354003906,1056,9973.0
2270,0.32114583253860474,17.607759475708008,179,7370.0,71.58794403076172,1389,9973.0
2280,0.31953009963035583,3.142670154571533,-89,7370.0,82.68805694580078,1461,9973.0
2290,0.3180290162563324,-15.590046882629395,-394,7370.0,85.53348541259766,1466,9973.0
2300,0.3165886402130127,-34.99221420288086,-622,7370.0,68.23080444335938,833,9973.0
2310,0.3157821297645569,-38.65732192993164,-556,7370.0,24.945894241333008,261,9973.0
2320,0.3161160945892334,-32.9061164855957,-616,7370.0,-27.244903564453125,-701,9973.0
2330,0.3160350024700165,-29.769731521606445,-333,7370.0,-73.78093719482422,-1420,9973.0
2340,0.31517738103866577,-17.548372268676758,-278,7370.0,-111.44344329833984,-1881,9973.0
2350,0.31581172347068787,-3.36970853805542,37,7370.0,-146.96046447753906,-2701,9973.0
2360,0.31606584787368774,7.488471031188965,144,7370.0,-180.941162109375,-3048,9973.0
2370,0.3167632520198822,13.104894638061523,276,7370.0,-189.57557678222656,-2874,9973.0
2380,0.32098880410194397,22.221960067749023,317,7370.0,-169.4755096435547,-2589,9973.0
2390,0.321762353181839,27.038667678833008,349,7370.0,-119.1714096069336,-1541,9973.0
2400,0.32403185963630676,23.343748092651367,294,7370.0,-40.363075256347656,-145,9973.0
2410,0.32705190777778625,11.816678047180176,117,7370.0,36.36865997314453,1042,9973.0
2420,0.33491846919059753,1.1812220811843872,40,7370.0,94.49971008300781,1791,9973.0
2430,0.3366430699825287,-3.515995979309082,-140,7370.0,138.714599609375,2370,9973.0
2440,0.33788952231407166,-11.738945960998535,-289,7370.0,160.8513946533203,2695,9973.0
2450,0.3382330536842346,-18.4019718170166,-362,7370.0,159.14437866210938,2565,9973.0
2460,0.34286636114120483,-26.72586441040039,-529,7370.0,133.2561798095703,2176,9973.0
2470,0.3366616368293762,-30.902015686035156,-530,7370.0,87.90498352050781,1041,9973.0
2480,0.3386057913303375,-30.496814727783203,-371,7370.0,30.855754852294922,191,9973.0
2490,0.3404894769191742,-29.123672485351562,-445,7370.0,-34.83498764038086,-770,9973.0
2500,0.3426482379436493,-16.297563552856445,-246,7370.0,-103.77104949951172,-1990,9973.0
2510,0.33250322937965393,2.259263277053833,210,7370.0,-154.80685424804688,-2832,9973.0
2520,0.33245885372161865,21.069978713989258,506,7370.0,-169.45120239257812,-2798,9973.0
2530,0.3316901624202728,29.475688934326172,421,7370.0,-153.7862091064453,-2474,9973.0
2540,0.33671000599861145,26.895994186401367,524,7370.0,-120.46644592285156,-1744,9973.0
2550,0.3357270359992981,21.35662269592285,338,7370.0,-66.0621109008789,-861,9973.0
2560,0.3336733281612396,12.461203575134277,48,7370.0,-11.051116943359375,167,9973.0
2570,0.33560726046562195,-2.9265377521514893,-145,7370.0,40.486385345458984,1096,9973.0
2580,0.335659921169281,-19.866783142089844,-425,7370.0,81.87543487548828,1693,9973.0
2590,0.336919367313385,-32.84648895263672,-630,7370.0,117.15556335449219,2152,9973.0
2600,0.33410751819610596,-41.738494873046875,-587,7370.0,138.38894653320312,2416,9973.0
2610,0.33502790331840515,-38.635459899902344,-649,7370.0,140.0475311279297,2310,9973.0
2620,0.33649981021881104,-29.219572067260742,-366,7370.0,131.96066284179688,1974,9973.0
2630,0.33746784925460815,-8.562422752380371,35,7370.0,102.99278259277344,1414,9973.0
2640,0.3282686471939087,14.599420547485352,326,7370.0,56.0548095703125,594,9973.0
2650,0.3291947841644287,35.19530487060547,709,7370.0,3.620244264602661,-264,9973.0
2660,0.3308037221431732,51.43699264526367,897,7370.0,-49.086246490478516,-1020,9973.0
2670,0.3322095274925232,55.513912200927734,892,7370.0,-94.27735137939453,-1786,9973.0
2680,0.3344382047653198,54.36727523803711,902,7370.0,-102.7860336303711,-1609,9973.0
2690,0.3290022313594818,44.79475021362305,734,7370.0,-71.13479614257812,-1075,9973.0
2700,0.3307810127735138,38.086219787597656,559,7370.0,-15.28240966796875,54,9973.0
2710,0.33240148425102234,22.247861862182617,302,7370.0,41.574310302734375,1018,9973.0
2720,0.3339806795120239,1.8878287076950073,-51,7370.0,80.90216064453125,1496,9973.0
2730,0.3308503329753876,-17.078346252441406,-407,7370.0,104.66002655029297,1764,9973.0
2740,0.33109065890312195,-34.89967346191406,-576,7370.0,116.34506225585938,1884,9973.0
2750,0.3317566514015198,-41.96117401123047,-670,7370.0,107.61870574951172,1725,9973.0
2760,0.3310830891132355,-38.42570877075195,-617,7370.0,83.09373474121094,1267,9973.0
2770,0.3306807279586792,-38.627376556396484,-691,7370.0,48.595455169677734,765,9973.0
2780,0.32733720541000366,-29.844425201416016,-524,7370.0,11.671041488647461,-54,9973.0
2790,0.32703864574432373,-19.35146141052246,-107,7370.0,-29.675382614135742,-743,9973.0
2800,0.32722407579421997,-1.6014013290405273,13,7370.0,-71.81028747558594,-1238,9973.0
2810,0.32727867364883423,11.009178161621094,171,7370.0,-107.54918670654297,-1786,9973.0
2820,0.32524341344833374,28.19400405883789,575,7370.0,-112.88053131103516,-1845,9973.0
2830,0.3253764808177948,44.5617561340332,730,7370.0,-98.10256958007812,-1551,9973.0
2840,0.32506969571113586,49.03194808959961,765,7370.0,-57.43074035644531,-733,9973.0
2850,0.32466545701026917,39.44129180908203,570,7370.0,-8.743825912475586,187,9973.0
2860,0.3232325315475464,14.805086135864258,170,7370.0,39.13813781738281,904,9973.0
2870,0.3223799765110016,-12.007022857666016,-303,7370.0,71.72307586669922,1321,9973.0
2880,0.3210951089859009,-29.40391731262207,-626,7370.0,87.00817108154297,1489,9973.0
2890,0.3191289007663727,-42.127994537353516,-729,7370.0,85.89107513427734,1365,9973.0
2900,0.3175358176231384,-55.38787841796875,-903,7370.0,58.28352355957031,591,9973.0
2910,0.3164421319961548,-53.42216491699219,-814,7370.0,15.321094512939453,151,9973.0
2920,0.3155633211135864,-33.93722915649414,-544,7370.0,-24.146862030029297,-594,9973.0
2930,0.3149288296699524,-14.505449295043945,-42,7370.0,-65.10758972167969,-1338,9973.0
2940,0.31578555703163147,2.0767555236816406,7,7370.0,-117.47061920166016,-2034,9973.0
2950,0.31347525119781494,-0.8893269300460815,-11,7370.0,-159.25473022460938,-2706,9973.0
2960,0.3134762644767761,-12.747289657592773,-204,7370.0,-150.7367706298828,-2536,9973.0
2970,0.312833696603775,-4.449396133422852,-29,7370.0,-125.87296295166016,-1778,9973.0
2980,0.31227436661720276,10.311970710754395,335,7370.0,-77.78325653076172,-895,9973.0
2990,0.3150418996810913,27.161514282226562,384,7370.0,-19.513376235961914,52,9973.0
3000,0.31832268834114075,34.27536392211914,539,7370.0,32.896697998046875,735,9973.0
3010,0.3191918432712555,39.37466049194336,588,7370.0,71.56721496582031,1381,9973.0
3020,0.31963568925857544,33.9285888671875,436,7370.0,98.0475082397461,1789,9973.0
3030,0.32043716311454773,22.43792152404785,289,7370.0,110.6068344116211,1838,9973.0
3040,0.3218861520290375,3.870103359222412,29,7370.0,105.09871673583984,1467,9973.0
3050,0.32269567251205444,-14.988762855529785,-338,7370.0,73.68794250488281,1031,9973.0
3060,0.32292672991752625,-32.33638000488281,-566,7370.0,29.175331115722656,364,9973.0
3070,0.3239838182926178,-39.468753814697266,-719,7370.0,-22.16275405883789,-710,9973.0
3080,0.32162120938301086,-38.97230529785156,-498,7370.0,-79.08454895019531,-1590,9973.0
3090,0.32215338945388794,-32.46482467651367,-547,7370.0,-126.48348236083984,-2038,9973.0
3100,0.3225935995578766,-27.467041015625,-455,7370.0,-146.88340759277344,-2412,9973.0
3110,0.3230263292789459,-15.769244194030762,-265,7370.0,-128.56121826171875,-1962,9973.0
3120,0.3264201879501343,-1.4003872871398926,65,7370.0,-87.51678466796875,-1271,9973.0
3130,0.32593777775764465,5.448945999145508,107,7370.0,-42.584373474121094,-533,9973.0
3140,0.3265039324760437,11.68504810333252,266,7370.0,-0.8234913349151611,358,9973.0
3150,0.3286392092704773,27.835880279541016,579,7370.0,49.93633270263672,1154,9973.0
3160,0.3288120925426483,44.024810791015625,726,7370.0,96.74254608154297,1854,9973.0
3170,0.327670693397522,43.73596954345703,646,7370.0,123.9755630493164,2177,9973.0
3180,0.32808130979537964,25.011682510375977,206,7370.0,128.11920166015625,1949,9973.0
3190,0.3282923102378845,-4.163419246673584,-248,7370.0,119.09263610839844,1848,9973.0
3200,0.3293439447879791,-24.878005981445312,-397,7370.0,94.61347198486328,1229,9973.0
3210,0.33010753989219666,-30.9982852935791,-400,7370.0,55.9267578125,691,9973.0
3220,0.3248020112514496,-20.823728561401367,-317,7370.0,13.688180923461914,55,9973.0
3230,0.3256683647632599,1.648322343826294,225,7370.0,-22.6120662689209,-617,9973.0
3240,0.3267594873905182,31.49067497253418,648,7370.0,-56.2000732421875,-1128,9973.0
3250,0.32784774899482727,42.46013641357422,752,7370.0,-71.00432586669922,-1197,9973.0
3260,0.32473111152648926,25.117101669311523,281,7370.0,-68.86809539794922,-1081,9973.0
3270,0.32567787170410156,17.035934448242188,274,7370.0,-47.85980224609375,-553,9973.0
3280,0.3268566429615021,21.85588836669922,438,7370.0,-10.54493236541748,-56,9973.0
3290,0.32830819487571716,19.794872283935547,329,7370.0,41.367637634277344,871,9973.0
3300,0.3264915943145752,25.583833694458008,454,7370.0,85.69432830810547,1697,9973.0
3310,0.3268669843673706,26.887901306152344,404,7370.0,118.88264465332031,2085,9973.0
3320,0.328052818775177,13.376437187194824,-2,7370.0,123.80911254882812,2165,9973.0
3330,0.3278995156288147,-5.8714189529418945,-207,7370.0,109.35954284667969,1692,9973.0
3340,0.327783465385437,-24.74765396118164,-543,7370.0,80.73954772949219,1218,9973.0
3350,0.325886994600296,-39.6895751953125,-627,7370.0,48.61659240722656,387,9973.0
3360,0.3262068033218384,-43.87065505981445,-671,7370.0,-3.248871326446533,-263,9973.0
3370,0.32641690969467163,-42.83604049682617,-778,7370.0,-55.23898696899414,-1045,9973.0
3380,0.3271101713180542,-31.95956039428711,-399,7370.0,-102.93966674804688,-2014,9973.0
3390,0.3279319107532501,-9.684730529785156,-61,7370.0,-143.04454040527344,-2420,9973.0
3400,0.3283184766769409,6.957993030548096,224,7370.0,-157.55996704101562,-2578,9973.0
3410,0.32855647802352905,16.03782844543457,284,7370.0,-138.78575134277344,-2046,9973.0
3420,0.3283446133136749,24.02273941040039,351,7370.0,-101.91144561767578,-1345,9973.0
3430,0.32878831028938293,24.951904296875,389,7370.0,-62.88209533691406,-812,9973.0
3440,0.32776305079460144,20.712968826293945,265,7370.0,-4.72745943069458,109,9973.0
3450,0.3282696306705475,11.69619083404541,46,7370.0,55.310272216796875,1048,9973.0
3460,0.3283231854438782,-2.917396306991577,-107,7370.0,97.53719329833984,1692,9973.0
3470,0.328179270029068,-14.957889556884766,-140,7370.0,119.618896484375,1921,9973.0
3480,0.32555195689201355,-21.667091369628906,-300,7370.0,115.71493530273438,1690,9973.0
3490,0.32535088062286377,-26.49493408203125,-504,7370.0,92.44837951660156,1420,9973.0
3500,0.32456934452056885,-30.097707748413086,-508,7370.0,54.142974853515625,720,9973.0
3510,0.3250091075897217,-16.824298858642578,-207,7370.0,2.11828351020813,-221,9973.0
3520,0.32086193561553955,0.313992977142334,113,7370.0,-37.186248779296875,-813,9973.0
3530,0.3204355239868164,10.679962158203125,184,7370.0,-75.26512145996094,-1307,9973.0
3540,0.32065442204475403,8.521474838256836,41,7370.0,-106.92271423339844,-1949,9973.0
3550,0.32097792625427246,-6.57375955581665,-133,7370.0,-119.46768188476562,-1908,9973.0
3560,0.3210197389125824,-10.10507869720459,-16,7370.0,-100.36769104003906,-1650,9973.0
3570,0.32052767276763916,2.5417985916137695,155,7370.0,-65.08248138427734,-954,9973.0
3580,0.32054564356803894,11.928549766540527,210,7370.0,-16.380489349365234,-93,9973.0
3590,0.32095032930374146,9.215067863464355,224,7370.0,29.539817810058594,564,9973.0
3600,0.3212062120437622,3.0539722442626953,103,7370.0,62.400901794433594,1029,9973.0
3610,0.32306525111198425,-0.1410730630159378,11,7370.0,83.32964324951172,1368,9973.0
3620,0.32297006249427795,-3.068969488143921,-26,7370.0,74.67650604248047,1180,9973.0
3630,0.3224864602088928,-3.5957672595977783,-128,7370.0,56.08406066894531,930,9973.0
3640,0.3233717978000641,-2.10443377494812,-39,7370.0,26.11469268798828,244,9973.0
3650,0.32360294461250305,-0.30027949810028076,-17,7370.0,-8.655146598815918,-371,9973.0
3660,0.32048219442367554,2.3063113689422607,151,7370.0,-43.85316848754883,-853,9973.0
3670,0.3209880590438843,8.831428527832031,133,7370.0,-75.20929718017578,-1272,9973.0
3680,0.3212391436100006,8.2371187210083,109,7370.0,-105.4736099243164,-1862,9973.0
3690,0.32212719321250916,-0.06484557688236237,-129,7370.0,-117.80962371826172,-1820,9973.0
3700,0.32175859808921814,-5.203451156616211,-128,7370.0,-108.7628173828125,-1506,9973.0
3710,0.3228180408477783,-2.8091092109680176,7,7370.0,-77.14892578125,-1044,9973.0
3720,0.32397109270095825,1.1335270404815674,-54,7370.0,-24.507232666015625,-49,9973.0
3730,0.32510486245155334,-3.977337598800659,-66,7370.0,32.30038833618164,917,9973.0
3740,0.3275689482688904,-0.18348781764507294,92,7370.0,94.50831604003906,1817,9973.0
3750,0.32876792550086975,-4.741135597229004,-113,7370.0,135.88035583496094,2231,9973.0
3760,0.3293509781360626,-5.688326358795166,-87,7370.0,148.95596313476562,2422,9973.0
3770,0.3310575783252716,3.409909725189209,86,7370.0,146.75918579101562,2437,9973.0
3780,0.3313223123550415,14.659868240356445,177,7370.0,122.85176086425781,1948,9973.0
3790,0.3253086507320404,19.092254638671875,391,7370.0,90.80437469482422,1141,9973.0
3800,0.3262588679790497,21.61407470703125,412,7370.0,44.46242141723633,538,9973.0
3810,0.32756882905960083,12.094505310058594,32,7370.0,-9.866961479187012,-312,9973.0
3820,0.32829463481903076,-6.99693489074707,-223,7370.0,-59.18755340576172,-1307,9973.0
3830,0.32494401931762695,-22.626903533935547,-488,7370.0,-108.9913558959961,-2089,9973.0
3840,0.3262701630592346,-33.28784942626953,-451,7370.0,-145.6245880126953,-2759,9973.0
3850,0.3251381516456604,-28.715160369873047,-297,7370.0,-162.8549041748047,-2688,9973.0
3860,0.32941851019859314,0.527567982673645,282,7370.0,-148.5245361328125,-2381,9973.0
3870,0.32741838693618774,29.429208755493164,572,7370.0,-98.49298095703125,-1293,9973.0
3880,0.3288644552230835,36.566932678222656,560,7370.0,-33.83378982543945,-262,9973.0
3890,0.3308354616165161,21.12689208984375,286,7370.0,25.420595169067383,773,9973.0
3900,0.33358171582221985,8.98897933959961,4,7370.0,80.04757690429688,1636,9973.0
3910,0.33531418442726135,-0.8483249545097351,-59,7370.0,114.7276382446289,2135,9973.0
3920,0.3336176574230194,-0.7764573693275452,-26,7370.0,129.6204071044922,2273,9973.0
3930,0.3342091739177704,-7.346744060516357,-175,7370.0,128.327880859375,2106,9973.0
3940,0.3350558280944824,-4.105777263641357,-46,7370.0,115.60037231445312,1841,9973.0
3950,0.3351304829120636,1.5070194005966187,-125,7370.0,79.42928314208984,1111,9973.0
3960,0.32928434014320374,-12.498603820800781,-332,7370.0,37.904693603515625,360,9973.0
3970,0.33021053671836853,-27.318605422973633,-485,7370.0,-0.00950905866920948,-273,9973.0
3980,0.3306289613246918,-40.15316390991211,-806,7370.0,-31.45340919494629,-700,9973.0
3990,0.33156639337539673,-48.328277587890625,-710,7370.0,-56.56076431274414,-1131,9973.0
4000,0.3322782814502716,-28.467103958129883,-237,7370.0,-62.15182876586914,-883,9973.0
4010,0.32871055603027344,8.023693084716797,325,7370.0,-44.06810760498047,-646,9973.0
4020,0.32954326272010803,40.27943420410156,832,7370.0,-7.957274913787842,-36,9973.0
4030,0.3301139175891876,53.2037239074707,857,7370.0,23.639833450317383,389,9973.0
4040,0.33031588792800903,49.426490783691406,847,7370.0,41.925567626953125,673,9973.0
4050,0.3275238573551178,38.44997787475586,489,7370.0,54.298179626464844,761,9973.0
4060,0.327739953994751,17.66109275817871,238,7370.0,57.057647705078125,902,9973.0
4070,0.32747822999954224,-6.401678562164307,-226,7370.0,42.45893859863281,457,9973.0
4080,0.32726871967315674,-19.46183967590332,-283,7370.0,7.7956671714782715,-155,9973.0
4090,0.3244965970516205,-22.56382942199707,-302,7370.0,-30.67567253112793,-624,9973.0
4100,0.32389047741889954,-19.674144744873047,-291,7370.0,-67.47196197509766,-1438,9973.0
4110,0.32395139336586,-34.79427719116211,-626,7370.0,-99.47484588623047,-1738,9973.0
4120,0.3239940404891968,-58.63988494873047,-1026,7370.0,-114.76781463623047,-1973,9973.0
4130,0.32391357421875,-53.8000602722168,-760,7370.0,-107.56092834472656,-1625,9973.0
4140,0.32337433099746704,-32.346031188964844,-343,7370.0,-70.60282897949219,-999,9973.0
4150,0.3237970471382141,-4.038546085357666,64,7370.0,-16.811840057373047,-92,9973.0
4160,0.3245460093021393,17.34567642211914,466,7370.0,23.063234329223633,422,9973.0
4170,0.32522061467170715,31.83798599243164,549,7370.0,51.0262451171875,906,9973.0
4180,0.32516977190971375,40.84872055053711,800,7370.0,61.840457916259766,850,9973.0
4190,0.32553452253341675,50.560482025146484,911,7370.0,64.64372253417969,976,9973.0
4200,0.3260228633880615,55.29341506958008,923,7370.0,52.889713287353516,651,9973.0
4210,0.3263549208641052,50.22795867919922,834,7370.0,28.6398868560791,325,9973.0
4220,0.3269343078136444,33.03520202636719,448,7370.0,5.3708953857421875,-124,9973.0
4230,0.3237706422805786,15.155320167541504,272,7370.0,-23.48615264892578,-613,9973.0
4240,0.3245268166065216,-19.372230529785156,-508,7370.0,-55.040611267089844,-1117,9973.0
4250,0.3251097798347473,-55.18115234375,-920,7370.0,-84.2990951538086,-1604,9973.0
4260,0.325393408536911,-75.067626953125,-1282,7370.0,-102.28466033935547,-1692,9973.0
4270,0.32495972514152527,-73.9417953491211,-1106,7370.0,-90.57984924316406,-1524,9973.0
4280,0.32577747106552124,-53.6789665222168,-835,7370.0,-62.780174255371094,-814,9973.0
4290,0.32670825719833374,-31.87291145324707,-427,7370.0,-31.173067092895508,-256,9973.0
4300,0.32785630226135254,1.6115351915359497,178,7370.0,9.827699661254883,498,9973.0
4310,0.3315797448158264,35.01929473876953,684,7370.0,42.469688415527344,910,9973.0
4320,0.33329954743385315,56.814842224121094,918,7370.0,63.668087005615234,1324,9973.0
4330,0.3349619209766388,56.55031967163086,847,7370.0,78.25813293457031,1357,9973.0
4340,0.33658215403556824,43.24698257446289,735,7370.0,87.2088623046875,1465,9973.0
4350,0.3388065993785858,29.562191009521484,388,7370.0,83.33250427246094,1299,9973.0
4360,0.3361447751522064,19.686281204223633,418,7370.0,68.42549896240234,863,9973.0
4370,0.3377387225627899,11.54174518585205,208,7370.0,32.98461151123047,343,9973.0
4380,0.33903223276138306,0.6218106150627136,-87,7370.0,1.7122313976287842,-171,9973.0
4390,0.3406083285808563,-23.12213897705078,-423,7370.0,-19.485395431518555,-535,9973.0
4400,0.3384750187397003,-42.02071762084961,-713,7370.0,-35.47010803222656,-612,9973.0
4410,0.33977362513542175,-56.824302673339844,-1001,7370.0,-37.981876373291016,-534,9973.0
4420,0.3408719301223755,-48.917572021484375,-747,7370.0,-28.271928787231445,-382,9973.0
4430,0.34269988536834717,-33.25376892089844,-518,7370.0,-9.006732940673828,28,9973.0
4440,0.34399282932281494,-17.002870559692383,-201,7370.0,9.218653678894043,348,9973.0
4450,0.3411106467247009,5.40955114364624,129,7370.0,25.7498779296875,560,9973.0
4460,0.34149909019470215,26.364213943481445,475,7370.0,39.749446868896484,601,9973.0
4470,0.34146925806999207,35.58174514770508,757,7370.0,45.77895736694336,535,9973.0
4480,0.3412509560585022,38.58527755737305,608,7370.0,37.8897705078125,490,9973.0
4490,0.33710503578186035,34.13153839111328,503,7370.0,22.027511596679688,207,9973.0
4500,0.33579447865486145,31.66221046447754,584,7370.0,5.872688293457031,-34,9973.0
4510,0.3341066837310791,35.94643783569336,572,7370.0,-4.424648761749268,-98,9973.0
4520,0.33195462822914124,33.5265998840332,514,7370.0,-22.027620315551758,-450,9973.0
4530,0.32820919156074524,19.18915367126465,84,7370.0,-37.534183502197266,-585,9973.0
4540,0.3257153332233429,-16.296043395996094,-570,7370.0,-52.81949996948242,-872,9973.0
4550,0.3231739103794098,-62.286521911621094,-1239,7370.0,-61.52968978881836,-954,9973.0
4560,0.3210442364215851,-78.46279907226562,-1166,7370.0,-55.60881805419922,-827,9973.0
4570,0.3187653720378876,-63.255882263183594,-865,7370.0,-41.13622283935547,-480,9973.0
4580,0.31694865226745605,-37.9935417175293,-465,7370.0,1.304094672203064,398,9973.0
4590,0.31614193320274353,-2.4481148719787598,272,7370.0,55.618709564208984,1235,9973.0
4600,0.31546273827552795,38.169132232666016,756,7370.0,94.43175506591797,1820,9973.0
4610,0.3147994875907898,49.13172149658203,718,7370.0,113.26373291015625,1916,9973.0
4620,0.3119179904460907,44.10182571411133,582,7370.0,105.80716705322266,1631,9973.0
4630,0.31065231561660767,31.208194732666016,335,7370.0,79.0549087524414,1115,9973.0
4640,0.31062451004981995,14.972742080688477,236,7370.0,42.15117645263672,480,9973.0
4650,0.31062448024749756,11.576607704162598,258,7370.0,6.396661758422852,-2,9973.0
4660,0.31084150075912476,18.421367645263672,241,7370.0,-19.506195068359375,-310,9973.0
4670,0.31133967638015747,24.196189880371094,458,7370.0,-47.051849365234375,-1029,9973.0
4680,0.31131884455680847,17.6281795501709,275,7370.0,-80.31470489501953,-1502,9973.0
4690,0.3122585117816925,0.8708411455154419,-87,7370.0,-107.73448944091797,-1823,9973.0
4700,0.31337258219718933,-21.959325790405273,-444,7370.0,-124.03569030761719,-1983,9973.0
4710,0.31603118777275085,-48.115081787109375,-971,7370.0,-127.84517669677734,-1926,9973.0
4720,0.317806601524353,-75.98505401611328,-1403,7370.0,-107.16337585449219,-1567,9973.0
4730,0.3185051679611206,-86.34921264648438,-1383,7370.0,-68.7803955078125,-884,9973.0
4740,0.31962451338768005,-67.21640014648438,-924,7370.0,-18.209758758544922,-4,9973.0
4750,0.3249361515045166,-32.05281448364258,-376,7370.0,33.54475021362305,762,9973.0
4760,0.3264367878437042,-1.8245882987976074,-38,7370.0,68.67831420898438,1185,9973.0
4770,0.3280772268772125,11.247252464294434,107,7370.0,79.98958587646484,1333,9973.0
4780,0.32923266291618347,17.387502670288086,454,7370.0,74.26362609863281,1063,9973.0
4790,0.32991042733192444,32.149925231933594,601,7370.0,59.49293518066406,938,9973.0
4800,0.3292748034000397,47.06339645385742,857,7370.0,45.752296447753906,713,9973.0
4810,0.32958683371543884,62.88520431518555,1039,7370.0,30.586759567260742,365,9973.0
4820,0.32929280400276184,83.4969711303711,1526,7370.0,13.432804107666016,64,9973.0
4830,0.3297375738620758,92.68328857421875,1487,7370.0,1.6105775833129883,-40,9973.0
4840,0.3298908472061157,77.3177261352539,1145,7370.0,-22.930130004882812,-493,9973.0
4850,0.32997432351112366,38.27156448364258,447,7370.0,-55.57920455932617,-1045,9973.0
4860,0.3295867145061493,-9.4384126663208,-421,7370.0,-83.85762023925781,-1524,9973.0
4870,0.32951951026916504,-58.694522857666016,-1029,7370.0,-105.36015319824219,-1815,9973.0
4880,0.3298402428627014,-84.15840911865234,-1388,7370.0,-95.55122375488281,-1614,9973.0
4890,0.3261646628379822,-69.77538299560547,-1005,7370.0,-60.34318923950195,-922,9973.0
4900,0.3256838619709015,-38.83574295043945,-557,7370.0,-27.125877380371094,-112,9973.0
4910,0.32520347833633423,-32.456321716308594,-545,7370.0,14.580693244934082,540,9973.0
4920,0.3248206675052643,-29.804061889648438,-507,7370.0,66.68058013916016,1489,9973.0
4930,0.3254269063472748,-26.113941192626953,-438,7370.0,113.26294708251953,2193,9973.0
4940,0.32455143332481384,-14.4403076171875,-224,7370.0,130.87001037597656,2174,9973.0
4950,0.3240146040916443,-0.9128016829490662,-68,7370.0,127.75841522216797,1878,9973.0
4960,0.3234230577945709,8.889480590820312,333,7370.0,95.4157943725586,1317,9973.0
4970,0.3183259069919586,25.19014549255371,502,7370.0,49.791751861572266,786,9973.0
4980,0.31680798530578613,48.91393280029297,821,7370.0,17.0274658203125,131,9973.0
4990,0.315538614988327,59.15182876586914,1002,7370.0,-11.295910835266113,-364,9973.0
5000,0.3139737546443939,59.06794738769531,970,7370.0,-35.181640625,-642,9973.0
5010,0.31531935930252075,33.38475036621094,365,7370.0,-52.01677322387695,-911,9973.0
5020,0.31020092964172363,4.585677146911621,-105,7370.0,-58.35334014892578,-903,9973.0
5030,0.3094402253627777,-24.83319854736328,-574,7370.0,-54.36513900756836,-672,9973.0
5040,0.3084247410297394,-51.6939582824707,-939,7370.0,-45.35514831542969,-574,9973.0
5050,0.3086604177951813,-73.01982116699219,-1336,7370.0,-25.20673370361328,-148,9973.0
5060,0.30541953444480896,-89.21448516845703,-1516,7370.0,10.411445617675781,388,9973.0
5070,0.3063816428184509,-67.40994262695312,-1000,7370.0,42.98306655883789,839,9973.0
5080,0.306247353553772,-21.352495193481445,-102,7370.0,50.22200393676758,846,9973.0
5090,0.30651482939720154,24.166475296020508,653,7370.0,70.33192443847656,1197,9973.0
5100,0.30751708149909973,45.73221206665039,691,7370.0,90.20429229736328,1643,9973.0
5110,0.3049086332321167,35.697967529296875,523,7370.0,101.99566650390625,1686,9973.0
5120,0.30476486682891846,19.370407104492188,336,7370.0,96.95491027832031,1427,9973.0
5130,0.30572447180747986,15.280012130737305,231,7370.0,75.48370361328125,1165,9973.0
5140,0.30543002486228943,23.838218688964844,456,7370.0,41.20990753173828,250,9973.0
5150,0.30230286717414856,39.093231201171875,770,7370.0,0.3648739159107208,-178,9973.0
5160,0.30226632952690125,48.34150695800781,769,7370.0,-40.7336540222168,-850,9973.0
5170,0.3016347587108612,42.845558166503906,664,7370.0,-69.19172668457031,-1358,9973.0
5180,0.3012283742427826,32.310672760009766,444,7370.0,-79.55292510986328,-1329,9973.0
5190,0.2978837788105011,15.131782531738281,80,7370.0,-83.24205017089844,-1235,9973.0
5200,0.2974049746990204,-4.948382377624512,-274,7370.0,-87.22632598876953,-1267,9973.0
5210,0.2976243495941162,-21.013906478881836,-456,7370.0,-91.20471954345703,-1440,9973.0
5220,0.296548992395401,-33.887054443359375,-711,7370.0,-88.44319915771484,-1364,9973.0
5230,0.2969928979873657,-47.46764373779297,-813,7370.0,-71.56842803955078,-922,9973.0
5240,0.2948000133037567,-47.3443603515625,-710,7370.0,-39.000850677490234,-234,9973.0
5250,0.2954379916191101,-34.343597412109375,-495,7370.0,28.208189010620117,1059,9973.0
5260,0.29913029074668884,-20.003751754760742,-262,7370.0,105.8215560913086,2062,9973.0
5270,0.3007214069366455,0.3180486559867859,86,7370.0,148.5045928955078,2500,9973.0
5280,0.29780861735343933,26.554218292236328,587,7370.0,158.8470458984375,2350,9973.0
5290,0.2990507185459137,43.004207611083984,836,7370.0,137.28884887695312,2151,9973.0
5300,0.2992086410522461,47.86851501464844,653,7370.0,113.40556335449219,1729,9973.0
5310,0.29921460151672363,38.32184600830078,651,7370.0,79.55081176757812,1167,9973.0
5320,0.29992473125457764,27.709257125854492,399,7370.0,36.284297943115234,396,9973.0
5330,0.2961815893650055,8.54616928100586,19,7370.0,-9.69808292388916,-421,9973.0
5340,0.2958521544933319,-3.881528854370117,-90,7370.0,-53.86709976196289,-1024,9973.0
5350,0.2955200672149658,-14.672464370727539,-266,7370.0,-89.42859649658203,-1496,9973.0
5360,0.2946644425392151,-23.420560836791992,-401,7370.0,-106.7529296875,-1700,9973.0
5370,0.291689932346344,-24.591754913330078,-411,7370.0,-112.95387268066406,-1946,9973.0
5380,0.29145875573158264,-23.683313369750977,-326,7370.0,-116.29163360595703,-1988,9973.0
5390,0.2900615334510803,-14.081137657165527,-65,7370.0,-107.48316955566406,-1764,9973.0
5400,0.29009920358657837,2.503736972808838,141,7370.0,-75.28800201416016,-1099,9973.0
5410,0.2885643243789673,9.68273639678955,117,7370.0,-22.9114990234375,-66,9973.0
5420,0.28890371322631836,8.827985763549805,159,7370.0,35.006431579589844,811,9973.0
5430,0.2891744375228882,0.4751051962375641,-30,7370.0,86.66690063476562,1563,9973.0
5440,0.289306640625,-12.451675415039062,-292,7370.0,120.13118743896484,2010,9973.0
5450,0.2890206575393677,-30.954973220825195,-614,7370.0,126.01490020751953,2112,9973.0
5460,0.28530463576316833,-37.20287322998047,-622,7370.0,105.92329406738281,1513,9973.0
5470,0.28433957695961,-31.78329849243164,-465,7370.0,77.23011779785156,1172,9973.0
5480,0.283511221408844,-30.400205612182617,-437,7370.0,55.32014465332031,801,9973.0
5490,0.2827838659286499,-16.85649871826172,-166,7370.0,30.734329223632812,267,9973.0
5500,0.2813973128795624,-3.5029215812683105,-86,7370.0,-0.22936883568763733,-115,9973.0
5510,0.28066113591194153,14.196101188659668,349,7370.0,-26.80660629272461,-555,9973.0
5520,0.28002679347991943,27.787431716918945,472,7370.0,-42.56193923950195,-632,9973.0
5530,0.2791517674922943,30.29709815979004,527,7370.0,-55.03312301635742,-959,9973.0
5540,0.2783767580986023,32.18123245239258,583,7370.0,-67.70932006835938,-1221,9973.0
5550,0.2770709693431854,30.205810546875,529,7370.0,-58.05417251586914,-839,9973.0
5560,0.27656251192092896,19.01713752746582,217,7370.0,-30.631776809692383,-278,9973.0
5570,0.27695396542549133,3.811861276626587,-27,7370.0,12.098861694335938,507,9973.0
5580,0.2766905426979065,-4.148105144500732,-143,7370.0,62.142478942871094,1233,9973.0
5590,0.2755439579486847,-7.269709587097168,-149,7370.0,98.35494995117188,1661,9973.0
5600,0.27530592679977417,2.3054487705230713,123,7370.0,106.9293441772461,1668,9973.0
5610,0.27480512857437134,9.335050582885742,118,7370.0,92.20771789550781,1547,9973.0
5620,0.2750788927078247,9.401800155639648,94,7370.0,79.03116607666016,1029,9973.0
5630,0.2732764780521393,-3.5716092586517334,-104,7370.0,55.46438217163086,792,9973.0
5640,0.2728534936904907,-12.885008811950684,-277,7370.0,25.391796112060547,127,9973.0
5650,0.2721673548221588,-14.636996269226074,-250,7370.0,-16.589908599853516,-393,9973.0
5660,0.2712811827659607,-15.286445617675781,-305,7370.0,-50.51995086669922,-1023,9973.0
5670,0.2701569199562073,-16.999937057495117,-254,7370.0,-74.67572784423828,-1195,9973.0
5680,0.26783448457717896,-8.085485458374023,-106,7370.0,-87.81497955322266,-1574,9973.0
5690,0.2661465108394623,-2.85040545463562,40,7370.0,-93.04737854003906,-1517,9973.0
5700,0.26606544852256775,2.2987709045410156,31,7370.0,-87.08988952636719,-1316,9973.0
5710,0.2658099830150604,5.804351329803467,82,7370.0,-80.3347396850586,-1247,9973.0
5720,0.2641603648662567,7.7262067794799805,144,7370.0,-57.51169204711914,-806,9973.0
5730,0.2639616131782532,2.924948215484619,74,7370.0,-6.544201374053955,163,9973.0
5740,0.2642289698123932,-1.5220057964324951,-87,7370.0,63.294525146484375,1389,9973.0
5750,0.26439034938812256,-3.837388515472412,-92,7370.0,112.11534118652344,1968,9973.0
5760,0.2654077708721161,0.9548231959342957,55,7370.0,128.44895935058594,2043,9973.0
5770,0.264855295419693,12.16280460357666,329,7370.0,117.37826538085938,1874,9973.0
5780,0.26549243927001953,18.38157081604004,253,7370.0,96.83769989013672,1395,9973.0
5790,0.26529642939567566,13.739022254943848,202,7370.0,66.70427703857422,925,9973.0
5800,0.2650303244590759,10.729619026184082,196,7370.0,26.60806655883789,154,9973.0
5810,0.2688234746456146,1.9996066093444824,-77,7370.0,-1.5734204053878784,-150,9973.0
5820,0.2690667510032654,-14.426907539367676,-257,7370.0,-18.53515625,-409,9973.0
5830,0.2688581645488739,-27.732595443725586,-577,7370.0,-34.52433776855469,-633,9973.0
5840,0.2689920663833618,-32.300941467285156,-465,7370.0,-44.00754928588867,-760,9973.0
5850,0.2710346281528473,-31.96402359008789,-565,7370.0,-50.20867156982422,-821,9973.0
5860,0.27107807993888855,-31.35476303100586,-444,7370.0,-54.512088775634766,-1028,9973.0
5870,0.2718495726585388,-25.463300704956055,-392,7370.0,-52.51730728149414,-640,9973.0
5880,0.2721235454082489,-16.436542510986328,-232,7370.0,-31.894641876220703,-337,9973.0
5890,0.27348896861076355,-5.573675155639648,-59,7370.0,5.055032730102539,201,9973.0
5900,0.27409374713897705,3.529804229736328,143,7370.0,31.031753540039062,804,9973.0
5910,0.2746332287788391,10.509503364562988,181,7370.0,55.56708908081055,858,9973.0
5920,0.2757057845592499,9.225096702575684,133,7370.0,60.1951904296875,1013,9973.0
5930,0.2767445147037506,-3.896566390991211,-27,7370.0,60.325660705566406,961,9973.0
5940,0.2770369350910187,-6.845285892486572,-154,7370.0,44.99961853027344,660,9973.0
5950,0.278096079826355,-0.8206061720848083,124,7370.0,27.883699417114258,336,9973.0
5960,0.2787649929523468,7.110676288604736,58,7370.0,8.296454429626465,72,9973.0
5970,0.2794106900691986,1.6528849601745605,91,7370.0,-9.152936935424805,-300,9973.0
5980,0.2798762619495392,-5.358399868011475,-199,7370.0,-25.4403133392334,-429,9973.0
5990,0.2802801728248596,-9.087946891784668,-167,7370.0,-34.568138122558594,-617,9973.0
6000,0.28051692247390747,-8.751325607299805,-111,7370.0,-40.79926681518555,-613,9973.0
6010,0.28068938851356506,-0.828876256942749,-44,7370.0,-43.51947021484375,-758,9973.0
6020,0.28082889318466187,6.629659652709961,212,7370.0,-44.078956604003906,-726,9973.0
6030,0.27928870916366577,17.577892303466797,359,7370.0,-41.74502944946289,-595,9973.0
6040,0.2796519696712494,34.37145233154297,550,7370.0,-34.204078674316406,-475,9973.0
6050,0.27997004985809326,42.7518424987793,748,7370.0,-12.200716972351074,-79,9973.0
6060,0.2807806432247162,43.791168212890625,713,7370.0,24.46825408935547,519,9973.0
6070,0.2797077000141144,27.250335693359375,366,7370.0,56.33149337768555,1021,9973.0
6080,0.2803265154361725,11.449578285217285,112,7370.0,75.3806381225586,1371,9973.0
6090,0.2805738151073456,4.140419960021973,-26,7370.0,78.55309295654297,1174,9973.0
6100,0.2808440625667572,-0.6499231457710266,58,7370.0,57.146644592285156,765,9973.0
6110,0.281218558549881,-1.5241577625274658,-101,7370.0,25.880704879760742,306,9973.0
6120,0.27721717953681946,-5.559016227722168,-91,7370.0,-6.916550636291504,-416,9973.0
6130,0.2767273485660553,-14.18832778930664,-226,7370.0,-44.07029342651367,-785,9973.0
6140,0.27602240443229675,-20.5809268951416,-388,7370.0,-68.71397399902344,-1207,9973.0
6150,0.27603545784950256,-20.139698028564453,-247,7370.0,-76.96438598632812,-1317,9973.0
6160,0.27352556586265564,-10.452092170715332,-118,7370.0,-79.65625,-1213,9973.0
6170,0.27288076281547546,-1.5649583339691162,-37,7370.0,-75.76964569091797,-1206,9973.0
6180,0.27263760566711426,3.7834091186523438,133,7370.0,-68.32877349853516,-1141,9973.0
6190,0.2712653875350952,9.944661140441895,252,7370.0,-59.64711380004883,-897,9973.0
6200,0.272986501455307,13.590588569641113,232,7370.0,-35.30851364135742,-372,9973.0
6210,0.26952463388442993,29.0737361907959,498,7370.0,11.957137107849121,566,9973.0
6220,0.27073416113853455,49.264854431152344,803,7370.0,62.61011505126953,1164,9973.0
6230,0.27119413018226624,49.147640228271484,738,7370.0,90.13347625732422,1446,9973.0
6240,0.27291712164878845,20.190153121948242,241,7370.0,97.33320617675781,1593,9973.0
6250,0.27023252844810486,-19.42335319519043,-521,7370.0,93.97052764892578,1630,9973.0
6260,0.2704412639141083,-41.343563079833984,-681,7370.0,93.93592071533203,1321,9973.0
6270,0.2706182897090912,-33.75405502319336,-452,7370.0,69.21456146240234,1102,9973.0
6280,0.27232447266578674,-16.651769638061523,-272,7370.0,40.33932113647461,359,9973.0
6290,0.27129149436950684,-5.53086519241333,-100,7370.0,-10.23714828491211,-312,9973.0
6300,0.271228164434433,-4.809441089630127,-10,7370.0,-50.201271057128906,-1097,9973.0
6310,0.2709830701351166,-6.784425258636475,-233,7370.0,-85.93434143066406,-1454,9973.0
6320,0.2711649537086487,-1.9078782796859741,89,7370.0,-103.71195983886719,-1847,9973.0
6330,0.27075308561325073,6.383820533752441,105,7370.0,-115.10112762451172,-1825,9973.0
6340,0.2680644989013672,10.378469467163086,196,7370.0,-110.20716857910156,-1791,9973.0
6350,0.2676221430301666,12.828893661499023,223,7370.0,-90.93781280517578,-1385,9973.0
6360,0.2700505256652832,8.556248664855957,104,7370.0,-68.15418243408203,-848,9973.0
6370,0.2707388401031494,3.58665132522583,-31,7370.0,-20.434972763061523,-167,9973.0
6380,0.26883557438850403,-8.014103889465332,-149,7370.0,26.08558464050293,679,9973.0
6390,0.2705685794353485,-21.208545684814453,-378,7370.0,75.42164611816406,1342,9973.0
6400,0.27107924222946167,-29.375139236450195,-563,7370.0,97.03825378417969,1720,9973.0
6410,0.2731513977050781,-33.5249137878418,-537,7370.0,104.45753479003906,1609,9973.0
6420,0.2710510194301605,-27.38578224182129,-376,7370.0,90.49104309082031,1364,9973.0
6430,0.2719249129295349,-6.582794666290283,-38,7370.0,65.4538803100586,867,9973.0
6440,0.2733064889907837,18.692401885986328,368,7370.0,38.208518981933594,511,9973.0
6450,0.273935467004776,29.255334854125977,501,7370.0,9.399380683898926,-121,9973.0
6460,0.2754763662815094,27.392898559570312,396,7370.0,-21.0484561920166,-477,9973.0
6470,0.2761465311050415,19.05621910095215,202,7370.0,-48.19071960449219,-946,9973.0
6480,0.2770758867263794,7.650918006896973,96,7370.0,-60.788822174072266,-1007,9973.0
6490,0.2777118980884552,1.3889867067337036,-55,7370.0,-60.74345397949219,-837,9973.0
6500,0.2782905697822571,-2.1432859897613525,-115,7370.0,-43.65633010864258,-529,9973.0
6510,0.2768212854862213,-8.222962379455566,-231,7370.0,-2.935173988342285,226,9973.0
6520,0.2785344421863556,-18.544954299926758,-206,7370.0,49.103538513183594,1034,9973.0
6530,0.27948686480522156,-17.086034774780273,-246,7370.0,84.96218872070312,1492,9973.0
6540,0.2806203067302704,-11.816991806030273,-190,7370.0,93.70771789550781,1546,9973.0
6550,0.2814168632030487,-2.36484956741333,25,7370.0,83.97750854492188,1112,9973.0
6560,0.28187090158462524,9.70702838897705,205,7370.0,55.18526840209961,747,9973.0
6570,0.28250759840011597,14.067153930664062,148,7370.0,19.637754440307617,217,9973.0
6580,0.28303757309913635,14.303352355957031,321,7370.0,-12.06903076171875,-414,9973.0
6590,0.28362274169921875,12.240678787231445,212,7370.0,-40.77460861206055,-785,9973.0
6600,0.2834811508655548,7.0577392578125,41,7370.0,-59.2183723449707,-919,9973.0
6610,0.2838468551635742,2.611436128616333,-8,7370.0,-66.00201416015625,-1124,9973.0
6620,0.2839899957180023,-2.986215353012085,-38,7370.0,-66.78962707519531,-1115,9973.0
6630,0.2843361496925354,-6.049593448638916,-104,7370.0,-62.11293029785156,-1011,9973.0
6640,0.2843433916568756,-22.204975128173828,-447,7370.0,-44.629356384277344,-623,9973.0
6650,0.2853778600692749,-42.60361862182617,-789,7370.0,-14.598048210144043,-27,9973.0
6660,0.28638148307800293,-54.86282730102539,-1035,7370.0,19.22301483154297,526,9973.0
6670,0.2870584726333618,-55.3729248046875,-813,7370.0,50.400455474853516,825,9973.0
6680,0.28825056552886963,-27.001794815063477,-208,7370.0,67.03958892822266,1116,9973.0
6690,0.28743627667427063,15.038739204406738,382,7370.0,64.60645294189453,1079,9973.0
6700,0.2879432737827301,54.80923843383789,1102,7370.0,56.8262939453125,791,9973.0
6710,0.2884201109409332,73.92752838134766,1116,7370.0,36.08718490600586,562,9973.0
6720,0.28881189227104187,58.49138259887695,845,7370.0,5.775838375091553,-151,9973.0
6730,0.28997042775154114,27.896778106689453,326,7370.0,-24.976741790771484,-446,9973.0
6740,0.29055383801460266,2.6324973106384277,-66,7370.0,-39.493934631347656,-606,9973.0
6750,0.2910677492618561,-9.153489112854004,-198,7370.0,-50.604312896728516,-982,9973.0
6760,0.29152849316596985,-15.702417373657227,-227,7370.0,-53.30891799926758,-858,9973.0
6770,0.29234790802001953,-14.494573593139648,-227,7370.0,-45.28108596801758,-587,9973.0
6780,0.29374054074287415,-11.507148742675781,-287,7370.0,-25.95607566833496,-307,9973.0
6790,0.29490163922309875,-20.47501564025879,-434,7370.0,-2.2882964611053467,-2,9973.0
6800,0.29609543085098267,-37.85561752319336,-609,7370.0,20.31150245666504,368,9973.0
6810,0.2972060441970825,-47.51932144165039,-819,7370.0,30.150535583496094,637,9973.0
6820,0.29744744300842285,-46.2321662902832,-789,7370.0,40.0630989074707,645,9973.0
6830,0.2984022796154022,-34.63008117675781,-411,7370.0,50.20307922363281,766,9973.0
6840,0.2996799349784851,-8.99346923828125,-76,7370.0,46.758907318115234,737,9973.0
6850,0.3012019991874695,18.851608276367188,463,7370.0,33.05329132080078,413,9973.0
6860,0.3008398115634918,39.58525085449219,616,7370.0,3.3923730850219727,-7,9973.0
6870,0.30181124806404114,37.99699020385742,630,7370.0,-23.909578323364258,-686,9973.0
6880,0.3025303781032562,35.90614318847656,558,7370.0,-49.56063461303711,-824,9973.0
6890,0.30355849862098694,37.42392349243164,587,7370.0,-57.26872253417969,-879,9973.0
6900,0.3040972352027893,43.370277404785156,735,7370.0,-51.03645324707031,-806,9973.0
6910,0.3021407723426819,44.81763458251953,746,7370.0,-39.87923812866211,-599,9973.0
6920,0.3029482662677765,41.31318283081055,638,7370.0,-25.1091365814209,-293,9973.0
6930,0.3044641315937042,34.81580352783203,442,7370.0,-11.560585021972656,-48,9973.0
6940,0.3057372272014618,6.480743408203125,-46,7370.0,-0.8978806138038635,60,9973.0
6950,0.3041534423828125,-20.256858825683594,-461,7370.0,8.78923225402832,183,9973.0
6960,0.3051338493824005,-33.05765151977539,-462,7370.0,25.939640045166016,457,9973.0
6970,0.30609840154647827,-29.21463394165039,-433,7370.0,44.67716598510742,753,9973.0
6980,0.30711251497268677,-29.65859031677246,-533,7370.0,46.73466873168945,759,9973.0
6990,0.3078649938106537,-26.248027801513672,-392,7370.0,33.12400436401367,437,9973.0
7000,0.30544769763946533,-10.6389741897583,27,7370.0,35.77262878417969,549,9973.0
7010,0.3060685396194458,15.306951522827148,310,7370.0,23.167268753051758,242,9973.0
7020,0.30653655529022217,39.57494354248047,789,7370.0,-6.748146057128906,-278,9973.0
7030,0.30689698457717896,54.49740982055664,903,7370.0,-23.933805465698242,-368,9973.0
7040,0.30454230308532715,49.11714172363281,710,7370.0,-33.856285095214844,-637,9973.0
7050,0.30493393540382385,29.597171783447266,371,7370.0,-49.82643127441406,-919,9973.0
7060,0.3050415515899658,12.959019660949707,259,7370.0,-56.60678482055664,-993,9973.0
7070,0.3046795427799225,6.13139009475708,105,7370.0,-58.57146453857422,-983,9973.0
7080,0.3024095594882965,-1.0732476711273193,-47,7370.0,-54.66791534423828,-885,9973.0
7090,0.3022100329399109,-7.214032173156738,-224,7370.0,-47.93814468383789,-713,9973.0
7100,0.302031010389328,-16.889251708984375,-454,7370.0,-41.407840728759766,-506,9973.0
7110,0.30174851417541504,-26.916635513305664,-503,7370.0,-35.47905349731445,-448,9973.0
7120,0.3018428385257721,-25.434921264648438,-400,7370.0,-7.694241523742676,54,9973.0
7130,0.2987801432609558,-20.5546932220459,-264,7370.0,28.657033920288086,580,9973.0
7140,0.29827699065208435,-18.37822723388672,-123,7370.0,46.80342102050781,901,9973.0
7150,0.2980802059173584,-2.419950485229492,34,7370.0,64.24345397949219,1251,9973.0
7160,0.29729220271110535,15.78328800201416,387,7370.0,78.52576446533203,1173,9973.0
7170,0.29617762565612793,35.942203521728516,641,7370.0,67.37802124023438,1079,9973.0
7180,0.29603898525238037,32.883304595947266,422,7370.0,44.390228271484375,466,9973.0
7190,0.2951551079750061,13.692167282104492,106,7370.0,12.600448608398438,11,9973.0
7200,0.294670432806015,-5.298805236816406,-230,7370.0,-23.243091583251953,-607,9973.0
7210,0.29443657398223877,-21.259933471679688,-311,7370.0,-43.48716735839844,-872,9973.0
7220,0.29216623306274414,-22.701494216918945,-395,7370.0,-56.6431999206543,-826,9973.0
7230,0.2913987934589386,-18.298704147338867,-238,7370.0,-62.06427001953125,-1150,9973.0
7240,0.2906263768672943,-10.819389343261719,-86,7370.0,-75.01165008544922,-1347,9973.0
7250,0.29042571783065796,-4.701296329498291,-96,7370.0,-80.67465209960938,-1190,9973.0
7260,0.2909129559993744,-7.1413469314575195,-178,7370.0,-66.4758071899414,-995,9973.0
7270,0.29067420959472656,-14.836590766906738,-211,7370.0,-30.907724380493164,-299,9973.0
7280,0.29065853357315063,-20.01670265197754,-403,7370.0,28.017330169677734,890,9973.0
7290,0.2908904552459717,-14.053707122802734,-247,7370.0,69.1917724609375,1151,9973.0
7300,0.2902597188949585,-5.375979900360107,9,7370.0,71.1059341430664,1153,9973.0
7310,0.2901584208011627,4.883762836456299,13,7370.0,55.964778900146484,871,9973.0
7320,0.29020845890045166,2.3802456855773926,80,7370.0,35.04280471801758,473,9973.0
7330,0.2901608943939209,-7.342279434204102,-249,7370.0,12.072509765625,67,9973.0
7340,0.29047730565071106,-13.77935791015625,-170,7370.0,-4.524338722229004,-131,9973.0
7350,0.2915949523448944,-15.801267623901367,-308,7370.0,-20.21678352355957,-443,9973.0
7360,0.2918730676174164,-12.897605895996094,-126,7370.0,-35.17800521850586,-607,9973.0
7370,0.2922188639640808,-9.290508270263672,-232,7370.0,-35.61577224731445,-622,9973.0
7380,0.2926967144012451,-7.255548000335693,-3,7370.0,-28.834280014038086,-436,9973.0
7390,0.29555022716522217,-3.6937673091888428,-145,7370.0,-24.015037536621094,-397,9973.0
7400,0.2964684069156647,-6.703361988067627,-27,7370.0,-18.931224822998047,-278,9973.0
7410,0.29767075181007385,4.979928970336914,177,7370.0,-9.17734146118164,2,9973.0
7420,0.29933393001556396,30.428056716918945,604,7370.0,14.339883804321289,282,9973.0
7430,0.30114245414733887,47.432369232177734,830,7370.0,42.267425537109375,773,9973.0
7440,0.30679717659950256,48.128143310546875,763,7370.0,54.37136459350586,972,9973.0
7450,0.30847808718681335,42.54296875,579,7370.0,56.1676025390625,872,9973.0
7460,0.31000399589538574,22.320125579833984,359,7370.0,59.611087799072266,919,9973.0
7470,0.31325945258140564,3.0158727169036865,33,7370.0,64.59170532226562,1160,9973.0
7480,0.31602972745895386,-5.640455722808838,-176,7370.0,61.152313232421875,967,9973.0
7490,0.3177453279495239,-19.612380981445312,-332,7370.0,42.87976837158203,466,9973.0
7500,0.31944307684898376,-30.925457000732422,-556,7370.0,3.966292142868042,-64,9973.0
7510,0.32112956047058105,-42.54500961303711,-774,7370.0,-36.30482864379883,-740,9973.0
7520,0.3241400420665741,-42.19345474243164,-616,7370.0,-54.66175842285156,-1040,9973.0
7530,0.3254354000091553,-29.949413299560547,-404,7370.0,-65.9886703491211,-1046,9973.0
7540,0.3267253041267395,-16.222942352294922,-241,7370.0,-70.43346405029297,-1118,9973.0
7550,0.3292587399482727,3.594912052154541,159,7370.0,-67.60196685791016,-1182,9973.0
7560,0.3304169476032257,19.065309524536133,466,7370.0,-63.62752151489258,-970,9973.0
7570,0.33145272731781006,29.173376083374023,560,7370.0,-35.54513931274414,-436,9973.0
7580,0.3331625461578369,34.58107376098633,591,7370.0,-15.59814167022705,-149,9973.0
7590,0.3346306383609772,44.77398681640625,736,7370.0,2.6272618770599365,133,9973.0
7600,0.3360539674758911,42.742008209228516,606,7370.0,28.111003875732422,624,9973.0
7610,0.3366919457912445,24.63779067993164,276,7370.0,54.81372833251953,1027,9973.0
7620,0.3375004231929779,-3.2970917224884033,-223,7370.0,63.49638748168945,1052,9973.0
7630,0.3384310007095337,-26.954425811767578,-652,7370.0,65.62786102294922,1077,9973.0
7640,0.3387255370616913,-41.29137420654297,-771,7370.0,49.7305908203125,770,9973.0
7650,0.33904117345809937,-47.97719955444336,-796,7370.0,27.738618850708008,272,9973.0
7660,0.33816006779670715,-47.62274932861328,-714,7370.0,1.668791651725769,-183,9973.0
7670,0.3381749391555786,-41.023597717285156,-584,7370.0,-30.8065242767334,-469,9973.0
7680,0.3380039632320404,-24.992040634155273,-397,7370.0,-50.45108413696289,-847,9973.0
7690,0.33751600980758667,-10.181520462036133,-37,7370.0,-63.41228103637695,-1110,9973.0
7700,0.33666449785232544,7.899315357208252,270,7370.0,-72.89080810546875,-1263,9973.0
7710,0.3364635109901428,27.89790916442871,533,7370.0,-75.57221984863281,-1162,9973.0
7720,0.3358183801174164,43.595359802246094,697,7370.0,-65.8575210571289,-905,9973.0
7730,0.335239976644516,52.7714958190918,835,7370.0,-45.598907470703125,-540,9973.0
7740,0.33434394001960754,52.483795166015625,779,7370.0,-15.40186595916748,-2,9973.0
7750,0.33411261439323425,38.66108322143555,652,7370.0,15.442380905151367,458,9973.0
7760,0.3332447111606598,26.07816505432129,308,7370.0,46.941131591796875,1116,9973.0
7770,0.33227208256721497,9.54416561126709,116,7370.0,75.53533935546875,1410,9973.0
7780,0.33107855916023254,-5.048607349395752,-229,7370.0,84.92488861083984,1346,9973.0
7790,0.33014872670173645,-21.186471939086914,-393,7370.0,74.99369812011719,1081,9973.0
7800,0.3290434777736664,-31.78434944152832,-512,7370.0,50.66477584838867,672,9973.0
7810,0.32730597257614136,-28.762418746948242,-511,7370.0,15.47486686706543,-21,9973.0
7820,0.3262183666229248,-27.809125900268555,-394,7370.0,-22.6396541595459,-542,9973.0
7830,0.32356905937194824,-22.19563865661621,-375,7370.0,-53.326210021972656,-1091,9973.0
7840,0.3222644031047821,-11.02480697631836,-4,7370.0,-74.48363494873047,-1341,9973.0
7850,0.32086822390556335,6.24031400680542,189,7370.0,-88.95927429199219,-1477,9973.0
7860,0.3192453682422638,17.955116271972656,360,7370.0,-95.73553466796875,-1705,9973.0
7870,0.31784069538116455,25.652469635009766,474,7370.0,-96.34954071044922,-1438,9973.0
7880,0.3178246021270752,27.934749603271484,483,7370.0,-71.75668334960938,-932,9973.0
7890,0.31703808903694153,39.55171203613281,601,7370.0,-38.76791763305664,-383,9973.0
7900,0.3161996901035309,38.962989807128906,581,7370.0,5.025703430175781,296,9973.0
7910,0.3157946467399597,16.932315826416016,249,7370.0,51.412540435791016,943,9973.0
7920,0.31392309069633484,-10.187634468078613,-250,7370.0,86.65251159667969,1540,9973.0
7930,0.31309157609939575,-35.42618942260742,-637,7370.0,102.18597412109375,1745,9973.0
7940,0.3118726909160614,-43.54436111450195,-713,7370.0,103.56439971923828,1564,9973.0
7950,0.3103604018688202,-37.42999267578125,-561,7370.0,82.50395202636719,1317,9973.0
7960,0.3113870620727539,-21.488121032714844,-239,7370.0,52.83491134643555,659,9973.0
7970,0.3105902075767517,-7.866008281707764,-124,7370.0,15.279499053955078,-13,9973.0
7980,0.3105489909648895,4.510981559753418,183,7370.0,-23.4071102142334,-414,9973.0
7990,0.31055349111557007,17.17928695678711,370,7370.0,-59.859188079833984,-1192,9973.0
8000,0.31031736731529236,25.782350540161133,352,7370.0,-88.04532623291016,-1471,9973.0
8010,0.3117233216762543,20.812742233276367,332,7370.0,-102.97661590576172,-1727,9973.0
8020,0.31163161993026733,1.9280027151107788,-79,7370.0,-102.73319244384766,-1574,9973.0
8030,0.3120579421520233,-18.265213012695312,-400,7370.0,-80.3309326171875,-1201,9973.0
8040,0.31353288888931274,-29.03964614868164,-448,7370.0,-37.32299041748047,-433,9973.0
8050,0.31293630599975586,-21.667984008789062,-224,7370.0,17.642316818237305,528,9973.0
8060,0.31363949179649353,6.318277835845947,174,7370.0,52.07566452026367,978,9973.0
8070,0.31430211663246155,29.594219207763672,602,7370.0,72.63731384277344,1216,9973.0
8080,0.31469467282295227,31.768718719482422,432,7370.0,92.0914535522461,1637,9973.0
8090,0.3159743845462799,15.358375549316406,110,7370.0,88.03937530517578,1253,9973.0
8100,0.31659987568855286,-3.138829231262207,-77,7370.0,73.56299591064453,1181,9973.0
8110,0.3170967996120453,-16.103517532348633,-408,7370.0,61.8183479309082,938,9973.0
8120,0.3188320994377136,-16.080076217651367,-173,7370.0,34.33407974243164,366,9973.0
8130,0.3196547031402588,-8.964603424072266,-212,7370.0,-8.624028205871582,-364,9973.0
8140,0.3236514627933502,-10.719114303588867,-117,7370.0,-60.61476516723633,-1157,9973.0
8150,0.32475775480270386,-13.099534034729004,-253,7370.0,-88.96316528320312,-1468,9973.0
8160,0.32652828097343445,-23.706525802612305,-420,7370.0,-80.21383666992188,-1230,9973.0
8170,0.32734760642051697,-30.757780075073242,-443,7370.0,-47.88016891479492,-650,9973.0
8180,0.3305851221084595,-33.517662048339844,-559,7370.0,-9.504337310791016,95,9973.0
8190,0.33196818828582764,-27.874164581298828,-470,7370.0,21.353239059448242,410,9973.0
8200,0.33340761065483093,-21.524349212646484,-217,7370.0,38.87801742553711,608,9973.0
8210,0.3347306251525879,-0.8334332704544067,97,7370.0,51.0682373046875,960,9973.0
8220,0.3360271155834198,14.353424072265625,230,7370.0,57.19648742675781,944,9973.0
8230,0.33846819400787354,25.168285369873047,436,7370.0,39.54401779174805,508,9973.0
8240,0.339726060628891,31.310962677001953,607,7370.0,19.759971618652344,188,9973.0
8250,0.3411509096622467,29.38170051574707,450,7370.0,8.23068904876709,141,9973.0
8260,0.34226328134536743,20.304040908813477,252,7370.0,4.265692234039307,124,9973.0
8270,0.3429582118988037,12.845486640930176,101,7370.0,-3.8969831466674805,-28,9973.0
8280,0.34430408477783203,2.028404712677002,-94,7370.0,-20.409597396850586,-373,9973.0
8290,0.3455392122268677,-22.2578125,-531,7370.0,-38.00165939331055,-641,9973.0
8300,0.3468811511993408,-36.576499938964844,-572,7370.0,-41.00651931762695,-575,9973.0
8310,0.34754177927970886,-37.29939651489258,-564,7370.0,-21.690500259399414,-238,9973.0
8320,0.3488321304321289,-30.392024993896484,-473,7370.0,-1.6718674898147583,88,9973.0
8330,0.3500455915927887,-23.232616424560547,-352,7370.0,19.45068359375,387,9973.0
8340,0.350927472114563,-15.051591873168945,-146,7370.0,32.948402404785156,641,9973.0
8350,0.3515247404575348,-2.753624677658081,-3,7370.0,37.365840911865234,525,9973.0
8360,0.35004404187202454,-2.771696090698242,14,7370.0,29.453588485717773,396,9973.0
8370,0.3502994775772095,-10.115662574768066,-125,7370.0,17.09825325012207,199,9973.0
8380,0.35016873478889465,-16.609947204589844,-270,7370.0,8.108071327209473,104,9973.0
8390,0.3502279222011566,-18.471038818359375,-367,7370.0,1.289928674697876,95,9973.0
8400,0.34902337193489075,-14.516371726989746,-277,7370.0,-2.996704578399658,-29,9973.0
8410,0.34857794642448425,-1.9618110656738281,-6,7370.0,-19.16588020324707,-445,9973.0
8420,0.3482346534729004,19.458498001098633,459,7370.0,-45.5977783203125,-953,9973.0
8430,0.3477354049682617,43.857181549072266,896,7370.0,-64.07471466064453,-1229,9973.0
8440,0.34714475274086,61.181453704833984,1115,7370.0,-78.59092712402344,-1335,9973.0
8450,0.34543636441230774,72.75135040283203,1179,7370.0,-75.49636840820312,-1014,9973.0
8460,0.3445487916469574,66.02345275878906,883,7370.0,-35.887569427490234,-213,9973.0
8470,0.3444710373878479,33.720401763916016,241,7370.0,17.97772789001465,589,9973.0
8480,0.34402650594711304,-0.7014818787574768,-250,7370.0,50.384613037109375,1130,9973.0
8490,0.34142163395881653,-19.597787857055664,-486,7370.0,73.72537231445312,1368,9973.0
8500,0.3402342200279236,-25.258350372314453,-307,7370.0,84.21714782714844,1202,9973.0
8510,0.33876264095306396,-5.991092205047607,117,7370.0,71.78480529785156,1083,9973.0
8520,0.33744722604751587,10.494319915771484,163,7370.0,50.073646545410156,702,9973.0
8530,0.33496367931365967,9.804533004760742,134,7370.0,16.99641990661621,15,9973.0
8540,0.3335406482219696,9.458756446838379,205,7370.0,-6.450698375701904,-238,9973.0
8550,0.33211877942085266,4.121275424957275,30,7370.0,-18.50368309020996,-327,9973.0
8560,0.3305981159210205,-9.878305435180664,-272,7370.0,-22.010459899902344,-324,9973.0
8570,0.329124391078949,-20.481950759887695,-294,7370.0,-29.418264389038086,-609,9973.0
8580,0.3275795578956604,-20.98548126220703,-320,7370.0,-39.6070671081543,-571,9973.0
8590,0.32617175579071045,-14.035333633422852,-255,7370.0,-39.652549743652344,-647,9973.0
8600,0.32492777705192566,-7.234304904937744,-89,7370.0,-33.186092376708984,-544,9973.0
8610,0.3234952390193939,-8.444314002990723,-95,7370.0,-15.81506633758545,-93,9973.0
8620,0.3229611814022064,-1.1271320581436157,-41,7370.0,8.634429931640625,282,9973.0
8630,0.32181257009506226,9.059579849243164,242,7370.0,41.852535247802734,761,9973.0
8640,0.320614218711853,30.125038146972656,607,7370.0,64.93834686279297,1202,9973.0
8650,0.3189252018928528,39.1463508605957,541,7370.0,76.93892669677734,1220,9973.0
8660,0.3195013403892517,24.228918075561523,327,7370.0,71.17505645751953,1247,9973.0
8670,0.31557023525238037,10.164697647094727,54,7370.0,57.2131233215332,640,9973.0
8680,0.3154919743537903,-5.818681716918945,-136,7370.0,18.814241409301758,140,9973.0
8690,0.3156203031539917,-15.762397766113281,-196,7370.0,-32.5477180480957,-704,9973.0
8700,0.3154110610485077,-24.590347290039062,-494,7370.0,-68.8349380493164,-1324,9973.0
8710,0.3144906759262085,-17.58405876159668,-148,7370.0,-94.45281219482422,-1573,9973.0
8720,0.3141809403896332,-0.024790745228528976,9,7370.0,-113.59165954589844,-2006,9973.0
8730,0.31309816241264343,13.334612846374512,259,7370.0,-124.23240661621094,-1944,9973.0
8740,0.31686320900917053,17.384658813476562,292,7370.0,-106.07941436767578,-1690,9973.0
8750,0.31550726294517517,12.004318237304688,170,7370.0,-65.08246612548828,-760,9973.0
8760,0.31663355231285095,7.654537200927734,52,7370.0,-16.84773063659668,-86,9973.0
8770,0.3179718852043152,-4.915379524230957,-138,7370.0,30.553348541259766,649,9973.0
8780,0.3195810616016388,-14.486013412475586,-240,7370.0,72.07523345947266,1366,9973.0
8790,0.3208055794239044,-18.138826370239258,-351,7370.0,93.40341186523438,1574,9973.0
8800,0.32043030858039856,-22.187820434570312,-339,7370.0,100.0971908569336,1600,9973.0
8810,0.3216704726219177,-29.48365592956543,-542,7370.0,83.35926055908203,1200,9973.0
8820,0.32410651445388794,-27.18873405456543,-338,7370.0,48.166412353515625,653,9973.0
8830,0.32600975036621094,-13.451067924499512,-128,7370.0,3.9690182209014893,-175,9973.0
8840,0.3269321918487549,-6.327919006347656,-184,7370.0,-22.865861892700195,-476,9973.0
8850,0.3287124037742615,-7.655505657196045,-108,7370.0,-39.03310775756836,-636,9973.0
8860,0.33055803179740906,-10.104820251464844,-246,7370.0,-52.118404388427734,-990,9973.0
8870,0.33246326446533203,-12.353082656860352,-130,7370.0,-57.34016799926758,-858,9973.0
8880,0.33301687240600586,-4.337660789489746,-35,7370.0,-50.820281982421875,-825,9973.0
8890,0.3349289000034332,6.931355953216553,154,7370.0,-34.05967712402344,-467,9973.0
8900,0.3372488021850586,14.853468894958496,310,7370.0,-7.191041469573975,99,9973.0
8910,0.3392834961414337,20.374507904052734,286,7370.0,29.675193786621094,699,9973.0
8920,0.3412795066833496,18.245908737182617,306,7370.0,68.18051147460938,1134,9973.0
8930,0.33961859345436096,19.189151763916016,391,7370.0,92.66244506835938,1550,9973.0
8940,0.3416752517223358,18.474523544311523,263,7370.0,93.73722839355469,1560,9973.0
8950,0.3429116904735565,14.238259315490723,245,7370.0,75.75277709960938,991,9973.0
8960,0.34455767273902893,17.808494567871094,333,7370.0,44.00343704223633,628,9973.0
8970,0.34489548206329346,20.19609832763672,292,7370.0,10.454777717590332,25,9973.0
8980,0.34604981541633606,11.88672924041748,201,7370.0,-13.698349952697754,-482,9973.0
8990,0.34726482629776,5.027005672454834,86,7370.0,-39.51648712158203,-669,9973.0
9000,0.34818270802497864,4.306598663330078,17,7370.0,-55.01093292236328,-980,9973.0
9010,0.34578660130500793,1.9421656131744385,35,7370.0,-68.91336059570312,-1233,9973.0
9020,0.34620338678359985,-2.855273962020874,12,7370.0,-73.20861053466797,-1233,9973.0
9030,0.3470621109008789,-2.197903633117676,-1,7370.0,-75.7616195678711,-1232,9973.0
9040,0.3473609983921051,-5.51942777633667,-165,7370.0,-67.83220672607422,-998,9973.0
9050,0.34760281443595886,-9.736138343811035,-168,7370.0,-47.35490036010742,-543,9973.0
9060,0.34549564123153687,-7.985937595367432,-130,7370.0,-6.929073333740234,208,9973.0
9070,0.3458639681339264,-7.8038530349731445,-175,7370.0,35.34229278564453,887,9973.0
9080,0.34600797295570374,-1.5928040742874146,-44,7370.0,65.35166931152344,1243,9973.0
9090,0.34583690762519836,0.7707048654556274,-56,7370.0,83.29502868652344,1297,9973.0
9100,0.34505048394203186,-5.66304349899292,-70,7370.0,84.43437957763672,1301,9973.0
9110,0.34573549032211304,-13.271784782409668,-125,7370.0,64.32640838623047,878,9973.0
9120,0.3452800512313843,-8.032561302185059,-86,7370.0,36.142845153808594,450,9973.0
9130,0.34492918848991394,6.3731207847595215,202,7370.0,3.6874279975891113,-167,9973.0
9140,0.34457263350486755,16.1090145111084,346,7370.0,-17.45516014099121,-408,9973.0
9150,0.3424288034439087,18.780893325805664,230,7370.0,-39.313568115234375,-628,9973.0
9160,0.3420580327510834,10.723438262939453,53,7370.0,-55.770938873291016,-1023,9973.0
9170,0.34132301807403564,-4.905139446258545,-198,7370.0,-67.58257293701172,-1182,9973.0
9180,0.3405642807483673,-22.496112823486328,-379,7370.0,-64.75208282470703,-958,9973.0
9190,0.34092339873313904,-19.14446258544922,-243,7370.0,-40.24990463256836,-521,9973.0
9200,0.3403897285461426,-11.70720100402832,-107,7370.0,-1.6561682224273682,134,9973.0
9210,0.339882493019104,0.030771803110837936,42,7370.0,30.584497451782227,693,9973.0
9220,0.3392912447452545,7.553743362426758,66,7370.0,49.992923736572266,866,9973.0
9230,0.33876165747642517,3.3342738151550293,27,7370.0,41.155242919921875,499,9973.0
9240,0.339149534702301,-7.219383716583252,-103,7370.0,27.889972686767578,483,9973.0
9250,0.33895984292030334,-15.614119529724121,-402,7370.0,22.43218994140625,420,9973.0
9260,0.33854547142982483,-33.32302474975586,-601,7370.0,12.39390754699707,96,9973.0
9270,0.33843496441841125,-45.11132049560547,-740,7370.0,2.866506814956665,48,9973.0
9280,0.3376946747303009,-40.15165328979492,-593,7370.0,-6.5502848625183105,-217,9973.0
9290,0.3376581370830536,-17.551807403564453,-121,7370.0,-14.52199935913086,-248,9973.0
9300,0.33776789903640747,14.174386978149414,286,7370.0,-27.331966400146484,-544,9973.0
9310,0.33785751461982727,39.93428421020508,834,7370.0,-30.986034393310547,-421,9973.0
9320,0.3377031981945038,50.93659591674805,709,7370.0,-24.80813217163086,-397,9973.0
9330,0.3379482328891754,28.88068199157715,395,7370.0,-9.290255546569824,-53,9973.0
9340,0.3383427858352661,10.77585220336914,166,7370.0,13.306561470031738,367,9973.0
9350,0.3388819694519043,11.081578254699707,171,7370.0,24.021427154541016,372,9973.0
9360,0.33922675251960754,10.383713722229004,256,7370.0,34.99380111694336,635,9973.0
9370,0.339083194732666,11.010458946228027,142,7370.0,47.06520462036133,906,9973.0
9380,0.3392777740955353,13.641794204711914,207,7370.0,53.386383056640625,778,9973.0
9390,0.3402310907840729,13.584327697753906,225,7370.0,44.31962966918945,707,9973.0
9400,0.34036335349082947,6.486349582672119,-9,7370.0,24.178836822509766,347,9973.0
9410,0.3403906226158142,-6.551626682281494,-120,7370.0,6.199539661407471,-41,9973.0
9420,0.34064751863479614,-19.3548583984375,-354,7370.0,-7.65509033203125,-92,9973.0
9430,0.3409314453601837,-22.441516876220703,-316,7370.0,-19.817852020263672,-523,9973.0
9440,0.34126585721969604,-13.57979965209961,-151,7370.0,-34.48479461669922,-500,9973.0
9450,0.3413032293319702,1.1196118593215942,-12,7370.0,-39.88623809814453,-662,9973.0
9460,0.34154731035232544,10.699727058410645,281,7370.0,-38.47190475463867,-621,9973.0
9470,0.3419526219367981,20.484716415405273,325,7370.0,-34.24232482910156,-471,9973.0
9480,0.34246572852134705,21.951866149902344,328,7370.0,-26.4399356842041,-325,9973.0
9490,0.34317487478256226,20.897085189819336,352,7370.0,-0.2528124749660492,47,9973.0
9500,0.34323176741600037,11.688528060913086,181,7370.0,26.861961364746094,528,9973.0
9510,0.3435728847980499,-6.130935192108154,-141,7370.0,47.65933609008789,888,9973.0
9520,0.34387683868408203,-16.277729034423828,-281,7370.0,55.46219253540039,1001,9973.0
9530,0.3440982699394226,-11.015893936157227,-265,7370.0,50.90262222290039,736,9973.0
9540,0.34259822964668274,-11.34150218963623,-118,7370.0,36.01566696166992,454,9973.0
9550,0.3427784740924835,-15.044708251953125,-343,7370.0,12.813024520874023,167,9973.0
9560,0.3429467976093292,-25.14994239807129,-412,7370.0,-18.80826759338379,-563,9973.0
9570,0.34292441606521606,-27.94803810119629,-425,7370.0,-44.19544982910156,-680,9973.0
9580,0.3428061306476593,-19.6071720123291,-296,7370.0,-54.455345153808594,-933,9973.0
9590,0.342214435338974,-12.194509506225586,-188,7370.0,-56.65789031982422,-954,9973.0
9600,0.3420630693435669,-4.432140827178955,37,7370.0,-56.7606086730957,-881,9973.0
9610,0.3418964743614197,7.947650909423828,143,7370.0,-58.30132293701172,-978,9973.0
9620,0.34175246953964233,21.363174438476562,407,7370.0,-58.48408126831055,-949,9973.0
9630,0.3404829502105713,33.57536315917969,671,7370.0,-34.138877868652344,-414,9973.0
9640,0.3406384289264679,39.814849853515625,647,7370.0,7.301959991455078,309,9973.0
9650,0.3405134677886963,33.90928649902344,461,7370.0,42.83409881591797,943,9973.0
9660,0.3404565751552582,18.10755157470703,161,7370.0,64.90806579589844,1146,9973.0
9670,0.3389624357223511,4.96408748626709,75,7370.0,77.12103271484375,1249,9973.0
9680,0.3387516140937805,-1.5446687936782837,27,7370.0,74.18435668945312,1031,9973.0
9690,0.3385077118873596,-14.557608604431152,-344,7370.0,48.14055252075195,646,9973.0
9700,0.33858656883239746,-27.337949752807617,-447,7370.0,20.14984893798828,126,9973.0
9710,0.33874768018722534,-35.022789001464844,-569,7370.0,-11.439957618713379,-347,9973.0
9720,0.3390543460845947,-26.514892578125,-261,7370.0,-35.80549240112305,-754,9973.0
9730,0.33916640281677246,-9.134737968444824,-173,7370.0,-51.07051086425781,-852,9973.0
9740,0.3392663300037384,3.9166834354400635,199,7370.0,-50.275699615478516,-757,9973.0
9750,0.3394201397895813,13.809066772460938,299,7370.0,-34.46783447265625,-489,9973.0
9760,0.3391510844230652,28.824831008911133,576,7370.0,-32.836368560791016,-627,9973.0
9770,0.339301198720932,43.331844329833984,847,7370.0,-27.58038330078125,-369,9973.0
9780,0.33937153220176697,41.051177978515625,450,7370.0,-15.247549057006836,-46,9973.0
9790,0.3393908739089966,14.143329620361328,-4,7370.0,6.961377143859863,287,9973.0
9800,0.3398800492286682,-8.805849075317383,-216,7370.0,35.69590759277344,663,9973.0
9810,0.33972257375717163,-22.38634490966797,-372,7370.0,49.40852737426758,866,9973.0
9820,0.3398815989494324,-25.965219497680664,-489,7370.0,49.967124938964844,902,9973.0
9830,0.33983781933784485,-28.679903030395508,-464,7370.0,50.23625946044922,650,9973.0
9840,0.3401796817779541,-24.483335494995117,-290,7370.0,36.48906326293945,550,9973.0
9850,0.34255433082580566,-23.380905151367188,-455,7370.0,13.8324556350708,129,9973.0
9860,0.3431462049484253,-25.940874099731445,-440,7370.0,-7.273218631744385,-157,9973.0
9870,0.3437393605709076,-31.565893173217773,-561,7370.0,-13.710593223571777,-203,9973.0
9880,0.34445565938949585,-34.808128356933594,-605,7370.0,-21.728668212890625,-505,9973.0
9890,0.34539562463760376,-36.83320617675781,-550,7370.0,-40.23468780517578,-654,9973.0
9900,0.3447611927986145,-33.19994354248047,-559,7370.0,-39.74201583862305,-633,9973.0
9910,0.3456648886203766,-16.706151962280273,-69,7370.0,-24.899145126342773,-330,9973.0
9920,0.3469266891479492,18.11131477355957,368,7370.0,-1.812169075012207,137,9973.0
9930,0.3480875492095947,33.9669189453125,669,7370.0,23.3962345123291,434,9973.0
9940,0.34873950481414795,49.07433319091797,918,7370.0,44.88811492919922,760,9973.0
9950,0.34975701570510864,51.40493392944336,764,7370.0,53.93537139892578,991,9973.0
9960,0.3508506417274475,39.677127838134766,589,7370.0,47.095821380615234,622,9973.0
9970,0.35198748111724854,17.538419723510742,244,7370.0,26.700340270996094,284,9973.0
9980,0.35347405076026917,-10.909102439880371,-324,7370.0,-0.7614154815673828,-92,9973.0
9990,0.35454484820365906,-42.48985290527344,-870,7370.0,-15.477620124816895,-280,9973.0
10000,0.3554217517375946,-54.33851623535156,-768,7370.0,-24.43097686767578,-583,9973.0
10010,0.3562770187854767,-43.0663948059082,-672,7370.0,-44.2403450012207,-705,9973.0
10020,0.35688623785972595,-37.86865997314453,-607,7370.0,-55.581214904785156,-918,9973.0
10030,0.35627397894859314,-25.4619140625,-311,7370.0,-58.125362396240234,-1037,9973.0
10040,0.35682395100593567,-14.049695014953613,-211,7370.0,-51.46540451049805,-719,9973.0
10050,0.35798394680023193,-3.837700366973877,-93,7370.0,-29.03885269165039,-248,9973.0
10060,0.35903334617614746,12.315269470214844,247,7370.0,5.622272968292236,210,9973.0
10070,0.3575512170791626,24.804670333862305,532,7370.0,36.688350677490234,725,9973.0
10080,0.35830560326576233,42.13262939453125,671,7370.0,51.66289138793945,998,9973.0
10090,0.35880398750305176,45.104820251464844,695,7370.0,60.843109130859375,941,9973.0
10100,0.35910606384277344,45.38084411621094,837,7370.0,54.62506103515625,805,9973.0
10110,0.35885757207870483,48.494197845458984,861,7370.0,46.61079025268555,728,9973.0
10120,0.35857394337654114,55.42918014526367,868,7370.0,28.85881805419922,474,9973.0
10130,0.3588739335536957,53.22249221801758,794,7370.0,3.732982873916626,-77,9973.0
10140,0.3588090240955353,30.454730987548828,382,7370.0,-19.953655242919922,-508,9973.0
10150,0.3589286208152771,-13.823362350463867,-390,7370.0,-47.214046478271484,-955,9973.0
10160,0.35810232162475586,-60.88231658935547,-1121,7370.0,-66.91799926757812,-1005,9973.0
10170,0.3577249050140381,-83.6029052734375,-1478,7370.0,-63.01061248779297,-909,9973.0
10180,0.3580111563205719,-87.15767669677734,-1422,7370.0,-48.78028106689453,-627,9973.0
10190,0.357634961605072,-71.54156494140625,-1087,7370.0,-18.71308135986328,-163,9973.0
10200,0.35588595271110535,-49.00311279296875,-602,7370.0,10.836209297180176,214,9973.0
10210,0.3558880388736725,-21.314537048339844,-178,7370.0,32.430049896240234,620,9973.0
10220,0.3555538058280945,4.951298236846924,157,7370.0,40.321754455566406,743,9973.0
10230,0.3555041253566742,34.14228439331055,755,7370.0,40.57866287231445,620,9973.0
10240,0.3551187813282013,54.21156692504883,959,7370.0,36.781394958496094,613,9973.0
10250,0.35315656661987305,60.645084381103516,886,7370.0,23.463134765625,227,9973.0
10260,0.353590190410614,51.29248046875,901,7370.0,3.1646370887756348,-68,9973.0
10270,0.35211649537086487,41.49345016479492,599,7370.0,-19.1732120513916,-266,9973.0
10280,0.3513812720775604,24.810861587524414,331,7370.0,-30.808063507080078,-563,9973.0
10290,0.34944161772727966,12.21146297454834,151,7370.0,-37.67885971069336,-726,9973.0
10300,0.3489394187927246,0.08466882258653641,34,7370.0,-40.76148986816406,-703,9973.0
10310,0.34837019443511963,-0.748826265335083,-32,7370.0,-46.75020217895508,-732,9973.0
10320,0.3476182818412781,-2.614210367202759,-94,7370.0,-48.155094146728516,-746,9973.0
10330,0.3455957770347595,-4.996306896209717,-92,7370.0,-38.190032958984375,-541,9973.0
10340,0.3458922803401947,4.587169170379639,169,7370.0,2.248368263244629,133,9973.0
10350,0.34573739767074585,8.490997314453125,168,7370.0,41.15869140625,906,9973.0
10360,0.34598487615585327,20.916471481323242,335,7370.0,67.30829620361328,1332,9973.0
10370,0.34581366181373596,24.81631088256836,360,7370.0,83.71879577636719,1378,9973.0
10380,0.3453757166862488,22.282426834106445,416,7370.0,95.22171783447266,1595,9973.0
10390,0.34466925263404846,17.48714256286621,165,7370.0,82.94509887695312,1244,9973.0
10400,0.34406524896621704,3.8579533100128174,35,7370.0,56.28417205810547,646,9973.0
10410,0.3438784182071686,-13.598925590515137,-411,7370.0,20.45474624633789,166,9973.0
10420,0.34327444434165955,-31.642623901367188,-494,7370.0,-14.138400077819824,-543,9973.0
10430,0.34278634190559387,-33.79796600341797,-535,7370.0,-49.253440856933594,-923,9973.0
10440,0.34220752120018005,-21.036314010620117,-199,7370.0,-63.454986572265625,-1076,9973.0
10450,0.3415198028087616,-5.465812683105469,-82,7370.0,-60.783103942871094,-828,9973.0
10460,0.34130823612213135,1.5970226526260376,91,7370.0,-38.44285202026367,-562,9973.0
10470,0.33894726634025574,-4.665750503540039,-170,7370.0,-11.549384117126465,100,9973.0
10480,0.3388287127017975,-18.919599533081055,-363,7370.0,18.97013282775879,335,9973.0
10490,0.3389541208744049,-17.87722396850586,-177,7370.0,36.68855667114258,781,9973.0
10500,0.33906424045562744,1.0101680755615234,85,7370.0,37.596031188964844,597,9973.0
10510,0.3385055661201477,18.06586265563965,427,7370.0,29.952774047851562,505,9973.0
10520,0.33885443210601807,29.909635543823242,454,7370.0,27.336362838745117,424,9973.0
10530,0.3390812575817108,27.1153507232666,458,7370.0,34.97430419921875,645,9973.0
10540,0.3390825092792511,21.073299407958984,275,7370.0,23.824003219604492,166,9973.0
10550,0.3395853042602539,9.851411819458008,86,7370.0,-7.350898742675781,-87,9973.0
10560,0.3396497666835785,-12.074185371398926,-280,7370.0,-19.31633949279785,-513,9973.0
10570,0.33976879715919495,-23.381397247314453,-403,7370.0,-35.2852897644043,-544,9973.0
10580,0.3398633599281311,-26.58098793029785,-491,7370.0,-54.85602569580078,-1064,9973.0
10590,0.3400496542453766,-16.65773582458496,-135,7370.0,-61.25742721557617,-942,9973.0
10600,0.3394935429096222,0.9297240972518921,4,7370.0,-50.389957427978516,-746,9973.0
10610,0.3397544026374817,2.108626365661621,42,7370.0,-36.186920166015625,-581,9973.0
10620,0.3404978811740875,3.2130117416381836,90,7370.0,-15.446049690246582,-47,9973.0
10630,0.34149906039237976,9.872039794921875,114,7370.0,16.968074798583984,416,9973.0
10640,0.3400609791278839,17.84166717529297,337,7370.0,45.65129089355469,699,9973.0
10650,0.34103792905807495,24.24407386779785,465,7370.0,52.931034088134766,963,9973.0
10660,0.34195804595947266,30.784488677978516,437,7370.0,57.29112243652344,910,9973.0
10670,0.3429928421974182,15.803948402404785,198,7370.0,48.744285583496094,732,9973.0
10680,0.34431523084640503,-2.0042953491210938,-68,7370.0,38.612998962402344,712,9973.0
10690,0.34375861287117004,-13.734908103942871,-320,7370.0,29.196136474609375,340,9973.0
10700,0.3446020781993866,-24.15275001525879,-342,7370.0,13.951424598693848,143,9973.0
10710,0.34523820877075195,-30.201465606689453,-548,7370.0,-3.4382216930389404,-122,9973.0
10720,0.34568285942077637,-37.04118347167969,-638,7370.0,-25.097637176513672,-512,9973.0
10730,0.34414491057395935,-38.06528854370117,-571,7370.0,-32.953941345214844,-643,9973.0
10740,0.3443324565887451,-26.283485412597656,-391,7370.0,-46.16276550292969,-692,9973.0
10750,0.3446238934993744,-16.753503799438477,-263,7370.0,-54.70571517944336,-990,9973.0
10760,0.34471896290779114,-13.972660064697266,-154,7370.0,-51.63102722167969,-851,9973.0
10770,0.34343039989471436,-0.6217633485794067,106,7370.0,-37.13387680053711,-439,9973.0
10780,0.34376975893974304,27.236404418945312,525,7370.0,-10.68232250213623,73,9973.0
10790,0.3441900908946991,45.113319396972656,838,7370.0,27.77814483642578,496,9973.0
10800,0.3447383642196655,54.077613830566406,919,7370.0,44.35953903198242,696,9973.0
10810,0.34516823291778564,50.29054641723633,770,7370.0,53.01256561279297,982,9973.0
10820,0.3445701003074646,27.01938819885254,251,7370.0,58.32891845703125,948,9973.0
10830,0.3446080982685089,-7.868922710418701,-299,7370.0,55.83928298950195,823,9973.0
10840,0.3446730375289917,-37.3076171875,-579,7370.0,39.82768249511719,484,9973.0
10850,0.34444037079811096,-43.731563568115234,-763,7370.0,8.340478897094727,50,9973.0
10860,0.3424896001815796,-47.79007339477539,-747,7370.0,-24.584781646728516,-626,9973.0
10870,0.34213465452194214,-44.13523864746094,-740,7370.0,-49.44850540161133,-802,9973.0
10880,0.3418264389038086,-34.537940979003906,-541,7370.0,-59.7613525390625,-1119,9973.0
10890,0.341490775346756,-28.482162475585938,-354,7370.0,-67.4076156616211,-1076,9973.0
10900,0.34126517176628113,-14.462629318237305,-241,7370.0,-59.64588165283203,-902,9973.0
10910,0.3423210084438324,-0.14955759048461914,137,7370.0,-37.88317108154297,-537,9973.0
10920,0.34260043501853943,7.309762477874756,102,7370.0,-3.7609405517578125,217,9973.0
10930,0.3432468771934509,8.431641578674316,108,7370.0,32.259071350097656,525,9973.0
10940,0.343845397233963,15.775532722473145,422,7370.0,50.1421012878418,885,9973.0
10950,0.3434995114803314,34.69648361206055,594,7370.0,60.037757873535156,1005,9973.0
10960,0.34423166513442993,49.748741149902344,859,7370.0,64.30034637451172,983,9973.0
10970,0.3448903560638428,42.91456985473633,643,7370.0,56.0046501159668,922,9973.0
10980,0.345584899187088,23.22125816345215,232,7370.0,37.35634994506836,468,9973.0
10990,0.3444039225578308,14.638583183288574,291,7370.0,20.077186584472656,253,9973.0
11000,0.34517577290534973,4.4009504318237305,-46,7370.0,1.223433256149292,4,9973.0
11010,0.34571948647499084,-14.866841316223145,-347,7370.0,-20.705209732055664,-638,9973.0
11020,0.34639889001846313,-33.53676223754883,-525,7370.0,-46.56705093383789,-797,9973.0
11030,0.34683066606521606,-32.56871032714844,-476,7370.0,-59.740055084228516,-917,9973.0
11040,0.3474019467830658,-18.050567626953125,-216,7370.0,-54.22996520996094,-885,9973.0
11050,0.34791016578674316,-6.916434288024902,-21,7370.0,-46.35256576538086,-713,9973.0
11060,0.3486579954624176,-5.18515157699585,-120,7370.0,-37.47314453125,-513,9973.0
11070,0.3496105372905731,-5.621698379516602,-51,7370.0,-28.923946380615234,-337,9973.0
11080,0.3485395610332489,-2.792027473449707,94,7370.0,-3.9542415142059326,-54,9973.0
11090,0.3493281602859497,4.779672622680664,159,7370.0,5.785515785217285,182,9973.0
11100,0.35012349486351013,13.433632850646973,195,7370.0,16.563644409179688,446,9973.0
11110,0.35109683871269226,21.58539390563965,345,7370.0,31.87437629699707,630,9973.0
11120,0.3521687388420105,28.122501373291016,531,7370.0,54.27976608276367,975,9973.0
11130,0.34863215684890747,28.57191276550293,460,7370.0,71.57425689697266,1203,9973.0
11140,0.34923169016838074,21.07008934020996,244,7370.0,61.388729095458984,905,9973.0
11150,0.34965458512306213,14.168950080871582,135,7370.0,33.97868728637695,403,9973.0
11160,0.35023143887519836,0.6045815944671631,-38,7370.0,10.369101524353027,40,9973.0
11170,0.3493521809577942,-15.820805549621582,-323,7370.0,-7.0519256591796875,-177,9973.0
11180,0.34976765513420105,-32.952884674072266,-658,7370.0,-25.492229461669922,-498,9973.0
11190,0.3498987853527069,-47.12163543701172,-735,7370.0,-49.507259368896484,-999,9973.0
11200,0.34997183084487915,-39.47682571411133,-559,7370.0,-67.82244110107422,-1165,9973.0
11210,0.34780099987983704,-16.15303611755371,-155,7370.0,-78.56990814208984,-1246,9973.0
11220,0.3477821350097656,9.274371147155762,243,7370.0,-74.84144592285156,-1256,9973.0
11230,0.34785476326942444,18.146509170532227,349,7370.0,-55.691062927246094,-786,9973.0
11240,0.3485909104347229,15.036934852600098,159,7370.0,-24.818164825439453,-150,9973.0
11250,0.34868383407592773,6.794224262237549,62,7370.0,7.931902885437012,363,9973.0
11260,0.34687134623527527,5.1642303466796875,-5,7370.0,44.27869415283203,790,9973.0
11270,0.3465639054775238,-12.810734748840332,-262,7370.0,71.62960815429688,1190,9973.0
11280,0.34639284014701843,-32.45012664794922,-531,7370.0,85.64575958251953,1474,9973.0
11290,0.3459051847457886,-29.258407592773438,-451,7370.0,70.96800994873047,975,9973.0
11300,0.34379738569259644,-10.454049110412598,-4,7370.0,34.661376953125,455,9973.0
11310,0.34352144598960876,11.236591339111328,186,7370.0,1.9025667905807495,-66,9973.0
11320,0.34323930740356445,24.19892692565918,509,7370.0,-27.976472854614258,-596,9973.0
11330,0.3425818383693695,21.476736068725586,240,7370.0,-50.69124221801758,-846,9973.0
11340,0.3423693776130676,2.858017921447754,-12,7370.0,-67.59871673583984,-1267,9973.0
11350,0.3411605656147003,-6.619495391845703,-88,7370.0,-80.78728485107422,-1331,9973.0
11360,0.34082841873168945,-17.774761199951172,-334,7370.0,-74.93834686279297,-1021,9973.0
11370,0.3410877287387848,-24.105979919433594,-458,7370.0,-49.411319732666016,-688,9973.0
11380,0.3412112891674042,-25.090417861938477,-340,7370.0,-17.199575424194336,-192,9973.0
11390,0.3391467332839966,-9.483153343200684,49,7370.0,8.698843955993652,281,9973.0
11400,0.33932021260261536,19.453392028808594,419,7370.0,46.49562454223633,1033,9973.0
11410,0.3394601345062256,41.753902435302734,703,7370.0,79.08226776123047,1375,9973.0
11420,0.33962926268577576,43.55179214477539,727,7370.0,93.37883758544922,1566,9973.0
11430,0.33879566192626953,31.533111572265625,415,7370.0,91.66761016845703,1433,9973.0
11440,0.33910417556762695,11.678467750549316,112,7370.0,62.751625061035156,775,9973.0
11450,0.34072795510292053,-2.2052433490753174,-26,7370.0,21.298871994018555,240,9973.0
11460,0.34146296977996826,-5.752443313598633,-135,7370.0,-19.706132888793945,-576,9973.0
11470,0.34236571192741394,-7.235543251037598,-91,7370.0,-56.33475875854492,-981,9973.0
11480,0.3410521447658539,-9.446562767028809,-223,7370.0,-80.9622573852539,-1421,9973.0
11490,0.3417004644870758,-20.346853256225586,-354,7370.0,-88.10475158691406,-1489,9973.0
11500,0.3423508107662201,-36.51219177246094,-623,7370.0,-90.94729614257812,-1472,9973.0
11510,0.3430977463722229,-38.170143127441406,-641,7370.0,-92.26914978027344,-1465,9973.0
11520,0.3421551585197449,-28.968101501464844,-370,7370.0,-74.08482360839844,-1208,9973.0
11530,0.3442641794681549,-11.877193450927734,-76,7370.0,-35.79368209838867,-302,9973.0
11540,0.34557223320007324,3.285640239715576,80,7370.0,8.879364967346191,399,9973.0
11550,0.34735995531082153,21.422060012817383,393,7370.0,59.40094757080078,1114,9973.0
11560,0.348904013633728,38.56086349487305,749,7370.0,104.05233001708984,1771,9973.0
11570,0.34725987911224365,42.212528228759766,687,7370.0,125.98284912109375,2151,9973.0
11580,0.3478825092315674,36.123558044433594,493,7370.0,115.77054595947266,1796,9973.0
11590,0.3490230441093445,24.37184715270996,404,7370.0,80.24805450439453,1108,9973.0
11600,0.349882036447525,15.165068626403809,120,7370.0,35.001426696777344,405,9973.0
11610,0.3467285931110382,-8.093358039855957,-238,7370.0,-7.817098617553711,-360,9973.0
11620,0.34758472442626953,-35.682472229003906,-672,7370.0,-36.35975646972656,-659,9973.0
11630,0.3484879732131958,-47.91493606567383,-856,7370.0,-59.32072067260742,-1111,9973.0
11640,0.34927788376808167,-43.3340950012207,-603,7370.0,-76.9602279663086,-1285,9973.0
11650,0.3483141362667084,-34.63322830200195,-590,7370.0,-77.48937225341797,-1171,9973.0
11660,0.3491826355457306,-25.670068740844727,-421,7370.0,-69.05679321289062,-1087,9973.0
11670,0.35033878684043884,-20.193737030029297,-225,7370.0,-46.53365707397461,-673,9973.0
11680,0.3513316214084625,-3.557914972305298,37,7370.0,-32.996395111083984,-286,9973.0
11690,0.35291701555252075,13.271819114685059,263,7370.0,3.94110107421875,298,9973.0
11700,0.35187530517578125,23.64499855041504,566,7370.0,48.7025260925293,964,9973.0
11710,0.3532123863697052,36.93434143066406,697,7370.0,74.28482055664062,1377,9973.0
11720,0.3541310131549835,48.051761627197266,727,7370.0,86.78821563720703,1512,9973.0
11730,0.3548942506313324,45.97453308105469,691,7370.0,77.9898452758789,1099,9973.0
11740,0.3546791672706604,32.25086212158203,483,7370.0,52.1380729675293,665,9973.0
11750,0.3550993800163269,11.294957160949707,40,7370.0,25.175064086914062,356,9973.0
11760,0.35593536496162415,-10.102418899536133,-281,7370.0,5.5551934242248535,-90,9973.0
11770,0.35679954290390015,-26.000171661376953,-424,7370.0,-11.567160606384277,-332,9973.0
11780,0.35754358768463135,-33.64152145385742,-557,7370.0,-32.127315521240234,-580,9973.0
11790,0.35419103503227234,-25.221878051757812,-389,7370.0,-54.62129211425781,-993,9973.0
11800,0.3547177016735077,-18.315811157226562,-256,7370.0,-61.6088752746582,-1112,9973.0
11810,0.35530075430870056,-12.93587589263916,-105,7370.0,-60.592803955078125,-890,9973.0
11820,0.3561515808105469,-1.058953881263733,-15,7370.0,-37.80885696411133,-379,9973.0
11830,0.3541436493396759,7.362239837646484,45,7370.0,-2.4429593086242676,102,9973.0
11840,0.3543613851070404,4.463167667388916,102,7370.0,27.454341888427734,499,9973.0
11850,0.3544892966747284,12.162946701049805,265,7370.0,55.037445068359375,987,9973.0
11860,0.3546980917453766,22.120559692382812,386,7370.0,66.70000457763672,1181,9973.0
11870,0.3524889349937439,33.12792205810547,610,7370.0,57.86921691894531,794,9973.0
11880,0.35212209820747375,39.00498580932617,624,7370.0,35.32548904418945,554,9973.0
11890,0.35215577483177185,33.033592224121094,407,7370.0,10.421111106872559,70,9973.0
11900,0.35186776518821716,13.75546646118164,162,7370.0,-11.375146865844727,-377,9973.0
11910,0.35155412554740906,-6.069849491119385,-163,7370.0,-41.14649200439453,-839,9973.0
11920,0.35041990876197815,-20.762279510498047,-435,7370.0,-73.6338882446289,-1250,9973.0
11930,0.35002556443214417,-28.873947143554688,-500,7370.0,-101.39012145996094,-1830,9973.0
11940,0.34982457756996155,-31.60151481628418,-415,7370.0,-111.74311828613281,-1863,9973.0
11950,0.3495079278945923,-17.69715118408203,-187,7370.0,-103.94059753417969,-1516,9973.0
11960,0.3476308286190033,0.4861917495727539,13,7370.0,-74.00320434570312,-968,9973.0
11970,0.34750819206237793,5.555665969848633,67,7370.0,-22.129270553588867,-172,9973.0
11980,0.3484078347682953,2.557192087173462,78,7370.0,29.08930015563965,651,9973.0
11990,0.3484482765197754,-1.8730862140655518,23,7370.0,76.32721710205078,1361,9973.0
12000,0.34834468364715576,1.1629972457885742,7,7370.0,109.2729721069336,1991,9973.0
12010,0.34535372257232666,8.781371116638184,218,7370.0,118.03502655029297,1710,9973.0
12020,0.3453333079814911,22.357873916625977,383,7370.0,89.91287231445312,1426,9973.0
12030,0.3450236916542053,31.175159454345703,494,7370.0,56.53428649902344,686,9973.0
12040,0.34487971663475037,34.251426696777344,597,7370.0,22.33182716369629,242,9973.0
12050,0.3427700400352478,23.012271881103516,244,7370.0,-18.054149627685547,-560,9973.0
12060,0.34247443079948425,0.5812118649482727,-79,7370.0,-50.12166976928711,-839,9973.0
12070,0.34239062666893005,-15.973773002624512,-354,7370.0,-70.5444107055664,-1252,9973.0
12080,0.34222593903541565,-27.96630859375,-490,7370.0,-78.560546875,-1335,9973.0
12090,0.3394865095615387,-29.384719848632812,-387,7370.0,-68.61654663085938,-977,9973.0
12100,0.33928343653678894,-15.943552017211914,-262,7370.0,-50.70371627807617,-724,9973.0
12110,0.3395088016986847,1.0006797313690186,125,7370.0,-14.319929122924805,-95,9973.0
12120,0.3398163318634033,15.918694496154785,292,7370.0,23.27019691467285,634,9973.0
12130,0.33999237418174744,13.412897109985352,81,7370.0,61.83346939086914,1163,9973.0
12140,0.33936718106269836,-2.8652570247650146,-59,7370.0,90.01286315917969,1528,9973.0
12150,0.3399468660354614,-8.909015655517578,-119,7370.0,94.38074493408203,1495,9973.0
12160,0.340260773897171,-4.630918979644775,-38,7370.0,67.04277038574219,889,9973.0
12170,0.34061935544013977,-1.7778995037078857,-132,7370.0,33.979854583740234,466,9973.0
12180,0.339646577835083,-6.973178386688232,2,7370.0,2.5375421047210693,-47,9973.0
12190,0.34048518538475037,-5.1817097663879395,-158,7370.0,-11.874180793762207,-293,9973.0
12200,0.3410341441631317,-9.047785758972168,-94,7370.0,-25.65876579284668,-440,9973.0
12210,0.34173357486724854,-9.56233024597168,-212,7370.0,-39.00712203979492,-698,9973.0
12220,0.3419458568096161,-12.852569580078125,-210,7370.0,-44.32974624633789,-681,9973.0
12230,0.3428593873977661,-28.19075584411621,-638,7370.0,-28.974449157714844,-318,9973.0
12240,0.34406062960624695,-38.95869827270508,-495,7370.0,-8.985991477966309,-107,9973.0
12250,0.34528404474258423,-20.786542892456055,-166,7370.0,5.266036510467529,199,9973.0
12260,0.3466002941131592,16.987451553344727,469,7370.0,19.39217185974121,350,9973.0
12270,0.34822431206703186,35.056766510009766,537,7370.0,38.38387680053711,797,9973.0
12280,0.34961020946502686,28.675228118896484,422,7370.0,52.17911911010742,808,9973.0
12290,0.35071641206741333,23.870302200317383,392,7370.0,61.00864791870117,1022,9973.0
12300,0.35162535309791565,14.786155700683594,129,7370.0,55.655643463134766,868,9973.0
12310,0.3511735498905182,4.131490230560303,25,7370.0,29.69875717163086,328,9973.0
12320,0.3522043824195862,-7.065965175628662,-180,7370.0,5.212373733520508,-51,9973.0
12330,0.35301703214645386,-12.353196144104004,-288,7370.0,-22.17600440979004,-527,9973.0
12340,0.3540254533290863,-12.878982543945312,-135,7370.0,-46.392696380615234,-882,9973.0
12350,0.35491928458213806,-7.757157325744629,-143,7370.0,-57.41171646118164,-871,9973.0
12360,0.3541729748249054,-0.4855610430240631,-54,7370.0,-61.455875396728516,-972,9973.0
12370,0.3550266921520233,-0.6415796875953674,27,7370.0,-54.309879302978516,-862,9973.0
12380,0.35606345534324646,-5.721675395965576,-120,7370.0,-34.44560623168945,-354,9973.0
12390,0.35722970962524414,-10.762380599975586,-206,7370.0,-9.161532402038574,123,9973.0
12400,0.35582759976387024,-5.916727542877197,-77,7370.0,18.10089111328125,491,9973.0
12410,0.3564300835132599,1.9983110427856445,201,7370.0,44.70144271850586,741,9973.0
12420,0.35684749484062195,15.225224494934082,321,7370.0,59.5115852355957,1086,9973.0
12430,0.35730621218681335,17.545936584472656,325,7370.0,69.7099380493164,1143,9973.0
12440,0.355264812707901,14.86291217803955,166,7370.0,62.97720718383789,857,9973.0
12450,0.355103999376297,8.628937721252441,222,7370.0,43.915164947509766,628,9973.0
12460,0.3549290597438812,6.266458034515381,27,7370.0,16.534992218017578,173,9973.0
12470,0.35491904616355896,-5.4862060546875,-69,7370.0,-9.67629623413086,-356,9973.0
12480,0.3550528585910797,-14.707687377929688,-268,7370.0,-38.91428756713867,-707,9973.0
12490,0.3540297746658325,-18.762283325195312,-324,7370.0,-62.644264221191406,-1170,9973.0
12500,0.3537750244140625,-11.568147659301758,-80,7370.0,-70.8963394165039,-1112,9973.0
12510,0.3534226715564728,-17.2576961517334,-341,7370.0,-55.06913757324219,-826,9973.0
12520,0.3537157475948334,-34.843894958496094,-667,7370.0,-39.77702331542969,-686,9973.0
12530,0.3521314561367035,-48.115081787109375,-719,7370.0,-25.170976638793945,-269,9973.0
12540,0.3518926799297333,-33.540504455566406,-437,7370.0,8.475927352905273,296,9973.0
12550,0.35194069147109985,2.8702402114868164,281,7370.0,31.784557342529297,504,9973.0
12560,0.3519219160079956,41.763370513916016,754,7370.0,38.8255615234375,648,9973.0
12570,0.3520011901855469,52.470726013183594,870,7370.0,43.02123260498047,687,9973.0
12580,0.34856978058815,48.80204772949219,776,7370.0,43.51459503173828,782,9973.0
12590,0.34799087047576904,44.50046157836914,645,7370.0,36.66630172729492,449,9973.0
12600,0.34753087162971497,34.243804931640625,531,7370.0,17.563426971435547,246,9973.0
12610,0.3470306992530823,19.258655548095703,183,7370.0,-7.708089351654053,-238,9973.0
12620,0.3474234640598297,0.7242014408111572,-38,7370.0,-35.222557067871094,-778,9973.0
12630,0.34715256094932556,-21.611766815185547,-446,7370.0,-49.11771011352539,-720,9973.0
12640,0.34677818417549133,-35.947086334228516,-633,7370.0,-43.65090560913086,-742,9973.0
12650,0.3464946150779724,-41.5589599609375,-628,7370.0,-38.50092315673828,-631,9973.0
12660,0.3454173803329468,-41.6325798034668,-683,7370.0,-32.93210983276367,-451,9973.0
12670,0.3452548086643219,-38.88992691040039,-621,7370.0,-21.19468879699707,-283,9973.0
12680,0.34560906887054443,-25.855382919311523,-284,7370.0,-4.144463539123535,45,9973.0
12690,0.34598201513290405,1.3170722723007202,142,7370.0,18.75556182861328,377,9973.0
12700,0.34626054763793945,31.88798713684082,709,7370.0,37.5484504699707,721,9973.0
12710,0.344521701335907,58.78230667114258,1045,7370.0,48.58854293823242,856,9973.0
12720,0.34478262066841125,69.74919891357422,1111,7370.0,52.153350830078125,773,9973.0
12730,0.3446130156517029,55.62363052368164,815,7370.0,44.07374954223633,738,9973.0
12740,0.34424054622650146,26.799959182739258,245,7370.0,29.769441604614258,349,9973.0
12750,0.3433248698711395,-3.9589664936065674,-142,7370.0,4.3323655128479,-15,9973.0
12760,0.343344509601593,-22.275775909423828,-506,7370.0,-12.571853637695312,-307,9973.0
12770,0.3433118760585785,-28.962581634521484,-406,7370.0,-29.77111053466797,-604,9973.0
12780,0.3432949483394623,-29.050098419189453,-521,7370.0,-53.6953010559082,-982,9973.0
12790,0.3431937098503113,-27.601951599121094,-319,7370.0,-68.58961486816406,-1025,9973.0
12800,0.3441030979156494,-8.628540992736816,-38,7370.0,-56.55309295654297,-864,9973.0
12810,0.34431225061416626,14.977278709411621,296,7370.0,-47.340694427490234,-752,9973.0
12820,0.34463775157928467,17.509714126586914,365,7370.0,-19.396350860595703,-195,9973.0
12830,0.34550604224205017,17.1279354095459,173,7370.0,4.836347579956055,244,9973.0
12840,0.3449936807155609,14.575819969177246,316,7370.0,35.77389144897461,667,9973.0
12850,0.3456597328186035,23.449769973754883,388,7370.0,56.52482604980469,1110,9973.0
12860,0.3461783230304718,20.71111297607422,224,7370.0,74.5587158203125,1238,9973.0
12870,0.3466097414493561,5.724668979644775,111,7370.0,71.77619171142578,1094,9973.0
12880,0.3460860252380371,-4.546517848968506,-89,7370.0,60.10462188720703,939,9973.0
12890,0.3468741178512573,3.696469306945801,194,7370.0,33.855892181396484,317,9973.0
12900,0.3472101092338562,24.118471145629883,468,7370.0,0.6938148736953735,-49,9973.0
12910,0.3475523889064789,29.10725212097168,416,7370.0,-25.483783721923828,-649,9973.0
12920,0.3479767143726349,14.7314453125,193,7370.0,-52.32719421386719,-902,9973.0
12930,0.34828537702560425,-9.979072570800781,-365,7370.0,-65.62247467041016,-1098,9973.0
12940,0.34894299507141113,-38.881404876708984,-802,7370.0,-79.27005004882812,-1312,9973.0
12950,0.34927839040756226,-52.798866271972656,-853,7370.0,-76.15974426269531,-1184,9973.0
12960,0.3495984971523285,-49.809696197509766,-755,7370.0,-55.531864166259766,-866,9973.0
12970,0.3493826389312744,-44.309871673583984,-615,7370.0,-35.599422454833984,-386,9973.0
12980,0.3498118221759796,-30.707942962646484,-416,7370.0,4.962860584259033,328,9973.0
12990,0.3509853780269623,-20.666654586791992,-364,7370.0,46.361488342285156,1067,9973.0
13000,0.351668119430542,-12.603629112243652,-195,7370.0,77.6819839477539,1365,9973.0
13010,0.3527819812297821,-3.739135980606079,22,7370.0,95.59950256347656,1536,9973.0
13020,0.35039037466049194,2.280618906021118,70,7370.0,96.21044921875,1550,9973.0
13030,0.35065242648124695,10.864837646484375,157,7370.0,79.6492691040039,1171,9973.0
13040,0.3513088822364807,18.572324752807617,391,7370.0,46.01063537597656,481,9973.0
13050,0.3526785373687744,26.873550415039062,452,7370.0,-5.819828510284424,-428,9973.0
13060,0.35243773460388184,28.08087158203125,519,7370.0,-44.15642547607422,-964,9973.0
13070,0.35275739431381226,14.735580444335938,82,7370.0,-72.2314224243164,-1208,9973.0
13080,0.35333698987960815,-8.657174110412598,-344,7370.0,-87.56436157226562,-1407,9973.0
13090,0.3542293310165405,-31.161502838134766,-552,7370.0,-86.42301940917969,-1371,9973.0
13100,0.3529585003852844,-42.14398956298828,-630,7370.0,-83.95882415771484,-1456,9973.0
13110,0.35357651114463806,-36.73722457885742,-474,7370.0,-79.08899688720703,-1217,9973.0
13120,0.3541971445083618,-24.906946182250977,-390,7370.0,-62.4001350402832,-902,9973.0
13130,0.35639068484306335,-25.908771514892578,-476,7370.0,-36.52314758300781,-396,9973.0
13140,0.3574505150318146,-16.56011390686035,-259,7370.0,-1.5522205829620361,110,9973.0
13150,0.355406254529953,-5.059358596801758,-37,7370.0,26.435997009277344,460,9973.0
13160,0.3568057119846344,-4.597189903259277,32,7370.0,62.558292388916016,1129,9973.0
13170,0.3577677607536316,-0.9977330565452576,51,7370.0,86.19497680664062,1472,9973.0
13180,0.3585830628871918,7.993443489074707,150,7370.0,92.00890350341797,1579,9973.0
13190,0.35752278566360474,25.003997802734375,511,7370.0,89.52725219726562,1376,9973.0
13200,0.3577939569950104,57.120182037353516,1154,7370.0,74.82186126708984,1085,9973.0
13210,0.3594034016132355,86.40396118164062,1475,7370.0,54.44777297973633,815,9973.0
13220,0.3597305119037628,78.92020416259766,1074,7370.0,28.45633316040039,325,9973.0
13230,0.3594222366809845,38.2816162109375,507,7370.0,-4.481184482574463,-361,9973.0
13240,0.35978594422340393,-2.242889404296875,-173,7370.0,-36.81348419189453,-737,9973.0
13250,0.36075085401535034,-36.65706253051758,-755,7370.0,-65.35295104980469,-1142,9973.0
13260,0.3609417676925659,-56.80192947387695,-1070,7370.0,-84.65644073486328,-1404,9973.0
13270,0.3612715005874634,-66.95121765136719,-1135,7370.0,-91.6816177368164,-1535,9973.0
13280,0.3588816225528717,-56.490352630615234,-746,7370.0,-90.32941436767578,-1472,9973.0
13290,0.3589727580547333,-41.11382293701172,-548,7370.0,-69.57826232910156,-926,9973.0
13300,0.3602558672428131,-13.587352752685547,-41,7370.0,-30.346240997314453,-244,9973.0
13310,0.3603965938091278,11.058004379272461,169,7370.0,7.083227157592773,430,9973.0
13320,0.35857394337654114,20.794763565063477,274,7370.0,54.26053237915039,1005,9973.0
13330,0.358737975358963,18.360553741455078,297,7370.0,85.8589859008789,1371,9973.0
13340,0.35873714089393616,15.363168716430664,348,7370.0,92.4285888671875,1509,9973.0
13350,0.3583260774612427,25.504451751708984,438,7370.0,80.06072998046875,1346,9973.0
13360,0.35759833455085754,38.379676818847656,600,7370.0,57.40420913696289,700,9973.0
13370,0.3556489646434784,37.0020637512207,612,7370.0,27.250825881958008,325,9973.0
13380,0.3556864857673645,18.335067749023438,78,7370.0,-14.186285972595215,-368,9973.0
13390,0.35530394315719604,-21.018491744995117,-494,7370.0,-49.50074768066406,-1058,9973.0
13400,0.35490891337394714,-47.43522644042969,-742,7370.0,-75.13494110107422,-1275,9973.0
13410,0.3538919687271118,-46.2806396484375,-696,7370.0,-78.6840591430664,-1246,9973.0
13420,0.35381844639778137,-23.90260887145996,-282,7370.0,-77.31983947753906,-1257,9973.0
13430,0.3536283075809479,2.9827468395233154,198,7370.0,-60.329307556152344,-903,9973.0
13440,0.3538648784160614,16.270597457885742,295,7370.0,-29.498441696166992,-377,9973.0
13450,0.35319456458091736,19.234865188598633,287,7370.0,-1.470197081565857,231,9973.0
13460,0.35338902473449707,21.978984832763672,263,7370.0,46.293182373046875,938,9973.0
13470,0.35373231768608093,5.209131717681885,60,7370.0,80.96011352539062,1311,9973.0
13480,0.3538065552711487,-4.073574066162109,-11,7370.0,96.95403289794922,1678,9973.0
13490,0.3536265194416046,1.0548406839370728,-3,7370.0,88.5381088256836,1371,9973.0
13500,0.3537242114543915,3.635718584060669,153,7370.0,69.66577911376953,951,9973.0
13510,0.3535342216491699,8.632669448852539,122,7370.0,33.450374603271484,419,9973.0
13520,0.3533976972103119,11.904117584228516,249,7370.0,-0.7256593704223633,-257,9973.0
13530,0.35332581400871277,4.017111778259277,-30,7370.0,-28.526126861572266,-490,9973.0
13540,0.35085007548332214,-13.989124298095703,-329,7370.0,-51.72090148925781,-959,9973.0
13550,0.3506894111633301,-24.84139060974121,-426,7370.0,-63.088478088378906,-1020,9973.0
13560,0.3505796492099762,-39.95561981201172,-766,7370.0,-50.25931930541992,-610,9973.0
13570,0.35030797123908997,-54.40725326538086,-978,7370.0,-28.777427673339844,-440,9973.0
13580,0.34974682331085205,-46.7062873840332,-591,7370.0,-8.338715553283691,-16,9973.0
13590,0.3498503267765045,-23.274320602416992,-307,7370.0,20.514415740966797,524,9973.0
13600,0.35006797313690186,15.947131156921387,500,7370.0,49.03926467895508,829,9973.0
13610,0.3505249321460724,46.88475799560547,795,7370.0,67.15103149414062,1133,9973.0
13620,0.3506644666194916,60.67909622192383,1095,7370.0,67.76886749267578,1161,9973.0
13630,0.34900963306427,60.501041412353516,910,7370.0,59.742462158203125,875,9973.0
13640,0.3487646281719208,53.00797653198242,902,7370.0,44.30705261230469,532,9973.0
13650,0.3481435477733612,44.72858428955078,581,7370.0,20.566001892089844,264,9973.0
13660,0.3478451073169708,33.34471130371094,547,7370.0,-1.8846949338912964,-211,9973.0
13670,0.34701985120773315,21.8756046295166,236,7370.0,-21.345232009887695,-320,9973.0
13680,0.3467550575733185,3.729069948196411,-109,7370.0,-31.35256004333496,-689,9973.0
13690,0.34630057215690613,-23.634920120239258,-517,7370.0,-43.0988655090332,-713,9973.0
13700,0.34601908922195435,-48.42107391357422,-906,7370.0,-50.790138244628906,-893,9973.0
13710,0.34568896889686584,-54.91144561767578,-942,7370.0,-66.1355972290039,-1182,9973.0
13720,0.3434014916419983,-52.21672058105469,-718,7370.0,-66.70135498046875,-913,9973.0
13730,0.3430027365684509,-29.946163177490234,-382,7370.0,-37.93601989746094,-396,9973.0
13740,0.343435138463974,-3.2397234439849854,135,7370.0,3.4678759574890137,177,9973.0
13750,0.34415337443351746,16.532678604125977,284,7370.0,25.942583084106445,711,9973.0
13760,0.3435943126678467,27.90843963623047,547,7370.0,57.15224075317383,1047,9973.0
13770,0.34403130412101746,41.00703811645508,787,7370.0,76.20700073242188,1235,9973.0
13780,0.34433382749557495,46.470272064208984,661,7370.0,74.59745788574219,1205,9973.0
13790,0.3457140326499939,46.13698196411133,751,7370.0,56.58436584472656,748,9973.0
13800,0.3460632562637329,31.691129684448242,427,7370.0,32.884700775146484,488,9973.0
13810,0.34649458527565,16.043569564819336,243,7370.0,4.810557842254639,-115,9973.0
13820,0.34726306796073914,4.425002098083496,90,7370.0,-22.879236221313477,-422,9973.0
13830,0.3478643596172333,9.919951438903809,155,7370.0,-52.439109802246094,-1021,9973.0
13840,0.3485742509365082,12.764389991760254,233,7370.0,-75.2946548461914,-1231,9973.0
13850,0.34841614961624146,7.362362861633301,-36,7370.0,-81.17024230957031,-1256,9973.0
13860,0.34885725378990173,-24.794240951538086,-626,7370.0,-69.30372619628906,-1083,9973.0
13870,0.35048025846481323,-64.68773651123047,-1162,7370.0,-41.65695571899414,-567,9973.0
13880,0.3513772785663605,-90.86103820800781,-1487,7370.0,-11.275239944458008,71,9973.0
13890,0.3515196740627289,-67.52049255371094,-999,7370.0,24.665088653564453,497,9973.0
13900,0.35279878973960876,-18.114107131958008,17,7370.0,51.039127349853516,871,9973.0
13910,0.35407906770706177,35.90652847290039,836,7370.0,69.45011901855469,1295,9973.0
13920,0.3552855849266052,77.56768798828125,1322,7370.0,76.33098602294922,1149,9973.0
13930,0.3561451733112335,86.3680419921875,1366,7370.0,70.45582580566406,1153,9973.0
13940,0.35438069701194763,66.0706787109375,953,7370.0,43.01131820678711,512,9973.0
13950,0.3556821942329407,44.4345703125,626,7370.0,-6.565680503845215,-402,9973.0
13960,0.35615071654319763,24.99376106262207,420,7370.0,-48.79634475708008,-937,9973.0
13970,0.3566749691963196,16.53550148010254,213,7370.0,-76.87179565429688,-1281,9973.0
13980,0.35435163974761963,7.834304332733154,48,7370.0,-91.9025650024414,-1377,9973.0
13990,0.3548475503921509,-0.9048236012458801,-143,7370.0,-77.9094009399414,-1178,9973.0
14000,0.3558376431465149,-22.43488883972168,-501,7370.0,-60.18988800048828,-871,9973.0
14010,0.3561106324195862,-47.66313934326172,-829,7370.0,-43.39534378051758,-640,9973.0
14020,0.35316595435142517,-61.97172927856445,-1046,7370.0,-9.961396217346191,13,9973.0
