timestamp,kalman.stateZ,gyro.x,gyro.xRaw,gyro.xVariance,gyro.y,gyro.yRaw,gyro.yVariance
0,0.27348634600639343,0.03540115803480148,5,6524.0,2.0587880611419678,43,9961.0
10,0.2734729051589966,0.011920840479433537,-1,6524.0,2.2534255981445312,36,9961.0
20,0.2728703022003174,0.08316875249147415,0,6524.0,2.6922802925109863,48,9961.0
30,0.2728176712989807,0.18559524416923523,4,6524.0,2.985516309738159,52,9961.0
40,0.2727615535259247,-0.04740547761321068,2,6524.0,3.179595470428467,52,9961.0
50,0.27270421385765076,-0.009481077082455158,1,6524.0,3.4106943607330322,55,9961.0
60,0.2726495862007141,-0.10807338356971741,3,6524.0,3.3813023567199707,53,9961.0
70,0.2722744941711426,0.024408327415585518,0,6524.0,3.4660611152648926,56,9961.0
80,0.2723533809185028,0.09166017174720764,-3,6524.0,3.635941505432129,55,9961.0
90,0.27233263850212097,0.17994441092014313,5,6524.0,3.609740734100342,55,9961.0
100,0.27227890491485596,-0.0006260426598601043,0,6524.0,3.3347620964050293,55,9961.0
110,0.2717043161392212,0.0022147605195641518,4,6524.0,3.1253833770751953,49,9961.0
120,0.27163076400756836,-0.08430111408233643,-2,6524.0,2.8454487323760986,46,9961.0
130,0.2715672254562378,0.04279651865363121,4,6524.0,2.503589391708374,42,9961.0
140,0.27147504687309265,0.28483983874320984,-1,6524.0,2.306468963623047,37,9961.0
150,0.2714161276817322,-0.01839451678097248,1,6524.0,2.043381690979004,34,9961.0
160,0.2715475559234619,-0.10580842196941376,-3,6524.0,1.3054695129394531,20,9961.0
170,0.27150049805641174,-0.3766022324562073,-4,6524.0,1.05252206325531,11,9961.0
180,0.271432101726532,-0.019535159692168236,9,6524.0,-0.036128055304288864,-12,9961.0
190,0.27137014269828796,1.1491636037826538,24,6524.0,-1.8948746919631958,-36,9961.0
200,0.2715204060077667,1.816453456878662,23,6524.0,-4.553933620452881,-90,9961.0
210,0.271493136882782,1.4661016464233398,62,6524.0,-5.230185508728027,-88,9961.0
220,0.2714814245700836,4.573525905609131,42,6524.0,-11.848217964172363,-158,9961.0
230,0.2714775800704956,8.433513641357422,119,6524.0,-15.04689884185791,-257,9961.0
240,0.2714644968509674,8.368976593017578,144,6524.0,-15.867003440856934,-283,9961.0
250,0.2712703049182892,7.646521091461182,133,6524.0,-16.636781692504883,-278,9961.0
260,0.2713228464126587,7.705157279968262,111,6524.0,-16.70152473449707,-264,9961.0
270,0.2713102400302887,6.981364727020264,103,6524.0,-15.402487754821777,-268,9961.0
280,0.27132830023765564,3.7803165912628174,5,6524.0,-14.55932903289795,-191,9961.0
290,0.27280765771865845,3.5010318756103516,69,6524.0,-9.04379940032959,-90,9961.0
300,0.27288997173309326,3.3242623805999756,39,6524.0,-4.310245990753174,-50,9961.0
310,0.2729502320289612,1.8429560661315918,48,6524.0,-0.7750842571258545,-26,9961.0
320,0.27302730083465576,2.2034478187561035,-2,6524.0,1.9762203693389893,96,9961.0
330,0.2734528183937073,1.5506128072738647,52,6524.0,5.973774433135986,40,9961.0
340,0.27358460426330566,2.3096108436584473,23,6524.0,7.533261775970459,155,9961.0
350,0.2737140953540802,3.0799167156219482,80,6524.0,8.440975189208984,149,9961.0
360,0.2738616168498993,2.8589539527893066,29,6524.0,6.8688130378723145,145,9961.0
370,0.2739761173725128,3.89717173576355,34,6524.0,4.9420166015625,123,9961.0
380,0.2740478217601776,3.3986856937408447,118,6524.0,4.313966274261475,-31,9961.0
390,0.2741781175136566,2.892634868621826,77,6524.0,2.3376705646514893,-2,9961.0
400,0.2742443084716797,2.5295352935791016,-14,6524.0,-2.376476287841797,23,9961.0
410,0.27440357208251953,2.72890043258667,-31,6524.0,-5.049576759338379,-53,9961.0
420,0.2744244635105133,-0.04329591616988182,-11,6524.0,-5.687250137329102,-155,9961.0
430,0.2747650742530823,-1.7618992328643799,-25,6524.0,-5.496347904205322,-221,9961.0
440,0.27510637044906616,-4.182921409606934,-63,6524.0,-5.1970696449279785,-175,9961.0
450,0.275454044342041,-3.785114049911499,-80,6524.0,-4.918883323669434,-119,9961.0
460,0.2755031883716583,-3.8476274013519287,-43,6524.0,-3.5418756008148193,-71,9961.0
470,0.275858610868454,-2.6988699436187744,-6,6524.0,-0.7924253344535828,-29,9961.0
480,0.27621835470199585,1.192974328994751,98,6524.0,1.0696275234222412,68,9961.0
490,0.2766128182411194,0.772347092628479,111,6524.0,3.6196134090423584,18,9961.0
500,0.2768220007419586,3.2554514408111572,185,6524.0,6.49064302444458,-52,9961.0
510,0.2750222384929657,1.3959335088729858,134,6524.0,8.695318222045898,-44,9961.0
520,0.2750709354877472,2.9428930282592773,114,6524.0,8.907793045043945,-87,9961.0
530,0.27508971095085144,1.8317921161651611,65,6524.0,7.207768440246582,-150,9961.0
540,0.27520760893821716,1.3673007488250732,71,6524.0,4.758230686187744,-176,9961.0
550,0.2751176655292511,0.3620322346687317,101,6524.0,2.5577504634857178,-157,9961.0
560,0.27510377764701843,0.08304950594902039,125,6524.0,-0.07939595729112625,-194,9961.0
570,0.27510175108909607,-1.1738909482955933,99,6524.0,-1.6750589609146118,-208,9961.0
580,0.27510619163513184,0.35232245922088623,78,6524.0,-4.624125957489014,-165,9961.0
590,0.2749418616294861,0.8630459904670715,49,6524.0,-6.210970401763916,-22,9961.0
600,0.2747696042060852,0.2714214324951172,1,6524.0,-7.0803422927856445,89,9961.0
610,0.2747063934803009,-0.27794554829597473,-97,6524.0,-5.600980758666992,164,9961.0
620,0.2745153605937958,-2.575256824493408,-175,6524.0,-3.7804017066955566,112,9961.0
630,0.2746622562408447,-2.772822380065918,-103,6524.0,-1.1992377042770386,77,9961.0
640,0.27476292848587036,-3.3244245052337646,-109,6524.0,1.7666155099868774,137,9961.0
650,0.2747112512588501,-3.395453453063965,-122,6524.0,3.300173759460449,123,9961.0
660,0.2744739055633545,-3.668653726577759,-170,6524.0,6.485967636108398,272,9961.0
670,0.27429139614105225,-2.0447521209716797,-94,6524.0,6.42327356338501,67,9961.0
680,0.2749233543872833,-1.2574546337127686,-8,6524.0,4.100217819213867,-81,9961.0
690,0.27486494183540344,-1.8050726652145386,105,6524.0,6.545495510101318,-49,9961.0
700,0.2749491333961487,-0.37347930669784546,111,6524.0,4.537116527557373,126,9961.0
710,0.27494117617607117,1.6847872734069824,47,6524.0,2.4739441871643066,238,9961.0
720,0.27500101923942566,3.7087910175323486,-42,6524.0,0.41624966263771057,67,9961.0
730,0.27502381801605225,4.7364501953125,8,6524.0,-2.628830909729004,-71,9961.0
740,0.27511730790138245,4.879202365875244,146,6524.0,-3.1909408569335938,-178,9961.0
750,0.2751958668231964,3.4915215969085693,100,6524.0,-3.4613397121429443,-154,9961.0
760,0.27521511912345886,3.334951400756836,25,6524.0,-5.440953731536865,-3,9961.0
770,0.2758609652519226,1.9688987731933594,24,6524.0,-4.193479061126709,6,9961.0
780,0.2757098972797394,0.9474345445632935,2,6524.0,-4.8262834548950195,48,9961.0
790,0.2754923403263092,0.7845696806907654,-148,6524.0,-2.2773189544677734,6,9961.0
800,0.2752835750579834,1.884839415550232,-12,6524.0,-0.5120830535888672,72,9961.0
810,0.27517351508140564,-1.27472722530365,114,6524.0,0.4915715754032135,-128,9961.0
820,0.277599036693573,-3.3181796073913574,-36,6524.0,2.042982339859009,161,9961.0
830,0.2776990830898285,-4.4100542068481445,-16,6524.0,1.5597140789031982,172,9961.0
840,0.27776724100112915,-2.8498103618621826,-108,6524.0,1.995837926864624,114,9961.0
850,0.27797114849090576,-1.9269180297851562,8,6524.0,3.3428783416748047,-78,9961.0
860,0.2777494788169861,-1.2027336359024048,25,6524.0,1.6499160528182983,-2,9961.0
870,0.2780405282974243,-0.43147364258766174,44,6524.0,1.3219375610351562,-2,9961.0
880,0.2782638967037201,1.6025077104568481,36,6524.0,0.15856638550758362,37,9961.0
890,0.27841711044311523,2.522796630859375,-10,6524.0,-1.7858269214630127,103,9961.0
900,0.27839407324790955,0.8082885146141052,-37,6524.0,-0.25848662853240967,-192,9961.0
910,0.2781115174293518,0.5427930355072021,140,6524.0,-1.7959061861038208,-70,9961.0
920,0.27797064185142517,0.948401927947998,-1,6524.0,-2.1055450439453125,159,9961.0
930,0.2782415747642517,0.547919750213623,-113,6524.0,-0.8478351831436157,-56,9961.0
940,0.27827537059783936,-1.2287880182266235,51,6524.0,-1.3484630584716797,-104,9961.0
950,0.27876904606819153,-1.1026746034622192,-12,6524.0,-1.9048054218292236,-11,9961.0
960,0.27871790528297424,-1.8228545188903809,-53,6524.0,-0.8304011225700378,69,9961.0
970,0.278712660074234,-1.800439715385437,-55,6524.0,1.6341277360916138,-66,9961.0
980,0.2787785828113556,-0.7007072567939758,18,6524.0,0.7985543608665466,-17,9961.0
990,0.2775583267211914,-0.33397650718688965,29,6524.0,-0.7202867269515991,70,9961.0
1000,0.27709099650382996,1.0195595026016235,-154,6524.0,-0.22081340849399567,92,9961.0
1010,0.27643492817878723,2.158642530441284,79,6524.0,-0.6072180271148682,-168,9961.0
1020,0.27578437328338623,1.4920604228973389,56,6524.0,-1.9227901697158813,76,9961.0
1030,0.27516642212867737,3.476576805114746,-51,6524.0,-1.9085148572921753,-36,9961.0
1040,0.2749159634113312,2.8855345249176025,137,6524.0,-1.0671151876449585,-77,9961.0
1050,0.2743452489376068,4.307573318481445,31,6524.0,-1.8825340270996094,76,9961.0
1060,0.27382946014404297,2.0415306091308594,24,6524.0,-2.61271333694458,-87,9961.0
1070,0.2736455500125885,0.21690011024475098,21,6524.0,-1.7423796653747559,-67,9961.0
1080,0.275900661945343,-2.426647901535034,-36,6524.0,-2.1956377029418945,136,9961.0
1090,0.2757076621055603,-2.2625374794006348,-97,6524.0,2.014784574508667,-153,9961.0
1100,0.27560803294181824,-1.8150203227996826,89,6524.0,1.6336485147476196,136,9961.0
1110,0.2755410373210907,-0.8183287382125854,-175,6524.0,3.6430790424346924,48,9961.0
1120,0.27718210220336914,-0.4952169358730316,122,6524.0,3.3747518062591553,9,9961.0
1130,0.2771608829498291,1.8069260120391846,-46,6524.0,3.4678962230682373,119,9961.0
1140,0.2772306799888611,2.1965749263763428,87,6524.0,3.639136791229248,22,9961.0
1150,0.27731990814208984,3.4576668739318848,78,6524.0,1.5145069360733032,81,9961.0
1160,0.27746903896331787,3.349221706390381,14,6524.0,0.10147649794816971,-59,9961.0
1170,0.27770498394966125,3.8122260570526123,143,6524.0,-2.7298800945281982,-11,9961.0
1180,0.27765461802482605,3.174640655517578,-59,6524.0,-3.112199306488037,1,9961.0
1190,0.2775384485721588,1.5673388242721558,140,6524.0,-5.765564441680908,-88,9961.0
1200,0.27739661931991577,2.066866874694824,-89,6524.0,-4.47316837310791,-61,9961.0
1210,0.2783123850822449,0.12616166472434998,155,6524.0,-3.6747817993164062,-62,9961.0
1220,0.27824750542640686,-0.2717159688472748,-86,6524.0,-1.1990916728973389,31,9961.0
1230,0.27819955348968506,-1.0741533041000366,-6,6524.0,1.2078911066055298,55,9961.0
1240,0.27815327048301697,-1.735242486000061,-37,6524.0,0.685565710067749,86,9961.0
1250,0.2780953347682953,-1.805647373199463,-25,6524.0,4.480988502502441,-98,9961.0
1260,0.2792719006538391,-0.7736416459083557,13,6524.0,2.6203575134277344,243,9961.0
1270,0.2792958915233612,-0.07197273522615433,18,6524.0,4.090017795562744,-79,9961.0
1280,0.2792704999446869,1.5284812450408936,-63,6524.0,-0.26078546047210693,143,9961.0
1290,0.2792762517929077,-0.525255024433136,64,6524.0,3.378673553466797,-76,9961.0
1300,0.28077802062034607,-0.5207563638687134,-107,6524.0,0.4867558181285858,49,9961.0
1310,0.2808544337749481,0.5328285098075867,78,6524.0,-2.1121675968170166,-70,9961.0
1320,0.28097522258758545,-0.7031868696212769,-17,6524.0,-1.643571138381958,-73,9961.0
1330,0.2810986340045929,-0.7251662015914917,48,6524.0,-3.322288990020752,-32,9961.0
1340,0.2822955250740051,-0.0016276078531518579,-137,6524.0,-5.809306621551514,-14,9961.0
1350,0.28239473700523376,-2.0553548336029053,102,6524.0,0.602608859539032,-10,9961.0
1360,0.28245165944099426,0.1526186466217041,-80,6524.0,-1.8856011629104614,-201,9961.0
1370,0.28250354528427124,0.6168037056922913,31,6524.0,-1.8162587881088257,262,9961.0
1380,0.28257429599761963,-1.7941811084747314,47,6524.0,5.14954948425293,-74,9961.0
1390,0.28238987922668457,1.366163730621338,4,6524.0,2.436563730239868,108,9961.0
1400,0.2823973000049591,-0.9742497801780701,41,6524.0,8.048553466796875,76,9961.0
1410,0.2823798656463623,1.0603344440460205,-43,6524.0,4.346837997436523,169,9961.0
1420,0.28233423829078674,1.6766403913497925,114,6524.0,4.871870517730713,-7,9961.0
1430,0.28271985054016113,2.797715187072754,-103,6524.0,5.264896392822266,275,9961.0
1440,0.2828553318977356,1.0492340326309204,106,6524.0,6.523744583129883,27,9961.0
1450,0.28286704421043396,0.25962623953819275,-35,6524.0,3.8208460807800293,32,9961.0
1460,0.282808393239975,-2.2501304149627686,164,6524.0,-0.6574513912200928,55,9961.0
1470,0.28258225321769714,-0.044967155903577805,-45,6524.0,0.14815156161785126,-33,9961.0
1480,0.2828996479511261,-1.984226107597351,-78,6524.0,3.116579055786133,113,9961.0
1490,0.2831518352031708,-3.262570381164551,-89,6524.0,3.437575340270996,-69,9961.0
1500,0.2831786572933197,-1.5593150854110718,59,6524.0,0.1516353338956833,84,9961.0
1510,0.2834382653236389,-4.6835737228393555,-32,6524.0,2.677669048309326,-147,9961.0
1520,0.28359031677246094,-5.233860492706299,-159,6524.0,1.8367034196853638,143,9961.0
1530,0.28354325890541077,-5.877363681793213,102,6524.0,4.668267250061035,-20,9961.0
1540,0.28348660469055176,-2.820013999938965,-142,6524.0,2.9537343978881836,53,9961.0
1550,0.2834540605545044,1.3592394590377808,54,6524.0,-1.4990957975387573,127,9961.0
1560,0.2852369546890259,2.8219127655029297,58,6524.0,-2.486009120941162,-124,9961.0
1570,0.2852749228477478,3.8149924278259277,86,6524.0,0.03836095333099365,0,9961.0
1580,0.28523409366607666,3.5021398067474365,46,6524.0,1.1722798347473145,-150,9961.0
1590,0.2852042019367218,3.260045051574707,86,6524.0,0.009906243532896042,129,9961.0
1600,0.285152792930603,1.456443428993225,118,6524.0,-0.12291695177555084,-78,9961.0
1610,0.28459063172340393,3.016087055206299,-75,6524.0,-0.8607295751571655,5,9961.0
1620,0.2844538688659668,-1.3966257572174072,125,6524.0,-1.9362694025039673,-13,9961.0
1630,0.28431037068367004,-0.3905865252017975,-49,6524.0,1.4573001861572266,0,9961.0
1640,0.2842063903808594,1.2693336009979248,-19,6524.0,1.5727919340133667,87,9961.0
1650,0.2852627635002136,0.5113500356674194,-23,6524.0,3.516801118850708,-30,9961.0
1660,0.2852236032485962,0.5703239440917969,69,6524.0,1.1029552221298218,74,9961.0
1670,0.28512054681777954,-0.7558533549308777,50,6524.0,1.373109221458435,-116,9961.0
1680,0.28501278162002563,1.700616478919983,-78,6524.0,-2.0616166591644287,62,9961.0
1690,0.284582257270813,-1.8621641397476196,160,6524.0,-2.446629047393799,-9,9961.0
1700,0.284501314163208,-1.2996327877044678,-92,6524.0,-3.331852674484253,-170,9961.0
1710,0.28439784049987793,-0.15940161049365997,14,6524.0,-4.103883266448975,106,9961.0
1720,0.28429606556892395,-1.2011423110961914,-13,6524.0,-1.9536186456680298,-27,9961.0
1730,0.28426533937454224,-1.3525210618972778,-21,6524.0,-5.1031575202941895,-19,9961.0
1740,0.2829173803329468,-0.6669790148735046,-7,6524.0,-1.220369815826416,-131,9961.0
1750,0.28280436992645264,2.4886560440063477,-38,6524.0,-1.1520750522613525,26,9961.0
1760,0.28267982602119446,-0.34912535548210144,158,6524.0,-0.6857844591140747,25,9961.0
1770,0.28256943821907043,2.646517753601074,-93,6524.0,0.6051432490348816,-112,9961.0
1780,0.28309324383735657,1.669899821281433,44,6524.0,-3.2132863998413086,178,9961.0
1790,0.2830525040626526,0.7306486964225769,90,6524.0,1.315504789352417,-53,9961.0
1800,0.28304991126060486,0.19501742720603943,-43,6524.0,-1.5216455459594727,97,9961.0
1810,0.28301456570625305,-0.4400913417339325,0,6524.0,-0.5594200491905212,5,9961.0
1820,0.282961905002594,2.1606414318084717,-34,6524.0,-1.8482582569122314,-46,9961.0
1830,0.2837721109390259,1.6738094091415405,155,6524.0,-3.8745410442352295,-28,9961.0
1840,0.28390970826148987,1.0820921659469604,-51,6524.0,-4.036794662475586,-217,9961.0
1850,0.28404030203819275,1.7450145483016968,-54,6524.0,-4.279109001159668,74,9961.0
1860,0.28413835167884827,-0.21118398010730743,165,6524.0,-1.8621622323989868,-72,9961.0
1870,0.28540414571762085,-0.4440110921859741,-128,6524.0,1.969465970993042,-35,9961.0
1880,0.285604327917099,-1.4161348342895508,23,6524.0,1.4354203939437866,111,9961.0
1890,0.28595560789108276,0.1263532042503357,-26,6524.0,2.0921730995178223,41,9961.0
1900,0.2862154245376587,0.8391308188438416,52,6524.0,1.71770441532135,135,9961.0
1910,0.2865292429924011,2.6309969425201416,33,6524.0,1.637267827987671,-111,9961.0
1920,0.2870238423347473,2.7854831218719482,-64,6524.0,0.0803389772772789,148,9961.0
1930,0.2873536944389343,0.6013827919960022,161,6524.0,3.2548773288726807,20,9961.0
1940,0.2876572012901306,-1.6606380939483643,-140,6524.0,-4.4902191162109375,-217,9961.0
1950,0.28799569606781006,-1.5343551635742188,67,6524.0,-3.7916057109832764,64,9961.0
1960,0.28767839074134827,-0.12612774968147278,44,6524.0,-4.827311038970947,-164,9961.0
1970,0.28779083490371704,-0.6896626353263855,-36,6524.0,-5.738273620605469,-11,9961.0
1980,0.28795331716537476,-2.047055959701538,-72,6524.0,-3.3997859954833984,-145,9961.0
1990,0.28800347447395325,-0.6603655815124512,-38,6524.0,-5.514441967010498,15,9961.0
2000,0.2872699797153473,-0.2985439896583557,117,6524.0,-1.2043461799621582,-79,9961.0
2010,0.2872052490711212,1.1921905279159546,-204,6524.0,-1.660084843635559,23,9961.0
2020,0.2872377634048462,1.8136399984359741,102,6524.0,-1.9404489994049072,79,9961.0
2030,0.28722625970840454,1.1302379369735718,94,6524.0,5.082472801208496,-129,9961.0
2040,0.2871956527233124,3.4137189388275146,39,6524.0,1.502750039100647,117,9961.0
2050,0.2874529957771301,2.7553892135620117,73,6524.0,2.416769504547119,12,9961.0
2060,0.28736594319343567,2.308621644973755,29,6524.0,2.015963077545166,72,9961.0
2070,0.2872925400733948,2.5051887035369873,-41,6524.0,1.6949461698532104,-57,9961.0
2080,0.2872401177883148,0.5329048037528992,-4,6524.0,0.91376131772995,144,9961.0
2090,0.2867105007171631,0.04547364264726639,112,6524.0,-1.6295408010482788,-182,9961.0
2100,0.2866201102733612,-2.4576597213745117,-214,6524.0,-2.9070160388946533,-120,9961.0
2110,0.2865648865699768,-3.0661134719848633,55,6524.0,-3.538302183151245,128,9961.0
2120,0.28655385971069336,-3.2251296043395996,-23,6524.0,-3.606154203414917,-120,9961.0
2130,0.28673192858695984,-0.5860732197761536,-54,6524.0,-1.6802257299423218,49,9961.0
2140,0.28676292300224304,0.6524091958999634,27,6524.0,-1.5315214395523071,-55,9961.0
2150,0.2868276536464691,1.9360356330871582,1,6524.0,0.2693478763103485,70,9961.0
2160,0.2869475185871124,1.6468769311904907,104,6524.0,3.5586390495300293,105,9961.0
2170,0.2871241271495819,4.3539276123046875,-85,6524.0,1.8292312622070312,-102,9961.0
2180,0.2871810793876648,0.7340603470802307,-22,6524.0,3.9017693996429443,240,9961.0
2190,0.2873767018318176,-3.186089038848877,155,6524.0,5.986495494842529,-38,9961.0
2200,0.2875850796699524,-1.6143873929977417,-153,6524.0,3.887382984161377,-42,9961.0
2210,0.2878190875053406,-1.41278874874115,-31,6524.0,1.2378584146499634,103,9961.0
2220,0.28843095898628235,-1.2974025011062622,-3,6524.0,-1.1815879344940186,-92,9961.0
2230,0.28867241740226746,-0.5172122120857239,21,6524.0,-1.2795896530151367,-6,9961.0
2240,0.28891414403915405,-1.075528860092163,56,6524.0,-2.2603724002838135,-98,9961.0
2250,0.2892296016216278,0.30506667494773865,-98,6524.0,-6.183434963226318,-38,9961.0
2260,0.28944873809814453,-0.6212397813796997,75,6524.0,-1.1550430059432983,81,9961.0
2270,0.28904080390930176,-1.0049577951431274,-72,6524.0,-7.828066825866699,-373,9961.0
2280,0.28912150859832764,-4.190268039703369,-83,6524.0,0.16669867932796478,120,9961.0
2290,0.28919652104377747,-0.2559977173805237,40,6524.0,2.8289568424224854,-15,9961.0
2300,0.28924083709716797,0.4912087023258209,-30,6524.0,4.1503472328186035,79,9961.0
2310,0.28800269961357117,1.3809016942977905,68,6524.0,4.7007293701171875,-10,9961.0
2320,0.28794535994529724,2.2235305309295654,-28,6524.0,4.69591760635376,28,9961.0
2330,0.2878724932670593,4.61407470703125,159,6524.0,5.353935241699219,233,9961.0
2340,0.2878057658672333,0.0007135211490094662,-3,6524.0,2.969477891921997,-117,9961.0
2350,0.2881944477558136,-0.954306960105896,-120,6524.0,3.417825222015381,142,9961.0
2360,0.2880944609642029,-2.0300283432006836,152,6524.0,0.04856477305293083,-55,9961.0
2370,0.2879459857940674,-1.2659300565719604,-83,6524.0,-3.5078938007354736,-166,9961.0
2380,0.28777986764907837,-2.479206085205078,-41,6524.0,-4.128098487854004,47,9961.0
2390,0.2876100540161133,0.008074001409113407,-26,6524.0,-6.064158916473389,-129,9961.0
2400,0.28599879145622253,1.0090457201004028,-25,6524.0,-5.089688301086426,-17,9961.0
2410,0.28568243980407715,0.23915325105190277,112,6524.0,-0.12190240621566772,-76,9961.0
2420,0.2854045629501343,0.9179657101631165,-111,6524.0,-2.3008103370666504,-136,9961.0
2430,0.2851409614086151,0.842875599861145,30,6524.0,-1.9693453311920166,197,9961.0
2440,0.2865082621574402,-3.2298216819763184,102,6524.0,1.4362585544586182,13,9961.0
2450,0.28633856773376465,1.2107723951339722,-41,6524.0,6.470708847045898,43,9961.0
2460,0.2861689031124115,2.163238048553467,94,6524.0,4.749792098999023,24,9961.0
2470,0.2860228419303894,3.1994261741638184,40,6524.0,2.869014263153076,-96,9961.0
2480,0.28588682413101196,5.041244029998779,87,6524.0,0.5477900505065918,115,9961.0
2490,0.2858213484287262,1.9389441013336182,184,6524.0,-1.4916996955871582,-5,9961.0
2500,0.2857065498828888,-4.437297821044922,-212,6524.0,2.7970824241638184,-168,9961.0
2510,0.28561708331108093,-2.480135917663574,-18,6524.0,-0.8230655193328857,37,9961.0
2520,0.285515159368515,-2.040271759033203,45,6524.0,-1.7398267984390259,-36,9961.0
2530,0.28685811161994934,-3.177844524383545,-75,6524.0,-0.5961206555366516,16,9961.0
2540,0.28681081533432007,0.5193878412246704,60,6524.0,0.3723902702331543,85,9961.0
2550,0.28676390647888184,5.4814934730529785,-29,6524.0,-7.664454936981201,-95,9961.0
2560,0.28670790791511536,1.938641905784607,-69,6524.0,0.8991355299949646,220,9961.0
2570,0.2866629660129547,2.360675573348999,207,6524.0,2.76234769821167,106,9961.0
2580,0.2884358763694763,2.5407841205596924,-65,6524.0,7.219543933868408,-94,9961.0
2590,0.28855034708976746,-0.782182514667511,-51,6524.0,8.687037467956543,144,9961.0
2600,0.288666307926178,-2.2279014587402344,12,6524.0,3.014058828353882,43,9961.0
2610,0.28876784443855286,-2.0642318725585938,-83,6524.0,1.3775242567062378,126,9961.0
2620,0.29016587138175964,-1.9015799760818481,38,6524.0,1.735903263092041,127,9961.0
2630,0.29034215211868286,1.40908944606781,-49,6524.0,-2.3080005645751953,-158,9961.0
2640,0.2904924750328064,-0.291385680437088,-159,6524.0,-2.2251060009002686,-10,9961.0
2650,0.29060763120651245,0.5306586623191833,147,6524.0,1.4234586954116821,-32,9961.0
2660,0.2908148765563965,-0.4950825572013855,-99,6524.0,-3.0027902126312256,103,9961.0
2670,0.2909053862094879,-2.3859617710113525,3,6524.0,3.3076581954956055,88,9961.0
2680,0.29091909527778625,0.26843541860580444,-7,6524.0,1.3570972681045532,-29,9961.0
2690,0.2908977270126343,2.6467065811157227,-29,6524.0,0.5655544400215149,35,9961.0
2700,0.2908816635608673,0.5311797261238098,25,6524.0,-0.35250619053840637,-202,9961.0
2710,0.29017916321754456,0.7190640568733215,-38,6524.0,-2.7854175567626953,-247,9961.0
2720,0.29021498560905457,0.10158907622098923,142,6524.0,3.798814058303833,100,9961.0
2730,0.2901644706726074,1.8780364990234375,-49,6524.0,0.24139994382858276,-59,9961.0
2740,0.2901475727558136,-0.18315458297729492,40,6524.0,4.206127166748047,103,9961.0
2750,0.292060911655426,0.6396340131759644,29,6524.0,1.939680576324463,-151,9961.0
2760,0.29215502738952637,3.770406723022461,11,6524.0,1.6981407403945923,125,9961.0
2770,0.29224565625190735,3.062192678451538,239,6524.0,-2.530341386795044,14,9961.0
2780,0.2924368679523468,-1.6167256832122803,-141,6524.0,-1.045676827430725,-148,9961.0
2790,0.2935284376144409,-2.085831880569458,-48,6524.0,-5.241033554077148,88,9961.0
2800,0.2937503755092621,-3.7650465965270996,-1,6524.0,-1.3694833517074585,52,9961.0
2810,0.29399147629737854,-2.266836404800415,-48,6524.0,-0.5461317300796509,-7,9961.0
2820,0.29419347643852234,-0.43813544511795044,60,6524.0,-0.53158038854599,20,9961.0
2830,0.29443618655204773,0.8098040819168091,-14,6524.0,-1.2961790561676025,-138,9961.0
2840,0.29409629106521606,1.3089802265167236,-37,6524.0,0.9266654849052429,257,9961.0
2850,0.2942906320095062,-1.4145820140838623,163,6524.0,4.447385311126709,34,9961.0
2860,0.2944837212562561,-0.09079129248857498,-116,6524.0,2.5964770317077637,-32,9961.0
2870,0.2947101294994354,2.282968759536743,11,6524.0,6.335430145263672,173,9961.0
2880,0.29580309987068176,1.8810092210769653,-2,6524.0,4.078980445861816,-69,9961.0
2890,0.2959786057472229,1.5664335489273071,33,6524.0,1.0444788932800293,93,9961.0
2900,0.29612353444099426,1.8852498531341553,151,6524.0,0.485711008310318,-95,9961.0
2910,0.2962680160999298,2.2499818801879883,-67,6524.0,-4.292787075042725,-203,9961.0
2920,0.29641199111938477,0.9939548969268799,-39,6524.0,-0.5041751265525818,232,9961.0
2930,0.2958674430847168,-0.9563255906105042,28,6524.0,2.6499416828155518,-14,9961.0
2940,0.29584184288978577,-1.8069599866867065,-26,6524.0,4.996492385864258,-69,9961.0
2950,0.29580751061439514,-1.7175356149673462,81,6524.0,2.8266046047210693,28,9961.0
2960,0.2958090007305145,0.7033370733261108,-58,6524.0,4.477388858795166,-36,9961.0
2970,0.2946814298629761,1.1043074131011963,76,6524.0,2.3199973106384277,293,9961.0
2980,0.29452478885650635,-2.458364725112915,142,6524.0,0.2907141447067261,-215,9961.0
2990,0.29438313841819763,-0.3960079848766327,-138,6524.0,0.8271483182907104,-5,9961.0
3000,0.29420769214630127,-2.4652962684631348,20,6524.0,4.037516117095947,62,9961.0
3010,0.2940745949745178,-1.751659870147705,-38,6524.0,4.138033866882324,-44,9961.0
3020,0.2939867079257965,1.1438695192337036,72,6524.0,2.926915168762207,150,9961.0
3030,0.29394006729125977,2.4925832748413086,190,6524.0,2.3871448040008545,66,9961.0
3040,0.2939138412475586,3.0338711738586426,-78,6524.0,7.3954033851623535,-14,9961.0
3050,0.2937922477722168,2.290116548538208,52,6524.0,1.0586007833480835,239,9961.0
3060,0.2943790555000305,-0.3276218771934509,90,6524.0,1.459628939628601,-10,9961.0
3070,0.2944212555885315,-1.0662561655044556,-79,6524.0,-1.1416593790054321,-50,9961.0
3080,0.2944428622722626,-1.7108577489852905,25,6524.0,-4.683039665222168,-40,9961.0
3090,0.2945048213005066,-2.0477657318115234,-76,6524.0,-4.140093803405762,-289,9961.0
3100,0.2939576506614685,-2.4806442260742188,-150,6524.0,-2.785029649734497,-76,9961.0
3110,0.2940663993358612,-4.72074556350708,40,6524.0,0.6550968289375305,-52,9961.0
3120,0.2941684126853943,-2.469935894012451,-29,6524.0,-2.150230884552002,-191,9961.0
3130,0.29421642422676086,-0.18335756659507751,-29,6524.0,-2.4944214820861816,90,9961.0
3140,0.2942599654197693,0.6503717303276062,56,6524.0,2.384063482284546,5,9961.0
3150,0.2945908308029175,1.6506026983261108,-110,6524.0,3.0813002586364746,-44,9961.0
3160,0.2945876121520996,-1.6331650018692017,-7,6524.0,3.5375657081604004,303,9961.0
3170,0.2945829927921295,-4.000897407531738,101,6524.0,5.83430290222168,-27,9961.0
3180,0.2945795953273773,2.9658753871917725,-43,6524.0,-1.0700024366378784,-46,9961.0
3190,0.29273906350135803,0.010808464139699936,43,6524.0,-1.0506025552749634,68,9961.0
3200,0.29271358251571655,-0.803965151309967,-32,6524.0,-0.7487225532531738,-122,9961.0
3210,0.2927361726760864,-1.0851929187774658,-106,6524.0,-9.663469314575195,-118,9961.0
3220,0.29279762506484985,-1.5235072374343872,124,6524.0,-6.838845252990723,81,9961.0
3230,0.29283684492111206,2.4844298362731934,-17,6524.0,-7.3653645515441895,-207,9961.0
3240,0.2937999367713928,2.680230140686035,-142,6524.0,-6.770718097686768,-4,9961.0
3250,0.29391419887542725,-1.5194528102874756,48,6524.0,0.7879833579063416,-25,9961.0
3260,0.29421672224998474,-0.5758567452430725,-6,6524.0,0.3910128176212311,48,9961.0
3270,0.2943592965602875,-0.2907595634460449,22,6524.0,2.8012313842773438,150,9961.0
3280,0.29515835642814636,2.788999319076538,215,6524.0,1.5310773849487305,-121,9961.0
3290,0.29537293314933777,2.213773488998413,-42,6524.0,5.934599876403809,147,9961.0
3300,0.2955458164215088,-0.22965215146541595,130,6524.0,-10.781474113464355,132,9961.0
3310,0.2957271337509155,0.6053870320320129,58,6524.0,5.2147040367126465,-133,9961.0
3320,0.2959596812725067,3.366206407546997,-8,6524.0,-0.0815068930387497,-6,9961.0
3330,0.29620546102523804,2.4903454780578613,74,6524.0,-1.166509747505188,-71,9961.0
3340,0.2964532971382141,1.867067813873291,-46,6524.0,-3.7452237606048584,-176,9961.0
3350,0.2967091500759125,1.9910128116607666,4,6524.0,-2.27178955078125,108,9961.0
3360,0.2969755232334137,1.290420651435852,212,6524.0,-3.3374433517456055,6,9961.0
3370,0.2981424033641815,0.5936558842658997,-186,6524.0,-4.244139194488525,-185,9961.0
3380,0.2984146773815155,-1.7025821208953857,-38,6524.0,-4.088136196136475,26,9961.0
3390,0.2986881732940674,-2.8036041259765625,-11,6524.0,-1.0985702276229858,-192,9961.0
3400,0.2989693582057953,-0.26326310634613037,-91,6524.0,1.5812435150146484,2,9961.0
3410,0.29922789335250854,1.2065167427062988,165,6524.0,-5.360205173492432,35,9961.0
3420,0.2995244264602661,1.7146276235580444,53,6524.0,-4.69368314743042,-310,9961.0
3430,0.2997519075870514,-0.49622365832328796,-162,6524.0,-0.7898241877555847,27,9961.0
3440,0.3000289499759674,0.8292555809020996,83,6524.0,2.487032413482666,105,9961.0
3450,0.30053088068962097,-0.36135077476501465,-68,6524.0,-0.5531023144721985,-34,9961.0
3460,0.3007594645023346,1.4227746725082397,44,6524.0,-1.344423770904541,76,9961.0
3470,0.3009503483772278,2.2439117431640625,126,6524.0,3.0845227241516113,-107,9961.0
3480,0.3012833297252655,2.0899405479431152,-190,6524.0,0.3634982705116272,-145,9961.0
3490,0.3014228343963623,2.098839521408081,109,6524.0,-0.2949707508087158,115,9961.0
3500,0.30159491300582886,-4.606829643249512,-20,6524.0,-3.409268379211426,-127,9961.0
3510,0.30184406042099,-5.50855016708374,-111,6524.0,-4.449541091918945,-44,9961.0
3520,0.3020528554916382,-4.743899822235107,0,6524.0,-2.548722267150879,-47,9961.0
3530,0.3022426962852478,-3.4144198894500732,-172,6524.0,-5.882570743560791,-179,9961.0
3540,0.3026489317417145,-1.6977505683898926,-77,6524.0,-3.721099376678467,42,9961.0
3550,0.3028106689453125,-2.1739094257354736,122,6524.0,-2.2828149795532227,73,9961.0
3560,0.30309319496154785,-0.9955283403396606,-26,6524.0,1.2281866073608398,-78,9961.0
3570,0.30318593978881836,1.5182294845581055,65,6524.0,0.42285317182540894,114,9961.0
3580,0.30322009325027466,1.2437679767608643,58,6524.0,1.4206451177597046,-89,9961.0
3590,0.30275553464889526,2.5628068447113037,-53,6524.0,2.999647378921509,49,9961.0
3600,0.30274519324302673,0.744689404964447,76,6524.0,0.9886700510978699,287,9961.0
3610,0.3027358651161194,3.034489631652832,93,6524.0,-1.9159473180770874,-84,9961.0
3620,0.3027248978614807,0.6690431237220764,-91,6524.0,-3.2309553623199463,-23,9961.0
3630,0.30201366543769836,0.0701468363404274,38,6524.0,-3.507882595062256,-34,9961.0
3640,0.301913857460022,-0.8724148273468018,-27,6524.0,-1.7479385137557983,-219,9961.0
3650,0.30179524421691895,0.26354607939720154,-37,6524.0,-5.383397579193115,25,9961.0
3660,0.30168700218200684,-1.0344314575195312,204,6524.0,-4.864348888397217,-87,9961.0
3670,0.303363561630249,-4.370414733886719,-59,6524.0,-4.575593948364258,-223,9961.0
3680,0.3032528758049011,2.3228983879089355,16,6524.0,7.724827289581299,137,9961.0
3690,0.30325186252593994,2.238945484161377,104,6524.0,3.9047746658325195,46,9961.0
3700,0.30314579606056213,2.100949764251709,5,6524.0,5.946500301361084,37,9961.0
3710,0.30302631855010986,3.072415590286255,58,6524.0,5.4395623207092285,270,9961.0
3720,0.3013022840023041,1.95818030834198,203,6524.0,12.787357330322266,179,9961.0
3730,0.3012533485889435,0.5673433542251587,-79,6524.0,2.518305540084839,-189,9961.0
3740,0.30119776725769043,-1.6575613021850586,-62,6524.0,-3.361577033996582,-7,9961.0
3750,0.3010977506637573,-1.6197316646575928,36,6524.0,-6.3034186363220215,-73,9961.0
3760,0.30101242661476135,-0.17736992239952087,-85,6524.0,-5.954991340637207,-176,9961.0
3770,0.30099374055862427,-1.373403549194336,-39,6524.0,-2.968045473098755,95,9961.0
3780,0.300959974527359,-4.125185012817383,160,6524.0,0.3831831216812134,-99,9961.0
3790,0.30100467801094055,0.643060028553009,-28,6524.0,4.084697723388672,-129,9961.0
3800,0.30101278424263,1.3115599155426025,-18,6524.0,4.826664447784424,224,9961.0
3810,0.30182090401649475,0.9450702667236328,100,6524.0,7.069570541381836,85,9961.0
3820,0.3018861413002014,3.249886989593506,-61,6524.0,5.9296112060546875,12,9961.0
3830,0.3020910322666168,0.7698718905448914,-63,6524.0,5.559312343597412,259,9961.0
3840,0.302246630191803,3.0094411373138428,195,6524.0,-0.4649888277053833,129,9961.0
3850,0.30349960923194885,-1.05852472782135,-52,6524.0,1.6249529123306274,-113,9961.0
3860,0.3036891222000122,3.925734519958496,-69,6524.0,-0.4771086275577545,18,9961.0
3870,0.3038043677806854,3.4294869899749756,36,6524.0,-0.249326691031456,32,9961.0
3880,0.30392712354660034,0.31834062933921814,-27,6524.0,4.0325541496276855,-130,9961.0
3890,0.30365636944770813,-0.8935813903808594,-143,6524.0,1.0626270771026611,245,9961.0
3900,0.3037875294685364,-0.9926022291183472,49,6524.0,3.381765127182007,-112,9961.0
3910,0.3038654327392578,-0.5185022354125977,-47,6524.0,4.497089385986328,35,9961.0
3920,0.30392488837242126,-0.34643426537513733,-35,6524.0,1.7751320600509644,148,9961.0
3930,0.30390751361846924,2.9868016242980957,47,6524.0,4.334166526794434,95,9961.0
3940,0.3054187595844269,5.019963264465332,-26,6524.0,6.666226863861084,110,9961.0
3950,0.3058064877986908,6.281614780426025,106,6524.0,0.8460631966590881,216,9961.0
3960,0.3063923418521881,5.598853588104248,149,6524.0,2.6052193641662598,2,9961.0
3970,0.3066498041152954,3.342373847961426,-103,6524.0,3.7696800231933594,-81,9961.0
3980,0.3081154525279999,-0.5410874485969543,0,6524.0,0.6233625411987305,94,9961.0
3990,0.3086928427219391,-2.1995697021484375,-18,6524.0,0.7079558372497559,-80,9961.0
4000,0.30911481380462646,-3.080801010131836,-118,6524.0,2.6290535926818848,-50,9961.0
4010,0.3095111846923828,-1.6754143238067627,8,6524.0,2.361980676651001,350,9961.0
4020,0.31001418828964233,-4.173393726348877,116,6524.0,0.28290167450904846,-1,9961.0
4030,0.3103330135345459,-6.42521333694458,-187,6524.0,5.282166957855225,24,9961.0
4040,0.3106382489204407,-6.354169845581055,-71,6524.0,6.516199111938477,229,9961.0
4050,0.31093165278434753,-7.516228199005127,-82,6524.0,6.8109660148620605,46,9961.0
4060,0.31112906336784363,-5.202926158905029,-229,6524.0,2.124912977218628,-30,9961.0
4070,0.3124118149280548,-4.320051670074463,2,6524.0,-0.6118022203445435,258,9961.0
4080,0.3126174807548523,1.385575771331787,216,6524.0,0.30267706513404846,-54,9961.0
4090,0.31291690468788147,3.7570292949676514,71,6524.0,-4.075486183166504,-335,9961.0
4100,0.31310221552848816,6.457441329956055,99,6524.0,-0.03246208280324936,-63,9961.0
4110,0.3139271140098572,5.915998458862305,137,6524.0,-3.9825165271759033,-61,9961.0
4120,0.31412672996520996,4.299874305725098,8,6524.0,-4.276682376861572,-107,9961.0
4130,0.31431296467781067,4.527334690093994,84,6524.0,-4.028077602386475,151,9961.0
4140,0.31453004479408264,2.8343679904937744,195,6524.0,-1.1549831628799438,-67,9961.0
4150,0.3147047162055969,0.3546167016029358,-62,6524.0,-3.099525213241577,-172,9961.0
4160,0.31466028094291687,-2.2547976970672607,-14,6524.0,1.5878994464874268,72,9961.0
4170,0.31476351618766785,-3.4534640312194824,-25,6524.0,4.091185569763184,-49,9961.0
4180,0.3148260712623596,-3.4566609859466553,-105,6524.0,5.195708751678467,-35,9961.0
4190,0.31498846411705017,-1.2365798950195312,10,6524.0,7.720888614654541,341,9961.0
4200,0.31472963094711304,-2.820754289627075,204,6524.0,0.10691797733306885,-27,9961.0
4210,0.3147561848163605,1.791347622871399,-99,6524.0,1.0338746309280396,-224,9961.0
4220,0.31480181217193604,1.709396243095398,-53,6524.0,-6.057659149169922,-112,9961.0
4230,0.3148365318775177,-1.890082836151123,10,6524.0,-5.130218982696533,-75,9961.0
4240,0.31493279337882996,-3.1502065658569336,-130,6524.0,-4.735293865203857,-242,9961.0
4250,0.31580084562301636,-0.683363676071167,-75,6524.0,-8.107147216796875,-29,9961.0
4260,0.315818727016449,-2.0542521476745605,89,6524.0,-3.2729172706604004,30,9961.0
4270,0.31579825282096863,-1.6410768032073975,91,6524.0,-4.944579124450684,-155,9961.0
4280,0.31580451130867004,1.8078993558883667,-87,6524.0,-3.1820425987243652,-22,9961.0
4290,0.3166210949420929,1.98524010181427,60,6524.0,0.8014360666275024,140,9961.0
4300,0.3166006803512573,1.6073346138000488,-13,6524.0,5.500160217285156,-46,9961.0
4310,0.3166038990020752,1.063010811805725,-141,6524.0,4.361244201660156,42,9961.0
4320,0.31658241152763367,2.626544713973999,93,6524.0,9.583499908447266,300,9961.0
4330,0.31750327348709106,4.617703437805176,204,6524.0,3.0666091442108154,32,9961.0
4340,0.317562073469162,2.837646484375,57,6524.0,4.407951831817627,-61,9961.0
4350,0.31750333309173584,1.852738857269287,161,6524.0,-0.5712457299232483,-30,9961.0
4360,0.3175077736377716,1.5454373359680176,158,6524.0,-8.424298286437988,-131,9961.0
4370,0.31752222776412964,-1.3561464548110962,-64,6524.0,0.2951194643974304,-284,9961.0
4380,0.31766825914382935,-2.3334710597991943,-250,6524.0,-7.06071662902832,-142,9961.0
4390,0.31758251786231995,-6.153660297393799,-35,6524.0,-6.6610822677612305,46,9961.0
4400,0.3174949884414673,-2.98688006401062,-53,6524.0,-8.292349815368652,-85,9961.0
4410,0.31749099493026733,-3.529747247695923,-130,6524.0,-1.4197043180465698,44,9961.0
4420,0.31685271859169006,-1.8510866165161133,27,6524.0,0.012681303545832634,178,9961.0
4430,0.3167508840560913,0.012030862271785736,108,6524.0,2.813181161880493,-24,9961.0
4440,0.3166390359401703,-1.6209015846252441,-151,6524.0,10.621389389038086,17,9961.0
4450,0.3165186643600464,-1.3801923990249634,75,6524.0,7.421085834503174,172,9961.0
4460,0.31637465953826904,0.7601732611656189,75,6524.0,4.464939117431641,29,9961.0
4470,0.31819066405296326,0.1195944994688034,-53,6524.0,3.3928117752075195,-74,9961.0
4480,0.31816616654396057,-0.06262122839689255,-75,6524.0,-1.4317747354507446,16,9961.0
4490,0.3181852698326111,-0.8755930066108704,-5,6524.0,-1.8441705703735352,144,9961.0
4500,0.3182254433631897,-1.5498311519622803,83,6524.0,-8.262251853942871,-268,9961.0
4510,0.319364070892334,-2.7676961421966553,-127,6524.0,-9.595701217651367,-179,9961.0
4520,0.31941330432891846,-4.104841232299805,-72,6524.0,-5.9064202308654785,-135,9961.0
4530,0.3194454312324524,-2.4611356258392334,51,6524.0,-4.670411586761475,-352,9961.0
4540,0.31944340467453003,-1.5058913230895996,-114,6524.0,-1.2712122201919556,-24,9961.0
4550,0.32006505131721497,-2.3107752799987793,67,6524.0,-7.393185615539551,164,9961.0
4560,0.32008859515190125,0.22028566896915436,52,6524.0,6.762349605560303,82,9961.0
4570,0.32010918855667114,0.26583030819892883,-64,6524.0,9.551459312438965,195,9961.0
4580,0.3201127052307129,1.7457284927368164,23,6524.0,11.19804573059082,427,9961.0
4590,0.32009872794151306,4.650081157684326,150,6524.0,8.056564331054688,82,9961.0
4600,0.3200487196445465,5.823204040527344,1,6524.0,6.723273754119873,-76,9961.0
4610,0.3200567960739136,9.559463500976562,0,6524.0,1.6338858604431152,81,9961.0
4620,0.3201097249984741,2.4412784576416016,140,6524.0,0.4751589000225067,81,9961.0
4630,0.3200931251049042,1.9907591342926025,-26,6524.0,-3.2230384349823,-191,9961.0
4640,0.3212296962738037,-0.1798311471939087,-83,6524.0,-3.8420093059539795,-78,9961.0
4650,0.32127633690834045,-1.7896831035614014,25,6524.0,-4.141382694244385,38,9961.0
4660,0.32132455706596375,-0.2412465214729309,15,6524.0,-4.532247543334961,-241,9961.0
4670,0.3214280903339386,-4.106666564941406,-224,6524.0,-3.582193613052368,-76,9961.0
4680,0.32165059447288513,1.1862839460372925,25,6524.0,-4.583739757537842,79,9961.0
4690,0.3226843476295471,-2.1242713928222656,60,6524.0,4.546922206878662,-32,9961.0
4700,0.3228181004524231,-1.3853497505187988,-53,6524.0,6.741509914398193,64,9961.0
4710,0.3229638636112213,0.6679867506027222,73,6524.0,8.497479438781738,272,9961.0
4720,0.323108047246933,0.8260403871536255,191,6524.0,8.21268367767334,125,9961.0
4730,0.324377179145813,4.850945472717285,68,6524.0,7.395935535430908,-79,9961.0
4740,0.32457900047302246,0.4677983224391937,-119,6524.0,3.779402494430542,29,9961.0
4750,0.3247562348842621,3.0387988090515137,99,6524.0,-0.9933124780654907,175,9961.0
4760,0.3248719274997711,1.9102309942245483,-3,6524.0,-4.000616550445557,-101,9961.0
4770,0.3269886374473572,-0.683776319026947,-126,6524.0,-3.8040428161621094,35,9961.0
4780,0.32719725370407104,-1.2706201076507568,-9,6524.0,-7.869220733642578,60,9961.0
4790,0.32745110988616943,-0.15473872423171997,149,6524.0,-11.558462142944336,-192,9961.0
4800,0.32761988043785095,-2.3533995151519775,-150,6524.0,-2.140819549560547,-366,9961.0
4810,0.3279307782649994,-4.044917583465576,-101,6524.0,-3.725846767425537,40,9961.0
4820,0.32816872000694275,-8.297398567199707,-97,6524.0,-1.3619962930679321,-14,9961.0
4830,0.3283884525299072,-7.138928413391113,-136,6524.0,4.724462509155273,-51,9961.0
4840,0.3285282254219055,-0.008544587530195713,-25,6524.0,3.7748920917510986,175,9961.0
4850,0.32862573862075806,0.7436059713363647,209,6524.0,3.9681007862091064,146,9961.0
4860,0.3270323872566223,2.5927865505218506,100,6524.0,8.992026329040527,-71,9961.0
4870,0.3279109299182892,2.4045729637145996,-95,6524.0,2.563020944595337,27,9961.0
4880,0.3295149505138397,1.3650832176208496,11,6524.0,4.01383638381958,269,9961.0
4890,0.3294931650161743,8.114571571350098,115,6524.0,-2.334444046020508,2,9961.0
4900,0.32944634556770325,6.477718830108643,31,6524.0,-5.991560935974121,-121,9961.0
4910,0.328801691532135,7.921225547790527,113,6524.0,-3.0598807334899902,89,9961.0
4920,0.3288440406322479,5.5734758377075195,204,6524.0,-6.028799057006836,-19,9961.0
4930,0.3288247883319855,1.7335621118545532,-5,6524.0,-2.238053560256958,-253,9961.0
4940,0.32888540625572205,0.16294625401496887,-126,6524.0,-3.7362449169158936,-14,9961.0
4950,0.3306906223297119,-3.966175079345703,-18,6524.0,0.43694737553596497,78,9961.0
4960,0.33076635003089905,-4.61140251159668,-90,6524.0,4.420201301574707,-27,9961.0
4970,0.3308539092540741,-4.270030975341797,-148,6524.0,-0.013876564800739288,35,9961.0
4980,0.33091670274734497,-4.716955184936523,-19,6524.0,6.889926910400391,307,9961.0
4990,0.33088961243629456,-3.389633893966675,174,6524.0,7.842634677886963,143,9961.0
5000,0.33047908544540405,-0.5338729619979858,-104,6524.0,3.034846067428589,-125,9961.0
5010,0.3304109573364258,0.9768285751342773,-93,6524.0,2.0733513832092285,9,9961.0
5020,0.3302878141403198,2.60105299949646,55,6524.0,-1.8439583778381348,76,9961.0
5030,0.3301175534725189,0.900402843952179,69,6524.0,-6.91255521774292,-194,9961.0
5040,0.3298756182193756,1.5274595022201538,-49,6524.0,-11.919411659240723,-180,9961.0
5050,0.32963237166404724,2.9435904026031494,41,6524.0,-11.1663818359375,-48,9961.0
5060,0.329353392124176,-1.0775572061538696,57,6524.0,-8.93613052368164,-94,9961.0
5070,0.32906395196914673,-5.59165620803833,-143,6524.0,-5.85694694519043,-204,9961.0
5080,0.3291480243206024,-7.707381725311279,-194,6524.0,-2.8389129638671875,22,9961.0
5090,0.3289181590080261,-5.353107929229736,6,6524.0,2.1469979286193848,91,9961.0
5100,0.32871362566947937,4.020188808441162,68,6524.0,7.139040470123291,71,9961.0
5110,0.3285541236400604,19.709491729736328,256,6524.0,9.27099609375,31,9961.0
5120,0.3277243971824646,17.369417190551758,209,6524.0,8.345940589904785,240,9961.0
5130,0.32929015159606934,7.222314834594727,57,6524.0,9.186647415161133,-99,9961.0
5140,0.32883313298225403,-15.25102710723877,-401,6524.0,3.2784035205841064,-70,9961.0
5150,0.3290311396121979,-32.36457824707031,-606,6524.0,-1.0412101745605469,6,9961.0
5160,0.3281152844429016,-43.220584869384766,-720,6524.0,-4.621344566345215,-258,9961.0
5170,0.32927897572517395,-43.75996780395508,-861,6524.0,-7.383152484893799,-149,9961.0
5180,0.3294385075569153,-46.021820068359375,-883,6524.0,-9.133546829223633,-2,9961.0
5190,0.3295639455318451,-39.632694244384766,-523,6524.0,-4.947475910186768,-70,9961.0
5200,0.329474538564682,-31.062503814697266,-433,6524.0,0.578579306602478,-33,9961.0
5210,0.33013707399368286,-22.597789764404297,-345,6524.0,0.13408184051513672,124,9961.0
5220,0.3301644027233124,-11.683989524841309,-216,6524.0,4.771780967712402,257,9961.0
5230,0.3307358920574188,-6.403569221496582,-81,6524.0,1.5431009531021118,-64,9961.0
5240,0.3304913341999054,-4.039716720581055,-156,6524.0,-2.1391704082489014,-17,9961.0
5250,0.33103612065315247,-5.685227394104004,-104,6524.0,3.2465646266937256,194,9961.0
5260,0.3298453092575073,-8.955982208251953,-110,6524.0,5.7107768058776855,47,9961.0
5270,0.3303510844707489,-13.719903945922852,-329,6524.0,4.7160820960998535,-27,9961.0
5280,0.3299953043460846,-13.59875202178955,-234,6524.0,1.6685779094696045,151,9961.0
5290,0.3303781747817993,-18.910200119018555,-50,6524.0,-6.629530906677246,-157,9961.0
5300,0.3315880596637726,-18.197195053100586,-375,6524.0,2.737637519836426,-117,9961.0
5310,0.3318041265010834,-16.75617790222168,-294,6524.0,2.002168893814087,170,9961.0
5320,0.331866592168808,-15.55606746673584,-123,6524.0,2.835660219192505,82,9961.0
5330,0.3318465054035187,-15.840265274047852,-277,6524.0,-0.37437960505485535,-176,9961.0
5340,0.3320775330066681,-12.79245376586914,-312,6524.0,4.287774562835693,117,9961.0
5350,0.3320849537849426,-13.955528259277344,-223,6524.0,3.6017096042633057,102,9961.0
5360,0.3323381841182709,-13.476629257202148,-307,6524.0,4.3709492683410645,-79,9961.0
5370,0.3324874937534332,-6.950420379638672,-206,6524.0,3.4520742893218994,126,9961.0
5380,0.33243802189826965,-1.002205729484558,50,6524.0,3.7421414852142334,331,9961.0
5390,0.33425459265708923,7.3263349533081055,225,6524.0,-1.889905333518982,-41,9961.0
5400,0.3341611623764038,13.67458438873291,65,6524.0,1.2019071578979492,113,9961.0
5410,0.33440065383911133,4.379719257354736,103,6524.0,1.827440619468689,191,9961.0
5420,0.3344728648662567,-9.373602867126465,-184,6524.0,3.954336643218994,-68,9961.0
5430,0.33411717414855957,-14.646443367004395,-420,6524.0,-4.463687896728516,-40,9961.0
5440,0.334173321723938,-18.02019500732422,-245,6524.0,-2.99324631690979,-6,9961.0
5450,0.33408087491989136,-11.187814712524414,-226,6524.0,-1.4030150175094604,-35,9961.0
5460,0.3339114189147949,-5.549413681030273,-195,6524.0,5.933644771575928,91,9961.0
5470,0.3338403105735779,2.487358331680298,229,6524.0,8.663684844970703,340,9961.0
5480,0.33339887857437134,21.54055404663086,532,6524.0,-0.8595986366271973,53,9961.0
5490,0.3333427906036377,28.894981384277344,477,6524.0,6.7276153564453125,-48,9961.0
5500,0.33314070105552673,43.257850646972656,796,6524.0,4.991682052612305,145,9961.0
5510,0.3330393433570862,43.36457061767578,701,6524.0,6.093868255615234,-15,9961.0
5520,0.33241504430770874,30.827930450439453,269,6524.0,7.904033660888672,108,9961.0
5530,0.33261069655418396,16.411598205566406,249,6524.0,3.341874122619629,177,9961.0
5540,0.3324221968650818,4.354578018188477,-38,6524.0,-1.3877085447311401,-194,9961.0
5550,0.3324538767337799,-4.0286126136779785,-111,6524.0,-12.136987686157227,69,9961.0
5560,0.3316793739795685,-5.958101749420166,22,6524.0,-6.2364702224731445,-99,9961.0
5570,0.33167076110839844,-0.48839065432548523,-33,6524.0,-4.7317023277282715,-105,9961.0
5580,0.33149415254592896,4.062004566192627,132,6524.0,-0.3218522071838379,226,9961.0
5590,0.33151382207870483,8.75743293762207,355,6524.0,9.228191375732422,-45,9961.0
5600,0.33142760396003723,14.708651542663574,186,6524.0,8.77513313293457,97,9961.0
5610,0.3315522074699402,17.823244094848633,398,6524.0,8.700593948364258,110,9961.0
5620,0.3317323923110962,19.616714477539062,390,6524.0,4.544593811035156,-76,9961.0
5630,0.3317439556121826,21.841842651367188,163,6524.0,-3.463606119155884,-121,9961.0
5640,0.3316305875778198,19.23805809020996,354,6524.0,-6.808405876159668,64,9961.0
5650,0.3317734897136688,16.591991424560547,356,6524.0,-11.108011245727539,-231,9961.0
5660,0.33170250058174133,13.310935020446777,127,6524.0,-9.621480941772461,-173,9961.0
5670,0.3316437900066376,12.40116024017334,245,6524.0,-7.2808966636657715,24,9961.0
5680,0.3314934968948364,11.402823448181152,165,6524.0,-6.466617107391357,-180,9961.0
5690,0.3313506543636322,7.695483684539795,147,6524.0,1.5709724426269531,58,9961.0
5700,0.3295455574989319,13.02521800994873,321,6524.0,2.598327159881592,37,9961.0
5710,0.3295760452747345,13.216849327087402,176,6524.0,9.155265808105469,-43,9961.0
5720,0.3295130431652069,8.406420707702637,151,6524.0,4.502583980560303,116,9961.0
5730,0.3293711841106415,10.688121795654297,204,6524.0,4.101712703704834,-39,9961.0
5740,0.33140644431114197,10.211649894714355,82,6524.0,-1.2514578104019165,-101,9961.0
5750,0.3314274251461029,8.482705116271973,206,6524.0,-2.737943410873413,119,9961.0
5760,0.3314105272293091,5.810436725616455,117,6524.0,-3.3028221130371094,-114,9961.0
5770,0.3315461575984955,9.009464263916016,27,6524.0,-7.027700424194336,-157,9961.0
5780,0.33445826172828674,10.97010612487793,211,6524.0,-3.1202991008758545,64,9961.0
5790,0.334759384393692,12.287617683410645,299,6524.0,1.43514883518219,-67,9961.0
5800,0.3351067304611206,12.46764087677002,95,6524.0,-1.2895228862762451,-158,9961.0
5810,0.33530449867248535,9.865070343017578,142,6524.0,-1.8556272983551025,30,9961.0
5820,0.3361033499240875,9.436205863952637,283,6524.0,-1.1461681127548218,-49,9961.0
5830,0.33598363399505615,8.086594581604004,104,6524.0,0.1480932980775833,-82,9961.0
5840,0.33652400970458984,8.29014778137207,120,6524.0,0.7486305236816406,114,9961.0
5850,0.33701086044311523,7.3775153160095215,365,6524.0,5.109310626983643,88,9961.0
5860,0.3374582529067993,6.7348151206970215,47,6524.0,5.401086330413818,-77,9961.0
5870,0.3379148244857788,4.205653667449951,92,6524.0,5.638943195343018,92,9961.0
5880,0.3382967412471771,3.119330406188965,88,6524.0,1.5376379489898682,-73,9961.0
5890,0.33865734934806824,2.3309314250946045,-94,6524.0,1.0838860273361206,-50,9961.0
5900,0.33892735838890076,1.1780627965927124,82,6524.0,0.6837076544761658,235,9961.0
5910,0.3389253318309784,7.360536098480225,167,6524.0,-3.3809778690338135,-67,9961.0
5920,0.33931586146354675,7.332639217376709,90,6524.0,-3.9139041900634766,9,9961.0
5930,0.33970654010772705,6.8075852394104,187,6524.0,0.9285068511962891,89,9961.0
5940,0.34002941846847534,6.178638458251953,54,6524.0,3.6962084770202637,-88,9961.0
5950,0.34033527970314026,3.086681365966797,23,6524.0,4.281027317047119,56,9961.0
5960,0.3411073088645935,1.8334060907363892,178,6524.0,2.0657601356506348,-9,9961.0
5970,0.3413757383823395,2.8972532749176025,-56,6524.0,1.0525343418121338,100,9961.0
5980,0.3416482210159302,-1.3635939359664917,39,6524.0,3.7404708862304688,182,9961.0
5990,0.3420290946960449,-5.938106060028076,-82,6524.0,6.9837846755981445,-94,9961.0
6000,0.3413711190223694,-8.527573585510254,-264,6524.0,2.1583364009857178,-13,9961.0
6010,0.34149834513664246,-8.455759048461914,-85,6524.0,-2.616304636001587,57,9961.0
6020,0.3416686952114105,-8.74138069152832,-160,6524.0,0.9505765438079834,-94,9961.0
6030,0.34170249104499817,-6.093160629272461,-132,6524.0,-1.3131316900253296,41,9961.0
6040,0.3416978418827057,-3.1876842975616455,151,6524.0,-1.1449857950210571,63,9961.0
6050,0.34257546067237854,-3.1868250370025635,-66,6524.0,0.28130754828453064,-170,9961.0
6060,0.34246429800987244,1.6941050291061401,-117,6524.0,-0.6153662800788879,5,9961.0
6070,0.34250572323799133,0.5695840120315552,52,6524.0,-2.2877297401428223,102,9961.0
6080,0.3425751328468323,1.841812252998352,-14,6524.0,2.475435972213745,-42,9961.0
6090,0.34235355257987976,2.4506514072418213,-21,6524.0,5.004803657531738,142,9961.0
6100,0.3422648310661316,3.9576950073242188,171,6524.0,7.614487648010254,259,9961.0
6110,0.34212714433670044,5.883295059204102,274,6524.0,5.64270544052124,68,9961.0
6120,0.34197553992271423,2.8231616020202637,-50,6524.0,4.539032459259033,17,9961.0
6130,0.34262025356292725,-1.316420316696167,-19,6524.0,7.4975080490112305,151,9961.0
6140,0.34254756569862366,-4.3922271728515625,-13,6524.0,4.530031681060791,48,9961.0
6150,0.3424590528011322,-7.95755672454834,-176,6524.0,4.748072624206543,-183,9961.0
6160,0.34236738085746765,-4.407124042510986,-280,6524.0,-1.5382730960845947,-84,9961.0
6170,0.3422609269618988,-5.730901718139648,-88,6524.0,-1.47367525100708,148,9961.0
6180,0.3408786654472351,-6.555679798126221,-68,6524.0,-1.3501251935958862,-46,9961.0
6190,0.34073400497436523,-2.4428136348724365,-98,6524.0,0.2664317786693573,-138,9961.0
6200,0.3405967950820923,-0.06861899793148041,-97,6524.0,1.3292369842529297,45,9961.0
6210,0.34045344591140747,3.3186538219451904,122,6524.0,3.5832579135894775,129,9961.0
6220,0.3413063585758209,-2.02937650680542,72,6524.0,3.566685914993286,1,9961.0
6230,0.3411635458469391,-2.1551625728607178,-128,6524.0,3.664844036102295,-15,9961.0
6240,0.34106433391571045,-5.772873878479004,-113,6524.0,2.4973669052124023,189,9961.0
6250,0.3410004675388336,-5.712489128112793,16,6524.0,3.7607593536376953,61,9961.0
6260,0.3409588634967804,-11.428845405578613,-213,6524.0,5.792225360870361,-110,9961.0
6270,0.33972224593162537,-7.728358268737793,-240,6524.0,3.0354251861572266,-69,9961.0
6280,0.33961477875709534,-8.629892349243164,-51,6524.0,-0.18037788569927216,-7,9961.0
6290,0.33952727913856506,-6.921101093292236,-18,6524.0,-4.159486293792725,-111,9961.0
6300,0.33945900201797485,-5.907830238342285,-116,6524.0,-2.2389979362487793,-234,9961.0
6310,0.3392298221588135,-6.462822914123535,-262,6524.0,-2.5892105102539062,29,9961.0
6320,0.33919599652290344,-7.662598133087158,-51,6524.0,4.5982584953308105,19,9961.0
6330,0.339166522026062,-0.688359797000885,121,6524.0,-1.960621953010559,-222,9961.0
6340,0.33912208676338196,-0.645159125328064,-53,6524.0,-0.1458260416984558,-204,9961.0
6350,0.33754679560661316,2.0668556690216064,-25,6524.0,-2.4626879692077637,110,9961.0
6360,0.33746546506881714,1.788879156112671,190,6524.0,2.205188751220703,-116,9961.0
6370,0.33741503953933716,3.4473793506622314,114,6524.0,5.132405757904053,-77,9961.0
6380,0.33739060163497925,1.051819920539856,-118,6524.0,1.9634606838226318,139,9961.0
6390,0.3373551666736603,-0.7257201075553894,51,6524.0,0.3311229646205902,-45,9961.0
6400,0.3383588194847107,-0.6162625551223755,-117,6524.0,3.1928718090057373,-26,9961.0
6410,0.3383547067642212,-3.048678159713745,-48,6524.0,2.0985612869262695,162,9961.0
6420,0.3383457064628601,-3.9103102684020996,100,6524.0,0.12886133790016174,-11,9961.0
6430,0.3383185863494873,-1.8975143432617188,-76,6524.0,-2.442288637161255,-139,9961.0
6440,0.34016355872154236,-3.9387717247009277,-99,6524.0,-2.739863157272339,59,9961.0
6450,0.34036532044410706,-3.9276905059814453,29,6524.0,-2.3403356075286865,36,9961.0
6460,0.3405334949493408,-3.6721701622009277,-96,6524.0,-2.020414352416992,-116,9961.0
6470,0.34067150950431824,-4.738471031188965,-197,6524.0,-2.668741226196289,-86,9961.0
6480,0.34089717268943787,-4.2319159507751465,-23,6524.0,-4.501532077789307,32,9961.0
6490,0.34113484621047974,-4.444144248962402,-11,6524.0,-2.013975143432617,-114,9961.0
6500,0.3412923216819763,-3.267570972442627,-129,6524.0,-4.3791093826293945,-216,9961.0
6510,0.34140804409980774,-2.8904929161071777,-29,6524.0,-6.257007122039795,-42,9961.0
6520,0.341660737991333,-1.910361647605896,105,6524.0,-5.184847831726074,-44,9961.0
6530,0.3411169648170471,-2.7047619819641113,-96,6524.0,-2.795783519744873,-177,9961.0
6540,0.34124618768692017,0.6411888003349304,3,6524.0,-6.632697105407715,-60,9961.0
6550,0.3413415551185608,-0.5591771602630615,80,6524.0,-6.063602447509766,-74,9961.0
6560,0.3414194583892822,-2.0532798767089844,-64,6524.0,-4.6872758865356445,-151,9961.0
6570,0.341353178024292,-2.975379467010498,-44,6524.0,-1.7727055549621582,9,9961.0
6580,0.3414648771286011,-5.049798011779785,100,6524.0,0.23966258764266968,-22,9961.0
6590,0.3415463864803314,-4.555627822875977,-106,6524.0,-2.618567943572998,-219,9961.0
6600,0.34160611033439636,-5.253211975097656,-145,6524.0,-1.3375884294509888,-56,9961.0
6610,0.3416532874107361,-7.84271764755249,-62,6524.0,-0.5391944050788879,-4,9961.0
6620,0.34224921464920044,-7.281360626220703,-131,6524.0,-3.4501259326934814,-223,9961.0
6630,0.34239786863327026,-0.789273202419281,-232,6524.0,-14.795035362243652,-233,9961.0
6640,0.3425537049770355,-5.502790927886963,-23,6524.0,-8.025893211364746,-22,9961.0
6650,0.3427755832672119,-6.843292713165283,-80,6524.0,-6.278965950012207,-170,9961.0
6660,0.34296131134033203,-2.206840753555298,-216,6524.0,-1.3771096467971802,14,9961.0
6670,0.34323254227638245,0.28565043210983276,143,6524.0,1.1001790761947632,130,9961.0
6680,0.34334638714790344,-0.6511213779449463,-23,6524.0,-2.328134775161743,-25,9961.0
6690,0.34357473254203796,1.4994182586669922,-79,6524.0,-2.3301842212677,-12,9961.0
6700,0.3431274890899658,-1.0980947017669678,-19,6524.0,0.06004816293716431,167,9961.0
6710,0.3432694673538208,-5.468562126159668,-52,6524.0,-6.825949192047119,-144,9961.0
6720,0.3434284031391144,-3.677298069000244,-166,6524.0,-5.377447128295898,6,9961.0
6730,0.3435768783092499,-3.222679376602173,-7,6524.0,-6.410800933837891,73,9961.0
6740,0.34372106194496155,-1.4497113227844238,-92,6524.0,-1.9818495512008667,-154,9961.0
6750,0.34350278973579407,1.2928991317749023,-70,6524.0,-5.749090194702148,-43,9961.0
6760,0.34365880489349365,1.8544843196868896,118,6524.0,1.0331368446350098,94,9961.0
6770,0.34377381205558777,4.62214469909668,22,6524.0,-0.5841736197471619,-134,9961.0
6780,0.343850702047348,4.29186487197876,45,6524.0,-0.2570035457611084,35,9961.0
6790,0.3435637056827545,4.012762546539307,202,6524.0,2.3623788356781006,-2,9961.0
6800,0.3436407744884491,5.104176044464111,19,6524.0,-5.6075825691223145,-137,9961.0
6810,0.34369993209838867,4.0490803718566895,94,6524.0,-1.0499616861343384,143,9961.0
6820,0.3437432050704956,0.8245697617530823,209,6524.0,0.45095735788345337,-84,9961.0
6830,0.34380123019218445,1.223289132118225,-91,6524.0,1.1890723705291748,-73,9961.0
6840,0.3451361358165741,-0.059136729687452316,41,6524.0,4.075758457183838,137,9961.0
6850,0.3452760875225067,-1.9133846759796143,28,6524.0,3.741816282272339,-74,9961.0
6860,0.3454125225543976,1.9353128671646118,-100,6524.0,-0.401737779378891,50,9961.0
6870,0.3455786406993866,-1.8119683265686035,48,6524.0,4.586696147918701,101,9961.0
6880,0.3454500734806061,-0.23084807395935059,-42,6524.0,3.4665799140930176,-75,9961.0
6890,0.34556934237480164,2.0585153102874756,-34,6524.0,0.3347688317298889,-49,9961.0
6900,0.3456902503967285,3.1704375743865967,226,6524.0,-1.930956244468689,-25,9961.0
6910,0.34580522775650024,4.191205024719238,38,6524.0,-0.7271344661712646,-77,9961.0
6920,0.3458794057369232,3.9164230823516846,38,6524.0,1.6091392040252686,94,9961.0
6930,0.3471803367137909,4.6457200050354,208,6524.0,3.653398036956787,25,9961.0
6940,0.3473203182220459,2.6868464946746826,2,6524.0,1.2665283679962158,-19,9961.0
6950,0.34749409556388855,1.826966404914856,84,6524.0,2.4741828441619873,217,9961.0
6960,0.347684383392334,2.5128471851348877,185,6524.0,2.8321259021759033,52,9961.0
6970,0.3459385931491852,2.05676007270813,-23,6524.0,2.5477375984191895,-14,9961.0
6980,0.34606245160102844,0.6144794821739197,48,6524.0,1.576870083808899,-88,9961.0
6990,0.3462330400943756,0.8206291198730469,-8,6524.0,0.8244835734367371,-49,9961.0
7000,0.3463890254497528,-5.25995397567749,-209,6524.0,-0.9334953427314758,96,9961.0
7010,0.3463282883167267,-4.959775447845459,-62,6524.0,1.896960735321045,-70,9961.0
7020,0.3464752435684204,-1.9909638166427612,-57,6524.0,1.8827303647994995,1,9961.0
7030,0.3466411530971527,-1.4760586023330688,26,6524.0,2.9054176807403564,264,9961.0
7040,0.34680506587028503,-0.7758204936981201,20,6524.0,6.695104122161865,98,9961.0
7050,0.3469773232936859,4.828702926635742,-18,6524.0,3.6333863735198975,26,9961.0
7060,0.34710559248924255,5.3666768074035645,186,6524.0,1.3829513788223267,184,9961.0
7070,0.3472990095615387,8.184932708740234,137,6524.0,-3.6946258544921875,-113,9961.0
7080,0.3474932610988617,6.959125518798828,-49,6524.0,-3.8826072216033936,-119,9961.0
7090,0.34768953919410706,2.1249616146087646,44,6524.0,0.7838406562805176,83,9961.0
7100,0.34715211391448975,1.992722988128662,72,6524.0,-3.4653565883636475,-108,9961.0
7110,0.3472437262535095,3.9970285892486572,-78,6524.0,3.064354658126831,12,9961.0
7120,0.34736552834510803,2.070796251296997,41,6524.0,0.16261069476604462,201,9961.0
7130,0.34745410084724426,2.977100372314453,21,6524.0,-0.7197481393814087,-58,9961.0
7140,0.3465792238712311,2.5513312816619873,-43,6524.0,-0.4328954219818115,1,9961.0
7150,0.3465643525123596,-0.5079091787338257,84,6524.0,-2.13627552986145,150,9961.0
7160,0.3465747535228729,2.42112398147583,35,6524.0,1.3224257230758667,-32,9961.0
7170,0.3465333878993988,3.003849744796753,-19,6524.0,-3.2875096797943115,97,9961.0
7180,0.34646084904670715,1.6071250438690186,155,6524.0,1.180720567703247,160,9961.0
7190,0.34740182757377625,5.37331485748291,14,6524.0,4.435924053192139,-100,9961.0
7200,0.34736284613609314,0.6580202579498291,-49,6524.0,1.3754961490631104,122,9961.0
7210,0.34734946489334106,0.8271744251251221,111,6524.0,-0.8746984601020813,40,9961.0
7220,0.3473435640335083,1.2996978759765625,-6,6524.0,0.9338333010673523,-122,9961.0
7230,0.3460729718208313,-1.3285263776779175,-106,6524.0,-4.023691177368164,79,9961.0
7240,0.345994770526886,-1.0113040208816528,46,6524.0,-1.3111414909362793,-29,9961.0
7250,0.3459051251411438,-3.6381406784057617,-112,6524.0,2.287895917892456,-164,9961.0
7260,0.34581461548805237,-2.902238130569458,-53,6524.0,-2.7512922286987305,48,9961.0
7270,0.3457043468952179,-4.248929977416992,-13,6524.0,-1.568834662437439,-52,9961.0
7280,0.3456849157810211,-3.3206734657287598,-159,6524.0,0.22912082076072693,-72,9961.0
7290,0.345574289560318,-0.08917511999607086,59,6524.0,-3.6733505725860596,82,9961.0
7300,0.34549006819725037,-0.3664843440055847,119,6524.0,-7.494695663452148,-143,9961.0
7310,0.34540730714797974,-0.05991053208708763,-52,6524.0,-1.687511682510376,-33,9961.0
7320,0.3436340093612671,1.5187724828720093,90,6524.0,-2.328484535217285,149,9961.0
7330,0.3435141444206238,-0.47573158144950867,56,6524.0,4.051011085510254,15,9961.0
7340,0.3434242904186249,1.3357053995132446,-37,6524.0,5.387700080871582,153,9961.0
7350,0.3433307409286499,1.6401951313018799,134,6524.0,5.774389743804932,155,9961.0
7360,0.34430646896362305,1.403247356414795,-13,6524.0,7.244619369506836,65,9961.0
7370,0.34433504939079285,2.714432716369629,-19,6524.0,4.120882034301758,110,9961.0
7380,0.34438827633857727,0.15976585447788239,102,6524.0,1.9692471027374268,57,9961.0
7390,0.3443935811519623,-0.6137540936470032,-21,6524.0,0.2719532251358032,-243,9961.0
7400,0.3443962633609772,-1.053072214126587,-74,6524.0,-3.184887647628784,-27,9961.0
7410,0.3438545763492584,-2.8387019634246826,38,6524.0,-2.610283136367798,-37,9961.0
7420,0.34391698241233826,-0.14899878203868866,-32,6524.0,-1.0176753997802734,-175,9961.0
7430,0.3439624607563019,-2.0401418209075928,-153,6524.0,3.2495779991149902,102,9961.0
7440,0.3440721035003662,0.5817878246307373,86,6524.0,-1.5010017156600952,-27,9961.0
7450,0.34564125537872314,1.4752434492111206,-45,6524.0,0.24212746322155,-136,9961.0
7460,0.3457653820514679,0.02673187106847763,-29,6524.0,2.1967101097106934,10,9961.0
7470,0.3459579646587372,-4.559502124786377,-12,6524.0,6.726163387298584,132,9961.0
7480,0.34619584679603577,-1.909777045249939,-92,6524.0,3.8383209705352783,14,9961.0
7490,0.3464019298553467,-2.624452590942383,-7,6524.0,3.4017555713653564,167,9961.0
7500,0.3464585542678833,-4.0799689292907715,50,6524.0,6.405777931213379,9,9961.0
7510,0.34673571586608887,-2.560394525527954,-122,6524.0,2.173841714859009,-3,9961.0
7520,0.34696483612060547,-5.3290557861328125,-37,6524.0,2.330463171005249,210,9961.0
7530,0.34755343198776245,-7.0827226638793945,67,6524.0,3.0993261337280273,-30,9961.0
7540,0.3474806249141693,0.3001262843608856,-136,6524.0,-3.199941635131836,-134,9961.0
7550,0.34765973687171936,-4.627291202545166,-22,6524.0,-1.015341877937317,56,9961.0
7560,0.34808388352394104,-3.7562155723571777,19,6524.0,-3.1335737705230713,-67,9961.0
7570,0.34828975796699524,-1.944041132926941,-41,6524.0,-2.3246567249298096,-210,9961.0
7580,0.3483743965625763,-1.6540112495422363,-35,6524.0,-2.3643758296966553,31,9961.0
7590,0.34857216477394104,-0.014749941416084766,81,6524.0,-1.411569356918335,-48,9961.0
7600,0.3487611711025238,2.6397788524627686,-30,6524.0,1.3985008001327515,138,9961.0
7610,0.34899720549583435,3.839658498764038,53,6524.0,1.0680208206176758,83,9961.0
7620,0.3492058515548706,0.07542183995246887,25,6524.0,10.745762825012207,-73,9961.0
7630,0.3500758111476898,7.0200934410095215,26,6524.0,-0.12464243173599243,23,9961.0
7640,0.3503079116344452,5.582586288452148,144,6524.0,-0.2675977051258087,1,9961.0
7650,0.3505152463912964,4.875538349151611,8,6524.0,-0.2555494010448456,-124,9961.0
7660,0.35068830847740173,0.8881407380104065,-104,6524.0,2.9132027626037598,73,9961.0
7670,0.3509068787097931,-1.299104928970337,51,6524.0,2.0348544120788574,152,9961.0
7680,0.3510276973247528,-2.151919364929199,-61,6524.0,0.36780568957328796,-118,9961.0
7690,0.3511541187763214,0.18109014630317688,-25,6524.0,0.4017201364040375,57,9961.0
7700,0.3512793183326721,2.356767416000366,91,6524.0,0.7243402600288391,147,9961.0
7710,0.3508869707584381,2.9439475536346436,53,6524.0,0.40708887577056885,-143,9961.0
7720,0.35096314549446106,6.660195350646973,26,6524.0,-0.41054755449295044,-15,9961.0
7730,0.3509729206562042,5.254534721374512,92,6524.0,-0.5333347916603088,96,9961.0
7740,0.35104289650917053,4.791226863861084,112,6524.0,1.3256477117538452,-51,9961.0
7750,0.3511011600494385,4.73316764831543,-55,6524.0,-0.8126969933509827,-24,9961.0
7760,0.351102352142334,4.191279411315918,17,6524.0,-2.830881357192993,85,9961.0
7770,0.351157546043396,2.858506679534912,138,6524.0,3.531451940536499,66,9961.0
7780,0.3511723577976227,5.497002601623535,0,6524.0,1.3476277589797974,-42,9961.0
7790,0.3511534333229065,2.0400500297546387,-36,6524.0,2.153761625289917,92,9961.0
7800,0.35146576166152954,-8.915873527526855,-74,6524.0,4.4050445556640625,205,9961.0
7810,0.3514520525932312,0.594646692276001,-25,6524.0,-1.8548402786254883,-49,9961.0
7820,0.35144805908203125,-3.5999863147735596,-121,6524.0,-0.7780656218528748,69,9961.0
7830,0.3514484465122223,-3.920834541320801,4,6524.0,0.02795187570154667,196,9961.0
7840,0.3514372706413269,-0.9882363677024841,49,6524.0,-0.5308064222335815,-52,9961.0
7850,0.35203927755355835,-3.015651226043701,-119,6524.0,3.56788969039917,-143,9961.0
7860,0.3520408570766449,0.5428774356842041,-5,6524.0,-2.4090356826782227,-17,9961.0
7870,0.35199257731437683,2.303316354751587,136,6524.0,-0.08820270746946335,60,9961.0
7880,0.35189440846443176,2.288827419281006,-23,6524.0,2.136141777038574,-96,9961.0
7890,0.35144931077957153,3.892068862915039,-83,6524.0,-0.6280925869941711,-91,9961.0
7900,0.35127460956573486,-0.16153627634048462,56,6524.0,-5.313148498535156,44,9961.0
7910,0.3510967493057251,-3.739502429962158,56,6524.0,-0.9298216700553894,-46,9961.0
7920,0.3508863151073456,-0.02404104731976986,-64,6524.0,0.024133756756782532,-86,9961.0
7930,0.35064640641212463,-1.5632259845733643,-85,6524.0,4.638935089111328,196,9961.0
7940,0.34973594546318054,-1.3997948169708252,-42,6524.0,0.8817747235298157,133,9961.0
7950,0.34945571422576904,-5.883106231689453,-33,6524.0,1.0939092636108398,-12,9961.0
7960,0.34919774532318115,-3.32094144821167,-99,6524.0,0.24212706089019775,-91,9961.0
7970,0.3489346504211426,-2.2287325859069824,-51,6524.0,-0.8996599316596985,43,9961.0
7980,0.3472835421562195,-2.920684337615967,77,6524.0,-1.0416396856307983,104,9961.0
7990,0.34700947999954224,-1.9965330362319946,107,6524.0,-5.201133728027344,-164,9961.0
8000,0.34674373269081116,-1.2022035121917725,-68,6524.0,-2.050258159637451,-152,9961.0
8010,0.3464983403682709,2.703646183013916,66,6524.0,-4.037555694580078,-42,9961.0
8020,0.34617581963539124,1.1338188648223877,108,6524.0,-1.837287425994873,-6,9961.0
8030,0.34597817063331604,4.595264911651611,44,6524.0,0.7751989960670471,-140,9961.0
8040,0.34581154584884644,5.34703254699707,-44,6524.0,5.8536601066589355,-20,9961.0
8050,0.3457208275794983,1.6659210920333862,17,6524.0,4.0651373863220215,175,9961.0
8060,0.3456284999847412,-0.45786991715431213,127,6524.0,5.923468112945557,202,9961.0
8070,0.34570977091789246,-1.841455340385437,-28,6524.0,-1.4713544845581055,-56,9961.0
8080,0.3456686735153198,-2.451798677444458,-165,6524.0,-3.0834591388702393,-116,9961.0
8090,0.3456515669822693,-3.588615655899048,-50,6524.0,-1.477834701538086,96,9961.0
8100,0.3457053005695343,-4.022587776184082,48,6524.0,-1.0474522113800049,47,9961.0
8110,0.3438588082790375,0.8695187568664551,-26,6524.0,-3.562782049179077,-72,9961.0
8120,0.34389111399650574,-4.757511615753174,-177,6524.0,-1.7250475883483887,32,9961.0
8130,0.343968003988266,-3.1001298427581787,-12,6524.0,0.3336140513420105,146,9961.0
8140,0.3440384566783905,-1.7340501546859741,81,6524.0,-1.4898157119750977,34,9961.0
8150,0.3452643156051636,0.7183429002761841,-211,6524.0,0.9371399283409119,-66,9961.0
8160,0.3454541862010956,1.2208517789840698,-7,6524.0,0.4976625442504883,73,9961.0
8170,0.3456294536590576,-0.5082389116287231,98,6524.0,4.2561235427856445,144,9961.0
8180,0.3458172380924225,2.2854325771331787,33,6524.0,7.628570556640625,-19,9961.0
8190,0.34601813554763794,-0.6399848461151123,-94,6524.0,5.303686141967773,67,9961.0
8200,0.3458407521247864,-0.749912440776825,41,6524.0,4.786769866943359,148,9961.0
8210,0.3460719585418701,-0.17112834751605988,47,6524.0,0.1008918359875679,-106,9961.0
8220,0.3462918996810913,0.3832969665527344,-141,6524.0,-2.4943106174468994,84,9961.0
8230,0.34651604294776917,-3.891984224319458,-210,6524.0,-2.4906702041625977,123,9961.0
8240,0.34684884548187256,-3.3710994720458984,-104,6524.0,-4.054632663726807,-200,9961.0
8250,0.347059041261673,-1.4490768909454346,-97,6524.0,-6.393808841705322,72,9961.0
8260,0.3472607433795929,-2.676203489303589,-163,6524.0,-3.624915361404419,82,9961.0
8270,0.3474316895008087,-2.05777645111084,-100,6524.0,-2.9396002292633057,-72,9961.0
8280,0.3476254642009735,-1.321292519569397,-165,6524.0,3.4273204803466797,184,9961.0
8290,0.3467486500740051,-0.013073512353003025,-4,6524.0,4.698909282684326,161,9961.0
8300,0.34688901901245117,1.2050867080688477,46,6524.0,7.378118991851807,142,9961.0
8310,0.34703895449638367,1.4559985399246216,-103,6524.0,5.345010280609131,71,9961.0
8320,0.3471863567829132,0.42809784412384033,53,6524.0,4.924898147583008,196,9961.0
8330,0.3460296392440796,0.6803511381149292,71,6524.0,2.0628416538238525,-21,9961.0
8340,0.34615230560302734,-0.3490056097507477,-62,6524.0,-2.558077335357666,-284,9961.0
8350,0.346274197101593,-0.34572169184684753,-69,6524.0,-0.6732575297355652,97,9961.0
8360,0.3464122414588928,-6.87996244430542,12,6524.0,0.816935122013092,44,9961.0
8370,0.3471148908138275,-3.511948823928833,-147,6524.0,1.9957802295684814,-67,9961.0
8380,0.34729108214378357,-2.291219711303711,-119,6524.0,-3.0945727825164795,31,9961.0
8390,0.34753304719924927,-1.8460952043533325,67,6524.0,3.7876977920532227,177,9961.0
8400,0.3477495610713959,-0.7252170443534851,50,6524.0,-0.28289350867271423,-77,9961.0
8410,0.34796348214149475,1.4689885377883911,-12,6524.0,4.742055892944336,60,9961.0
8420,0.3474139869213104,3.351301908493042,137,6524.0,1.999942660331726,203,9961.0
8430,0.34759825468063354,3.8194239139556885,92,6524.0,6.68043851852417,91,9961.0
8440,0.3477994203567505,8.234781265258789,-32,6524.0,5.1069560050964355,-114,9961.0
8450,0.34799426794052124,6.05250883102417,66,6524.0,6.369446754455566,117,9961.0
8460,0.34893253445625305,3.7172253131866455,74,6524.0,3.33821702003479,2,9961.0
8470,0.3491513729095459,-2.6420509815216064,-116,6524.0,3.03053879737854,-75,9961.0
8480,0.3493739366531372,-3.1171162128448486,-73,6524.0,0.7287988066673279,-1,9961.0
8490,0.3495754897594452,-8.362318992614746,60,6524.0,-0.35683298110961914,21,9961.0
8500,0.3494633436203003,-4.760577201843262,-90,6524.0,-4.703471660614014,-153,9961.0
8510,0.3496667146682739,-3.655522346496582,7,6524.0,-2.5461411476135254,-49,9961.0
8520,0.3498327434062958,0.9336627125740051,116,6524.0,-0.1110781878232956,23,9961.0
8530,0.34995877742767334,0.7297234535217285,13,6524.0,-0.8898209929466248,-168,9961.0
8540,0.35004493594169617,4.954711437225342,-135,6524.0,0.8700675964355469,-12,9961.0
8550,0.34968650341033936,2.575951099395752,96,6524.0,-0.559969425201416,92,9961.0
8560,0.3497055768966675,2.5609967708587646,49,6524.0,3.8532681465148926,-29,9961.0
8570,0.34973958134651184,4.309156894683838,-7,6524.0,2.956704616546631,-3,9961.0
8580,0.34978950023651123,3.959625482559204,104,6524.0,2.192521095275879,201,9961.0
8590,0.34949740767478943,0.6014607548713684,179,6524.0,5.215697288513184,97,9961.0
8600,0.3495180606842041,0.8466966152191162,25,6524.0,2.002885103225708,-170,9961.0
8610,0.349549800157547,1.4047638177871704,1,6524.0,-5.029487609863281,-59,9961.0
8620,0.34960809350013733,-2.835069179534912,28,6524.0,-4.874642372131348,-42,9961.0
8630,0.34967929124832153,-1.6285818815231323,-51,6524.0,-8.652274131774902,-262,9961.0
8640,0.35071200132369995,0.27886873483657837,-177,6524.0,-9.653421401977539,-118,9961.0
8650,0.3508695662021637,-2.055321455001831,-65,6524.0,-7.909200191497803,-42,9961.0
8660,0.35102805495262146,1.0911096334457397,70,6524.0,-1.1047947406768799,-13,9961.0
8670,0.35126474499702454,-2.182868003845215,-83,6524.0,1.5863615274429321,26,9961.0
8680,0.3520875871181488,-0.5920248031616211,5,6524.0,5.846969127655029,245,9961.0
8690,0.3523325026035309,-1.8437360525131226,123,6524.0,6.221799373626709,191,9961.0
8700,0.35259076952934265,-0.9468531608581543,-70,6524.0,5.3594746589660645,-109,9961.0
8710,0.3528795540332794,-0.3126087486743927,-67,6524.0,2.6201930046081543,34,9961.0
8720,0.353141188621521,-1.463652491569519,25,6524.0,2.3909120559692383,93,9961.0
8730,0.35415613651275635,-1.989385724067688,-73,6524.0,-2.243845224380493,-117,9961.0
8740,0.35443365573883057,-1.0612177848815918,-138,6524.0,-10.059136390686035,-152,9961.0
8750,0.3547074794769287,-2.609642505645752,-39,6524.0,-7.567645072937012,184,9961.0
8760,0.3549764156341553,-5.733170986175537,231,6524.0,-4.566283226013184,-155,9961.0
8770,0.35523703694343567,0.03914322704076767,-56,6524.0,-7.70238733291626,-108,9961.0
8780,0.3554686903953552,5.260914325714111,71,6524.0,-0.7709454298019409,29,9961.0
8790,0.3556849956512451,4.655026435852051,165,6524.0,2.165982723236084,17,9961.0
8800,0.35587531328201294,8.421687126159668,29,6524.0,3.4149694442749023,-68,9961.0
8810,0.3548189401626587,5.154133319854736,16,6524.0,2.7920994758605957,102,9961.0
8820,0.35491105914115906,6.508829116821289,181,6524.0,3.313737154006958,215,9961.0
8830,0.35499337315559387,2.463909864425659,8,6524.0,1.8673900365829468,-12,9961.0
8840,0.35506099462509155,0.514769971370697,38,6524.0,0.2921368479728699,120,9961.0
8850,0.35519713163375854,-0.8015991449356079,41,6524.0,-0.009078986011445522,-79,9961.0
8860,0.3547741770744324,0.13628250360488892,-136,6524.0,-2.6505768299102783,-172,9961.0
8870,0.35481393337249756,-1.2540937662124634,-90,6524.0,-6.04269552230835,86,9961.0
8880,0.35480621457099915,-3.921898603439331,29,6524.0,-1.6402630805969238,49,9961.0
8890,0.3547571301460266,-4.272058010101318,-78,6524.0,-6.627463340759277,-204,9961.0
8900,0.35440292954444885,-4.901681423187256,-146,6524.0,-6.275557994842529,-92,9961.0
8910,0.3542885482311249,-4.0599822998046875,-9,6524.0,-7.247081756591797,12,9961.0
8920,0.35416939854621887,-1.4501768350601196,42,6524.0,-4.689157485961914,-161,9961.0
8930,0.3541026711463928,3.961911678314209,-88,6524.0,-0.7717928886413574,-50,9961.0
8940,0.35407769680023193,6.353290557861328,86,6524.0,-5.377186298370361,234,9961.0
8950,0.3535895049571991,2.13315486907959,308,6524.0,5.551800727844238,82,9961.0
8960,0.35351765155792236,1.2747514247894287,2,6524.0,6.877603054046631,48,9961.0
8970,0.3534436523914337,1.890737533569336,60,6524.0,1.8776589632034302,126,9961.0
8980,0.35336947441101074,0.6311668157577515,116,6524.0,2.0690114498138428,88,9961.0
8990,0.3531801402568817,-0.8240470886230469,19,6524.0,4.78117036819458,-141,9961.0
9000,0.353085994720459,2.016749620437622,-58,6524.0,-9.600248336791992,-242,9961.0
9010,0.3530368208885193,0.7804071307182312,-22,6524.0,-9.938610076904297,-14,9961.0
9020,0.3530046343803406,-6.8611860275268555,15,6524.0,0.9318739771842957,-68,9961.0
9030,0.35338863730430603,-3.4374303817749023,-132,6524.0,-2.2298567295074463,-76,9961.0
9040,0.35341230034828186,-6.672848224639893,-60,6524.0,-3.9934794902801514,102,9961.0
9050,0.3534615635871887,-9.04720401763916,65,6524.0,0.24571819603443146,-81,9961.0
9060,0.35349923372268677,-3.2463526725769043,-112,6524.0,-2.719860076904297,-308,9961.0
9070,0.3535268306732178,-5.080690860748291,-149,6524.0,-4.626487731933594,-23,9961.0
9080,0.3541744351387024,-0.6731671690940857,73,6524.0,-4.429478645324707,-8,9961.0
9090,0.3542802333831787,0.1986580342054367,-32,6524.0,1.766965627670288,-141,9961.0
9100,0.3543863296508789,3.6149308681488037,-59,6524.0,0.6947075724601746,28,9961.0
9110,0.35452988743782043,4.184783935546875,113,6524.0,-1.2227020263671875,189,9961.0
9120,0.35519132018089294,2.439147472381592,162,6524.0,-0.6352405548095703,67,9961.0
9130,0.35534974932670593,-3.735635995864868,-156,6524.0,2.174384593963623,-210,9961.0
9140,0.3555191159248352,-1.1500705480575562,-95,6524.0,0.7292664647102356,13,9961.0
9150,0.3556565046310425,-2.142937183380127,-4,6524.0,-4.516268253326416,-53,9961.0
9160,0.3566306233406067,-2.6772899627685547,-118,6524.0,-3.6208767890930176,-154,9961.0
9170,0.3568015992641449,-0.07974375784397125,-69,6524.0,-3.43605375289917,12,9961.0
9180,0.35699722170829773,0.7612878680229187,98,6524.0,-4.1565165519714355,144,9961.0
9190,0.3572068512439728,2.324737310409546,162,6524.0,-3.056471586227417,-58,9961.0
9200,0.35738441348075867,-2.057170867919922,-77,6524.0,-2.012063980102539,-84,9961.0
9210,0.35734736919403076,1.0920507907867432,40,6524.0,-0.5914632678031921,110,9961.0
9220,0.35739651322364807,-0.8525958061218262,27,6524.0,1.5481380224227905,-3,9961.0
9230,0.3574228286743164,-2.185598850250244,-62,6524.0,-2.3293709754943848,-149,9961.0
9240,0.35742127895355225,-0.06292124837636948,-34,6524.0,-4.839905261993408,115,9961.0
9250,0.3576415181159973,-1.2308610677719116,165,6524.0,-9.408363342285156,-105,9961.0
9260,0.3576318621635437,-0.391573429107666,-158,6524.0,-1.847143530845642,-163,9961.0
9270,0.35759279131889343,-0.9340821504592896,-33,6524.0,-0.16320450603961945,22,9961.0
9280,0.35750341415405273,-0.9906566739082336,76,6524.0,-0.24884949624538422,42,9961.0
9290,0.3573985993862152,3.463036298751831,-28,6524.0,3.766596555709839,-3,9961.0
9300,0.35673609375953674,6.6683549880981445,60,6524.0,6.80035400390625,189,9961.0
9310,0.3566308319568634,6.015214920043945,202,6524.0,6.3708906173706055,243,9961.0
9320,0.35653775930404663,9.570006370544434,141,6524.0,5.639717102050781,-15,9961.0
9330,0.3565310835838318,7.122466564178467,45,6524.0,6.312182426452637,117,9961.0
9340,0.3570747971534729,5.416823863983154,158,6524.0,6.401552677154541,119,9961.0
9350,0.35704338550567627,7.624101161956787,80,6524.0,-0.730356752872467,-157,9961.0
9360,0.3570321798324585,0.7204344272613525,-184,6524.0,-2.4380340576171875,113,9961.0
9370,0.3570254147052765,3.197660446166992,113,6524.0,-6.345643520355225,-36,9961.0
9380,0.35699930787086487,2.710987091064453,21,6524.0,-5.971446514129639,-114,9961.0
9390,0.35697656869888306,0.9394946694374084,-86,6524.0,-3.45949125289917,64,9961.0
9400,0.3569665849208832,-0.5067861676216125,79,6524.0,0.7062801122665405,118,9961.0
9410,0.35695043206214905,-0.40574362874031067,-58,6524.0,-0.7587510347366333,-70,9961.0
9420,0.35692691802978516,-1.3016393184661865,-9,6524.0,-1.6624504327774048,43,9961.0
9430,0.3585381507873535,-1.4864981174468994,72,6524.0,3.373664140701294,-108,9961.0
9440,0.35862499475479126,-1.4822314977645874,-58,6524.0,3.9108314514160156,19,9961.0
9450,0.35870423913002014,-1.5352267026901245,-41,6524.0,3.223473310470581,165,9961.0
9460,0.35880374908447266,-3.007568120956421,21,6524.0,7.30068302154541,-4,9961.0
9470,0.35813212394714355,-1.1041879653930664,-108,6524.0,3.3499019145965576,175,9961.0
9480,0.3582351505756378,-3.208672523498535,-47,6524.0,7.603489875793457,198,9961.0
9490,0.3583403527736664,-3.9288222789764404,-86,6524.0,-1.8970825672149658,-161,9961.0
9500,0.3585510849952698,-2.960923671722412,-86,6524.0,-0.5108237862586975,27,9961.0
9510,0.3587522804737091,-4.045657157897949,20,6524.0,-2.6879029273986816,-88,9961.0
9520,0.3589809834957123,-4.887190818786621,-163,6524.0,1.0200451612472534,-240,9961.0
9530,0.35912734270095825,-1.9470956325531006,-68,6524.0,0.2918207049369812,107,9961.0
9540,0.3592739403247833,-6.708789348602295,-40,6524.0,-3.9672470092773438,-72,9961.0
9550,0.3593813478946686,-5.3446269035339355,-175,6524.0,-0.22400036454200745,-41,9961.0
9560,0.35933735966682434,-6.724059104919434,-98,6524.0,1.6220524311065674,298,9961.0
9570,0.3594299852848053,-7.095032691955566,-35,6524.0,1.8279412984848022,25,9961.0
9580,0.3594959080219269,-4.996061325073242,-144,6524.0,3.432868242263794,112,9961.0
9590,0.3595667779445648,-2.7605233192443848,20,6524.0,3.5700371265411377,156,9961.0
9600,0.3602096140384674,0.6542812585830688,35,6524.0,5.31942081451416,-33,9961.0
9610,0.3603520095348358,3.236678123474121,-105,6524.0,3.064824104309082,69,9961.0
9620,0.36046838760375977,4.207616806030273,96,6524.0,3.2506794929504395,181,9961.0
9630,0.36059296131134033,2.7181665897369385,-3,6524.0,6.4943461418151855,11,9961.0
9640,0.36066868901252747,0.22547002136707306,-49,6524.0,3.6926450729370117,97,9961.0
9650,0.3612457811832428,-1.365131139755249,100,6524.0,-1.0837233066558838,105,9961.0
9660,0.3613508939743042,-5.3014912605285645,-73,6524.0,0.22375908493995667,-63,9961.0
9670,0.36146071553230286,-1.9064152240753174,-50,6524.0,-1.8058212995529175,2,9961.0
9680,0.36156806349754333,-2.2025816440582275,78,6524.0,-2.205803632736206,-7,9961.0
9690,0.36376243829727173,-1.4836324453353882,-52,6524.0,-0.3268221616744995,-222,9961.0
9700,0.36397406458854675,1.974827766418457,-95,6524.0,0.7088475823402405,74,9961.0
9710,0.36417582631111145,-0.4801900088787079,42,6524.0,-1.202079176902771,32,9961.0
9720,0.3643391728401184,-1.5455189943313599,-62,6524.0,4.375157356262207,-24,9961.0
9730,0.3644465506076813,-0.3132653832435608,22,6524.0,4.037260055541992,213,9961.0
9740,0.36478033661842346,-0.6632554531097412,155,6524.0,2.156378984451294,67,9961.0
9750,0.36492156982421875,-1.06862211227417,-17,6524.0,1.7689610719680786,-27,9961.0
9760,0.36503371596336365,-2.0200295448303223,41,6524.0,2.514784812927246,156,9961.0
9770,0.36505597829818726,-6.432496547698975,-54,6524.0,2.4555728435516357,-162,9961.0
9780,0.3646846115589142,-3.8527917861938477,-203,6524.0,-3.4979114532470703,84,9961.0
9790,0.3646639287471771,-4.886878967285156,-26,6524.0,-6.832786560058594,-146,9961.0
9800,0.3645916283130646,-2.8372979164123535,-44,6524.0,-6.971704483032227,-249,9961.0
9810,0.364485502243042,-0.6833574175834656,-20,6524.0,-6.926263809204102,-29,9961.0
9820,0.3653959333896637,1.0630069971084595,198,6524.0,-6.987199783325195,-102,9961.0
9830,0.3653131127357483,3.5327532291412354,61,6524.0,-1.9350205659866333,-77,9961.0
9840,0.365170419216156,4.29303503036499,205,6524.0,-2.227656126022339,37,9961.0
9850,0.3650033175945282,6.038149356842041,91,6524.0,3.4233057498931885,-79,9961.0
9860,0.36483994126319885,4.626394271850586,27,6524.0,1.4318246841430664,31,9961.0
9870,0.36508968472480774,2.525146484375,115,6524.0,4.515781402587891,16,9961.0
9880,0.36486905813217163,-0.4867500066757202,-93,6524.0,4.09625768661499,-113,9961.0
9890,0.36465755105018616,-1.653040885925293,-14,6524.0,3.111773729324341,99,9961.0
9900,0.36446645855903625,-2.892613410949707,-36,6524.0,0.027186932042241096,-111,9961.0
9910,0.36415794491767883,-3.322019577026367,-188,6524.0,-0.49184373021125793,-5,9961.0
9920,0.36392566561698914,-3.213209629058838,25,6524.0,-4.631889343261719,24,9961.0
9930,0.36368051171302795,-4.150424003601074,-149,6524.0,-2.368089437484741,-117,9961.0
9940,0.3634422719478607,-5.158570289611816,-98,6524.0,-0.8675355315208435,168,9961.0
9950,0.3631746470928192,-0.4592975676059723,104,6524.0,-0.5079483985900879,91,9961.0
9960,0.36447781324386597,-3.086533546447754,-86,6524.0,6.602958679199219,47,9961.0
9970,0.3642982542514801,-1.3933809995651245,31,6524.0,7.388052940368652,259,9961.0
9980,0.3641394376754761,1.9392435550689697,185,6524.0,4.18446683883667,44,9961.0
9990,0.36394867300987244,2.5931789875030518,-55,6524.0,5.0740814208984375,-47,9961.0
10000,0.3641796112060547,-1.8711045980453491,25,6524.0,3.1394922733306885,149,9961.0
10010,0.3640463352203369,-3.1741466522216797,14,6524.0,6.7739667892456055,-68,9961.0
10020,0.3639351427555084,-2.834712028503418,-173,6524.0,1.3419831991195679,-3,9961.0
10030,0.3638468384742737,-6.632544994354248,-16,6524.0,6.079767227172852,177,9961.0
10040,0.36378106474876404,-3.935711622238159,1,6524.0,4.2368597984313965,-12,9961.0
10050,0.36466044187545776,-0.2591596245765686,-86,6524.0,-2.3902416229248047,-18,9961.0
10060,0.36465176939964294,1.694107174873352,97,6524.0,-2.6416518688201904,139,9961.0
10070,0.36463361978530884,1.8767194747924805,61,6524.0,-0.4681742489337921,20,9961.0
10080,0.36462098360061646,1.452567219734192,33,6524.0,-4.379124164581299,-22,9961.0
10090,0.3639639616012573,0.922014594078064,31,6524.0,-2.1200647354125977,-113,9961.0
10100,0.3639240562915802,3.2621047496795654,13,6524.0,-0.17243869602680206,10,9961.0
10110,0.3638717830181122,2.2305397987365723,83,6524.0,0.31532225012779236,76,9961.0
10120,0.36383897066116333,2.5617449283599854,11,6524.0,-0.8982987403869629,-129,9961.0
10130,0.36308008432388306,2.32367205619812,34,6524.0,-1.1543775796890259,78,9961.0
10140,0.36298325657844543,1.0640112161636353,97,6524.0,2.8079662322998047,-105,9961.0
10150,0.36289408802986145,3.2353620529174805,-114,6524.0,-3.605756998062134,-113,9961.0
10160,0.3628104627132416,0.9680829048156738,83,6524.0,-1.2712005376815796,83,9961.0
10170,0.36269906163215637,1.602211833000183,5,6524.0,0.19875818490982056,-87,9961.0
10180,0.36188676953315735,0.719443678855896,-72,6524.0,0.29329749941825867,99,9961.0
10190,0.36173132061958313,-1.7741179466247559,111,6524.0,2.858492612838745,140,9961.0
10200,0.3615761995315552,-0.7893099188804626,-71,6524.0,1.3488553762435913,-42,9961.0
10210,0.3613835871219635,0.47309327125549316,22,6524.0,5.275341033935547,159,9961.0
10220,0.3613996207714081,1.1318014860153198,19,6524.0,3.1744282245635986,-64,9961.0
10230,0.36118555068969727,7.738704204559326,-73,6524.0,-2.576665163040161,-63,9961.0
10240,0.3609692454338074,2.5399322509765625,132,6524.0,-4.979274272918701,-56,9961.0
10250,0.36072731018066406,2.773139715194702,6,6524.0,-5.553462505340576,-146,9961.0
10260,0.3606703281402588,2.7451627254486084,44,6524.0,-8.741077423095703,-12,9961.0
10270,0.36042407155036926,1.6952930688858032,175,6524.0,-4.785665512084961,-119,9961.0
10280,0.36019405722618103,3.314943552017212,-40,6524.0,-1.6246511936187744,-27,9961.0
10290,0.35994845628738403,4.170846462249756,129,6524.0,-1.3848412036895752,115,9961.0
10300,0.35968485474586487,0.33728355169296265,-1,6524.0,4.151937484741211,-98,9961.0
10310,0.35959312319755554,1.1276702880859375,43,6524.0,4.805592060089111,158,9961.0
10320,0.3593916594982147,-0.1295238733291626,28,6524.0,5.048327922821045,-66,9961.0
10330,0.35918667912483215,1.2559820413589478,-119,6524.0,7.3204522132873535,33,9961.0
10340,0.3589494824409485,2.3256492614746094,119,6524.0,0.5889148712158203,82,9961.0
10350,0.35949206352233887,1.8367798328399658,-2,6524.0,0.7489601969718933,-126,9961.0
10360,0.3592738211154938,1.5016988515853882,9,6524.0,-5.6233320236206055,82,9961.0
10370,0.3590555489063263,0.12987744808197021,82,6524.0,-7.110172748565674,-65,9961.0
10380,0.3588317930698395,-2.34794282913208,-59,6524.0,-5.92229700088501,-26,9961.0
10390,0.35797619819641113,-1.6430755853652954,99,6524.0,-3.777301788330078,49,9961.0
10400,0.35773965716362,0.02006498910486698,-11,6524.0,-1.6880377531051636,-128,9961.0
10410,0.3575383424758911,0.19636932015419006,-14,6524.0,0.29866597056388855,51,9961.0
10420,0.3573813736438751,0.7035035490989685,67,6524.0,-0.6138467788696289,-117,9961.0
10430,0.3572040796279907,5.082590103149414,-97,6524.0,1.433381199836731,20,9961.0
10440,0.35817623138427734,-1.6118239164352417,23,6524.0,3.957512855529785,117,9961.0
10450,0.3581339418888092,-3.2909631729125977,-152,6524.0,4.5433030128479,-36,9961.0
10460,0.35807737708091736,-5.763064384460449,-41,6524.0,1.2655385732650757,167,9961.0
10470,0.3580344021320343,-3.32729434967041,-2,6524.0,-1.7914161682128906,-53,9961.0
10480,0.35918277502059937,0.41077375411987305,-70,6524.0,-4.345459461212158,-29,9961.0
10490,0.3591735363006592,-0.06117064505815506,106,6524.0,-2.418426990509033,6,9961.0
10500,0.3591713309288025,-2.3337056636810303,-81,6524.0,2.5676701068878174,-74,9961.0
10510,0.35916638374328613,2.9306581020355225,109,6524.0,-6.829392910003662,-9,9961.0
10520,0.35913658142089844,-0.37343448400497437,-2,6524.0,-0.23797643184661865,-174,9961.0
10530,0.3590788245201111,1.6871546506881714,8,6524.0,-4.232719421386719,-23,9961.0
10540,0.35911330580711365,-2.2650721073150635,15,6524.0,2.1869921684265137,-103,9961.0
10550,0.359187513589859,-0.7033047080039978,-164,6524.0,-0.321483850479126,45,9961.0
10560,0.359214723110199,-4.014261245727539,51,6524.0,3.925931692123413,64,9961.0
10570,0.35992100834846497,-3.1250085830688477,-103,6524.0,4.998952388763428,70,9961.0
10580,0.35992345213890076,-1.0154848098754883,60,6524.0,6.4863128662109375,204,9961.0
10590,0.35993850231170654,0.7717832922935486,4,6524.0,6.943820953369141,47,9961.0
10600,0.3599757254123688,2.7817349433898926,36,6524.0,2.581929922103882,191,9961.0
10610,0.36002570390701294,2.367074489593506,39,6524.0,3.0247035026550293,-89,9961.0
10620,0.35923683643341064,-0.3740936517715454,-74,6524.0,-4.3783369064331055,42,9961.0
10630,0.35929420590400696,-2.5281779766082764,20,6524.0,-0.9272460341453552,-96,9961.0
10640,0.359305202960968,-2.840188503265381,-135,6524.0,-4.116673469543457,-95,9961.0
10650,0.3593050539493561,-2.75675630569458,21,6524.0,-6.708322525024414,58,9961.0
10660,0.35916900634765625,-4.299605846405029,-111,6524.0,-3.9357712268829346,-55,9961.0
10670,0.3591479957103729,-0.6084310412406921,18,6524.0,-5.198686122894287,50,9961.0
10680,0.3591558337211609,0.43376362323760986,-17,6524.0,0.20992334187030792,-199,9961.0
10690,0.35918816924095154,-0.0863938257098198,19,6524.0,-1.8780778646469116,-8,9961.0
10700,0.35915517807006836,0.6997328996658325,7,6524.0,1.5007202625274658,-6,9961.0
10710,0.35928887128829956,-1.349611759185791,64,6524.0,2.8222832679748535,148,9961.0
10720,0.35937267541885376,-3.5731329917907715,-104,6524.0,1.4716289043426514,-44,9961.0
10730,0.35944345593452454,-5.36131477355957,-72,6524.0,3.7423954010009766,124,9961.0
10740,0.3595181405544281,-5.424846172332764,-93,6524.0,1.6852145195007324,-166,9961.0
10750,0.35902178287506104,-2.851006507873535,-168,6524.0,1.6936731338500977,100,9961.0
10760,0.3591119050979614,-6.669374942779541,-61,6524.0,1.6605076789855957,-23,9961.0
10770,0.359220415353775,-4.11513614654541,-139,6524.0,-6.238152980804443,22,9961.0
10780,0.3593175709247589,-2.4735593795776367,126,6524.0,-7.48847770690918,-96,9961.0
10790,0.36049148440361023,-2.088299036026001,-141,6524.0,-0.5356273651123047,-57,9961.0
10800,0.3606754243373871,2.9604365825653076,69,6524.0,-5.4897356033325195,39,9961.0
10810,0.3608681559562683,2.5304183959960938,-87,6524.0,2.135133981704712,-4,9961.0
10820,0.36106473207473755,3.760709285736084,97,6524.0,1.9395661354064941,42,9961.0
10830,0.3607634902000427,4.73621129989624,17,6524.0,7.344398021697998,26,9961.0
10840,0.3609180450439453,3.566575288772583,112,6524.0,3.5301907062530518,227,9961.0
10850,0.3610619604587555,1.4519087076187134,22,6524.0,4.682748317718506,-47,9961.0
10860,0.3612171709537506,-0.47040119767189026,-23,6524.0,0.9916886687278748,27,9961.0
10870,0.36138948798179626,0.299243301153183,-15,6524.0,-1.953771710395813,-164,9961.0
10880,0.3605998456478119,-1.7923178672790527,-108,6524.0,-8.81515884399414,-52,9961.0
10890,0.3606656491756439,1.7188364267349243,69,6524.0,-10.95861530303955,-162,9961.0
10900,0.3606914281845093,0.9562692642211914,-58,6524.0,-7.56448221206665,6,9961.0
10910,0.3607109487056732,-0.8607491850852966,126,6524.0,0.3699852526187897,-88,9961.0
10920,0.3605089783668518,5.586297512054443,-19,6524.0,1.9973320960998535,53,9961.0
10930,0.3606407046318054,3.7468249797821045,120,6524.0,1.0656318664550781,-33,9961.0
10940,0.36074298620224,5.010697364807129,-55,6524.0,3.2478041648864746,128,9961.0
10950,0.36082562804222107,3.718001127243042,97,6524.0,7.844836235046387,97,9961.0
10960,0.3608555197715759,2.152521848678589,-19,6524.0,6.8265604972839355,186,9961.0
10970,0.35842767357826233,0.8600508570671082,151,6524.0,7.062906742095947,133,9961.0
10980,0.35828062891960144,1.1405853033065796,-45,6524.0,4.710171699523926,64,9961.0
10990,0.358126163482666,-3.253140449523926,79,6524.0,1.8052985668182373,-51,9961.0
11000,0.35794001817703247,-3.381946563720703,-219,6524.0,1.078430414199829,-6,9961.0
11010,0.3577752411365509,-4.1701154708862305,-49,6524.0,-2.381335735321045,-85,9961.0
11020,0.3575763404369354,-5.476710319519043,-170,6524.0,-4.120899677276611,-225,9961.0
11030,0.35733455419540405,-3.1310293674468994,-30,6524.0,-6.219583034515381,-30,9961.0
11040,0.3570467233657837,-4.111848831176758,-36,6524.0,-4.35209321975708,-128,9961.0
11050,0.35604220628738403,-0.3407708704471588,-31,6524.0,-5.785926818847656,147,9961.0
11060,0.3557448387145996,-0.5566067695617676,64,6524.0,-4.4506072998046875,-73,9961.0
11070,0.3554464280605316,4.583694934844971,9,6524.0,-1.7399563789367676,83,9961.0
11080,0.3551895320415497,3.746431350708008,102,6524.0,2.065687417984009,-39,9961.0
11090,0.35488593578338623,2.4831559658050537,-45,6524.0,4.1050639152526855,53,9961.0
11100,0.3554365932941437,2.279090404510498,119,6524.0,5.262024879455566,18,9961.0
11110,0.3551936149597168,2.6648130416870117,-101,6524.0,4.010880947113037,65,9961.0
11120,0.35496923327445984,3.9658002853393555,116,6524.0,-1.6682610511779785,-86,9961.0
11130,0.35477250814437866,0.6004503965377808,-21,6524.0,-6.289259433746338,-136,9961.0
11140,0.3538355827331543,-0.3685459494590759,6,6524.0,-4.954563617706299,96,9961.0
11150,0.3535673916339874,-3.9436357021331787,-92,6524.0,-1.784270167350769,-110,9961.0
11160,0.35335856676101685,-4.540005207061768,-74,6524.0,-0.9959427714347839,124,9961.0
11170,0.35316503047943115,-4.279633522033691,-4,6524.0,4.0525383949279785,-46,9961.0
11180,0.3529830574989319,-4.172200679779053,-42,6524.0,4.414547920227051,71,9961.0
11190,0.3528359830379486,0.9083278179168701,107,6524.0,3.4299659729003906,-128,9961.0
11200,0.35266008973121643,1.126631259918213,-88,6524.0,3.7611594200134277,20,9961.0
11210,0.3525157868862152,2.897838592529297,61,6524.0,0.9787473082542419,15,9961.0
11220,0.352390855550766,2.7958521842956543,-107,6524.0,0.41467586159706116,-3,9961.0
11230,0.3529680371284485,-1.710958480834961,68,6524.0,-0.29325711727142334,-8,9961.0
11240,0.35297465324401855,-2.7232460975646973,-91,6524.0,-1.8807287216186523,-96,9961.0
11250,0.3529987633228302,-3.5171701908111572,44,6524.0,-1.325819730758667,13,9961.0
11260,0.3530046343803406,-4.16455078125,-36,6524.0,-2.0185415744781494,-194,9961.0
11270,0.35307902097702026,-3.7138001918792725,27,6524.0,-0.14813265204429626,87,9961.0
11280,0.3539515733718872,-0.5033861398696899,-37,6524.0,2.503051280975342,-154,9961.0
11290,0.3540773093700409,-0.1335591822862625,10,6524.0,2.0811195373535156,130,9961.0
11300,0.3542288541793823,1.0666793584823608,-2,6524.0,6.242050647735596,153,9961.0
11310,0.3544134199619293,0.3729320764541626,-19,6524.0,6.382284164428711,52,9961.0
11320,0.3560046851634979,3.241870403289795,92,6524.0,0.6819515228271484,40,9961.0
11330,0.3561662435531616,1.9676542282104492,59,6524.0,3.680997133255005,-1,9961.0
11340,0.3563327193260193,3.5771541595458984,-64,6524.0,6.640004634857178,-37,9961.0
11350,0.3565307557582855,1.046309471130371,92,6524.0,2.316391706466675,14,9961.0
11360,0.35734280943870544,0.8438939452171326,-26,6524.0,3.489379405975342,-22,9961.0
11370,0.35761576890945435,1.045924425125122,109,6524.0,0.36223867535591125,248,9961.0
11380,0.35785767436027527,2.534837007522583,-38,6524.0,-4.691651821136475,-22,9961.0
11390,0.35806041955947876,1.0460702180862427,63,6524.0,1.441893219947815,66,9961.0
11400,0.35820600390434265,0.2050858587026596,-129,6524.0,2.8721001148223877,-22,9961.0
11410,0.35783347487449646,-0.24181774258613586,78,6524.0,7.153836250305176,76,9961.0
11420,0.3579012155532837,-0.30524298548698425,-54,6524.0,8.097851753234863,170,9961.0
11430,0.35791483521461487,-0.3893824517726898,145,6524.0,3.1512155532836914,28,9961.0
11440,0.3579184114933014,0.01758338138461113,-82,6524.0,0.6688499450683594,-58,9961.0
11450,0.35832664370536804,3.0489563941955566,50,6524.0,3.2647247314453125,62,9961.0
11460,0.3582684397697449,3.2930805683135986,-22,6524.0,2.239426612854004,70,9961.0
11470,0.3581523895263672,3.3224217891693115,199,6524.0,1.6640372276306152,14,9961.0
11480,0.35795196890830994,5.743925094604492,53,6524.0,1.030990481376648,43,9961.0
11490,0.35890913009643555,4.525753974914551,151,6524.0,1.134917974472046,-61,9961.0
11500,0.35876643657684326,5.571243762969971,-92,6524.0,1.1882588863372803,96,9961.0
11510,0.3586544394493103,2.916011095046997,96,6524.0,0.10400862246751785,-5,9961.0
11520,0.3586121201515198,2.269387722015381,-36,6524.0,0.7730270028114319,90,9961.0
11530,0.3585778474807739,-1.9778157472610474,114,6524.0,2.5961050987243652,-75,9961.0
11540,0.36032605171203613,-2.491778612136841,-79,6524.0,-0.7097576856613159,-50,9961.0
11550,0.3603220582008362,-0.16536664962768555,42,6524.0,0.024731798097491264,-115,9961.0
11560,0.36027663946151733,1.872280478477478,-90,6524.0,-1.1721495389938354,37,9961.0
11570,0.3602796494960785,0.44690436124801636,90,6524.0,-1.8641066551208496,91,9961.0
11580,0.3608529567718506,1.9277459383010864,11,6524.0,1.0768835544586182,107,9961.0
11590,0.3608536124229431,2.0546839237213135,174,6524.0,0.9009172916412354,42,9961.0
11600,0.3608495891094208,1.5265405178070068,-44,6524.0,2.2201874256134033,-41,9961.0
11610,0.360847145318985,3.3908462524414062,91,6524.0,-2.452772617340088,-65,9961.0
11620,0.36088019609451294,3.4684789180755615,-69,6524.0,-1.6975677013397217,-36,9961.0
11630,0.36133435368537903,1.6216851472854614,179,6524.0,-4.049325942993164,-13,9961.0
11640,0.36131662130355835,2.453212022781372,25,6524.0,-5.915719032287598,-103,9961.0
11650,0.3612491488456726,1.5492486953735352,99,6524.0,-5.020806312561035,-60,9961.0
11660,0.36126407980918884,-1.0271008014678955,-78,6524.0,-2.974407196044922,-61,9961.0
11670,0.36189377307891846,-3.0526795387268066,20,6524.0,-8.586012840270996,-129,9961.0
11680,0.36189574003219604,-2.166126012802124,-167,6524.0,-2.9202613830566406,-91,9961.0
11690,0.3618386685848236,-6.2502593994140625,13,6524.0,-1.6231789588928223,-103,9961.0
11700,0.36184069514274597,-3.012422800064087,-62,6524.0,-5.532498836517334,-94,9961.0
11710,0.3624882400035858,-1.2939164638519287,43,6524.0,-6.423803806304932,-119,9961.0
11720,0.36250442266464233,-1.780132532119751,-108,6524.0,-3.4623758792877197,-114,9961.0
11730,0.36230629682540894,1.5527393817901611,21,6524.0,-7.034482002258301,-117,9961.0
11740,0.36231178045272827,2.395829439163208,-87,6524.0,-7.43689489364624,-48,9961.0
11750,0.36222025752067566,0.09398045390844345,129,6524.0,-5.002983093261719,-99,9961.0
11760,0.3616715669631958,0.9601885080337524,-17,6524.0,-7.45626163482666,-33,9961.0
11770,0.36153286695480347,-1.1502972841262817,102,6524.0,-4.297267913818359,-90,9961.0
11780,0.3613695800304413,-3.201249599456787,-128,6524.0,-4.5509185791015625,-25,9961.0
11790,0.3611672818660736,-4.164914608001709,-6,6524.0,-1.1287517547607422,-97,9961.0
11800,0.3609475791454315,-3.324963092803955,-215,6524.0,-2.1710205078125,-33,9961.0
11810,0.3606748878955841,-6.2012176513671875,-36,6524.0,2.398648977279663,79,9961.0
11820,0.36041760444641113,-3.8822555541992188,-160,6524.0,0.9504263997077942,-42,9961.0
11830,0.36019304394721985,-6.309737205505371,10,6524.0,0.9403734803199768,99,9961.0
11840,0.35996538400650024,-6.655411243438721,-131,6524.0,3.088392972946167,70,9961.0
11850,0.3581604063510895,-5.656994342803955,-48,6524.0,4.888452053070068,124,9961.0
11860,0.35771095752716064,-4.856433868408203,-132,6524.0,3.6026690006256104,-87,9961.0
11870,0.35721355676651,-3.976372480392456,-99,6524.0,-8.096498489379883,1,9961.0
11880,0.3568243086338043,-3.0895254611968994,58,6524.0,-1.2319035530090332,-166,9961.0
11890,0.35506191849708557,-0.832395613193512,-76,6524.0,-2.264953851699829,22,9961.0
11900,0.3545614778995514,-1.225130319595337,174,6524.0,2.4229884147644043,67,9961.0
11910,0.35406693816185,1.2569724321365356,-73,6524.0,-0.8944897055625916,-102,9961.0
11920,0.3535763919353485,0.1958698034286499,-1,6524.0,3.860914468765259,60,9961.0
11930,0.35306528210639954,-1.3661110401153564,-138,6524.0,6.021947860717773,136,9961.0
11940,0.3525717258453369,-2.5381834506988525,70,6524.0,4.823276519775391,234,9961.0
11950,0.35205912590026855,-3.4607150554656982,-70,6524.0,3.8447396755218506,-14,9961.0
11960,0.3515627086162567,-4.292962551116943,-73,6524.0,4.560537338256836,111,9961.0
11970,0.35116854310035706,-7.069218635559082,11,6524.0,3.967766284942627,-20,9961.0
11980,0.35167789459228516,-3.7002758979797363,-176,6524.0,-0.12740764021873474,-124,9961.0
11990,0.35134196281433105,-2.1801161766052246,30,6524.0,-1.3834352493286133,12,9961.0
12000,0.35102754831314087,0.7942826747894287,168,6524.0,-5.537771701812744,-67,9961.0
12010,0.3507818877696991,4.222128868103027,-4,6524.0,-6.070873260498047,-102,9961.0
12020,0.3515118956565857,7.587994575500488,164,6524.0,-3.2279138565063477,83,9961.0
12030,0.35137274861335754,5.683379650115967,120,6524.0,4.3216233253479,-115,9961.0
12040,0.35129377245903015,8.220928192138672,-3,6524.0,1.3582628965377808,70,9961.0
12050,0.35126954317092896,5.363966464996338,149,6524.0,4.022275447845459,67,9961.0
12060,0.35154989361763,5.572790145874023,33,6524.0,2.9782421588897705,-58,9961.0
12070,0.3516031801700592,4.585883140563965,60,6524.0,3.4430806636810303,266,9961.0
12080,0.35172325372695923,0.7763054370880127,95,6524.0,1.083418369293213,7,9961.0
12090,0.35188180208206177,0.05140816047787666,-87,6524.0,-2.0543129444122314,16,9961.0
12100,0.3521125018596649,-2.165313959121704,41,6524.0,-3.361178398132324,-4,9961.0
12110,0.3522179126739502,-1.661766767501831,-101,6524.0,-8.850479125976562,-279,9961.0
12120,0.3524492084980011,-2.4009807109832764,-71,6524.0,-5.7499680519104,70,9961.0
12130,0.3527211844921112,-3.2964844703674316,-60,6524.0,-4.424543380737305,-105,9961.0
12140,0.3530038595199585,-3.08481502532959,-82,6524.0,-0.9938950538635254,67,9961.0
12150,0.35469964146614075,0.46588853001594543,137,6524.0,0.03247758001089096,30,9961.0
12160,0.35508063435554504,1.0414806604385376,-1,6524.0,2.731780767440796,47,9961.0
12170,0.35553890466690063,-0.3134753108024597,37,6524.0,3.4942433834075928,144,9961.0
12180,0.3559507429599762,0.19270449876785278,-6,6524.0,0.6990705728530884,-247,9961.0
12190,0.3563351333141327,-0.1755969226360321,-93,6524.0,-4.509261608123779,-7,9961.0
12200,0.35518878698349,-0.33953535556793213,85,6524.0,-7.7201247215271,-145,9961.0
12210,0.35538145899772644,-3.0437798500061035,-101,6524.0,-6.311552047729492,-61,9961.0
12220,0.3555518090724945,-2.329464912414551,104,6524.0,-9.910202980041504,-248,9961.0
12230,0.35570481419563293,0.6655142903327942,-61,6524.0,-2.559418201446533,-176,9961.0
12240,0.35591283440589905,3.2239623069763184,111,6524.0,-2.2039601802825928,-5,9961.0
12250,0.3560697138309479,1.5416845083236694,-33,6524.0,4.340094089508057,-41,9961.0
12260,0.35618865489959717,-0.15408100187778473,40,6524.0,4.490042209625244,250,9961.0
12270,0.3563220798969269,-0.09667439758777618,51,6524.0,5.8412370681762695,-40,9961.0
12280,0.3555343449115753,1.0003559589385986,15,6524.0,4.548289775848389,77,9961.0
12290,0.3555859625339508,1.5296671390533447,86,6524.0,1.222619891166687,-113,9961.0
12300,0.35560113191604614,1.339154839515686,-144,6524.0,-1.9114108085632324,2,9961.0
12310,0.3555677533149719,0.2589259147644043,74,6524.0,-0.4787995219230652,-11,9961.0
12320,0.3554936647415161,2.263207197189331,23,6524.0,0.7103084325790405,-137,9961.0
12330,0.35528144240379333,1.128980278968811,108,6524.0,-4.0056657791137695,17,9961.0
12340,0.35522186756134033,1.9721556901931763,26,6524.0,-4.555837154388428,-260,9961.0
12350,0.3551308214664459,2.9429848194122314,-7,6524.0,1.0953072309494019,75,9961.0
12360,0.35502126812934875,3.5225956439971924,90,6524.0,1.5963183641433716,19,9961.0
12370,0.35453906655311584,3.723940372467041,-15,6524.0,4.222329616546631,154,9961.0
12380,0.3544136583805084,2.326096773147583,203,6524.0,4.495518207550049,31,9961.0
12390,0.35427775979042053,2.6615090370178223,-56,6524.0,0.030062280595302582,-85,9961.0
12400,0.35409408807754517,1.1063451766967773,12,6524.0,1.8106850385665894,5,9961.0
12410,0.35386329889297485,0.27859917283058167,-27,6524.0,1.1289900541305542,-189,9961.0
12420,0.3533746600151062,-0.7065249085426331,-15,6524.0,-3.012101411819458,32,9961.0
12430,0.3531685471534729,1.5541958808898926,53,6524.0,-6.088971138000488,-152,9961.0
12440,0.3528834879398346,3.043060541152954,44,6524.0,-5.6739349365234375,15,9961.0
12450,0.35258179903030396,3.7537600994110107,164,6524.0,-0.9066178202629089,-60,9961.0
12460,0.3532925248146057,4.647375583648682,-10,6524.0,1.284692406654358,35,9961.0
12470,0.35306990146636963,6.216457366943359,99,6524.0,6.523758411407471,170,9961.0
12480,0.3528885543346405,5.331752777099609,11,6524.0,13.398032188415527,101,9961.0
12490,0.3527214229106903,4.059502601623535,128,6524.0,6.801591396331787,332,9961.0
12500,0.35271894931793213,4.260952472686768,-33,6524.0,5.08213472366333,112,9961.0
12510,0.3525310158729553,-0.2458372563123703,2,6524.0,4.6967878341674805,83,9961.0
12520,0.3523460030555725,-2.590536594390869,9,6524.0,1.0653854608535767,-47,9961.0
12530,0.3521725833415985,-3.8484930992126465,-191,6524.0,0.36909160017967224,184,9961.0
12540,0.35204625129699707,-3.384108781814575,6,6524.0,2.7206995487213135,-91,9961.0
12550,0.35198357701301575,-0.3098527193069458,-94,6524.0,-2.4686925411224365,153,9961.0
12560,0.3519201874732971,-0.24122916162014008,110,6524.0,-4.972161769866943,-126,9961.0
12570,0.351882666349411,1.2988152503967285,67,6524.0,-2.3974132537841797,-33,9961.0
12580,0.35189175605773926,0.8259490728378296,79,6524.0,1.6342471837997437,43,9961.0
12590,0.3515860140323639,3.808488130569458,-15,6524.0,5.653883457183838,-25,9961.0
12600,0.35164979100227356,1.9861080646514893,39,6524.0,2.1669564247131348,226,9961.0
12610,0.35169750452041626,4.404122352600098,111,6524.0,5.1920247077941895,55,9961.0
12620,0.3517848253250122,1.9401658773422241,34,6524.0,8.027116775512695,181,9961.0
12630,0.35196343064308167,0.6059523224830627,120,6524.0,9.910979270935059,54,9961.0
12640,0.352862685918808,0.659395694732666,-109,6524.0,7.898874759674072,-51,9961.0
12650,0.3530578017234802,-3.604219913482666,-19,6524.0,4.949304580688477,172,9961.0
12660,0.3532431423664093,-0.6175950169563293,-41,6524.0,4.812004566192627,28,9961.0
12670,0.35343244671821594,-0.8946033716201782,27,6524.0,1.2028924226760864,104,9961.0
12680,0.3538011610507965,-0.5928821563720703,99,6524.0,-1.7088242769241333,-132,9961.0
12690,0.35409992933273315,-1.3292503356933594,-179,6524.0,-2.001012086868286,-168,9961.0
12700,0.35437336564064026,-1.2901662588119507,-13,6524.0,-2.032722234725952,-53,9961.0
12710,0.3546312749385834,-2.5748586654663086,-19,6524.0,-0.17800572514533997,-66,9961.0
12720,0.3556766211986542,-0.206612691283226,-6,6524.0,1.0836092233657837,113,9961.0
12730,0.3559883236885071,-0.712648332118988,86,6524.0,0.6107281446456909,-48,9961.0
12740,0.3562517464160919,-0.5047942996025085,-162,6524.0,3.6828126907348633,-14,9961.0
12750,0.3564797639846802,-1.7018227577209473,20,6524.0,2.9401345252990723,54,9961.0
12760,0.3567066788673401,-1.5357439517974854,-95,6524.0,1.9574192762374878,-40,9961.0
12770,0.3569551110267639,-2.1283299922943115,32,6524.0,-1.5979316234588623,130,9961.0
12780,0.3571491837501526,-2.156386137008667,9,6524.0,-1.6606075763702393,-162,9961.0
12790,0.3572903573513031,-2.527013063430786,-150,6524.0,-0.9556115865707397,-59,9961.0
12800,0.3573436439037323,-2.619788646697998,17,6524.0,-4.803458213806152,-61,9961.0
12810,0.3572413921356201,-3.103358745574951,-50,6524.0,-3.3056890964508057,-78,9961.0
12820,0.35726574063301086,-2.226288080215454,28,6524.0,-3.653280735015869,20,9961.0
12830,0.3572772443294525,-0.39122408628463745,40,6524.0,-4.496523857116699,-197,9961.0
12840,0.357248455286026,1.1172466278076172,-171,6524.0,-3.7704591751098633,-121,9961.0
12850,0.3556307852268219,-0.6688351035118103,64,6524.0,-1.0114953517913818,31,9961.0
12860,0.35541486740112305,-0.36213088035583496,-8,6524.0,-2.6141204833984375,-89,9961.0
12870,0.35520073771476746,1.3824652433395386,27,6524.0,-1.9943970441818237,170,9961.0
12880,0.35496658086776733,-0.6850705146789551,138,6524.0,-0.534734308719635,-8,9961.0
12890,0.35474640130996704,2.8568243980407715,-101,6524.0,-3.0620596408843994,-90,9961.0
12900,0.3543274700641632,3.572280168533325,106,6524.0,-3.9142343997955322,109,9961.0
12910,0.3540930449962616,0.2699027359485626,121,6524.0,-4.179493427276611,-146,9961.0
12920,0.3538423478603363,1.288923978805542,-51,6524.0,-8.164397239685059,-115,9961.0
12930,0.3536176085472107,-0.8460681438446045,-11,6524.0,-5.486666679382324,12,9961.0
12940,0.3540189266204834,0.7390096783638,47,6524.0,-3.7498927116394043,-172,9961.0
12950,0.35381019115448,1.8624950647354126,-188,6524.0,-0.8440053462982178,-119,9961.0
12960,0.3535809814929962,2.258763074874878,87,6524.0,-2.3424630165100098,179,9961.0
12970,0.35333913564682007,2.017961025238037,57,6524.0,2.501699924468994,58,9961.0
12980,0.35306212306022644,5.08245849609375,47,6524.0,1.5978479385375977,42,9961.0
12990,0.3528393507003784,4.7999677658081055,143,6524.0,2.695394277572632,109,9961.0
13000,0.35255083441734314,6.560197830200195,137,6524.0,3.945343494415283,-123,9961.0
13010,0.35222017765045166,8.601239204406738,-72,6524.0,0.6715242266654968,-107,9961.0
13020,0.35191610455513,6.895447254180908,180,6524.0,0.567969799041748,83,9961.0
13030,0.3526076376438141,5.478348731994629,101,6524.0,-1.8443771600723267,-51,9961.0
13040,0.35244616866111755,5.490787029266357,34,6524.0,-2.7325570583343506,-53,9961.0
13050,0.35231903195381165,3.932774305343628,146,6524.0,-0.027587464079260826,95,9961.0
13060,0.3521769344806671,4.420908451080322,59,6524.0,-0.4740450084209442,-80,9961.0
13070,0.3520685136318207,0.8025401830673218,-106,6524.0,3.886636734008789,-48,9961.0
13080,0.3535154461860657,-1.617080569267273,3,6524.0,2.5384910106658936,129,9961.0
13090,0.35346344113349915,-4.848477363586426,-97,6524.0,3.390470266342163,-27,9961.0
13100,0.35353049635887146,-6.2717180252075195,-198,6524.0,1.2482414245605469,-36,9961.0
13110,0.35357630252838135,-5.804866313934326,-59,6524.0,-2.510906934738159,133,9961.0
13120,0.3529670834541321,-4.512299060821533,39,6524.0,-2.3720366954803467,-79,9961.0
13130,0.35299110412597656,-7.143632411956787,-262,6524.0,-2.3624677658081055,-225,9961.0
13140,0.35298264026641846,-8.222637176513672,-180,6524.0,-5.765658378601074,-101,9961.0
13150,0.35297808051109314,-4.135237693786621,-72,6524.0,-4.991996765136719,-133,9961.0
13160,0.3533632457256317,-2.804100513458252,-6,6524.0,-0.08602144569158554,-13,9961.0
13170,0.3533073961734772,-0.9005619287490845,-17,6524.0,4.131352424621582,44,9961.0
13180,0.35320740938186646,2.0414445400238037,41,6524.0,5.05562686920166,-139,9961.0
13190,0.35310089588165283,5.028669834136963,-62,6524.0,4.521721839904785,33,9961.0
13200,0.35299113392829895,6.905714511871338,139,6524.0,9.602126121520996,252,9961.0
13210,0.3533247113227844,1.665487289428711,96,6524.0,1.8541561365127563,43,9961.0
13220,0.35323941707611084,0.9451014995574951,-90,6524.0,1.6189897060394287,-24,9961.0
13230,0.35315844416618347,-1.1100783348083496,46,6524.0,-0.9296497106552124,35,9961.0
13240,0.3530852496623993,-1.9205013513565063,-27,6524.0,-3.3184707164764404,-170,9961.0
13250,0.35414227843284607,-4.38083028793335,-180,6524.0,-6.8994646072387695,-166,9961.0
13260,0.35412147641181946,-2.858093023300171,-28,6524.0,-10.2957763671875,103,9961.0
13270,0.3540649116039276,-7.078282833099365,98,6524.0,-9.674955368041992,-185,9961.0
13280,0.35404959321022034,-2.4526290893554688,-36,6524.0,-4.4648237228393555,-200,9961.0
13290,0.3539891839027405,-3.6257238388061523,31,6524.0,-5.24231481552124,-27,9961.0
13300,0.35349011421203613,-3.242543935775757,26,6524.0,-4.7116851806640625,-69,9961.0
13310,0.35329458117485046,-5.258502006530762,-119,6524.0,1.3912614583969116,-103,9961.0
13320,0.3530692756175995,-3.5073773860931396,-122,6524.0,2.986825704574585,103,9961.0
13330,0.3528059422969818,-1.6758222579956055,143,6524.0,-3.073726177215576,173,9961.0
13340,0.35193943977355957,-3.0309057235717773,53,6524.0,-8.055006980895996,-145,9961.0
13350,0.3516325056552887,-1.0198031663894653,-128,6524.0,-1.4003005027770996,-63,9961.0
13360,0.3513425290584564,-4.141794204711914,-44,6524.0,3.4644391536712646,144,9961.0
13370,0.35100680589675903,-2.365727186203003,10,6524.0,2.9053449630737305,-30,9961.0
13380,0.34966570138931274,-1.623194932937622,-91,6524.0,2.25435733795166,-9,9961.0
13390,0.3492355942726135,0.17372699081897736,36,6524.0,3.965108633041382,76,9961.0
13400,0.34881341457366943,-1.7333608865737915,96,6524.0,-3.482142210006714,-87,9961.0
13410,0.3484104871749878,-0.1524485945701599,-40,6524.0,-7.117033004760742,-268,9961.0
13420,0.347942590713501,0.8623901009559631,-149,6524.0,-3.116528272628784,-48,9961.0
13430,0.3482518792152405,-1.643890380859375,62,6524.0,3.131941795349121,181,9961.0
13440,0.3477948009967804,-0.9902310371398926,103,6524.0,-0.9047340750694275,13,9961.0
13450,0.3473217189311981,1.007336974143982,-53,6524.0,0.7656341791152954,-47,9961.0
13460,0.34684741497039795,2.752241373062134,74,6524.0,4.94159460067749,103,9961.0
13470,0.34859782457351685,3.740483045578003,102,6524.0,5.979434967041016,61,9961.0
13480,0.3482775390148163,1.9416800737380981,-60,6524.0,7.419549465179443,-71,9961.0
13490,0.34800899028778076,0.7858995795249939,-77,6524.0,-0.13097725808620453,166,9961.0
13500,0.3477657735347748,2.577164888381958,117,6524.0,4.824421405792236,236,9961.0
13510,0.3477154076099396,2.2731387615203857,92,6524.0,1.0456150770187378,-90,9961.0
13520,0.3475240468978882,1.5196118354797363,-127,6524.0,-3.8095920085906982,-190,9961.0
13530,0.347322553396225,1.6842483282089233,0,6524.0,-6.0680928230285645,86,9961.0
13540,0.34710681438446045,-1.8260457515716553,48,6524.0,-4.205554485321045,-54,9961.0
13550,0.3469143509864807,-3.261347532272339,-80,6524.0,-4.5897979736328125,-97,9961.0
13560,0.34684503078460693,-4.167694568634033,-5,6524.0,-5.244488716125488,-7,9961.0
13570,0.34667646884918213,-0.320139616727829,51,6524.0,-6.021219253540039,-103,9961.0
13580,0.3465273082256317,-0.9022396206855774,-144,6524.0,-1.8003880977630615,-203,9961.0
13590,0.3464301526546478,-0.596138060092926,-16,6524.0,-4.355691432952881,23,9961.0
13600,0.3469693660736084,-0.28547003865242004,152,6524.0,0.2922917604446411,37,9961.0
13610,0.3469170928001404,3.734254837036133,16,6524.0,4.758628845214844,-9,9961.0
13620,0.34686464071273804,2.9176862239837646,34,6524.0,5.719720840454102,129,9961.0
13630,0.34680497646331787,2.886185646057129,96,6524.0,4.615802764892578,30,9961.0
13640,0.3467516303062439,5.1322832107543945,-39,6524.0,-0.39246809482574463,-86,9961.0
13650,0.3472321331501007,1.9771361351013184,-47,6524.0,-4.100987434387207,60,9961.0
13660,0.3472351133823395,1.0623501539230347,165,6524.0,-1.6326626539230347,-69,9961.0
13670,0.3472330570220947,1.1124601364135742,-6,6524.0,-2.005086898803711,-151,9961.0
13680,0.34722545742988586,-0.4272225499153137,-7,6524.0,0.2325839251279831,39,9961.0
13690,0.34673407673835754,-0.9344874024391174,104,6524.0,2.860412120819092,-95,9961.0
13700,0.3467206358909607,0.8639931082725525,-100,6524.0,-3.0224204063415527,-46,9961.0
13710,0.3466832935810089,0.7007262110710144,92,6524.0,-2.876197576522827,276,9961.0
13720,0.34670719504356384,1.3882488012313843,81,6524.0,3.440600633621216,103,9961.0
13730,0.34670063853263855,-0.592332661151886,-38,6524.0,9.111141204833984,168,9961.0
13740,0.3459629416465759,0.541343092918396,83,6524.0,6.9356369972229,219,9961.0
13750,0.3459087908267975,0.19773097336292267,2,6524.0,9.047223091125488,-38,9961.0
13760,0.34593063592910767,-2.1851580142974854,-220,6524.0,4.171078205108643,-29,9961.0
13770,0.3459399938583374,-1.4795918464660645,33,6524.0,6.126537322998047,-31,9961.0
13780,0.34595951437950134,-0.762608528137207,-41,6524.0,-3.1280741691589355,-51,9961.0
13790,0.34598308801651,-1.3342682123184204,-49,6524.0,-5.836533546447754,-7,9961.0
13800,0.34603723883628845,-3.17295241355896,-2,6524.0,-4.894376754760742,52,9961.0
13810,0.34610041975975037,-2.2387523651123047,17,6524.0,-4.065919876098633,-159,9961.0
13820,0.3457271158695221,-0.3936361074447632,-5,6524.0,-2.8091044425964355,-59,9961.0
13830,0.3457615077495575,1.5000698566436768,169,6524.0,3.6321866512298584,33,9961.0
13840,0.34576597809791565,0.37271299958229065,-3,6524.0,7.212557315826416,48,9961.0
13850,0.34572717547416687,0.17327828705310822,47,6524.0,6.716649055480957,186,9961.0
13860,0.3456953167915344,-1.8690215349197388,74,6524.0,5.664651870727539,41,9961.0
13870,0.3453295826911926,-4.523310661315918,-134,6524.0,4.803313255310059,-112,9961.0
13880,0.3452167212963104,-8.846649169921875,-273,6524.0,4.47091007232666,88,9961.0
13890,0.3450841009616852,-0.7167823314666748,44,6524.0,0.7613730430603027,94,9961.0
13900,0.3448914587497711,-1.9481909275054932,-25,6524.0,-0.36715829372406006,-55,9961.0
13910,0.3444083034992218,-1.1706008911132812,-44,6524.0,0.1311795711517334,32,9961.0
13920,0.344178706407547,-0.8509489893913269,83,6524.0,2.3599112033843994,128,9961.0
13930,0.34393197298049927,-1.6561319828033447,58,6524.0,3.4041481018066406,-52,9961.0
13940,0.3436681032180786,1.3629605770111084,0,6524.0,-0.7084252834320068,-212,9961.0
13950,0.34515470266342163,-0.02802407369017601,-154,6524.0,-0.9602954387664795,-71,9961.0
13960,0.3450082242488861,0.01218286994844675,37,6524.0,-2.040287971496582,131,9961.0
13970,0.34486091136932373,-4.511098861694336,64,6524.0,2.8648831844329834,5,9961.0
13980,0.3447401225566864,-3.284993886947632,-79,6524.0,1.0255141258239746,-15,9961.0
13990,0.34458082914352417,-1.0107183456420898,12,6524.0,0.7254971861839294,94,9961.0
14000,0.34378305077552795,1.6541093587875366,92,6524.0,-0.6823148131370544,13,9961.0
14010,0.34360021352767944,1.845167636871338,28,6524.0,2.2959201335906982,-100,9961.0
14020,0.34343239665031433,2.472400188446045,-138,6524.0,1.614206075668335,-94,9961.0
14030,0.3432369828224182,6.069024085998535,33,6524.0,-7.6950578689575195,-20,9961.0
14040,0.34380796551704407,-0.3128132224082947,118,6524.0,1.1564619541168213,30,9961.0
14050,0.3436145484447479,-1.1816325187683105,-20,6524.0,1.8892279863357544,-4,9961.0
14060,0.343416690826416,-0.6871187090873718,-67,6524.0,4.552931785583496,114,9961.0
14070,0.34321871399879456,0.8286268711090088,102,6524.0,1.1032215356826782,151,9961.0
14080,0.3430287539958954,0.23726403713226318,74,6524.0,1.6039469242095947,-34,9961.0
14090,0.3440310060977936,1.1836678981781006,-26,6524.0,2.514035224914551,-117,9961.0
14100,0.343890905380249,2.833272695541382,-65,6524.0,-2.056790351867676,-64,9961.0
14110,0.343747079372406,0.23839667439460754,46,6524.0,-10.132938385009766,44,9961.0
14120,0.34359243512153625,-3.7702338695526123,-33,6524.0,-5.1637163162231445,-144,9961.0
14130,0.3436613082885742,-3.538724184036255,-95,6524.0,-3.6449239253997803,-70,9961.0
14140,0.34352004528045654,-2.877558708190918,58,6524.0,0.5462430715560913,119,9961.0
14150,0.34336328506469727,-1.3539375066757202,59,6524.0,-0.7343769073486328,-38,9961.0
14160,0.34320613741874695,-0.0167167279869318,1,6524.0,-1.4219651222229004,-234,9961.0
14170,0.344575434923172,-3.0861775875091553,-214,6524.0,-1.152380347251892,24,9961.0
14180,0.3445338308811188,-0.37532177567481995,52,6524.0,-1.4544198513031006,113,9961.0
14190,0.3445179760456085,-0.4789416790008545,61,6524.0,0.46556955575942993,7,9961.0
14200,0.34449413418769836,-1.6937483549118042,-22,6524.0,-1.036972165107727,-119,9961.0
