timestamp,kalman.stateZ,gyro.x,gyro.xRaw,gyro.xVariance,gyro.y,gyro.yRaw,gyro.yVariance
0,0.267378568649292,0.21894896030426025,3,6524.0,-1.6587872505187988,-28,9961.0
10,0.267370343208313,-0.09332100301980972,0,6524.0,-1.2881217002868652,-17,9961.0
20,0.26680973172187805,-0.07253031432628632,1,6524.0,-1.0516825914382935,-15,9961.0
30,0.26676860451698303,-0.0925675705075264,-2,6524.0,-0.6689386367797852,-9,9961.0
40,0.2666970193386078,-0.03345446288585663,5,6524.0,-0.1645345687866211,1,9961.0
50,0.2669721841812134,0.022846167907118797,2,6524.0,0.17476117610931396,7,9961.0
60,0.26696014404296875,0.01261160522699356,5,6524.0,0.6120917797088623,11,9961.0
70,0.26778531074523926,0.00018989495583809912,5,6524.0,1.182763934135437,21,9961.0
80,0.2680187225341797,0.03183123096823692,-3,6524.0,1.187677025794983,24,9961.0
90,0.2680327892303467,-0.03308577463030815,-2,6524.0,1.8704571723937988,37,9961.0
100,0.2681238651275635,0.18091483414173126,4,6524.0,1.974440097808838,37,9961.0
110,0.2688707411289215,0.17802439630031586,2,6524.0,2.231842517852783,37,9961.0
120,0.26895153522491455,-0.03333199769258499,1,6524.0,2.50137996673584,43,9961.0
130,0.26903608441352844,0.1549670398235321,-2,6524.0,2.5355920791625977,45,9961.0
140,0.269121915102005,-0.035426072776317596,3,6524.0,2.9538304805755615,50,9961.0
150,0.27025726437568665,-0.05385715886950493,-2,6524.0,3.044673442840576,54,9961.0
160,0.27040040493011475,0.092343270778656,-1,6524.0,3.020854949951172,47,9961.0
170,0.2705303132534027,-0.0317891463637352,-1,6524.0,2.5658717155456543,48,9961.0
180,0.2706555128097534,-0.06448592990636826,-4,6524.0,1.6556587219238281,24,9961.0
190,0.2708157002925873,0.41450926661491394,17,6524.0,1.5100771188735962,25,9961.0
200,0.27022579312324524,3.1949517726898193,48,6524.0,-0.17120540142059326,-32,9961.0
210,0.27039480209350586,0.6230903267860413,39,6524.0,-0.49847057461738586,0,9961.0
220,0.2705845832824707,5.043776035308838,42,6524.0,-5.527323246002197,-71,9961.0
230,0.27073073387145996,7.192967891693115,115,6524.0,-6.081111907958984,-136,9961.0
240,0.2701031565666199,6.374981880187988,130,6524.0,-7.1222615242004395,-151,9961.0
250,0.27024978399276733,6.605695724487305,102,6524.0,-8.316887855529785,-135,9961.0
260,0.27045100927352905,4.096555233001709,87,6524.0,-6.686208724975586,-136,9961.0
270,0.2705995440483093,6.925223350524902,126,6524.0,-9.465482711791992,-133,9961.0
280,0.27010151743888855,7.563965797424316,157,6524.0,-8.38125991821289,-156,9961.0
290,0.27016711235046387,2.487797498703003,8,6524.0,-8.083161354064941,-160,9961.0
300,0.2703136205673218,0.3921918570995331,27,6524.0,-5.587158679962158,2,9961.0
310,0.27038803696632385,0.5249657034873962,21,6524.0,-0.9690080285072327,-60,9961.0
320,0.2705172300338745,-0.10467976331710815,19,6524.0,0.9460836052894592,61,9961.0
330,0.2695693075656891,-0.08006437122821808,-17,6524.0,3.8291943073272705,71,9961.0
340,0.2696201801300049,0.17277033627033234,13,6524.0,6.487027168273926,122,9961.0
350,0.26966407895088196,-0.15948539972305298,20,6524.0,7.84657096862793,83,9961.0
360,0.2697075307369232,1.6253812313079834,25,6524.0,7.172407627105713,188,9961.0
370,0.27020981907844543,2.594674825668335,35,6524.0,6.450039386749268,130,9961.0
380,0.27026259899139404,3.116791248321533,45,6524.0,5.662148952484131,32,9961.0
390,0.27033573389053345,3.829749345779419,73,6524.0,3.8760223388671875,53,9961.0
400,0.27041950821876526,2.7415220737457275,87,6524.0,0.5024513006210327,36,9961.0
410,0.2704896628856659,2.1332948207855225,68,6524.0,0.07839169353246689,-62,9961.0
420,0.2702721357345581,-0.17802543938159943,57,6524.0,-1.1390610933303833,-42,9961.0
430,0.27017658948898315,-0.4885600507259369,-23,6524.0,-3.164795160293579,-104,9961.0
440,0.27005743980407715,-0.8325285911560059,-100,6524.0,-1.6882954835891724,-12,9961.0
450,0.26999780535697937,-0.08051347732543945,-111,6524.0,-2.9940812587738037,-14,9961.0
460,0.2699507474899292,-0.130982905626297,-103,6524.0,-3.199131488800049,243,9961.0
470,0.2698710560798645,1.596846580505371,-40,6524.0,-3.3012521266937256,126,9961.0
480,0.2697798013687134,0.5804771184921265,21,6524.0,2.2098941802978516,110,9961.0
490,0.26952415704727173,-0.6823671460151672,22,6524.0,2.0978240966796875,35,9961.0
500,0.27106526494026184,1.8738682270050049,201,6524.0,4.429535865783691,237,9961.0
510,0.2708996534347534,-0.07409963011741638,115,6524.0,3.7216548919677734,-93,9961.0
520,0.27073749899864197,0.5465333461761475,108,6524.0,3.7216272354125977,-95,9961.0
530,0.27058708667755127,-0.7057398557662964,109,6524.0,3.9759902954101562,-126,9961.0
540,0.27045321464538574,-0.8713605403900146,99,6524.0,4.835538387298584,177,9961.0
550,0.2696698307991028,-0.82724529504776,189,6524.0,6.053524017333984,-73,9961.0
560,0.2693675458431244,-3.214352607727051,25,6524.0,0.3026670217514038,-67,9961.0
570,0.2691083550453186,-0.5048214793205261,-39,6524.0,2.864070415496826,-86,9961.0
580,0.268792986869812,-3.566173553466797,34,6524.0,2.722487211227417,-87,9961.0
590,0.26954564452171326,-3.537177801132202,53,6524.0,0.7203407883644104,-181,9961.0
600,0.26943349838256836,-5.049884796142578,76,6524.0,0.6445057988166809,-314,9961.0
610,0.26922619342803955,-2.819157600402832,114,6524.0,0.14180341362953186,-113,9961.0
620,0.26896852254867554,-1.518944501876831,92,6524.0,-0.4621869623661041,16,9961.0
630,0.2687170207500458,-0.4003039598464966,186,6524.0,-0.6623848676681519,38,9961.0
640,0.26977431774139404,1.2007371187210083,138,6524.0,-1.1424871683120728,99,9961.0
650,0.2695862650871277,0.7684260010719299,52,6524.0,-0.35262808203697205,144,9961.0
660,0.2693745791912079,1.834778904914856,47,6524.0,-1.2513734102249146,182,9961.0
670,0.2691265046596527,2.2015137672424316,-2,6524.0,-1.25084388256073,212,9961.0
680,0.26897338032722473,2.5115363597869873,7,6524.0,-3.25362491607666,149,9961.0
690,0.26881155371665955,2.107434034347534,-56,6524.0,0.6878411173820496,218,9961.0
700,0.26846686005592346,-1.1419806480407715,-124,6524.0,1.3218929767608643,7,9961.0
710,0.2679749131202698,-1.8093315362930298,-146,6524.0,4.341136455535889,52,9961.0
720,0.2687993049621582,-2.5118911266326904,-59,6524.0,5.010650157928467,-60,9961.0
730,0.26830437779426575,-2.677340269088745,55,6524.0,5.135547161102295,56,9961.0
740,0.2678000330924988,-0.5419511795043945,69,6524.0,2.9334945678710938,-41,9961.0
750,0.267406702041626,2.4372305870056152,44,6524.0,2.9103128910064697,-20,9961.0
760,0.2670953571796417,2.0569052696228027,53,6524.0,1.9512128829956055,58,9961.0
770,0.26853835582733154,3.9892454147338867,18,6524.0,-2.3046317100524902,180,9961.0
780,0.26798537373542786,6.55736780166626,-78,6524.0,-1.9793888330459595,-133,9961.0
790,0.2673381268978119,1.5566986799240112,36,6524.0,-1.9329968690872192,-124,9961.0
800,0.26666921377182007,-0.3347197473049164,111,6524.0,-4.113666534423828,-237,9961.0
810,0.2691088914871216,-0.3289810121059418,70,6524.0,-5.255349636077881,3,9961.0
820,0.26847776770591736,1.4347248077392578,-65,6524.0,-6.032660484313965,-16,9961.0
830,0.26777008175849915,-0.2927950918674469,-13,6524.0,-5.260579586029053,88,9961.0
840,0.26708611845970154,-2.287346601486206,-126,6524.0,-2.413456678390503,-110,9961.0
850,0.2682454586029053,-2.7030067443847656,60,6524.0,-0.36705777049064636,-208,9961.0
860,0.26786449551582336,-2.7499935626983643,80,6524.0,0.42674535512924194,81,9961.0
870,0.2675389349460602,-0.8080710768699646,-140,6524.0,1.8808207511901855,138,9961.0
880,0.2671767771244049,-2.396733045578003,11,6524.0,4.902507305145264,31,9961.0
890,0.2668379247188568,1.2985548973083496,1,6524.0,2.8914666175842285,-37,9961.0
900,0.26987871527671814,0.27459681034088135,122,6524.0,2.0968642234802246,-71,9961.0
910,0.2697708010673523,1.5011026859283447,-8,6524.0,1.6650688648223877,219,9961.0
920,0.26976099610328674,2.423764228820801,-56,6524.0,0.03635667264461517,-26,9961.0
930,0.26982370018959045,1.101284384727478,118,6524.0,2.434711217880249,-121,9961.0
940,0.2718534469604492,2.0709009170532227,60,6524.0,-2.190291404724121,70,9961.0
950,0.2720368504524231,2.0592734813690186,-39,6524.0,-2.1570184230804443,2,9961.0
960,0.27218785881996155,-0.13260284066200256,36,6524.0,-2.3577866554260254,-136,9961.0
970,0.2722886800765991,-0.9473150372505188,33,6524.0,-3.430788278579712,-185,9961.0
980,0.2722814679145813,-1.0300133228302002,34,6524.0,-4.26029634475708,97,9961.0
990,0.27241626381874084,-0.574410617351532,-175,6524.0,-2.937894582748413,101,9961.0
1000,0.27220025658607483,-3.405674695968628,40,6524.0,0.3447267711162567,-211,9961.0
1010,0.27197664976119995,-1.3288451433181763,44,6524.0,0.7783554196357727,149,9961.0
1020,0.27178916335105896,0.537108302116394,-73,6524.0,1.141815185546875,51,9961.0
1030,0.27296990156173706,-1.177672266960144,-33,6524.0,5.481993675231934,111,9961.0
1040,0.27296191453933716,0.40311530232429504,65,6524.0,5.727041244506836,-81,9961.0
1050,0.2730063498020172,3.0539052486419678,66,6524.0,2.8706047534942627,195,9961.0
1060,0.2730773389339447,3.586318254470825,-101,6524.0,2.5394270420074463,1,9961.0
1070,0.2727358639240265,0.9656431674957275,175,6524.0,2.1458656787872314,-126,9961.0
1080,0.27282020449638367,3.2233827114105225,-39,6524.0,-2.3645565509796143,133,9961.0
1090,0.27290716767311096,0.8434910774230957,10,6524.0,-1.5252052545547485,-189,9961.0
1100,0.2729516327381134,1.004520297050476,50,6524.0,-3.9955573081970215,-69,9961.0
1110,0.2729131579399109,-0.20397163927555084,15,6524.0,-3.789856195449829,67,9961.0
1120,0.27491506934165955,-0.39872872829437256,-56,6524.0,-3.134066343307495,-97,9961.0
1130,0.2748769521713257,-1.2469784021377563,109,6524.0,-2.286991834640503,-62,9961.0
1140,0.2747770845890045,-0.9148533344268799,-92,6524.0,-0.2305239886045456,119,9961.0
1150,0.27464592456817627,-0.5857431292533875,37,6524.0,1.5463497638702393,-67,9961.0
1160,0.2739216387271881,-0.534105122089386,4,6524.0,1.8944296836853027,108,9961.0
1170,0.2738025188446045,0.13436542451381683,-49,6524.0,5.6660637855529785,25,9961.0
1180,0.27374038100242615,3.579714059829712,19,6524.0,3.0726571083068848,-70,9961.0
1190,0.2736426591873169,1.422782301902771,68,6524.0,2.7419605255126953,201,9961.0
1200,0.2734951674938202,3.3966064453125,29,6524.0,2.1061625480651855,-121,9961.0
1210,0.2751322090625763,2.254934072494507,82,6524.0,1.758397102355957,169,9961.0
1220,0.275067001581192,1.4646639823913574,-51,6524.0,0.20749686658382416,-76,9961.0
1230,0.2749776542186737,0.6164988875389099,57,6524.0,1.6456432342529297,-84,9961.0
1240,0.27487215399742126,0.06383942812681198,55,6524.0,-2.399873733520508,83,9961.0
1250,0.27440935373306274,0.46251925826072693,-93,6524.0,-0.8178214430809021,-209,9961.0
1260,0.27421048283576965,-1.1803687810897827,183,6524.0,-2.1295297145843506,187,9961.0
1270,0.27406710386276245,-0.0791151374578476,-113,6524.0,-0.22569841146469116,-210,9961.0
1280,0.27397361397743225,-0.8301901817321777,105,6524.0,-1.4214961528778076,68,9961.0
1290,0.27391278743743896,0.8065997362136841,-57,6524.0,-0.8398063778877258,-48,9961.0
1300,0.27682730555534363,0.7389407753944397,73,6524.0,-0.047287650406360626,90,9961.0
1310,0.27707338333129883,2.256702184677124,-72,6524.0,-0.7510210871696472,-103,9961.0
1320,0.2773245871067047,1.3063324689865112,162,6524.0,2.147078514099121,332,9961.0
1330,0.27753496170043945,0.4962678849697113,-152,6524.0,3.6908247470855713,-19,9961.0
1340,0.27825573086738586,-3.33595871925354,116,6524.0,6.375974655151367,99,9961.0
1350,0.2784612476825714,0.09021241962909698,-55,6524.0,4.037158489227295,99,9961.0
1360,0.2786591649055481,-0.6081488132476807,46,6524.0,2.9807779788970947,20,9961.0
1370,0.27890390157699585,2.0682735443115234,-86,6524.0,1.7468576431274414,-3,9961.0
1380,0.2787109613418579,2.616116523742676,185,6524.0,-1.4477819204330444,-35,9961.0
1390,0.2789137363433838,-1.1161528825759888,-87,6524.0,2.8048717975616455,-108,9961.0
1400,0.2790917158126831,-0.5660627484321594,50,6524.0,-4.748964309692383,-91,9961.0
1410,0.2792399823665619,-2.239732503890991,-24,6524.0,-2.9578869342803955,-149,9961.0
1420,0.27941930294036865,-3.5419068336486816,-55,6524.0,-1.9760692119598389,-6,9961.0
1430,0.2785836160182953,-2.825122833251953,-92,6524.0,-1.5401263236999512,-190,9961.0
1440,0.27867215871810913,-0.6112020015716553,69,6524.0,-2.4923508167266846,49,9961.0
1450,0.2787702679634094,-1.0973035097122192,-64,6524.0,0.5087721943855286,-191,9961.0
1460,0.27884534001350403,-1.4531692266464233,-31,6524.0,1.9247647523880005,80,9961.0
1470,0.2808785140514374,-1.0152686834335327,35,6524.0,-2.1946282386779785,-117,9961.0
1480,0.2809511721134186,-1.499493956565857,-15,6524.0,2.324597120285034,98,9961.0
1490,0.2808982729911804,-1.6801964044570923,-56,6524.0,4.003619194030762,-23,9961.0
1500,0.28075647354125977,0.7045130133628845,34,6524.0,4.463124752044678,269,9961.0
1510,0.2811363637447357,1.7599949836730957,-29,6524.0,5.869407653808594,-131,9961.0
1520,0.28101322054862976,1.0998125076293945,51,6524.0,2.3014562129974365,86,9961.0
1530,0.2808521091938019,3.344428062438965,123,6524.0,-0.7243146896362305,-128,9961.0
1540,0.28064078092575073,2.632803201675415,38,6524.0,-1.4564414024353027,3,9961.0
1550,0.28039246797561646,2.6459555625915527,31,6524.0,-1.126478672027588,-101,9961.0
1560,0.2815103828907013,3.1839849948883057,70,6524.0,-1.9990614652633667,137,9961.0
1570,0.28128063678741455,2.961845874786377,76,6524.0,-1.1925106048583984,-248,9961.0
1580,0.28108495473861694,0.3299456536769867,-43,6524.0,-1.5702370405197144,78,9961.0
1590,0.28093889355659485,-0.8234701156616211,62,6524.0,0.9235470294952393,-18,9961.0
1600,0.2801070213317871,-1.2465991973876953,-84,6524.0,0.31839898228645325,88,9961.0
1610,0.27998027205467224,-2.8486645221710205,-106,6524.0,2.3888728618621826,-23,9961.0
1620,0.2798043489456177,-1.9709980487823486,-90,6524.0,3.0624067783355713,209,9961.0
1630,0.2796564996242523,-1.8135544061660767,85,6524.0,3.536329746246338,-213,9961.0
1640,0.2795124351978302,2.138317584991455,-112,6524.0,5.0938334465026855,-200,9961.0
1650,0.2799944579601288,-0.8624289035797119,179,6524.0,1.8445789813995361,38,9961.0
1660,0.27992913126945496,-1.3152025938034058,-24,6524.0,2.204035758972168,55,9961.0
1670,0.2798959016799927,-0.3506084680557251,50,6524.0,1.7801746129989624,22,9961.0
1680,0.27985018491744995,1.4601030349731445,-126,6524.0,1.2588533163070679,145,9961.0
1690,0.279073566198349,1.7226836681365967,173,6524.0,-0.6461006999015808,12,9961.0
1700,0.27898457646369934,2.612647294998169,-130,6524.0,2.1935369968414307,-100,9961.0
1710,0.2789151966571808,1.5387879610061646,92,6524.0,-3.8539278507232666,114,9961.0
1720,0.2788615822792053,1.1267865896224976,-3,6524.0,-0.8656165599822998,-52,9961.0
1730,0.2788506746292114,0.20702534914016724,9,6524.0,0.9275749921798706,112,9961.0
1740,0.2789490222930908,1.7782020568847656,-55,6524.0,0.5586757659912109,-111,9961.0
1750,0.2789587378501892,0.6245110630989075,82,6524.0,3.2259151935577393,189,9961.0
1760,0.2789275050163269,1.3227826356887817,44,6524.0,3.161623001098633,-154,9961.0
1770,0.2788904011249542,-1.056328296661377,-2,6524.0,0.31788039207458496,130,9961.0
1780,0.280493825674057,0.2425500899553299,20,6524.0,1.4266917705535889,48,9961.0
1790,0.2806350290775299,0.5220270752906799,-12,6524.0,0.4205355644226074,182,9961.0
1800,0.2807501256465912,1.1196255683898926,-52,6524.0,6.1641387939453125,-21,9961.0
1810,0.2808634340763092,0.3209184408187866,-82,6524.0,-1.178589940071106,217,9961.0
1820,0.28094249963760376,1.750924825668335,104,6524.0,0.388309508562088,-159,9961.0
1830,0.28095176815986633,1.4616531133651733,-113,6524.0,-2.8125948905944824,-88,9961.0
1840,0.28094369173049927,2.2068192958831787,115,6524.0,-3.0020744800567627,-7,9961.0
1850,0.28091371059417725,1.1412678956985474,-20,6524.0,-3.7485060691833496,-5,9961.0
1860,0.28086525201797485,1.212868094444275,-57,6524.0,-1.157558560371399,-124,9961.0
1870,0.2828327715396881,0.494808554649353,70,6524.0,-2.18082594871521,36,9961.0
1880,0.282973974943161,0.5280224680900574,44,6524.0,-1.4811123609542847,-28,9961.0
1890,0.2830694317817688,-0.2739831209182739,-66,6524.0,-0.1406184434890747,-47,9961.0
1900,0.2831537425518036,-1.663582444190979,-3,6524.0,1.7601823806762695,79,9961.0
1910,0.2831243872642517,-0.2772674858570099,-79,6524.0,2.4552559852600098,58,9961.0
1920,0.2835134267807007,0.6628630757331848,21,6524.0,1.2981994152069092,158,9961.0
1930,0.28373003005981445,-0.23547053337097168,-94,6524.0,2.011566400527954,-57,9961.0
1940,0.2838815450668335,-2.416093587875366,140,6524.0,0.486646831035614,150,9961.0
1950,0.28401631116867065,0.16013449430465698,-193,6524.0,-3.3679025173187256,-43,9961.0
1960,0.28370237350463867,-0.01465767715126276,98,6524.0,-5.110191822052002,2,9961.0
1970,0.2839009165763855,2.183192253112793,26,6524.0,-3.948103666305542,-107,9961.0
1980,0.2841571867465973,0.5720028281211853,122,6524.0,-5.036093235015869,-122,9961.0
1990,0.28423550724983215,2.321585178375244,-84,6524.0,-4.5815935134887695,-155,9961.0
2000,0.2836412191390991,0.38660627603530884,141,6524.0,-2.904388427734375,37,9961.0
2010,0.2836056053638458,-2.2245564460754395,-64,6524.0,-0.7174934148788452,-114,9961.0
2020,0.2837633788585663,-0.3474314510822296,-27,6524.0,-2.09358549118042,142,9961.0
2030,0.283689022064209,0.9335960149765015,-21,6524.0,3.413947820663452,59,9961.0
2040,0.2829710841178894,1.9261260032653809,40,6524.0,3.7248313426971436,241,9961.0
2050,0.28286322951316833,1.5638030767440796,27,6524.0,5.412026405334473,-213,9961.0
2060,0.28293758630752563,3.060429334640503,0,6524.0,4.532212734222412,135,9961.0
2070,0.2828466296195984,0.7903690934181213,218,6524.0,3.380373239517212,45,9961.0
2080,0.282640665769577,1.0572943687438965,-64,6524.0,-5.45149040222168,-176,9961.0
2090,0.2826073467731476,0.059661947190761566,9,6524.0,-4.135974884033203,-69,9961.0
2100,0.28252464532852173,-1.6988024711608887,-107,6524.0,-5.614905834197998,-34,9961.0
2110,0.28249305486679077,-2.4456379413604736,87,6524.0,-5.144047260284424,16,9961.0
2120,0.2825058698654175,-1.926578402519226,-187,6524.0,-1.3042556047439575,-153,9961.0
2130,0.2810998857021332,-5.229128360748291,-25,6524.0,-1.9639660120010376,76,9961.0
2140,0.28098782896995544,-1.9599789381027222,39,6524.0,0.42046257853507996,-61,9961.0
2150,0.28085875511169434,-0.36855560541152954,3,6524.0,1.6254130601882935,125,9961.0
2160,0.28075549006462097,3.014202117919922,40,6524.0,3.012519121170044,-49,9961.0
2170,0.28157374262809753,5.137597560882568,-58,6524.0,1.2561118602752686,170,9961.0
2180,0.2815075218677521,3.866171360015869,233,6524.0,-0.6645182371139526,56,9961.0
2190,0.28141361474990845,4.778522968292236,-87,6524.0,0.48731690645217896,-68,9961.0
2200,0.2812996506690979,0.4366680681705475,-2,6524.0,-2.3450210094451904,51,9961.0
2210,0.2814182639122009,-0.9544840455055237,-46,6524.0,-1.2695362567901611,-190,9961.0
2220,0.28385981917381287,-2.016263484954834,29,6524.0,-6.161855697631836,-48,9961.0
2230,0.28397873044013977,-0.5256467461585999,108,6524.0,-7.662842750549316,-261,9961.0
2240,0.28401264548301697,0.7991346716880798,-134,6524.0,-7.533147811889648,-159,9961.0
2250,0.28402140736579895,-2.6908576488494873,99,6524.0,-2.5418150424957275,19,9961.0
2260,0.28402167558670044,-1.878679871559143,-86,6524.0,-1.352956771850586,-4,9961.0
2270,0.2841169536113739,-3.04561185836792,30,6524.0,2.488994836807251,69,9961.0
2280,0.28416648507118225,-1.1742737293243408,-155,6524.0,8.34824275970459,-61,9961.0
2290,0.2842297852039337,-1.26835298538208,-20,6524.0,4.205202102661133,62,9961.0
2300,0.2842105031013489,-2.311692714691162,89,6524.0,1.6552754640579224,77,9961.0
2310,0.2849261164665222,-0.2639259696006775,-103,6524.0,2.3795251846313477,-21,9961.0
2320,0.2849884033203125,2.077110767364502,118,6524.0,-1.7532917261123657,34,9961.0
2330,0.2850460112094879,1.149330973625183,-8,6524.0,-4.666484832763672,-2,9961.0
2340,0.2850815951824188,3.1444485187530518,70,6524.0,-5.767737865447998,4,9961.0
2350,0.2858385443687439,2.681101083755493,-62,6524.0,-6.405871868133545,-275,9961.0
2360,0.2861616015434265,2.7339351177215576,-86,6524.0,-3.28133225440979,-81,9961.0
2370,0.2862074375152588,2.8625617027282715,162,6524.0,-4.004576206207275,-98,9961.0
2380,0.28636905550956726,0.5981243252754211,-83,6524.0,-1.6771972179412842,22,9961.0
2390,0.2866807281970978,-0.32602614164352417,46,6524.0,1.0516327619552612,-5,9961.0
2400,0.2876649498939514,0.1887717843055725,-95,6524.0,3.4047534465789795,59,9961.0
2410,0.2877542972564697,0.7603962421417236,82,6524.0,4.7726335525512695,292,9961.0
2420,0.28804701566696167,-2.078798294067383,-77,6524.0,7.341264724731445,149,9961.0
2430,0.2883263826370239,-5.2527642250061035,-84,6524.0,5.413525104522705,53,9961.0
2440,0.28865858912467957,-1.9773564338684082,48,6524.0,5.719875335693359,-21,9961.0
2450,0.2887342870235443,0.7028917074203491,7,6524.0,1.6763817071914673,-17,9961.0
2460,0.2887193560600281,3.794490337371826,25,6524.0,-3.0456976890563965,-85,9961.0
2470,0.2887241840362549,6.428756237030029,-47,6524.0,-3.1690831184387207,-193,9961.0
2480,0.28920620679855347,1.9842575788497925,246,6524.0,-6.871828556060791,278,9961.0
2490,0.2892519235610962,1.870440125465393,-91,6524.0,-1.9969137907028198,-46,9961.0
2500,0.28921249508857727,-1.0358126163482666,-23,6524.0,-0.7479300498962402,44,9961.0
2510,0.289160817861557,-1.0046298503875732,-39,6524.0,0.8680469989776611,24,9961.0
2520,0.28907451033592224,-0.7727417945861816,46,6524.0,1.0617507696151733,62,9961.0
2530,0.28943294286727905,-2.895921230316162,-13,6524.0,2.9049437046051025,102,9961.0
2540,0.2893160879611969,-2.020266532897949,-188,6524.0,2.4911234378814697,-136,9961.0
2550,0.28911155462265015,-3.955857992172241,7,6524.0,3.796635866165161,164,9961.0
2560,0.2889150083065033,-0.6643479466438293,-83,6524.0,2.570218563079834,25,9961.0
2570,0.2876342236995697,-2.8054628372192383,-18,6524.0,-0.3680509030818939,73,9961.0
2580,0.2874549925327301,-0.8847874402999878,-44,6524.0,1.9916635751724243,48,9961.0
2590,0.28720101714134216,1.4324512481689453,-59,6524.0,-2.2391746044158936,78,9961.0
2600,0.286945641040802,-0.30278071761131287,194,6524.0,-3.0284171104431152,-109,9961.0
2610,0.2867058217525482,-5.728389263153076,-62,6524.0,0.991300642490387,-122,9961.0
2620,0.2862277030944824,-0.7217018008232117,-24,6524.0,-1.037550926208496,121,9961.0
2630,0.2859896123409271,-0.9943116307258606,-14,6524.0,1.6831392049789429,-36,9961.0
2640,0.2857531011104584,0.8283182382583618,-9,6524.0,-0.09852760285139084,150,9961.0
2650,0.2855338752269745,1.9695271253585815,272,6524.0,0.7892742156982422,2,9961.0
2660,0.28592434525489807,2.2564008235931396,-21,6524.0,8.015074729919434,-16,9961.0
2670,0.2857624888420105,-0.3917122185230255,-51,6524.0,-0.3222569525241852,112,9961.0
2680,0.28561946749687195,0.9799672961235046,124,6524.0,-2.1281163692474365,-120,9961.0
2690,0.2855242192745209,1.1388200521469116,-50,6524.0,-2.151324987411499,4,9961.0
2700,0.2860441505908966,1.6172504425048828,106,6524.0,-5.776185989379883,115,9961.0
2710,0.2862264811992645,-0.6236470937728882,-83,6524.0,-4.235304355621338,-251,9961.0
2720,0.28620514273643494,-2.677671194076538,-134,6524.0,-2.0477774143218994,-34,9961.0
2730,0.28617337346076965,-2.6380200386047363,105,6524.0,-1.6694457530975342,-59,9961.0
2740,0.2861548960208893,-2.4204814434051514,-35,6524.0,0.5678861737251282,-3,9961.0
2750,0.28735285997390747,2.3367412090301514,109,6524.0,3.496795654296875,278,9961.0
2760,0.2874060869216919,4.575829982757568,94,6524.0,0.44577309489250183,-152,9961.0
2770,0.2876115143299103,0.6020897030830383,-222,6524.0,1.3564869165420532,81,9961.0
2780,0.287721186876297,2.8889410495758057,81,6524.0,1.3684839010238647,236,9961.0
2790,0.28833332657814026,-1.6229612827301025,-39,6524.0,3.946626663208008,31,9961.0
2800,0.28843122720718384,-2.929755210876465,-58,6524.0,3.2226290702819824,156,9961.0
2810,0.28852570056915283,-2.8336353302001953,-11,6524.0,3.930690288543701,-29,9961.0
2820,0.28862902522087097,-1.4039322137832642,-194,6524.0,-3.6461868286132812,-77,9961.0
2830,0.2896125614643097,-2.7896580696105957,42,6524.0,-2.141085624694824,173,9961.0
2840,0.2897091805934906,-5.215782165527344,-45,6524.0,0.674921989440918,-186,9961.0
2850,0.2898000180721283,-1.243591070175171,-144,6524.0,-3.122758388519287,-48,9961.0
2860,0.2899225056171417,-3.213763952255249,13,6524.0,-1.9418610334396362,-62,9961.0
2870,0.2899661958217621,-0.5991671085357666,-31,6524.0,-3.446122646331787,-111,9961.0
2880,0.29149267077445984,1.2748329639434814,101,6524.0,0.5746798515319824,-94,9961.0
2890,0.2916261851787567,4.468504428863525,183,6524.0,-1.3117120265960693,-116,9961.0
2900,0.2917686998844147,4.001473903656006,-149,6524.0,-0.9344125986099243,-31,9961.0
2910,0.2919189929962158,8.479373931884766,113,6524.0,2.88189435005188,106,9961.0
2920,0.293621301651001,2.138532876968384,-17,6524.0,1.4805984497070312,74,9961.0
2930,0.2937546372413635,-2.3038642406463623,-12,6524.0,3.983264446258545,228,9961.0
2940,0.29395297169685364,-3.6265335083007812,32,6524.0,8.426270484924316,9,9961.0
2950,0.2941545844078064,-0.34713736176490784,-201,6524.0,2.5197227001190186,3,9961.0
2960,0.294382780790329,1.3531851768493652,97,6524.0,5.989339351654053,94,9961.0
2970,0.2964440584182739,1.2113415002822876,61,6524.0,8.557119369506836,-11,9961.0
2980,0.29679688811302185,1.4999321699142456,8,6524.0,6.149234294891357,122,9961.0
2990,0.29699262976646423,3.745208263397217,144,6524.0,-0.10370739549398422,-80,9961.0
3000,0.29717767238616943,4.3433518409729,-32,6524.0,-5.567808151245117,-308,9961.0
3010,0.2968871295452118,2.658414602279663,103,6524.0,-6.30342960357666,125,9961.0
3020,0.29703226685523987,1.9908078908920288,87,6524.0,-5.713403224945068,-247,9961.0
3030,0.2971425950527191,-2.919705390930176,-198,6524.0,-6.793421268463135,-37,9961.0
3040,0.29733169078826904,0.07941670715808868,10,6524.0,-4.372511863708496,-45,9961.0
3050,0.29739758372306824,-0.3086056709289551,-41,6524.0,-1.6994235515594482,-109,9961.0
3060,0.29809248447418213,-1.3043501377105713,29,6524.0,0.5678873062133789,140,9961.0
3070,0.29865139722824097,1.0252128839492798,-41,6524.0,7.1223249435424805,-41,9961.0
3080,0.2988692820072174,-1.8478304147720337,-189,6524.0,6.010151386260986,47,9961.0
3090,0.2989383041858673,-2.855137348175049,57,6524.0,4.48373556137085,168,9961.0
3100,0.2988607585430145,-2.7131974697113037,-84,6524.0,4.9287214279174805,19,9961.0
3110,0.2990783751010895,-3.231705904006958,12,6524.0,4.38406229019165,197,9961.0
3120,0.29913464188575745,-0.9701287150382996,-97,6524.0,6.131561279296875,-82,9961.0
3130,0.29913246631622314,-2.1285455226898193,82,6524.0,0.863362193107605,52,9961.0
3140,0.2990441620349884,1.0170162916183472,33,6524.0,1.1518292427062988,195,9961.0
3150,0.2989938259124756,0.2578897774219513,-226,6524.0,-3.4721758365631104,-155,9961.0
3160,0.2990245521068573,-4.687093257904053,65,6524.0,-2.560241222381592,-59,9961.0
3170,0.29893893003463745,0.4591933488845825,23,6524.0,-1.9403696060180664,-37,9961.0
3180,0.2988184094429016,2.389941453933716,19,6524.0,0.928600549697876,118,9961.0
3190,0.29916584491729736,5.0052995681762695,152,6524.0,3.961538076400757,226,9961.0
3200,0.2990984320640564,2.949845552444458,-125,6524.0,2.0276479721069336,-63,9961.0
3210,0.2990201711654663,10.039327621459961,11,6524.0,8.846515655517578,301,9961.0
3220,0.29889819025993347,2.1423439979553223,67,6524.0,1.002109408378601,200,9961.0
3230,0.29839247465133667,-4.438380241394043,-149,6524.0,6.459804058074951,89,9961.0
3240,0.2982138693332672,-3.519928455352783,12,6524.0,2.4298958778381348,94,9961.0
3250,0.29802727699279785,-1.175533413887024,-26,6524.0,0.09436351805925369,-195,9961.0
3260,0.2978273630142212,1.6978305578231812,-116,6524.0,-4.649131774902344,-26,9961.0
3270,0.29763084650039673,3.929375410079956,121,6524.0,-8.061604499816895,60,9961.0
3280,0.29800257086753845,2.6118311882019043,91,6524.0,-1.3189060688018799,-168,9961.0
3290,0.2978924810886383,-3.478706121444702,-32,6524.0,-5.03153133392334,-184,9961.0
3300,0.2977485954761505,0.8074572682380676,108,6524.0,-4.416440486907959,-10,9961.0
3310,0.29761528968811035,2.59800124168396,-30,6524.0,-4.931929588317871,-164,9961.0
3320,0.29804572463035583,-1.253958821296692,-94,6524.0,-5.1190266609191895,140,9961.0
3330,0.2979489862918854,-0.5024902820587158,219,6524.0,-2.642366409301758,180,9961.0
3340,0.29785409569740295,-0.3071035146713257,-110,6524.0,-0.0646156519651413,-111,9961.0
3350,0.297789990901947,-0.6744265556335449,-72,6524.0,4.457476615905762,131,9961.0
3360,0.29979825019836426,-2.1428279876708984,-2,6524.0,3.377652883529663,73,9961.0
3370,0.29979240894317627,-1.666934609413147,-111,6524.0,3.4503281116485596,-70,9961.0
3380,0.2997957766056061,1.3073694705963135,23,6524.0,-1.7281421422958374,155,9961.0
3390,0.299810528755188,2.997185468673706,340,6524.0,-1.42631995677948,14,9961.0
3400,0.2998647391796112,-2.827747344970703,-4,6524.0,-0.840524435043335,-477,9961.0
3410,0.2999753952026367,-0.3815726935863495,-83,6524.0,-7.365374565124512,-108,9961.0
3420,0.30005839467048645,-1.4642904996871948,54,6524.0,-5.684332847595215,-122,9961.0
3430,0.3001677393913269,-2.050942897796631,-73,6524.0,-3.75573992729187,-233,9961.0
3440,0.30031123757362366,-1.0148653984069824,26,6524.0,-3.6692943572998047,145,9961.0
3450,0.3007572591304779,-2.037553310394287,251,6524.0,-5.8875298500061035,-38,9961.0
3460,0.30093884468078613,-3.582858085632324,-118,6524.0,3.4666192531585693,-145,9961.0
3470,0.30107325315475464,3.113672971725464,-22,6524.0,-2.6819305419921875,154,9961.0
3480,0.3011581003665924,0.5145420432090759,29,6524.0,7.04167366027832,66,9961.0
3490,0.30241313576698303,-0.02740943618118763,-57,6524.0,8.152151107788086,166,9961.0
3500,0.30260127782821655,0.3365698456764221,100,6524.0,4.785889148712158,278,9961.0
3510,0.3027764856815338,-1.4930669069290161,35,6524.0,3.8700032234191895,-8,9961.0
3520,0.30297648906707764,2.0818283557891846,-177,6524.0,1.6088995933532715,20,9961.0
3530,0.30312463641166687,1.905124545097351,0,6524.0,-8.213469505310059,18,9961.0
3540,0.30482614040374756,-2.3538074493408203,5,6524.0,-6.98048210144043,-202,9961.0
3550,0.3050249516963959,0.7601695656776428,12,6524.0,-8.897394180297852,-181,9961.0
3560,0.3052600920200348,1.737753987312317,149,6524.0,-4.136363983154297,-62,9961.0
3570,0.30543825030326843,1.6577837467193604,-8,6524.0,-4.640835762023926,-45,9961.0
3580,0.3053555190563202,2.6100807189941406,16,6524.0,-2.6343085765838623,-57,9961.0
3590,0.30551907420158386,-2.629155158996582,111,6524.0,-2.2876265048980713,-47,9961.0
3600,0.3056999742984772,-1.9191501140594482,13,6524.0,2.9309563636779785,51,9961.0
3610,0.30586758255958557,1.5229276418685913,13,6524.0,4.1895365715026855,237,9961.0
3620,0.3060306906700134,-2.3205173015594482,-1,6524.0,4.884780406951904,115,9961.0
3630,0.3074185848236084,-1.5423414707183838,-136,6524.0,4.416769027709961,-144,9961.0
3640,0.3076269328594208,0.4737945795059204,57,6524.0,-2.864812135696411,296,9961.0
3650,0.30786946415901184,0.508673906326294,-34,6524.0,4.2110595703125,-30,9961.0
3660,0.3080984354019165,-1.2289156913757324,-122,6524.0,1.5763037204742432,-20,9961.0
3670,0.3083089590072632,1.3932238817214966,40,6524.0,-4.018223762512207,35,9961.0
3680,0.30852580070495605,1.4293171167373657,37,6524.0,-5.237308979034424,-151,9961.0
3690,0.3086705505847931,0.8372671604156494,-24,6524.0,-2.800227642059326,-64,9961.0
3700,0.3087618052959442,1.6281547546386719,132,6524.0,-11.00030517578125,-64,9961.0
3710,0.3088197112083435,0.9476959705352783,-38,6524.0,-3.1682581901550293,-302,9961.0
3720,0.3106079399585724,-0.2737374007701874,-69,6524.0,-1.6669435501098633,58,9961.0
3730,0.310688316822052,-1.4923535585403442,192,6524.0,-1.7726938724517822,50,9961.0
3740,0.3107295334339142,-3.6097798347473145,-101,6524.0,5.862308979034424,36,9961.0
3750,0.31079551577568054,0.8283738493919373,62,6524.0,7.4431328773498535,144,9961.0
3760,0.3109585642814636,0.8400331735610962,-61,6524.0,7.388143062591553,3,9961.0
3770,0.31098872423171997,3.20048451423645,29,6524.0,4.63656759262085,19,9961.0
3780,0.31101277470588684,2.132668972015381,239,6524.0,3.230112075805664,305,9961.0
3790,0.31099840998649597,-2.110734701156616,-71,6524.0,4.637452602386475,18,9961.0
3800,0.3101916015148163,3.152925491333008,9,6524.0,-3.0507092475891113,-169,9961.0
3810,0.3101505935192108,-0.07115614414215088,106,6524.0,-4.851393699645996,-19,9961.0
3820,0.310118705034256,-0.6776533722877502,-25,6524.0,-4.322970867156982,-143,9961.0
3830,0.3100684881210327,-0.5150837302207947,75,6524.0,-8.459657669067383,-52,9961.0
3840,0.3100602626800537,0.7913002371788025,118,6524.0,-4.369527816772461,-78,9961.0
3850,0.31044355034828186,-1.6961382627487183,-134,6524.0,-3.8791892528533936,-314,9961.0
3860,0.3105061650276184,-3.153059482574463,-79,6524.0,-5.111559867858887,233,9961.0
3870,0.3105331063270569,-3.322082996368408,-1,6524.0,-0.5918093323707581,87,9961.0
3880,0.3105965256690979,-3.8457071781158447,-153,6524.0,0.19016584753990173,32,9961.0
3890,0.31200602650642395,-5.060214042663574,-42,6524.0,7.55007266998291,319,9961.0
3900,0.3121612071990967,-5.5460591316223145,-14,6524.0,11.091795921325684,214,9961.0
3910,0.3122817873954773,-1.090547800064087,-157,6524.0,15.495160102844238,-1,9961.0
3920,0.31236299872398376,0.15345564484596252,96,6524.0,3.698486804962158,203,9961.0
3930,0.31264856457710266,-0.13157641887664795,118,6524.0,0.09698440134525299,159,9961.0
3940,0.3127197027206421,-0.2763013541698456,-49,6524.0,-1.594506025314331,-136,9961.0
3950,0.31278693675994873,0.21794544160366058,78,6524.0,-4.925601482391357,-43,9961.0
3960,0.31285569071769714,3.2771925926208496,162,6524.0,-13.951006889343262,-255,9961.0
3970,0.31290969252586365,3.641598701477051,-28,6524.0,-10.693946838378906,-362,9961.0
3980,0.31264159083366394,1.2824904918670654,12,6524.0,-7.789886474609375,-101,9961.0
3990,0.3127285838127136,-0.8382698893547058,167,6524.0,-7.452894687652588,-17,9961.0
4000,0.31285226345062256,1.9901000261306763,-39,6524.0,4.478164196014404,-32,9961.0
4010,0.3129658102989197,-2.1045467853546143,-15,6524.0,6.8505988121032715,299,9961.0
4020,0.31265926361083984,-1.9805134534835815,31,6524.0,11.517862319946289,156,9961.0
4030,0.31268930435180664,-3.0198237895965576,-174,6524.0,13.683187484741211,126,9961.0
4040,0.3126833140850067,3.4786550998687744,-44,6524.0,15.323850631713867,307,9961.0
4050,0.3126731216907501,-3.801079273223877,83,6524.0,6.006653785705566,155,9961.0
4060,0.31272464990615845,-3.4407153129577637,-124,6524.0,2.8166615962982178,3,9961.0
4070,0.3120172619819641,1.866374135017395,44,6524.0,-5.681463718414307,-18,9961.0
4080,0.3120490312576294,8.213456153869629,237,6524.0,-3.3982632160186768,-18,9961.0
4090,0.31215497851371765,14.902433395385742,254,6524.0,-13.22870922088623,-381,9961.0
4100,0.3123074173927307,20.921146392822266,229,6524.0,-5.70601749420166,-109,9961.0
4110,0.31406232714653015,18.60209083557129,421,6524.0,1.215559482574463,67,9961.0
4120,0.31467756628990173,6.974922180175781,102,6524.0,-0.3541877567768097,17,9961.0
4130,0.3151964545249939,-1.6252975463867188,-11,6524.0,-2.7129859924316406,33,9961.0
4140,0.3158920109272003,-4.2030181884765625,34,6524.0,-3.2441623210906982,-35,9961.0
4150,0.3164973258972168,-5.553936958312988,-224,6524.0,1.4576901197433472,-152,9961.0
4160,0.3172690272331238,-7.4867329597473145,-113,6524.0,0.5404743552207947,141,9961.0
4170,0.31781238317489624,-7.785606861114502,-11,6524.0,-2.3828043937683105,-71,9961.0
4180,0.3183106482028961,-5.769480228424072,-146,6524.0,2.4771838188171387,-37,9961.0
4190,0.3187704384326935,-2.372244119644165,-46,6524.0,-0.1731356680393219,78,9961.0
4200,0.3188798725605011,1.2181795835494995,225,6524.0,2.05594539642334,255,9961.0
4210,0.3191945552825928,16.269378662109375,169,6524.0,8.781716346740723,-101,9961.0
4220,0.31929466128349304,18.664640426635742,345,6524.0,-3.1747353076934814,100,9961.0
4230,0.31934407353401184,10.061594009399414,212,6524.0,1.0837262868881226,-41,9961.0
4240,0.3181915879249573,-6.328761100769043,-202,6524.0,3.9390788078308105,-114,9961.0
4250,0.318320095539093,-18.306875228881836,-130,6524.0,1.320136547088623,58,9961.0
4260,0.3175884187221527,-32.238609313964844,-546,6524.0,0.9841362237930298,-330,9961.0
4270,0.31713753938674927,-38.13581085205078,-737,6524.0,-8.567564964294434,-9,9961.0
4280,0.3170637786388397,-45.56940841674805,-696,6524.0,-0.9793270230293274,27,9961.0
4290,0.317554235458374,-45.318172454833984,-813,6524.0,1.0758453607559204,-37,9961.0
4300,0.3168695271015167,-39.57973098754883,-595,6524.0,-1.4715417623519897,193,9961.0
4310,0.3167807161808014,-35.805152893066406,-293,6524.0,2.412848949432373,-7,9961.0
4320,0.3164765536785126,-26.067890167236328,-445,6524.0,-1.6628755331039429,-346,9961.0
4330,0.31718334555625916,-20.20062255859375,-531,6524.0,-4.46548318862915,-77,9961.0
4340,0.31699585914611816,-17.182796478271484,-193,6524.0,-0.7486078143119812,63,9961.0
4350,0.3165886402130127,-15.904923439025879,-298,6524.0,4.952836513519287,0,9961.0
4360,0.3166985511779785,-11.152365684509277,-157,6524.0,3.7634713649749756,90,9961.0
4370,0.3166539967060089,-8.946184158325195,-36,6524.0,4.920950412750244,244,9961.0
4380,0.3191734254360199,-8.754049301147461,-280,6524.0,4.541503429412842,-29,9961.0
4390,0.319210410118103,-9.81843376159668,-247,6524.0,-6.109679698944092,-211,9961.0
4400,0.31924378871917725,-12.801916122436523,-49,6524.0,0.6996223330497742,147,9961.0
4410,0.3195687532424927,-12.328104019165039,-240,6524.0,9.285138130187988,114,9961.0
4420,0.3207281827926636,-14.103560447692871,-278,6524.0,6.4448018074035645,-63,9961.0
4430,0.32077470421791077,-16.096452713012695,-147,6524.0,-1.4770309925079346,46,9961.0
4440,0.32111644744873047,-18.66866683959961,-225,6524.0,1.2177551984786987,363,9961.0
4450,0.3214167654514313,-21.972929000854492,-371,6524.0,-2.033663511276245,-81,9961.0
4460,0.3212907612323761,-18.51371955871582,-283,6524.0,4.446805953979492,165,9961.0
4470,0.32129454612731934,-16.09233283996582,-103,6524.0,6.220325469970703,80,9961.0
4480,0.3211711049079895,-6.7357072830200195,-113,6524.0,4.715335845947266,35,9961.0
4490,0.32135963439941406,3.8875436782836914,85,6524.0,2.950169563293457,172,9961.0
4500,0.32132774591445923,11.472260475158691,258,6524.0,3.5370981693267822,245,9961.0
4510,0.32132047414779663,2.8512234687805176,-14,6524.0,3.1123769283294678,-138,9961.0
4520,0.32115668058395386,-4.784610271453857,-286,6524.0,-8.573927879333496,-202,9961.0
4530,0.3209328353404999,-12.91258430480957,-246,6524.0,-8.000995635986328,69,9961.0
4540,0.3206753432750702,-15.667427062988281,-209,6524.0,-4.189265251159668,4,9961.0
4550,0.319709450006485,-8.372300148010254,-234,6524.0,-6.067135334014893,-150,9961.0
4560,0.3194551467895508,0.6529910564422607,15,6524.0,-3.8863437175750732,36,9961.0
4570,0.3191889822483063,6.551456928253174,371,6524.0,-5.525022506713867,80,9961.0
4580,0.3189089596271515,18.910202026367188,334,6524.0,-3.499744176864624,-68,9961.0
4590,0.3186836242675781,40.395751953125,571,6524.0,9.450521469116211,184,9961.0
4600,0.3187490701675415,40.238304138183594,663,6524.0,12.028833389282227,238,9961.0
4610,0.31869861483573914,29.72528839111328,420,6524.0,11.595969200134277,-10,9961.0
4620,0.3179941475391388,18.763704299926758,161,6524.0,9.844401359558105,237,9961.0
4630,0.31869271397590637,9.052008628845215,240,6524.0,7.932463645935059,170,9961.0
4640,0.3184404671192169,3.306387186050415,-47,6524.0,4.976449489593506,-44,9961.0
4650,0.31848445534706116,-2.9030802249908447,-72,6524.0,-7.680522441864014,72,9961.0
4660,0.3183084726333618,1.6489521265029907,216,6524.0,-17.000829696655273,-135,9961.0
4670,0.318101704120636,0.00341427861712873,-100,6524.0,-8.311503410339355,-198,9961.0
4680,0.3179050385951996,-0.03336801752448082,59,6524.0,1.5917761325836182,63,9961.0
4690,0.3178081810474396,9.815890312194824,413,6524.0,0.7028411626815796,-23,9961.0
4700,0.3177160322666168,14.494294166564941,277,6524.0,7.274560928344727,-122,9961.0
4710,0.31768837571144104,25.98439598083496,322,6524.0,5.461417198181152,137,9961.0
4720,0.31775686144828796,22.812023162841797,464,6524.0,10.449549674987793,265,9961.0
4730,0.31707295775413513,25.784608840942383,357,6524.0,8.304903984069824,-25,9961.0
4740,0.3171001076698303,23.508886337280273,236,6524.0,3.28024959564209,147,9961.0
4750,0.3173401355743408,16.85078239440918,362,6524.0,-2.6990585327148438,48,9961.0
4760,0.3172796964645386,13.212315559387207,169,6524.0,-2.722428798675537,-141,9961.0
4770,0.3168888986110687,10.017621994018555,34,6524.0,-2.907139778137207,103,9961.0
4780,0.31689363718032837,4.698061943054199,176,6524.0,-11.088067054748535,26,9961.0
4790,0.31689518690109253,-2.3582096099853516,-94,6524.0,-3.023601531982422,-109,9961.0
4800,0.3168943226337433,-3.237628221511841,-119,6524.0,-2.352708339691162,-167,9961.0
4810,0.3169763386249542,-0.403325617313385,30,6524.0,-1.0989857912063599,194,9961.0
4820,0.3165854215621948,1.114134430885315,86,6524.0,7.471447467803955,296,9961.0
4830,0.31641870737075806,1.9234731197357178,-91,6524.0,9.406907081604004,-56,9961.0
4840,0.31663599610328674,1.0823092460632324,72,6524.0,8.62629508972168,275,9961.0
4850,0.31689226627349854,12.796847343444824,368,6524.0,3.340125799179077,56,9961.0
4860,0.3168809711933136,15.669234275817871,315,6524.0,8.365168571472168,12,9961.0
4870,0.31717413663864136,17.207992553710938,215,6524.0,-1.4661201238632202,-41,9961.0
4880,0.31734755635261536,14.825889587402344,260,6524.0,-3.165806770324707,-93,9961.0
4890,0.3175147771835327,9.436262130737305,268,6524.0,-2.981804847717285,21,9961.0
4900,0.31621474027633667,11.53941822052002,176,6524.0,-6.996962070465088,-273,9961.0
4910,0.31633999943733215,8.828869819641113,-158,6524.0,-0.03420035541057587,-213,9961.0
4920,0.3162838816642761,5.204580307006836,135,6524.0,-2.544837713241577,91,9961.0
4930,0.3165404200553894,8.900238037109375,277,6524.0,-3.2477176189422607,-176,9961.0
4940,0.3166302442550659,12.481517791748047,150,6524.0,-7.314336776733398,-202,9961.0
4950,0.3156376779079437,14.931092262268066,68,6524.0,-7.035796165466309,-131,9961.0
4960,0.31560397148132324,5.923069477081299,115,6524.0,-6.554476737976074,84,9961.0
4970,0.3155449330806732,9.054224967956543,147,6524.0,0.09687402844429016,-171,9961.0
4980,0.3155268430709839,4.327202320098877,-117,6524.0,-4.4980669021606445,-198,9961.0
4990,0.3172152638435364,1.9970837831497192,143,6524.0,1.406080722808838,35,9961.0
5000,0.31726309657096863,3.149444818496704,62,6524.0,3.6560873985290527,137,9961.0
5010,0.31737276911735535,3.9193029403686523,-47,6524.0,2.7578132152557373,-34,9961.0
5020,0.31751230359077454,4.091852188110352,74,6524.0,0.8311623930931091,-171,9961.0
5030,0.31759709119796753,4.237318992614746,159,6524.0,8.395865440368652,-20,9961.0
5040,0.3181472420692444,7.64780330657959,189,6524.0,0.6590052247047424,114,9961.0
5050,0.3183864951133728,0.32984328269958496,-45,6524.0,-0.9493167400360107,-86,9961.0
5060,0.31857550144195557,-1.0790337324142456,-43,6524.0,-1.7915880680084229,90,9961.0
5070,0.3187897801399231,-2.9027841091156006,26,6524.0,-6.0676469802856445,-32,9961.0
5080,0.3197106719017029,-2.9901123046875,34,6524.0,-13.373745918273926,-302,9961.0
5090,0.3200342059135437,-0.1911768913269043,-116,6524.0,-8.128606796264648,-311,9961.0
5100,0.32028499245643616,6.3833746910095215,-26,6524.0,-15.945838928222656,-420,9961.0
5110,0.3205627501010895,4.641139507293701,107,6524.0,3.146458864212036,304,9961.0
5120,0.32125455141067505,-0.8232353329658508,85,6524.0,5.875382900238037,174,9961.0
5130,0.3216409981250763,0.5489238500595093,-39,6524.0,9.876434326171875,50,9961.0
5140,0.3220411241054535,2.6881463527679443,12,6524.0,8.700011253356934,149,9961.0
5150,0.32241812348365784,4.055027961730957,95,6524.0,5.387454986572266,231,9961.0
5160,0.3227752447128296,0.3303748369216919,30,6524.0,9.660761833190918,144,9961.0
5170,0.323845773935318,6.989007472991943,-37,6524.0,5.901948928833008,-127,9961.0
5180,0.32424578070640564,3.0666518211364746,-354,6524.0,7.019505977630615,-81,9961.0
5190,0.32461312413215637,-3.0563714504241943,47,6524.0,-8.54589557647705,-4,9961.0
5200,0.3251085579395294,-8.266582489013672,-10,6524.0,-11.337063789367676,-228,9961.0
5210,0.3260205388069153,-8.088134765625,-106,6524.0,-14.217225074768066,-350,9961.0
5220,0.3263472616672516,-9.497369766235352,-98,6524.0,-9.721458435058594,-174,9961.0
5230,0.3266567885875702,-7.847851276397705,-3,6524.0,-7.2381110191345215,33,9961.0
5240,0.3269113600254059,-7.162607669830322,-23,6524.0,-1.7960724830627441,114,9961.0
5250,0.3285791277885437,-2.218740463256836,-143,6524.0,2.2784173488616943,-386,9961.0
5260,0.3288183808326721,-3.8283567428588867,-244,6524.0,-0.4291338324546814,9,9961.0
5270,0.3289581537246704,-6.683649063110352,-41,6524.0,5.49470853805542,186,9961.0
5280,0.3290671110153198,-3.954512596130371,10,6524.0,5.582394599914551,25,9961.0
5290,0.32919496297836304,0.22542834281921387,28,6524.0,6.992123126983643,-2,9961.0
5300,0.3295445442199707,2.270963191986084,1,6524.0,7.437183380126953,172,9961.0
5310,0.3295835852622986,4.112614154815674,134,6524.0,5.487389087677002,295,9961.0
5320,0.32958757877349854,6.740550518035889,168,6524.0,1.4495961666107178,87,9961.0
5330,0.3296004831790924,5.171131134033203,125,6524.0,-5.956655502319336,-99,9961.0
5340,0.3297266960144043,1.2589236497879028,-73,6524.0,-5.316707134246826,-441,9961.0
5350,0.32963624596595764,-2.6329965591430664,-245,6524.0,-5.619282245635986,-91,9961.0
5360,0.32948037981987,0.2697785496711731,125,6524.0,2.2222838401794434,144,9961.0
5370,0.32929733395576477,-1.6008025407791138,18,6524.0,4.82450532913208,-9,9961.0
5380,0.329161673784256,-1.4099198579788208,-40,6524.0,6.841981887817383,24,9961.0
5390,0.3289773464202881,0.6826187968254089,-17,6524.0,8.668756484985352,256,9961.0
5400,0.32880353927612305,3.2070744037628174,157,6524.0,6.659339904785156,384,9961.0
5410,0.32861074805259705,2.7560369968414307,104,6524.0,8.091178894042969,-2,9961.0
5420,0.32843369245529175,-4.9303669929504395,-199,6524.0,6.067195892333984,-137,9961.0
5430,0.32854509353637695,-4.186139106750488,-215,6524.0,3.1486454010009766,44,9961.0
5440,0.3284032940864563,-4.645824909210205,-70,6524.0,4.876545429229736,152,9961.0
5450,0.32826465368270874,-3.3567378520965576,-11,6524.0,1.9732308387756348,28,9961.0
5460,0.3281051516532898,-3.8941750526428223,-50,6524.0,-0.775519073009491,-44,9961.0
5470,0.32796409726142883,-2.973755121231079,20,6524.0,-2.5723602771759033,-97,9961.0
5480,0.32864972949028015,5.28789758682251,23,6524.0,-2.2094690799713135,34,9961.0
5490,0.3286531865596771,-1.8878190517425537,93,6524.0,-3.220126152038574,76,9961.0
5500,0.32866114377975464,-3.174335479736328,153,6524.0,2.298068046569824,-62,9961.0
5510,0.3286636769771576,-1.5385713577270508,-172,6524.0,3.8530545234680176,177,9961.0
5520,0.330406129360199,-4.467281341552734,-314,6524.0,-0.468599408864975,-154,9961.0
5530,0.3305000066757202,-7.094193935394287,14,6524.0,0.11729404330253601,67,9961.0
5540,0.33059847354888916,-4.676485061645508,41,6524.0,0.22252057492733002,7,9961.0
5550,0.3307228684425354,-0.7854496240615845,-18,6524.0,0.26382020115852356,-37,9961.0
5560,0.33088579773902893,4.468760967254639,-25,6524.0,-1.4569950103759766,-9,9961.0
5570,0.3310048580169678,6.022535800933838,141,6524.0,3.4882800579071045,213,9961.0
5580,0.3311413526535034,3.4684998989105225,-1,6524.0,6.123785018920898,180,9961.0
5590,0.3312627375125885,6.239439010620117,-87,6524.0,6.420889854431152,-7,9961.0
5600,0.3313625752925873,1.109921932220459,15,6524.0,4.58127498626709,-188,9961.0
5610,0.332515150308609,-2.506801128387451,-40,6524.0,0.8654758334159851,187,9961.0
5620,0.3327462673187256,-7.485861778259277,-113,6524.0,-2.2458012104034424,103,9961.0
5630,0.33287686109542847,-10.01659107208252,-254,6524.0,-1.12123703956604,-67,9961.0
5640,0.33295148611068726,-9.60542106628418,-189,6524.0,-3.9193403720855713,-84,9961.0
5650,0.33298879861831665,-5.505664825439453,33,6524.0,-2.762871265411377,27,9961.0
5660,0.33301490545272827,-3.997450113296509,-34,6524.0,3.716202974319458,148,9961.0
5670,0.33309033513069153,1.608666181564331,-87,6524.0,-1.6601741313934326,-38,9961.0
5680,0.33311551809310913,6.513204574584961,-15,6524.0,-0.9166675806045532,-169,9961.0
5690,0.333141565322876,6.287113666534424,55,6524.0,15.550362586975098,156,9961.0
5700,0.33319246768951416,2.169884204864502,356,6524.0,-2.237908363342285,89,9961.0
5710,0.33317944407463074,9.295845985412598,190,6524.0,-4.9251604080200195,15,9961.0
5720,0.3331485986709595,0.6686220169067383,-63,6524.0,-12.070499420166016,-280,9961.0
5730,0.33308547735214233,-2.1138741970062256,51,6524.0,-4.701871395111084,-27,9961.0
5740,0.33417171239852905,-4.013922214508057,38,6524.0,-2.1153392791748047,100,9961.0
5750,0.3341589868068695,-3.2263715267181396,-159,6524.0,-0.45702818036079407,-109,9961.0
5760,0.3341570496559143,-2.374441146850586,-126,6524.0,0.32309311628341675,-259,9961.0
5770,0.3341645896434784,-4.3118672370910645,-1,6524.0,1.7293781042099,301,9961.0
5780,0.3337448239326477,-5.688602447509766,60,6524.0,8.953934669494629,271,9961.0
5790,0.3337370455265045,-2.4035890102386475,-129,6524.0,6.156477928161621,30,9961.0
5800,0.3337101638317108,-2.990572929382324,-143,6524.0,6.430840492248535,-43,9961.0
5810,0.3336579501628876,-1.942583680152893,68,6524.0,6.061872959136963,54,9961.0
5820,0.334110826253891,-1.2643083333969116,125,6524.0,4.333801746368408,60,9961.0
5830,0.33409416675567627,3.903545379638672,-43,6524.0,1.8272678852081299,-90,9961.0
5840,0.33408430218696594,3.8778982162475586,-81,6524.0,-3.767803907394409,-173,9961.0
5850,0.33415311574935913,1.999260663986206,6,6524.0,-6.126744270324707,56,9961.0
5860,0.33427053689956665,1.0610315799713135,41,6524.0,-1.2846336364746094,144,9961.0
5870,0.3346627652645111,-3.1217498779296875,-100,6524.0,10.626214027404785,-30,9961.0
5880,0.33485379815101624,-1.0298140048980713,-88,6524.0,1.1434987783432007,-37,9961.0
5890,0.33501654863357544,0.1144484207034111,-2,6524.0,0.608135998249054,190,9961.0
5900,0.33516377210617065,1.4277946949005127,76,6524.0,5.314801216125488,202,9961.0
5910,0.3367205858230591,3.6035749912261963,-76,6524.0,-2.228606939315796,-99,9961.0
5920,0.3369896709918976,-0.016735384240746498,-215,6524.0,3.139085292816162,-207,9961.0
5930,0.3372582197189331,-3.5734140872955322,-24,6524.0,-5.143707275390625,171,9961.0
5940,0.33757153153419495,9.765729904174805,138,6524.0,-1.572309970855713,44,9961.0
5950,0.3378589451313019,-2.6191234588623047,-152,6524.0,2.5895297527313232,10,9961.0
5960,0.3397691547870636,-2.3337152004241943,-73,6524.0,1.6502245664596558,38,9961.0
5970,0.34008973836898804,-0.485839307308197,54,6524.0,4.305471897125244,109,9961.0
5980,0.34041810035705566,2.998138189315796,-20,6524.0,2.1802926063537598,-29,9961.0
5990,0.34077396988868713,3.3980965614318848,-15,6524.0,2.430650234222412,-121,9961.0
6000,0.34152889251708984,2.278515338897705,123,6524.0,-0.12718097865581512,148,9961.0
6010,0.34197381138801575,6.3133721351623535,274,6524.0,3.5900535583496094,59,9961.0
6020,0.3424689769744873,-5.919189453125,-150,6524.0,8.04992961883545,-108,9961.0
6030,0.3429658114910126,-0.40111982822418213,-114,6524.0,-1.8902066946029663,53,9961.0
6040,0.3436235189437866,-1.8664560317993164,54,6524.0,0.9359304904937744,79,9961.0
6050,0.34405192732810974,1.3859285116195679,-26,6524.0,-6.156569480895996,-247,9961.0
6060,0.344460666179657,0.26424625515937805,-59,6524.0,-5.453335285186768,-5,9961.0
6070,0.3448036015033722,1.0478225946426392,122,6524.0,-6.397493362426758,36,9961.0
6080,0.34512829780578613,1.9401092529296875,-46,6524.0,-6.2531232833862305,-203,9961.0
6090,0.344962477684021,-0.8533943891525269,-271,6524.0,4.855949401855469,205,9961.0
6100,0.34519538283348083,3.6098599433898926,55,6524.0,-2.126859188079834,133,9961.0
6110,0.3453330099582672,-3.871485710144043,-105,6524.0,6.162633419036865,191,9961.0
6120,0.345526784658432,-7.660862445831299,-160,6524.0,6.369732856750488,4,9961.0
6130,0.3453977704048157,-6.037207126617432,-47,6524.0,5.430334091186523,175,9961.0
6140,0.3455219566822052,-2.42638897895813,18,6524.0,3.323655843734741,-27,9961.0
6150,0.34564337134361267,-3.477586269378662,-263,6524.0,-2.976107120513916,-196,9961.0
6160,0.34576669335365295,-5.471198558807373,-90,6524.0,-7.413645267486572,60,9961.0
6170,0.34586769342422485,-0.5994479060173035,119,6524.0,-4.369991302490234,61,9961.0
6180,0.34560370445251465,-1.9826629161834717,-53,6524.0,-4.896745681762695,-255,9961.0
6190,0.34564918279647827,-2.1965343952178955,-39,6524.0,-6.464626312255859,-68,9961.0
6200,0.34566381573677063,-0.8833581209182739,75,6524.0,-4.901559829711914,-11,9961.0
6210,0.34568095207214355,1.105951189994812,-102,6524.0,-2.0402894020080566,-113,9961.0
6220,0.3433990478515625,0.6207586526870728,48,6524.0,0.031022654846310616,-129,9961.0
6230,0.34326449036598206,1.2682034969329834,235,6524.0,-0.6043658256530762,205,9961.0
6240,0.34310251474380493,-2.194345712661743,-42,6524.0,2.628957748413086,8,9961.0
6250,0.3428967297077179,-1.8085013628005981,-74,6524.0,4.509597301483154,-23,9961.0
6260,0.34202268719673157,1.87199068069458,191,6524.0,2.979557514190674,31,9961.0
6270,0.3417186439037323,-0.9259437322616577,-15,6524.0,3.1517319679260254,-160,9961.0
6280,0.34145262837409973,-0.3781740069389343,-224,6524.0,0.03408287838101387,-71,9961.0
6290,0.34111592173576355,-5.837467670440674,7,6524.0,5.896953582763672,71,9961.0
6300,0.340771347284317,-5.124319553375244,96,6524.0,-3.4843034744262695,-46,9961.0
6310,0.3409270942211151,-7.519464492797852,-137,6524.0,1.1537896394729614,-120,9961.0
6320,0.3406343460083008,-3.590590000152588,-74,6524.0,-0.8082742691040039,31,9961.0
6330,0.3403840959072113,-3.317948579788208,91,6524.0,-2.282196283340454,100,9961.0
6340,0.3401336371898651,-2.5220539569854736,102,6524.0,-4.334258079528809,-59,9961.0
6350,0.34152641892433167,1.632267713546753,-71,6524.0,2.988130569458008,-129,9961.0
6360,0.34148696064949036,1.3575550317764282,-116,6524.0,3.904560089111328,150,9961.0
6370,0.3414810597896576,-3.2199254035949707,12,6524.0,5.355710029602051,186,9961.0
6380,0.34152087569236755,-0.17884325981140137,-46,6524.0,4.333909511566162,-78,9961.0
6390,0.3413563668727875,-4.379525184631348,-240,6524.0,4.339458465576172,-14,9961.0
6400,0.3414612412452698,0.10641050338745117,86,6524.0,9.835371017456055,311,9961.0
6410,0.34162941575050354,-3.9174644947052,110,6524.0,-2.634127616882324,99,9961.0
6420,0.3418633043766022,-5.094090461730957,-117,6524.0,-0.6213049292564392,-80,9961.0
6430,0.3420483469963074,-2.5118350982666016,-161,6524.0,-3.2359070777893066,125,9961.0
6440,0.3417518138885498,-5.8886494636535645,-70,6524.0,-1.3189054727554321,161,9961.0
6450,0.3419652581214905,-5.554940223693848,52,6524.0,0.3290092647075653,-15,9961.0
6460,0.3422001600265503,-2.8928208351135254,-39,6524.0,4.14808464050293,-138,9961.0
6470,0.3424924612045288,-1.0430283546447754,-236,6524.0,-2.110642194747925,-2,9961.0
6480,0.34094327688217163,0.22527267038822174,98,6524.0,-5.496274471282959,190,9961.0
6490,0.3410866856575012,3.0995700359344482,26,6524.0,8.161918640136719,52,9961.0
6500,0.3412109613418579,0.6856932640075684,-42,6524.0,5.509581089019775,112,9961.0
6510,0.34132710099220276,3.559060573577881,128,6524.0,6.41795539855957,250,9961.0
6520,0.34145960211753845,0.6915397644042969,200,6524.0,6.748717784881592,243,9961.0
6530,0.3417786955833435,2.8036141395568848,-6,6524.0,1.2485097646713257,-250,9961.0
6540,0.34187957644462585,4.216400623321533,-74,6524.0,2.0770888328552246,4,9961.0
6550,0.3419870138168335,1.2132866382598877,49,6524.0,-5.2166972160339355,43,9961.0
6560,0.3420567214488983,1.89816153049469,18,6524.0,-1.1945940256118774,-120,9961.0
6570,0.34245070815086365,0.5715039968490601,-61,6524.0,-3.769664764404297,-141,9961.0
6580,0.3425171673297882,1.7015042304992676,-7,6524.0,-8.204560279846191,-15,9961.0
6590,0.34259194135665894,-0.9701597690582275,233,6524.0,2.9866764545440674,330,9961.0
6600,0.3427291214466095,7.164961814880371,83,6524.0,-1.1227443218231201,-47,9961.0
6610,0.34215450286865234,-0.40832823514938354,-179,6524.0,3.5469729900360107,50,9961.0
6620,0.3422427177429199,-3.8849453926086426,-53,6524.0,2.9571242332458496,237,9961.0
6630,0.3423368036746979,-0.7613868713378906,101,6524.0,4.027178764343262,146,9961.0
6640,0.3424576222896576,-2.1546666622161865,-90,6524.0,0.13954418897628784,-157,9961.0
6650,0.34262222051620483,9.10820484161377,-164,6524.0,-7.729248046875,-160,9961.0
6660,0.34248435497283936,-3.127732276916504,-52,6524.0,-5.000321865081787,-450,9961.0
6670,0.34260094165802,-5.636642932891846,139,6524.0,-1.6545672416687012,38,9961.0
6680,0.3426574766635895,2.5943570137023926,-8,6524.0,-4.95905065536499,-159,9961.0
6690,0.34269121289253235,-0.684993326663971,-37,6524.0,-7.405545234680176,-247,9961.0
6700,0.3416503965854645,-1.998063564300537,45,6524.0,-5.726089000701904,183,9961.0
6710,0.3416171967983246,2.054234027862549,101,6524.0,-3.5058069229125977,-24,9961.0
6720,0.3415847718715668,9.776334762573242,-54,6524.0,-3.4485924243927,-163,9961.0
6730,0.34154221415519714,-2.162450075149536,-84,6524.0,3.6219868659973145,118,9961.0
6740,0.3415064513683319,0.6203877925872803,39,6524.0,4.5802154541015625,243,9961.0
6750,0.3432649075984955,-0.044348377734422684,97,6524.0,1.4073667526245117,-40,9961.0
6760,0.3433164358139038,0.2307184636592865,-78,6524.0,3.374725818634033,-151,9961.0
6770,0.343356192111969,-0.5507178902626038,-269,6524.0,11.73888874053955,195,9961.0
6780,0.34339332580566406,6.208859443664551,171,6524.0,-10.282876014709473,101,9961.0
6790,0.3424430191516876,6.863008499145508,184,6524.0,-6.668299198150635,-16,9961.0
6800,0.34238409996032715,5.109537601470947,17,6524.0,1.1910473108291626,-16,9961.0
6810,0.3423062562942505,4.269935607910156,-56,6524.0,2.475719451904297,150,9961.0
6820,0.34224504232406616,1.2767798900604248,15,6524.0,3.8175160884857178,260,9961.0
6830,0.34250062704086304,-4.301181316375732,174,6524.0,7.112257480621338,-86,9961.0
6840,0.342479407787323,1.1272600889205933,-48,6524.0,3.2475409507751465,-129,9961.0
6850,0.3425080478191376,-1.0190544128417969,151,6524.0,2.1811649799346924,220,9961.0
6860,0.342548668384552,2.608060121536255,17,6524.0,-3.836411476135254,37,9961.0
6870,0.3426012098789215,2.1906208992004395,-82,6524.0,-0.401261568069458,-42,9961.0
6880,0.3427743911743164,4.619213104248047,31,6524.0,1.7497389316558838,-264,9961.0
6890,0.3428821861743927,5.016820907592773,153,6524.0,-3.4396378993988037,29,9961.0
6900,0.34294137358665466,3.9082138538360596,235,6524.0,2.4549901485443115,221,9961.0
6910,0.34299352765083313,3.919394016265869,-37,6524.0,1.7346457242965698,-111,9961.0
6920,0.34342697262763977,4.075666427612305,73,6524.0,-0.5547415018081665,95,9961.0
6930,0.3435603976249695,4.088897705078125,167,6524.0,-2.121089220046997,73,9961.0
6940,0.3437078297138214,6.862762928009033,138,6524.0,-6.099765777587891,-11,9961.0
6950,0.3438936173915863,-1.7447370290756226,-105,6524.0,-9.068578720092773,-342,9961.0
6960,0.34331750869750977,0.09141407161951065,-4,6524.0,0.38979676365852356,95,9961.0
6970,0.343458890914917,0.12581302225589752,67,6524.0,2.542900562286377,164,9961.0
6980,0.34359586238861084,-2.134514808654785,-123,6524.0,0.9354913830757141,-79,9961.0
6990,0.34374237060546875,-3.6082894802093506,-273,6524.0,-1.84978187084198,-57,9961.0
7000,0.34388771653175354,-3.6559536457061768,-39,6524.0,-4.153046131134033,140,9961.0
7010,0.34479519724845886,-0.998731255531311,9,6524.0,-0.21825173497200012,89,9961.0
7020,0.34493181109428406,0.011702037416398525,-51,6524.0,-3.5202548503875732,-128,9961.0
7030,0.34503185749053955,0.0818721354007721,-112,6524.0,-2.7073142528533936,-227,9961.0
7040,0.34513628482818604,-1.1031887531280518,112,6524.0,-2.810089588165283,162,9961.0
7050,0.3462921977043152,1.0150421857833862,147,6524.0,1.2733521461486816,-1,9961.0
7060,0.34648045897483826,2.9346959590911865,-43,6524.0,-3.9114789962768555,-304,9961.0
7070,0.3467068672180176,0.9806780815124512,-17,6524.0,0.4665084779262543,22,9961.0
7080,0.3469308018684387,-0.6460128426551819,67,6524.0,-1.2666486501693726,33,9961.0
7090,0.34718137979507446,3.153582811355591,-11,6524.0,3.3772084712982178,-161,9961.0
7100,0.34773096442222595,0.43149232864379883,-194,6524.0,-0.6991050839424133,-22,9961.0
7110,0.347953200340271,-1.0815778970718384,142,6524.0,-2.0826733112335205,142,9961.0
7120,0.34816455841064453,-1.960742712020874,37,6524.0,3.0186824798583984,111,9961.0
7130,0.3483680188655853,0.6752111315727234,-45,6524.0,0.7987920045852661,-107,9961.0
7140,0.34910139441490173,0.6450661420822144,-55,6524.0,-3.403916597366333,33,9961.0
7150,0.3492526710033417,1.1981154680252075,133,6524.0,-3.7334482669830322,-19,9961.0
7160,0.34938597679138184,-2.79556941986084,-119,6524.0,-6.7450337409973145,-130,9961.0
7170,0.3495185077190399,-1.7062965631484985,-182,6524.0,-6.630964279174805,-75,9961.0
7180,0.35018306970596313,-1.8398325443267822,71,6524.0,1.4090325832366943,124,9961.0
7190,0.350363165140152,-1.8778212070465088,45,6524.0,6.453378677368164,23,9961.0
7200,0.3505461513996124,3.0105106830596924,-50,6524.0,5.346477031707764,-34,9961.0
7210,0.35071316361427307,-2.4407596588134766,7,6524.0,4.98485803604126,134,9961.0
7220,0.35086554288864136,-1.7042362689971924,55,6524.0,5.787242889404297,64,9961.0
7230,0.34980329871177673,-1.5364474058151245,-46,6524.0,1.2970892190933228,-148,9961.0
7240,0.34983786940574646,-0.956519365310669,-132,6524.0,-3.0368213653564453,-48,9961.0
7250,0.3498626947402954,4.3758039474487305,145,6524.0,-8.264883995056152,209,9961.0
7260,0.3499016761779785,2.7199456691741943,135,6524.0,-2.740602970123291,-89,9961.0
7270,0.34881988167762756,-0.13755011558532715,-87,6524.0,1.371434211730957,-43,9961.0
7280,0.34880533814430237,-2.090240955352783,11,6524.0,3.9621388912200928,224,9961.0
7290,0.34878987073898315,-4.881242752075195,13,6524.0,4.325514316558838,54,9961.0
7300,0.34879231452941895,-6.151252269744873,-138,6524.0,5.235579013824463,-269,9961.0
7310,0.34880760312080383,-6.599124908447266,-200,6524.0,5.773343563079834,38,9961.0
7320,0.3496926426887512,-5.223013877868652,34,6524.0,4.326704502105713,105,9961.0
7330,0.3497703969478607,-3.8175673484802246,-23,6524.0,2.8455140590667725,-91,9961.0
7340,0.34984421730041504,-5.684086799621582,-124,6524.0,1.1727439165115356,-143,9961.0
7350,0.34989237785339355,-1.771238923072815,-6,6524.0,4.1428303718566895,84,9961.0
7360,0.34915804862976074,9.287242889404297,233,6524.0,3.248445749282837,206,9961.0
7370,0.3491440713405609,-2.077279806137085,68,6524.0,0.21139748394489288,-122,9961.0
7380,0.3491021990776062,-1.299997091293335,-85,6524.0,1.6197559833526611,-56,9961.0
7390,0.3490927815437317,-0.7742179036140442,17,6524.0,3.2128031253814697,210,9961.0
7400,0.35059523582458496,-0.0739690363407135,109,6524.0,0.2997603416442871,35,9961.0
7410,0.35070133209228516,2.6284096240997314,50,6524.0,-0.3558049499988556,-136,9961.0
7420,0.3508424758911133,8.693662643432617,-118,6524.0,4.2993292808532715,-141,9961.0
7430,0.3509969413280487,2.077288866043091,61,6524.0,-10.118197441101074,132,9961.0
7440,0.351114958524704,-2.509838104248047,136,6524.0,4.575178146362305,22,9961.0
7450,0.35166218876838684,-3.5246307849884033,-166,6524.0,5.601901531219482,-31,9961.0
7460,0.35188019275665283,-4.38667631149292,-23,6524.0,7.149120330810547,102,9961.0
7470,0.35205283761024475,0.10766150802373886,129,6524.0,3.2423367500305176,510,9961.0
7480,0.35221606492996216,-4.034411907196045,-217,6524.0,7.833405494689941,140,9961.0
7490,0.3529968857765198,-1.9246711730957031,-29,6524.0,5.9745073318481445,43,9961.0
7500,0.35316649079322815,0.34103626012802124,165,6524.0,1.9147635698318481,75,9961.0
7510,0.3533102571964264,1.3257784843444824,72,6524.0,0.5578679442405701,201,9961.0
7520,0.3534853756427765,0.7334988713264465,-150,6524.0,-9.211365699768066,-164,9961.0
7530,0.3535940945148468,-2.9866883754730225,19,6524.0,-4.759265899658203,-199,9961.0
7540,0.35345757007598877,2.4724693298339844,229,6524.0,-4.222177028656006,77,9961.0
7550,0.35356974601745605,-2.6105899810791016,-85,6524.0,0.8177825808525085,-170,9961.0
7560,0.3536599278450012,1.1539791822433472,-70,6524.0,3.2063732147216797,50,9961.0
7570,0.3537277281284332,0.18578629195690155,109,6524.0,3.5554659366607666,293,9961.0
7580,0.35352179408073425,-1.8432490825653076,85,6524.0,6.084953784942627,242,9961.0
7590,0.35360169410705566,-2.3352112770080566,-114,6524.0,4.031809329986572,-19,9961.0
7600,0.3536769449710846,-4.296353340148926,-30,6524.0,1.9256523847579956,125,9961.0
7610,0.3537405729293823,-2.9939780235290527,94,6524.0,1.8189078569412231,73,9961.0
7620,0.3542647659778595,2.073460817337036,-34,6524.0,-0.5107702016830444,126,9961.0
7630,0.35434508323669434,-4.521729946136475,-224,6524.0,5.8612565994262695,-177,9961.0
7640,0.35450279712677,-2.241617441177368,91,6524.0,-3.5438904762268066,72,9961.0
7650,0.35460856556892395,-4.963258743286133,41,6524.0,0.02518615499138832,107,9961.0
7660,0.35463884472846985,-2.5055437088012695,-149,6524.0,1.1302881240844727,-102,9961.0
7670,0.35396498441696167,-3.2535455226898193,-90,6524.0,2.7617833614349365,193,9961.0
7680,0.3538813292980194,-3.570466995239258,2,6524.0,0.6594510674476624,202,9961.0
7690,0.3537489175796509,1.6002789735794067,70,6524.0,6.65329647064209,-44,9961.0
7700,0.35363173484802246,1.124885082244873,-96,6524.0,3.7215564250946045,-9,9961.0
7710,0.35330674052238464,0.5195132493972778,19,6524.0,1.05404794216156,176,9961.0
7720,0.35316890478134155,3.368649482727051,148,6524.0,-0.07863637804985046,52,9961.0
7730,0.3530721068382263,6.756525039672852,65,6524.0,2.3547472953796387,-174,9961.0
7740,0.35299035906791687,5.365286827087402,-149,6524.0,-2.049443244934082,-56,9961.0
7750,0.3555859625339508,-0.7109519839286804,95,6524.0,-4.850853443145752,193,9961.0
7760,0.35559239983558655,3.3709704875946045,180,6524.0,-1.9217725992202759,-37,9961.0
7770,0.355559766292572,3.0126543045043945,-8,6524.0,-0.26761987805366516,-172,9961.0
7780,0.35550597310066223,-1.588485836982727,-99,6524.0,3.359391450881958,152,9961.0
7790,0.35545748472213745,3.3711862564086914,120,6524.0,-3.1438162326812744,97,9961.0
7800,0.3552699685096741,5.789043426513672,82,6524.0,-1.3811893463134766,-267,9961.0
7810,0.35525450110435486,6.483145236968994,-94,6524.0,3.8126158714294434,-159,9961.0
7820,0.3552521765232086,1.8252296447753906,80,6524.0,2.160932779312134,158,9961.0
7830,0.35524505376815796,5.398238658905029,166,6524.0,-0.21423253417015076,0,9961.0
7840,0.3567396104335785,3.8136918544769287,23,6524.0,1.0101381540298462,-111,9961.0
7850,0.35685813426971436,6.584038257598877,32,6524.0,-0.36087173223495483,-21,9961.0
7860,0.3569643497467041,-0.18530240654945374,212,6524.0,-6.986469268798828,-55,9961.0
7870,0.3570774793624878,-0.9829548001289368,92,6524.0,-5.9556474685668945,-206,9961.0
7880,0.3571646809577942,-0.9607623219490051,-150,6524.0,-3.650409698486328,-371,9961.0
7890,0.35801923274993896,0.10556887835264206,-129,6524.0,-5.223536491394043,-20,9961.0
7900,0.3581444025039673,-0.485573410987854,60,6524.0,-5.312210559844971,-53,9961.0
7910,0.3582293391227722,-0.27306053042411804,-21,6524.0,0.5957380533218384,-68,9961.0
7920,0.3582814037799835,3.279554843902588,-57,6524.0,-1.650765061378479,59,9961.0
7930,0.35939452052116394,0.3204576075077057,224,6524.0,0.13630855083465576,176,9961.0
7940,0.3594795763492584,4.672016143798828,166,6524.0,-1.229028344154358,-136,9961.0
7950,0.3595881462097168,-0.06029558554291725,80,6524.0,0.3806386888027191,-306,9961.0
7960,0.3597141206264496,-0.17427729070186615,42,6524.0,-7.073890209197998,23,9961.0
7970,0.36106929183006287,3.5732226371765137,116,6524.0,-5.011928558349609,-135,9961.0
7980,0.3611705005168915,-1.0927373170852661,-40,6524.0,2.501054048538208,-121,9961.0
7990,0.361246794462204,1.8436529636383057,24,6524.0,0.0291590616106987,94,9961.0
8000,0.3613090217113495,-0.20132534205913544,122,6524.0,-1.4353172779083252,95,9961.0
8010,0.3613561689853668,2.951827049255371,33,6524.0,-0.5643909573554993,129,9961.0
8020,0.36208823323249817,3.3198647499084473,-93,6524.0,-3.0107667446136475,-92,9961.0
8030,0.36218971014022827,-2.549227714538574,74,6524.0,5.285390377044678,237,9961.0
8040,0.3622945547103882,0.40262120962142944,174,6524.0,-1.3805843591690063,-62,9961.0
8050,0.3623912036418915,-1.3704451322555542,-69,6524.0,-2.2963271141052246,-176,9961.0
8060,0.3630748391151428,0.1400839388370514,0,6524.0,-5.966358184814453,-71,9961.0
8070,0.3631441593170166,1.1670831441879272,88,6524.0,-3.9328646659851074,-142,9961.0
8080,0.3631882071495056,2.617295265197754,10,6524.0,-3.9983389377593994,-213,9961.0
8090,0.36318862438201904,4.132998943328857,193,6524.0,-0.28704991936683655,-95,9961.0
8100,0.36318835616111755,2.4858758449554443,196,6524.0,-4.473086357116699,143,9961.0
8110,0.3622853755950928,0.6711662411689758,-80,6524.0,-2.462763547897339,-62,9961.0
8120,0.3621926009654999,-1.2611756324768066,-81,6524.0,-2.2258758544921875,-310,9961.0
8130,0.3620929718017578,1.1728720664978027,131,6524.0,-7.6335625648498535,61,9961.0
8140,0.36198848485946655,-1.4843411445617676,-78,6524.0,-1.3209855556488037,-37,9961.0
8150,0.36266857385635376,-3.2011585235595703,-91,6524.0,1.9664305448532104,-43,9961.0
8160,0.3625966012477875,2.1174659729003906,87,6524.0,-2.2039201259613037,29,9961.0
8170,0.3625355362892151,-1.2972644567489624,-53,6524.0,1.9464521408081055,-126,9961.0
8180,0.3624698221683502,-4.40666389465332,-330,6524.0,6.21055269241333,8,9961.0
8190,0.36378639936447144,-3.0640504360198975,111,6524.0,-4.282944679260254,185,9961.0
8200,0.363698810338974,-3.3482232093811035,137,6524.0,-0.18288157880306244,64,9961.0
8210,0.3635546565055847,-2.1667401790618896,-84,6524.0,4.6310648918151855,3,9961.0
8220,0.3633583188056946,-1.271567940711975,-11,6524.0,2.1940805912017822,134,9961.0
8230,0.36311930418014526,-0.09609489142894745,99,6524.0,3.4831199645996094,35,9961.0
8240,0.3635842800140381,3.835505723953247,-107,6524.0,-3.656691551208496,-53,9961.0
8250,0.3633255958557129,5.678656101226807,-51,6524.0,-3.928588628768921,-295,9961.0
8260,0.3630409836769104,-1.6325583457946777,-92,6524.0,2.4325737953186035,136,9961.0
8270,0.3627474904060364,3.1846463680267334,169,6524.0,-10.372233390808105,133,9961.0
8280,0.36187663674354553,4.098584175109863,-69,6524.0,-5.2629008293151855,-43,9961.0
8290,0.3615356981754303,-0.002158357761800289,1,6524.0,-1.1111483573913574,120,9961.0
8300,0.3611619770526886,0.6555691361427307,41,6524.0,2.841641902923584,4,9961.0
8310,0.3607479929924011,0.002415747381746769,-136,6524.0,0.887061357498169,-77,9961.0
8320,0.36136770248413086,-3.628608465194702,-27,6524.0,1.0576918125152588,125,9961.0
8330,0.361056923866272,-2.6126227378845215,55,6524.0,-1.8343608379364014,193,9961.0
8340,0.36068543791770935,-2.6347098350524902,-98,6524.0,5.798377990722656,36,9961.0
8350,0.36032846570014954,-4.536221027374268,-141,6524.0,8.980710983276367,225,9961.0
8360,0.35996416211128235,-1.1093567609786987,52,6524.0,9.657754898071289,360,9961.0
8370,0.36003100872039795,-3.941655158996582,70,6524.0,6.542537689208984,20,9961.0
8380,0.35975420475006104,-3.2334113121032715,-81,6524.0,6.318765163421631,-118,9961.0
8390,0.3595508933067322,2.7409050464630127,-21,6524.0,2.5980427265167236,81,9961.0
8400,0.35939809679985046,2.9115490913391113,171,6524.0,-1.0270692110061646,45,9961.0
8410,0.3599182963371277,3.9062047004699707,36,6524.0,-3.2337465286254883,-133,9961.0
8420,0.35978296399116516,4.201976776123047,-50,6524.0,-5.094832420349121,-1,9961.0
8430,0.3596552312374115,1.825806736946106,120,6524.0,-4.931312561035156,100,9961.0
8440,0.35951554775238037,-1.304023027420044,68,6524.0,-1.6814888715744019,16,9961.0
8450,0.3594401478767395,-3.5549848079681396,-172,6524.0,9.21279525756836,27,9961.0
8460,0.3591368794441223,-5.19564151763916,-136,6524.0,-1.7270344495773315,5,9961.0
8470,0.3590010106563568,-6.99038028717041,-78,6524.0,1.5430396795272827,86,9961.0
8480,0.3588201403617859,-8.039162635803223,-196,6524.0,2.6617674827575684,-129,9961.0
8490,0.3586632013320923,-4.615131855010986,-146,6524.0,-4.981391429901123,-61,9961.0
8500,0.3583098351955414,-5.652992248535156,-25,6524.0,0.08281415700912476,246,9961.0
8510,0.3581870198249817,-3.907118797302246,144,6524.0,4.695826530456543,124,9961.0
8520,0.35808172821998596,5.538012981414795,-64,6524.0,-3.7921411991119385,-333,9961.0
8530,0.3580023944377899,-1.374343752861023,-234,6524.0,-7.027792453765869,-141,9961.0
8540,0.35985466837882996,-1.6941168308258057,36,6524.0,-5.707455635070801,27,9961.0
8550,0.35978859663009644,-1.7144535779953003,25,6524.0,-8.163466453552246,-148,9961.0
8560,0.3597041070461273,-0.7113358378410339,-61,6524.0,-3.5484697818756104,-135,9961.0
8570,0.35961997509002686,0.19981801509857178,64,6524.0,-1.4113167524337769,-115,9961.0
8580,0.3595145046710968,-2.8486478328704834,224,6524.0,-3.689358949661255,231,9961.0
8590,0.35956284403800964,2.067239761352539,-26,6524.0,6.408799648284912,-40,9961.0
8600,0.35943618416786194,-3.5455996990203857,-115,6524.0,7.680252552032471,228,9961.0
8610,0.35933414101600647,-4.337943077087402,-10,6524.0,9.285696983337402,205,9961.0
8620,0.3592478632926941,-4.0141520500183105,-80,6524.0,5.939509391784668,-107,9961.0
8630,0.3607251048088074,-3.01033091545105,-262,6524.0,2.1686325073242188,-111,9961.0
8640,0.36076605319976807,-5.875312805175781,-259,6524.0,-5.708095073699951,24,9961.0
8650,0.36086130142211914,-7.2780866622924805,5,6524.0,-6.037958145141602,-2,9961.0
8660,0.3609076142311096,-1.7932450771331787,8,6524.0,-1.4047476053237915,-142,9961.0
8670,0.3609786033630371,-2.2126386165618896,50,6524.0,-3.518493890762329,-119,9961.0
8680,0.360212504863739,-0.992328405380249,106,6524.0,-5.611542701721191,98,9961.0
8690,0.36020419001579285,-1.0327911376953125,-44,6524.0,0.25227460265159607,-149,9961.0
8700,0.3601806163787842,2.289614200592041,-16,6524.0,-0.13759997487068176,-156,9961.0
8710,0.36017298698425293,-0.3274761438369751,150,6524.0,-1.1639716625213623,180,9961.0
8720,0.3592986464500427,-0.21552596986293793,18,6524.0,2.53975510597229,46,9961.0
8730,0.3592596650123596,0.8881809711456299,-168,6524.0,4.970952033996582,-1,9961.0
8740,0.3592301905155182,-0.41385993361473083,19,6524.0,1.3672956228256226,145,9961.0
8750,0.35917726159095764,-0.9544103741645813,-87,6524.0,2.3705835342407227,77,9961.0
8760,0.35914501547813416,-3.624847650527954,-252,6524.0,1.1963704824447632,-274,9961.0
8770,0.35866180062294006,-4.69042444229126,-14,6524.0,-4.802774906158447,102,9961.0
8780,0.3586474657058716,2.75803804397583,122,6524.0,-0.2781325578689575,220,9961.0
8790,0.3586772680282593,4.307831287384033,-23,6524.0,4.340731620788574,9,9961.0
8800,0.35863471031188965,1.0218548774719238,82,6524.0,0.6968479156494141,101,9961.0
8810,0.3590936064720154,0.9111561179161072,84,6524.0,0.803827166557312,37,9961.0
8820,0.35905423760414124,4.817850112915039,-159,6524.0,-0.3162916302680969,-75,9961.0
8830,0.35899966955184937,-0.9466707706451416,23,6524.0,1.990659475326538,-7,9961.0
8840,0.3589475154876709,1.2332122325897217,111,6524.0,0.05554160848259926,31,9961.0
8850,0.35970479249954224,-0.5416471362113953,-48,6524.0,2.3346478939056396,26,9961.0
8860,0.359668493270874,2.014582395553589,76,6524.0,1.259771704673767,185,9961.0
8870,0.35961103439331055,1.3665199279785156,91,6524.0,4.379351615905762,-53,9961.0
8880,0.3595987558364868,3.392585277557373,-87,6524.0,2.7267415523529053,-43,9961.0
8890,0.35960572957992554,-1.0206269025802612,21,6524.0,-0.16041070222854614,-87,9961.0
8900,0.3601285517215729,0.22396129369735718,86,6524.0,-0.5173879861831665,-58,9961.0
8910,0.36012178659439087,2.878209352493286,-55,6524.0,-0.40124884247779846,-16,9961.0
8920,0.3601415753364563,3.638150691986084,95,6524.0,-4.223444938659668,200,9961.0
8930,0.3601594865322113,1.7862473726272583,194,6524.0,-2.3948652744293213,-112,9961.0
8940,0.3604828715324402,0.4818873405456543,-35,6524.0,5.510206699371338,138,9961.0
8950,0.3605252504348755,-0.6278042197227478,46,6524.0,5.728488445281982,146,9961.0
8960,0.36055904626846313,-1.7662116289138794,-9,6524.0,4.20410680770874,-74,9961.0
8970,0.3605831265449524,0.09037592262029648,-186,6524.0,-0.2197098731994629,4,9961.0
8980,0.3603617250919342,0.9511544108390808,105,6524.0,2.5742201805114746,216,9961.0
8990,0.36035987734794617,0.07052160799503326,52,6524.0,-2.25199556350708,-103,9961.0
9000,0.36032751202583313,-1.3827240467071533,-54,6524.0,2.2678048610687256,-54,9961.0
9010,0.3602728545665741,-0.7042677402496338,82,6524.0,-3.061347246170044,76,9961.0
9020,0.36023110151290894,-2.0003249645233154,11,6524.0,4.618913173675537,-159,9961.0
9030,0.36089465022087097,0.8902125358581543,-194,6524.0,-1.034006953239441,-19,9961.0
9040,0.36087116599082947,-2.4985921382904053,22,6524.0,0.038387198001146317,167,9961.0
9050,0.3608199656009674,-1.9713941812515259,17,6524.0,-1.364305853843689,-33,9961.0
9060,0.36076653003692627,0.5043087601661682,-133,6524.0,2.7290358543395996,161,9961.0
9070,0.3604109287261963,-4.726988315582275,31,6524.0,-0.026188014075160027,133,9961.0
9080,0.36030974984169006,-1.4603073596954346,-79,6524.0,1.3812423944473267,-138,9961.0
9090,0.3601989150047302,1.6879295110702515,-178,6524.0,3.2526421546936035,-61,9961.0
9100,0.36005836725234985,2.239452600479126,30,6524.0,2.831010341644287,195,9961.0
9110,0.3598712384700775,1.7349809408187866,8,6524.0,4.341922760009766,9,9961.0
9120,0.3593346178531647,3.319756031036377,11,6524.0,1.5173593759536743,82,9961.0
9130,0.3591105043888092,3.1145713329315186,101,6524.0,3.0447609424591064,374,9961.0
9140,0.3588869571685791,6.380608081817627,229,6524.0,7.013999938964844,102,9961.0
9150,0.3587225079536438,1.103858232498169,-149,6524.0,-1.712415337562561,-15,9961.0
9160,0.35903045535087585,1.524922251701355,109,6524.0,0.97782301902771,96,9961.0
9170,0.358834832906723,2.2784831523895264,64,6524.0,-4.845252990722656,-103,9961.0
9180,0.3586565852165222,2.2431516647338867,-78,6524.0,1.5386534929275513,-63,9961.0
9190,0.35854610800743103,3.1363754272460938,150,6524.0,1.4482976198196411,355,9961.0
9200,0.3586854934692383,1.3883918523788452,172,6524.0,4.704275608062744,-16,9961.0
9210,0.35861408710479736,-3.043320894241333,-103,6524.0,2.9653849601745605,-48,9961.0
9220,0.3585890233516693,-5.651582717895508,-26,6524.0,5.9163665771484375,60,9961.0
9230,0.35855743288993835,-1.9882705211639404,53,6524.0,2.4174489974975586,-86,9961.0
9240,0.35854434967041016,-4.0860748291015625,-123,6524.0,-1.1713711023330688,-216,9961.0
9250,0.36034640669822693,-0.3098791241645813,55,6524.0,-5.5582990646362305,133,9961.0
9260,0.3604404032230377,0.24342980980873108,66,6524.0,4.71698522567749,208,9961.0
9270,0.3605138063430786,2.871981382369995,-13,6524.0,0.09124735742807388,-86,9961.0
9280,0.3606042265892029,5.082144737243652,156,6524.0,-0.43568336963653564,138,9961.0
9290,0.3616432547569275,3.0236012935638428,144,6524.0,0.0012442140141502023,-85,9961.0
9300,0.36185258626937866,0.010110283270478249,-41,6524.0,-2.9275577068328857,-173,9961.0
9310,0.3620569705963135,-0.10636886954307556,22,6524.0,-0.73121577501297,102,9961.0
9320,0.36226436495780945,0.06226244196295738,-32,6524.0,-1.9825910329818726,-48,9961.0
9330,0.36248087882995605,-0.9882568717002869,78,6524.0,-2.784327507019043,9,9961.0
9340,0.36251577734947205,0.15890659391880035,25,6524.0,0.48510581254959106,106,9961.0
9350,0.3627892732620239,0.1269122213125229,-162,6524.0,3.8450896739959717,-194,9961.0
9360,0.36301741003990173,1.2714943885803223,59,6524.0,-4.069178104400635,7,9961.0
9370,0.36324232816696167,2.242962598800659,67,6524.0,-2.5348567962646484,101,9961.0
9380,0.36453238129615784,3.531867265701294,-111,6524.0,1.6670838594436646,-3,9961.0
9390,0.3647735118865967,3.632195234298706,223,6524.0,-3.4595072269439697,76,9961.0
9400,0.36500823497772217,1.113138198852539,-51,6524.0,-2.640738010406494,-396,9961.0
9410,0.36517655849456787,3.0413081645965576,-162,6524.0,-2.4172935485839844,-39,9961.0
9420,0.36634451150894165,0.298471599817276,73,6524.0,0.7737545967102051,-27,9961.0
9430,0.3664655089378357,3.145533323287964,6,6524.0,-3.1013376712799072,-195,9961.0
9440,0.36655154824256897,2.2905848026275635,3,6524.0,-2.852367877960205,132,9961.0
9450,0.36657261848449707,-0.10185585916042328,202,6524.0,-5.0306077003479,-125,9961.0
9460,0.36651837825775146,1.3031929731369019,-52,6524.0,-0.7269524335861206,-111,9961.0
9470,0.3666371703147888,2.458461046218872,101,6524.0,-0.8393841981887817,25,9961.0
9480,0.36654922366142273,4.799208641052246,80,6524.0,-0.8858286738395691,-205,9961.0
9490,0.3664206266403198,4.989095687866211,-9,6524.0,-1.893436074256897,-1,9961.0
9500,0.3662601709365845,-0.850821316242218,173,6524.0,-1.4250264167785645,46,9961.0
9510,0.36716780066490173,0.8587289452552795,-27,6524.0,0.27284565567970276,-50,9961.0
9520,0.36708852648735046,-0.9540475010871887,57,6524.0,0.7818089723587036,189,9961.0
9530,0.36694037914276123,-0.8539407253265381,23,6524.0,1.9225398302078247,-75,9961.0
9540,0.3667570650577545,-0.21241316199302673,-204,6524.0,-2.0676822662353516,-64,9961.0
9550,0.3667340874671936,-4.843696594238281,-21,6524.0,-1.6612228155136108,-36,9961.0
9560,0.36653125286102295,-4.704517841339111,-76,6524.0,-2.6095035076141357,-166,9961.0
9570,0.3663165271282196,-4.946847438812256,-145,6524.0,-0.23057295382022858,95,9961.0
9580,0.36607256531715393,-3.5511693954467773,207,6524.0,0.6832393407821655,47,9961.0
9590,0.36580801010131836,-3.447896957397461,-130,6524.0,-3.0124781131744385,-128,9961.0
9600,0.3652101457118988,5.316272258758545,64,6524.0,-6.596673011779785,45,9961.0
9610,0.36493784189224243,3.8682990074157715,148,6524.0,-1.0786716938018799,-42,9961.0
9620,0.3646712899208069,4.0868425369262695,-38,6524.0,2.4067089557647705,-86,9961.0
9630,0.3644258379936218,4.370737552642822,99,6524.0,1.029772162437439,171,9961.0
9640,0.36438077688217163,0.17147712409496307,162,6524.0,2.2750027179718018,24,9961.0
9650,0.36411571502685547,-0.1799268126487732,-75,6524.0,4.073041915893555,35,9961.0
9660,0.363841712474823,-1.9171658754348755,48,6524.0,7.21862268447876,209,9961.0
9670,0.3635420501232147,-2.1296916007995605,26,6524.0,6.245578289031982,-29,9961.0
9680,0.36319124698638916,-1.4282914400100708,-200,6524.0,3.871110200881958,46,9961.0
9690,0.36444956064224243,-0.48761603236198425,-11,6524.0,0.10999435186386108,94,9961.0
9700,0.364215612411499,-1.8341047763824463,2,6524.0,2.6176953315734863,-66,9961.0
9710,0.3639644980430603,-0.7695853114128113,-97,6524.0,2.1730706691741943,-26,9961.0
9720,0.3637126386165619,-2.513838291168213,-14,6524.0,-2.940065860748291,290,9961.0
9730,0.3628053665161133,-0.45321881771087646,143,6524.0,-5.836858749389648,-42,9961.0
9740,0.3625684082508087,2.092611789703369,-189,6524.0,3.9977903366088867,42,9961.0
9750,0.362303227186203,4.672084331512451,103,6524.0,-0.37532269954681396,149,9961.0
9760,0.3620283305644989,5.113000392913818,167,6524.0,2.6118083000183105,-111,9961.0
9770,0.3614439368247986,4.385267734527588,-175,6524.0,5.780780792236328,-78,9961.0
9780,0.3611482083797455,2.621469497680664,118,6524.0,2.2916414737701416,216,9961.0
9790,0.36084604263305664,0.3325919806957245,36,6524.0,-3.894934892654419,-113,9961.0
9800,0.36054304242134094,-0.2662026882171631,-120,6524.0,-5.7601165771484375,-67,9961.0
9810,0.360230028629303,-2.071249485015869,108,6524.0,-6.692531585693359,33,9961.0
9820,0.3606470227241516,0.9315884113311768,22,6524.0,-9.020055770874023,-243,9961.0
9830,0.36036303639411926,-5.392030715942383,-118,6524.0,-4.839199066162109,-45,9961.0
9840,0.3600836396217346,-3.0367965698242188,17,6524.0,0.878364086151123,98,9961.0
9850,0.35981249809265137,-4.289677619934082,-35,6524.0,-0.28723058104515076,-211,9961.0
9860,0.3613521456718445,-2.552227020263672,-143,6524.0,2.1288416385650635,159,9961.0
9870,0.36122626066207886,-0.5543920993804932,101,6524.0,8.077445030212402,100,9961.0
9880,0.36112329363822937,0.3371725082397461,-57,6524.0,6.352595329284668,-96,9961.0
9890,0.3609870672225952,0.40836402773857117,-62,6524.0,3.6791460514068604,5,9961.0
9900,0.3608977198600769,-0.8142085671424866,157,6524.0,-1.2780377864837646,71,9961.0
9910,0.3608984351158142,-4.18429708480835,-114,6524.0,1.9860045909881592,-87,9961.0
9920,0.3608565926551819,-3.872105360031128,-128,6524.0,-1.869106411933899,82,9961.0
9930,0.3607991933822632,-5.842744827270508,42,6524.0,-3.9428791999816895,-28,9961.0
9940,0.36077648401260376,-5.2908616065979,-237,6524.0,-10.719327926635742,-242,9961.0
9950,0.3608701527118683,-4.947925567626953,0,6524.0,-6.5655646324157715,-33,9961.0
9960,0.3608580231666565,-4.434703826904297,-105,6524.0,-6.891983985900879,-125,9961.0
9970,0.36083897948265076,-1.409993052482605,-70,6524.0,-5.8437676429748535,-133,9961.0
9980,0.360805481672287,1.4118129014968872,244,6524.0,-5.706424713134766,393,9961.0
9990,0.36079147458076477,-0.24718943238258362,-45,6524.0,7.174808979034424,39,9961.0
10000,0.3603884279727936,-0.42178142070770264,23,6524.0,1.3333863019943237,59,9961.0
10010,0.36026403307914734,-1.060072422027588,72,6524.0,2.749718189239502,269,9961.0
10020,0.36012840270996094,-0.22950942814350128,-139,6524.0,1.9063667058944702,-58,9961.0
10030,0.3599538505077362,-1.377229928970337,10,6524.0,6.0577311515808105,163,9961.0
10040,0.36137473583221436,-1.7198342084884644,-49,6524.0,5.048366069793701,-16,9961.0
10050,0.36128532886505127,0.6236607432365417,-160,6524.0,3.386615753173828,144,9961.0
10060,0.36123228073120117,0.7217608094215393,73,6524.0,-3.7753169536590576,208,9961.0
10070,0.36115768551826477,-2.7130584716796875,25,6524.0,0.8037375211715698,5,9961.0
10080,0.36179277300834656,2.278975248336792,-62,6524.0,-5.551531791687012,7,9961.0
10090,0.3617241084575653,-0.5011930465698242,110,6524.0,-4.7310709953308105,22,9961.0
10100,0.3616371750831604,-1.5101979970932007,-77,6524.0,-0.18563534319400787,16,9961.0
10110,0.3615056872367859,1.1404950618743896,-61,6524.0,1.61969792842865,142,9961.0
10120,0.36137938499450684,-2.724073648452759,47,6524.0,7.315114974975586,65,9961.0
10130,0.3610771894454956,-0.8801826238632202,-90,6524.0,4.74232816696167,-33,9961.0
10140,0.36088231205940247,-1.3070961236953735,-38,6524.0,3.227956533432007,333,9961.0
10150,0.3606400787830353,-1.009692668914795,188,6524.0,-0.5821555256843567,279,9961.0
10160,0.3604210317134857,-2.2426302433013916,-63,6524.0,-1.280146837234497,-5,9961.0
10170,0.36243024468421936,-4.372829914093018,-66,6524.0,0.6391931176185608,143,9961.0
10180,0.36231908202171326,-1.3754979372024536,101,6524.0,-5.545284748077393,-236,9961.0
10190,0.36223486065864563,4.251584053039551,-111,6524.0,-6.370115280151367,-139,9961.0
10200,0.3621673882007599,3.5152382850646973,49,6524.0,-4.989362716674805,181,9961.0
10210,0.36243829131126404,1.9220526218414307,-5,6524.0,-2.4943008422851562,-46,9961.0
10220,0.36232808232307434,-0.4980047941207886,-91,6524.0,1.5314867496490479,108,9961.0
10230,0.3621658980846405,-2.7402336597442627,121,6524.0,2.6124284267425537,133,9961.0
10240,0.36199381947517395,-2.369738817214966,-152,6524.0,4.052548408508301,-103,9961.0
10250,0.36180180311203003,-0.11260130256414413,-152,6524.0,11.02859878540039,164,9961.0
10260,0.3621084690093994,2.0011470317840576,127,6524.0,1.0782016515731812,131,9961.0
10270,0.36200034618377686,2.400209426879883,5,6524.0,1.1003637313842773,-130,9961.0
10280,0.361914724111557,3.3474788665771484,25,6524.0,-1.9613256454467773,104,9961.0
10290,0.36180663108825684,1.0602983236312866,247,6524.0,-2.8280742168426514,-48,9961.0
10300,0.3621518909931183,5.146729469299316,-51,6524.0,-3.3475542068481445,-265,9961.0
10310,0.3620280623435974,-0.021688763052225113,-116,6524.0,-0.8864152431488037,40,9961.0
10320,0.36189085245132446,-1.4279965162277222,73,6524.0,0.2297956943511963,-75,9961.0
10330,0.3617364168167114,1.3199255466461182,-85,6524.0,-2.015066146850586,-22,9961.0
10340,0.36154139041900635,1.6812973022460938,138,6524.0,-1.6499691009521484,234,9961.0
10350,0.3628285825252533,0.7403904795646667,104,6524.0,-1.0217264890670776,130,9961.0
10360,0.36271587014198303,6.901552677154541,-106,6524.0,2.089423894882202,-119,9961.0
10370,0.36259105801582336,6.90867805480957,154,6524.0,-0.4345147907733917,10,9961.0
10380,0.3624674379825592,6.65071964263916,85,6524.0,3.524041175842285,-92,9961.0
10390,0.3629591763019562,4.928023815155029,18,6524.0,3.36108660697937,170,9961.0
10400,0.362868994474411,4.057575702667236,307,6524.0,3.4670188426971436,102,9961.0
10410,0.362793892621994,1.7282662391662598,-4,6524.0,0.6820457577705383,-155,9961.0
10420,0.3627382516860962,-1.46473228931427,42,6524.0,-3.618866205215454,-7,9961.0
10430,0.36265477538108826,0.4330211579799652,58,6524.0,-0.260063499212265,73,9961.0
10440,0.36270686984062195,-2.9214730262756348,-170,6524.0,-0.041741229593753815,-146,9961.0
10450,0.3626260757446289,-2.5691587924957275,-41,6524.0,-5.04588508605957,188,9961.0
10460,0.36252644658088684,-5.875007629394531,-23,6524.0,-1.21465265750885,-213,9961.0
10470,0.36239388585090637,-1.6097609996795654,-208,6524.0,2.8057122230529785,-55,9961.0
10480,0.3637275695800781,-3.455000638961792,10,6524.0,2.6147420406341553,97,9961.0
10490,0.36365270614624023,-1.4596456289291382,-51,6524.0,6.396920680999756,-25,9961.0
10500,0.36358073353767395,0.8582806587219238,-16,6524.0,3.5611796379089355,178,9961.0
10510,0.3634949326515198,-1.7956558465957642,164,6524.0,5.295647144317627,28,9961.0
10520,0.36241212487220764,-3.0706779956817627,-52,6524.0,8.247081756591797,-254,9961.0
10530,0.3622666597366333,0.20345857739448547,-15,6524.0,0.615053653717041,100,9961.0
10540,0.362096905708313,3.144481897354126,130,6524.0,0.719853401184082,-52,9961.0
10550,0.36193326115608215,4.121480941772461,31,6524.0,1.1461104154586792,-27,9961.0
10560,0.36178866028785706,4.700732707977295,223,6524.0,4.647080898284912,181,9961.0
10570,0.36332741379737854,6.55508279800415,-35,6524.0,1.762905478477478,-30,9961.0
10580,0.3631267845630646,3.5697975158691406,0,6524.0,11.263221740722656,0,9961.0
10590,0.362896203994751,2.9501774311065674,244,6524.0,9.724656105041504,232,9961.0
10600,0.3627103865146637,3.3873307704925537,26,6524.0,7.492097854614258,123,9961.0
10610,0.3642149567604065,3.058798313140869,54,6524.0,5.960947513580322,20,9961.0
10620,0.36403200030326843,3.0539941787719727,145,6524.0,1.1929423809051514,36,9961.0
10630,0.3639054298400879,1.606245994567871,-29,6524.0,0.44359302520751953,-193,9961.0
10640,0.363703191280365,2.2166261672973633,63,6524.0,-3.832930564880371,30,9961.0
10650,0.3635534346103668,-1.4785791635513306,213,6524.0,-3.104548215866089,15,9961.0
10660,0.36323127150535583,-0.38103801012039185,-72,6524.0,3.8765134811401367,-221,9961.0
10670,0.3628741502761841,-1.0599759817123413,-187,6524.0,0.6655140519142151,-7,9961.0
10680,0.3625071942806244,-1.5598701238632202,71,6524.0,-0.6610485911369324,2,9961.0
10690,0.3621477484703064,-1.795998454093933,-27,6524.0,0.7916206121444702,-75,9961.0
10700,0.36216020584106445,-2.8295631408691406,-47,6524.0,-3.006521463394165,17,9961.0
10710,0.3618696630001068,0.5796692967414856,122,6524.0,-4.2143635749816895,-99,9961.0
10720,0.36160343885421753,-0.6472628116607666,56,6524.0,-7.784821033477783,-19,9961.0
10730,0.3613338768482208,1.5080269575119019,-186,6524.0,-1.8060351610183716,-348,9961.0
10740,0.3605177402496338,-0.04068717733025551,41,6524.0,-3.7997045516967773,75,9961.0
10750,0.360161691904068,-0.9365672469139099,-25,6524.0,-2.309575080871582,-11,9961.0
10760,0.359811395406723,-2.6204800605773926,-96,6524.0,-0.9238021373748779,-24,9961.0
10770,0.35946890711784363,-1.2645478248596191,91,6524.0,0.486268550157547,200,9961.0
10780,0.3591318726539612,0.1253511905670166,46,6524.0,3.190593719482422,-148,9961.0
10790,0.35832953453063965,3.0213735103607178,-186,6524.0,6.880561351776123,-55,9961.0
10800,0.3583346903324127,1.3808326721191406,-21,6524.0,4.719441890716553,189,9961.0
10810,0.357577919960022,-3.1437160968780518,25,6524.0,-0.12561295926570892,12,9961.0
10820,0.35757768154144287,-1.7952982187271118,-132,6524.0,-2.346834897994995,-49,9961.0
10830,0.35749733448028564,-1.243430495262146,35,6524.0,-1.4916003942489624,131,9961.0
10840,0.3575097322463989,1.0764096975326538,135,6524.0,-6.478765964508057,-142,9961.0
10850,0.3568260967731476,2.69281005859375,-36,6524.0,-9.050923347473145,-329,9961.0
10860,0.35682612657546997,0.20767174661159515,-43,6524.0,-0.07374697923660278,-4,9961.0
10870,0.35742583870887756,1.7938770055770874,133,6524.0,-3.9277353286743164,-45,9961.0
10880,0.35712456703186035,0.41747742891311646,-76,6524.0,-0.4017172157764435,-72,9961.0
10890,0.3568076193332672,1.5605942010879517,26,6524.0,-0.2767011821269989,274,9961.0
10900,0.3565317392349243,-2.4615561962127686,108,6524.0,5.952484130859375,-4,9961.0
10910,0.3562716245651245,-0.3142430782318115,-112,6524.0,4.589200496673584,-73,9961.0
10920,0.35597124695777893,1.281087875366211,106,6524.0,-2.1974620819091797,66,9961.0
10930,0.35567888617515564,-0.8284432291984558,28,6524.0,0.9097965955734253,-97,9961.0
10940,0.3551312983036041,1.307874083518982,-107,6524.0,1.3011023998260498,-83,9961.0
10950,0.3551310896873474,-0.6209829449653625,54,6524.0,3.0510597229003906,-28,9961.0
10960,0.355110764503479,-0.4016888439655304,78,6524.0,-1.1427963972091675,135,9961.0
10970,0.35511258244514465,1.296319603919983,-157,6524.0,-3.6524198055267334,-25,9961.0
10980,0.35479551553726196,1.781317114830017,46,6524.0,-0.5354518294334412,86,9961.0
10990,0.3547953963279724,1.4085222482681274,-1,6524.0,-1.227739691734314,4,9961.0
11000,0.35467880964279175,1.7339965105056763,-91,6524.0,-5.11925745010376,-55,9961.0
11010,0.3555622100830078,1.265407919883728,232,6524.0,-0.14109943807125092,149,9961.0
11020,0.35554713010787964,-1.3895503282546997,-97,6524.0,5.380053997039795,40,9961.0
11030,0.3555545210838318,-2.7159905433654785,-15,6524.0,5.869083881378174,269,9961.0
11040,0.3556026816368103,-2.9553635120391846,71,6524.0,4.958112716674805,-72,9961.0
11050,0.3565542697906494,-0.5631598234176636,-194,6524.0,1.4435127973556519,-107,9961.0
11060,0.35664117336273193,-0.48607194423675537,30,6524.0,-0.013893001712858677,-100,9961.0
11070,0.3567573130130768,-1.611122488975525,99,6524.0,-6.99772310256958,-114,9961.0
11080,0.3569331765174866,-3.434116840362549,-125,6524.0,-7.932751178741455,-102,9961.0
11090,0.3582233488559723,-0.4400644600391388,59,6524.0,-10.321975708007812,-160,9961.0
11100,0.3584921658039093,-1.824455738067627,-80,6524.0,-7.799295902252197,-170,9961.0
11110,0.3588036894798279,-0.833623468875885,-20,6524.0,-6.197188854217529,-164,9961.0
11120,0.35909903049468994,0.07233309745788574,104,6524.0,-5.354463577270508,-80,9961.0
11130,0.35937565565109253,-0.1995229721069336,-3,6524.0,1.947455644607544,55,9961.0
11140,0.36059319972991943,2.0023157596588135,111,6524.0,5.763031482696533,123,9961.0
11150,0.3608468770980835,1.6634384393692017,-187,6524.0,8.639490127563477,66,9961.0
11160,0.3611064553260803,-1.9456616640090942,4,6524.0,12.905138969421387,281,9961.0
11170,0.3613436818122864,-1.9088534116744995,-185,6524.0,4.83840274810791,22,9961.0
11180,0.36253857612609863,-0.7878663539886475,-46,6524.0,-0.12723661959171295,46,9961.0
11190,0.3628481924533844,-1.8678202629089355,-88,6524.0,-1.540786623954773,-116,9961.0
11200,0.3630920946598053,-0.7710819244384766,62,6524.0,-5.525069713592529,-34,9961.0
11210,0.36329385638237,-2.5220420360565186,-8,6524.0,-0.8172930479049683,-48,9961.0
11220,0.36348438262939453,0.1541643887758255,-103,6524.0,-2.8968183994293213,-166,9961.0
11230,0.36257123947143555,-1.047874093055725,45,6524.0,0.8041579127311707,27,9961.0
11240,0.362568736076355,-2.478161096572876,-83,6524.0,1.7527471780776978,-61,9961.0
11250,0.3624821603298187,-2.5865933895111084,120,6524.0,1.878090262413025,204,9961.0
11260,0.3623281717300415,-1.7761836051940918,-224,6524.0,4.738833427429199,-177,9961.0
11270,0.3621104061603546,-0.60793137550354,137,6524.0,2.999741554260254,113,9961.0
11280,0.3619302213191986,0.7056336998939514,-22,6524.0,2.6661133766174316,-15,9961.0
11290,0.36170387268066406,0.017851153388619423,33,6524.0,0.6912364959716797,102,9961.0
11300,0.36139997839927673,0.962924063205719,-52,6524.0,1.968458652496338,-110,9961.0
11310,0.3621366620063782,0.28415486216545105,29,6524.0,1.5966813564300537,245,9961.0
11320,0.3618290424346924,-0.6427465677261353,89,6524.0,2.0200462341308594,-139,9961.0
11330,0.36153364181518555,1.505692720413208,-154,6524.0,0.6789714097976685,-16,9961.0
11340,0.36120861768722534,-0.2552494704723358,33,6524.0,-0.8038831353187561,-11,9961.0
11350,0.36086565256118774,0.353130966424942,-75,6524.0,0.22214221954345703,49,9961.0
11360,0.3598896563053131,-0.6828728914260864,132,6524.0,-0.8849179744720459,108,9961.0
11370,0.35943132638931274,1.4303772449493408,-49,6524.0,-1.3330391645431519,-314,9961.0
11380,0.3590213656425476,-0.7504646182060242,-92,6524.0,5.071834564208984,-1,9961.0
11390,0.3586268126964569,-2.9829888343811035,22,6524.0,2.8407249450683594,-1,9961.0
11400,0.359236478805542,-3.7275965213775635,-112,6524.0,3.324195623397827,203,9961.0
11410,0.3588089048862457,-3.936882495880127,86,6524.0,2.9253435134887695,43,9961.0
11420,0.35833534598350525,-4.458536148071289,-220,6524.0,4.854349613189697,-29,9961.0
11430,0.35792142152786255,-3.290708541870117,20,6524.0,1.8255926370620728,197,9961.0
11440,0.3576820492744446,-0.13792407512664795,-13,6524.0,2.165741443634033,-24,9961.0
11450,0.35725417733192444,0.15881399810314178,3,6524.0,1.1523200273513794,128,9961.0
11460,0.3568795919418335,0.2079249918460846,115,6524.0,0.13359931111335754,-100,9961.0
11470,0.35653969645500183,1.970839023590088,-162,6524.0,-3.017230749130249,-148,9961.0
11480,0.3562176823616028,-2.0822784900665283,22,6524.0,-3.3441693782806396,160,9961.0
11490,0.35716503858566284,-3.6861488819122314,-99,6524.0,-3.5036628246307373,-145,9961.0
11500,0.3569181263446808,-6.1172919273376465,-138,6524.0,-3.294267177581787,27,9961.0
11510,0.35670363903045654,-7.05354118347168,-60,6524.0,-1.4760431051254272,-139,9961.0
11520,0.35657477378845215,-7.2690749168396,-295,6524.0,-1.4080207347869873,-31,9961.0
11530,0.3570491075515747,-8.847414016723633,-6,6524.0,3.8360352516174316,185,9961.0
11540,0.3569778501987457,-4.731982231140137,-113,6524.0,1.9254326820373535,-60,9961.0
11550,0.35690179467201233,-7.3231658935546875,-97,6524.0,1.1870778799057007,98,9961.0
11560,0.35683882236480713,-5.238532066345215,-72,6524.0,0.1256812959909439,-99,9961.0
11570,0.35685238242149353,-4.48309850692749,-126,6524.0,-1.867332935333252,-228,9961.0
11580,0.35891419649124146,-1.8955074548721313,145,6524.0,-4.342538356781006,181,9961.0
11590,0.35904479026794434,-3.359969139099121,-126,6524.0,0.5184599757194519,-183,9961.0
11600,0.35921868681907654,-1.215407133102417,-33,6524.0,2.2982611656188965,62,9961.0
11610,0.35939326882362366,-0.7077497839927673,-13,6524.0,2.624767541885376,-30,9961.0
11620,0.36087891459465027,1.4678372144699097,-6,6524.0,1.0226292610168457,245,9961.0
11630,0.3610835671424866,0.4301164746284485,141,6524.0,3.6588518619537354,-21,9961.0
11640,0.36124536395072937,0.021166257560253143,-199,6524.0,1.004876732826233,-73,9961.0
11650,0.36138996481895447,0.6715720295906067,137,6524.0,2.7447750568389893,138,9961.0
11660,0.36151134967803955,2.5522186756134033,56,6524.0,1.023681879043579,-95,9961.0
11670,0.3613729178905487,0.6479710340499878,84,6524.0,1.1392056941986084,26,9961.0
11680,0.3613536059856415,7.135353088378906,60,6524.0,-3.336357593536377,-265,9961.0
11690,0.3612741231918335,4.9411492347717285,-1,6524.0,-1.5816304683685303,157,9961.0
11700,0.36118316650390625,4.290826320648193,167,6524.0,-7.670043468475342,-75,9961.0
11710,0.36186450719833374,2.5073931217193604,-55,6524.0,-1.5585027933120728,53,9961.0
11720,0.36182713508605957,0.719883918762207,71,6524.0,3.669386863708496,50,9961.0
11730,0.3617551326751709,0.8403693437576294,-110,6524.0,5.607295989990234,58,9961.0
11740,0.3616223931312561,0.23570670187473297,175,6524.0,5.21063756942749,148,9961.0
11750,0.3616766035556793,2.5291507244110107,-40,6524.0,5.894790172576904,-78,9961.0
11760,0.36158865690231323,0.2257365882396698,32,6524.0,5.3001275062561035,124,9961.0
11770,0.36151888966560364,1.4351756572723389,-4,6524.0,3.4505674839019775,-48,9961.0
11780,0.3614261746406555,1.2376902103424072,138,6524.0,1.8321998119354248,105,9961.0
11790,0.36125263571739197,0.20144449174404144,-78,6524.0,-0.636126697063446,162,9961.0
11800,0.3602070212364197,-0.6491541266441345,-7,6524.0,-5.127844333648682,-78,9961.0
11810,0.35994818806648254,-2.4342470169067383,52,6524.0,-1.8543981313705444,14,9961.0
11820,0.3596877455711365,-3.317129135131836,-107,6524.0,-2.8491270542144775,-101,9961.0
11830,0.35939398407936096,-3.264573812484741,11,6524.0,0.6904371380805969,107,9961.0
11840,0.3590203523635864,-0.9884480834007263,-86,6524.0,-1.7163221836090088,-121,9961.0
11850,0.35865727066993713,0.2875431180000305,78,6524.0,-0.6871253848075867,-11,9961.0
11860,0.3582722246646881,2.6182401180267334,101,6524.0,-2.411304473876953,50,9961.0
11870,0.35784366726875305,5.553656101226807,-129,6524.0,-2.935379981994629,-265,9961.0
11880,0.3573547899723053,4.493435382843018,193,6524.0,-3.5113837718963623,16,9961.0
11890,0.3571002185344696,4.554053783416748,70,6524.0,-1.8766710758209229,-117,9961.0
11900,0.3566238284111023,4.1293416023254395,56,6524.0,0.053908515721559525,79,9961.0
11910,0.3561633229255676,2.918766736984253,98,6524.0,2.0903520584106445,-109,9961.0
11920,0.35573092103004456,0.24954792857170105,-173,6524.0,1.5281685590744019,33,9961.0
11930,0.35754215717315674,-2.7515289783477783,62,6524.0,6.702737808227539,246,9961.0
11940,0.35727864503860474,-4.024812698364258,-51,6524.0,2.047696352005005,-204,9961.0
11950,0.3570387363433838,-4.773726940155029,-73,6524.0,-1.3253672122955322,-41,9961.0
11960,0.3568040728569031,-3.493023157119751,-15,6524.0,0.020524296909570694,65,9961.0
11970,0.3567394018173218,-2.7191243171691895,-137,6524.0,-0.8721628189086914,-164,9961.0
11980,0.35655131936073303,-2.3703088760375977,55,6524.0,-3.600811004638672,132,9961.0
11990,0.35638660192489624,-2.2478561401367188,85,6524.0,-3.797306776046753,236,9961.0
12000,0.3562210202217102,-0.8687839508056641,-217,6524.0,-6.395505428314209,-36,9961.0
12010,0.35607412457466125,-2.6064014434814453,9,6524.0,-0.2177250236272812,-120,9961.0
12020,0.35638394951820374,0.2276380956172943,125,6524.0,0.46792489290237427,29,9961.0
12030,0.35629943013191223,3.269005537033081,-75,6524.0,-2.251183032989502,-68,9961.0
12040,0.35619843006134033,3.5247998237609863,107,6524.0,-0.8919036388397217,65,9961.0
12050,0.35608792304992676,5.735718727111816,62,6524.0,-1.7076146602630615,-37,9961.0
12060,0.35719597339630127,5.28391170501709,14,6524.0,1.4227492809295654,133,9961.0
12070,0.35721302032470703,3.020159959793091,217,6524.0,-1.6659116744995117,131,9961.0
12080,0.3572438061237335,3.7396633625030518,-70,6524.0,-5.8600754737854,-309,9961.0
12090,0.3573015332221985,-2.7152810096740723,-19,6524.0,2.2781710624694824,-73,9961.0
12100,0.35870611667633057,-0.3489759862422943,106,6524.0,-1.1867440938949585,-90,9961.0
12110,0.35878267884254456,-0.9662372469902039,-92,6524.0,-2.2926387786865234,-62,9961.0
12120,0.3588480055332184,-1.9133095741271973,35,6524.0,-1.8488150835037231,-22,9961.0
12130,0.35890814661979675,-1.4344937801361084,-136,6524.0,0.7908698916435242,-122,9961.0
12140,0.358972430229187,0.42243361473083496,-28,6524.0,-5.152957439422607,88,9961.0
12150,0.35859906673431396,0.10021641105413437,152,6524.0,-5.147536754608154,-123,9961.0
12160,0.35859256982803345,1.6230499744415283,-118,6524.0,-4.672667503356934,-226,9961.0
12170,0.3586091697216034,-1.6517198085784912,31,6524.0,-4.508480548858643,-3,9961.0
12180,0.3586105406284332,-0.6763922572135925,-1,6524.0,-5.400871753692627,-117,9961.0
12190,0.35797372460365295,0.241610586643219,14,6524.0,-5.509476661682129,-26,9961.0
12200,0.35786840319633484,1.7224972248077393,130,6524.0,-2.6649410724639893,-132,9961.0
12210,0.3577117621898651,4.428187847137451,-92,6524.0,-3.9857900142669678,-129,9961.0
12220,0.35754603147506714,3.638850212097168,131,6524.0,-2.1952126026153564,285,9961.0
12230,0.3573684096336365,3.9010164737701416,161,6524.0,-4.181462287902832,-44,9961.0
12240,0.3590969443321228,2.1610069274902344,-130,6524.0,-2.4081685543060303,-16,9961.0
12250,0.3589625954627991,-0.4082350432872772,66,6524.0,-2.9340567588806152,88,9961.0
12260,0.3589158058166504,1.6219862699508667,27,6524.0,-1.478745937347412,-107,9961.0
12270,0.3587891161441803,1.0113216638565063,102,6524.0,-1.0180021524429321,76,9961.0
12280,0.35835784673690796,2.459545135498047,169,6524.0,-3.7195661067962646,-144,9961.0
12290,0.35812318325042725,2.5113630294799805,-193,6524.0,1.0651323795318604,-136,9961.0
12300,0.35793086886405945,-0.9875219464302063,110,6524.0,-6.200203895568848,100,9961.0
12310,0.35771527886390686,2.2763960361480713,221,6524.0,-11.708617210388184,-231,9961.0
12320,0.3574064373970032,-0.8479047417640686,-137,6524.0,0.995867908000946,113,9961.0
12330,0.3564731180667877,-1.193432331085205,-2,6524.0,3.6634180545806885,82,9961.0
12340,0.35602542757987976,-3.0664899349212646,-113,6524.0,6.090870380401611,1,9961.0
12350,0.3555248975753784,-3.3258097171783447,8,6524.0,1.8060672283172607,215,9961.0
12360,0.3549658954143524,-1.0263941287994385,169,6524.0,1.2299681901931763,-74,9961.0
12370,0.3554540276527405,-0.4113701283931732,-187,6524.0,2.316470146179199,42,9961.0
12380,0.35497939586639404,0.394867867231369,9,6524.0,-2.389986276626587,97,9961.0
12390,0.3545086681842804,-2.146925449371338,129,6524.0,-0.3511259853839874,-46,9961.0
12400,0.3540329039096832,0.5766507983207703,-119,6524.0,-3.6359479427337646,-109,9961.0
12410,0.3533409535884857,1.9566599130630493,50,6524.0,-7.445547580718994,-26,9961.0
12420,0.35286539793014526,0.10118449479341507,-103,6524.0,-2.5540521144866943,-138,9961.0
12430,0.3524155020713806,3.2088966369628906,150,6524.0,-5.110690593719482,-46,9961.0
12440,0.3519536852836609,-2.155616283416748,80,6524.0,0.8251270055770874,108,9961.0
12450,0.35154494643211365,3.070063829421997,-187,6524.0,-1.56174898147583,-184,9961.0
12460,0.3527073562145233,3.125929832458496,-154,6524.0,-0.7046369314193726,62,9961.0
12470,0.3524453639984131,-0.31827375292778015,43,6524.0,9.147379875183105,205,9961.0
12480,0.35219651460647583,0.854288637638092,-15,6524.0,5.7568583488464355,80,9961.0
12490,0.3520325720310211,0.6687323451042175,165,6524.0,1.5691280364990234,229,9961.0
12500,0.3522815704345703,2.266099214553833,-14,6524.0,-1.4540983438491821,-186,9961.0
12510,0.35212063789367676,6.050308704376221,38,6524.0,-1.765892744064331,139,9961.0
12520,0.35205981135368347,3.100715398788452,230,6524.0,0.49921199679374695,108,9961.0
12530,0.35198208689689636,1.6128073930740356,-9,6524.0,-0.10596539080142975,-22,9961.0
12540,0.35194146633148193,2.4434330463409424,26,6524.0,2.992185354232788,117,9961.0
12550,0.3518757224082947,1.4911460876464844,65,6524.0,2.1204957962036133,-67,9961.0
12560,0.3518025279045105,2.7298879623413086,-110,6524.0,0.7623141407966614,56,9961.0
12570,0.3517442047595978,1.1341073513031006,198,6524.0,1.7283527851104736,192,9961.0
12580,0.35172101855278015,4.46095085144043,44,6524.0,4.110813617706299,-110,9961.0
12590,0.3537726402282715,1.5731940269470215,-14,6524.0,1.3880892992019653,49,9961.0
12600,0.35386431217193604,2.077037811279297,48,6524.0,-0.32914990186691284,-45,9961.0
12610,0.3539901375770569,1.8482354879379272,-72,6524.0,-3.1935081481933594,-29,9961.0
12620,0.35409003496170044,1.35886549949646,173,6524.0,-3.377474308013916,103,9961.0
12630,0.3541322350502014,0.1465042680501938,54,6524.0,-6.6802754402160645,-304,9961.0
12640,0.35426512360572815,6.355495929718018,-53,6524.0,-1.7469555139541626,68,9961.0
12650,0.35440200567245483,3.0228071212768555,114,6524.0,1.0634217262268066,4,9961.0
12660,0.3545766770839691,5.006776332855225,-15,6524.0,4.568876266479492,158,9961.0
12670,0.3547285497188568,5.905091285705566,246,6524.0,3.1923534870147705,91,9961.0
12680,0.35465919971466064,5.89177942276001,-19,6524.0,4.531341075897217,-126,9961.0
12690,0.3548690676689148,5.198675155639648,116,6524.0,3.8908419609069824,200,9961.0
12700,0.3550572693347931,4.272498607635498,39,6524.0,1.2396358251571655,-16,9961.0
12710,0.35522836446762085,6.116642475128174,83,6524.0,-1.0365835428237915,151,9961.0
12720,0.357165664434433,0.5329185724258423,46,6524.0,-0.4128919243812561,-198,9961.0
12730,0.35740020871162415,-0.4123944044113159,-192,6524.0,-0.9815106987953186,84,9961.0
12740,0.357597291469574,-1.9267419576644897,30,6524.0,-0.9723754525184631,-23,9961.0
12750,0.35779744386672974,-3.7332041263580322,-140,6524.0,2.721187114715576,158,9961.0
12760,0.35873323678970337,-4.337545871734619,91,6524.0,2.690030574798584,61,9961.0
12770,0.3588714301586151,-5.719967842102051,-263,6524.0,4.397110939025879,-10,9961.0
12780,0.35895130038261414,-5.042476177215576,-105,6524.0,5.482919216156006,137,9961.0
12790,0.3590078055858612,-7.003029823303223,-128,6524.0,7.166097640991211,38,9961.0
12800,0.35908129811286926,-7.212780475616455,-103,6524.0,4.7467217445373535,175,9961.0
12810,0.35788223147392273,-6.476785182952881,-16,6524.0,2.590297222137451,-113,9961.0
12820,0.3577830493450165,-2.889482021331787,-269,6524.0,-2.143289089202881,80,9961.0
12830,0.3576793670654297,1.0188705921173096,88,6524.0,-3.4677577018737793,22,9961.0
12840,0.35747241973876953,-0.6684858202934265,40,6524.0,-5.519520282745361,-140,9961.0
12850,0.3579227328300476,2.0293660163879395,48,6524.0,-4.486426830291748,28,9961.0
12860,0.357718825340271,0.44101575016975403,7,6524.0,0.179885596036911,-160,9961.0
12870,0.35746148228645325,2.535248279571533,-24,6524.0,1.9059631824493408,200,9961.0
12880,0.3571583032608032,2.8585548400878906,165,6524.0,2.0774593353271484,22,9961.0
12890,0.35684409737586975,-1.2489863634109497,-71,6524.0,3.1454546451568604,3,9961.0
12900,0.3569929599761963,-4.409785270690918,-10,6524.0,5.140964508056641,112,9961.0
12910,0.3566747307777405,-5.333209991455078,-165,6524.0,5.184375286102295,-165,9961.0
12920,0.35628849267959595,-7.681391716003418,-116,6524.0,2.80165696144104,134,9961.0
12930,0.355866014957428,-6.287296772003174,106,6524.0,-1.5266263484954834,210,9961.0
12940,0.35488361120224,-3.8084254264831543,-145,6524.0,0.4681752324104309,-115,9961.0
12950,0.3544609546661377,-3.603034257888794,-11,6524.0,1.9239662885665894,172,9961.0
12960,0.35404539108276367,0.7936843633651733,-63,6524.0,-1.0166159868240356,-138,9961.0
12970,0.35363760590553284,2.1093223094940186,-48,6524.0,1.0799143314361572,157,9961.0
12980,0.3533104360103607,1.8145806789398193,247,6524.0,3.33621883392334,73,9961.0
12990,0.35369813442230225,3.2082464694976807,-39,6524.0,1.9192016124725342,-209,9961.0
13000,0.3533945381641388,2.0334956645965576,-46,6524.0,1.3955665826797485,72,9961.0
13010,0.3530534505844116,1.9247322082519531,116,6524.0,1.6647775173187256,-58,9961.0
13020,0.3527095317840576,3.238508701324463,-38,6524.0,3.6243324279785156,48,9961.0
13030,0.35265472531318665,3.2754900455474854,179,6524.0,5.618007659912109,130,9961.0
13040,0.3523976504802704,0.6571332812309265,-13,6524.0,6.9943695068359375,-192,9961.0
13050,0.3522121012210846,-0.32331907749176025,56,6524.0,10.150862693786621,213,9961.0
13060,0.35203754901885986,-1.429090976715088,-46,6524.0,5.1016950607299805,144,9961.0
13070,0.35231009125709534,-2.317816972732544,-5,6524.0,6.183748245239258,50,9961.0
13080,0.352167010307312,-3.3019235134124756,89,6524.0,7.9003753662109375,250,9961.0
13090,0.3520001769065857,-0.2539891302585602,-164,6524.0,1.3341503143310547,-60,9961.0
13100,0.3518320620059967,-3.3540151119232178,-71,6524.0,1.8841369152069092,-73,9961.0
13110,0.35168904066085815,-2.992201566696167,124,6524.0,-5.607680320739746,17,9961.0
13120,0.3512582778930664,1.5630123615264893,-1,6524.0,-6.65422248840332,-117,9961.0
13130,0.35108160972595215,1.9539008140563965,86,6524.0,-5.060445785522461,-24,9961.0
13140,0.35092687606811523,4.763677597045898,-6,6524.0,-4.665073394775391,-187,9961.0
13150,0.35080698132514954,4.318414211273193,0,6524.0,-0.22210362553596497,-246,9961.0
13160,0.3511923849582672,5.803075790405273,266,6524.0,-4.960357666015625,-96,9961.0
13170,0.35109180212020874,3.0371859073638916,-56,6524.0,-1.93515145778656,-114,9961.0
13180,0.35101523995399475,-0.9187876582145691,4,6524.0,-2.9087905883789062,56,9961.0
13190,0.35096582770347595,-2.0274834632873535,-88,6524.0,2.28073787689209,-195,9961.0
13200,0.35132113099098206,-1.532330870628357,-105,6524.0,0.8792652487754822,41,9961.0
13210,0.35126811265945435,-3.5528619289398193,128,6524.0,4.579594135284424,148,9961.0
13220,0.351222962141037,-5.751643657684326,-134,6524.0,4.336751461029053,-4,9961.0
13230,0.35121405124664307,-1.0884745121002197,37,6524.0,6.001427173614502,174,9961.0
13240,0.35122281312942505,-0.23526541888713837,-74,6524.0,2.2974390983581543,-124,9961.0
13250,0.35191044211387634,0.6838290095329285,-40,6524.0,0.08679188787937164,145,9961.0
13260,0.3519318401813507,-2.1593611240386963,204,6524.0,-2.8404407501220703,-82,9961.0
13270,0.3519899547100067,2.7722275257110596,-82,6524.0,-8.065032958984375,-209,9961.0
13280,0.35207054018974304,-2.27775239944458,-9,6524.0,-3.994053363800049,-8,9961.0
13290,0.35321539640426636,2.2474751472473145,-4,6524.0,-7.648045063018799,-219,9961.0
13300,0.35325929522514343,2.696434736251831,14,6524.0,-4.957965850830078,70,9961.0
13310,0.3532832860946655,0.1842951774597168,119,6524.0,-1.0025858879089355,-122,9961.0
13320,0.3533211350440979,1.6021605730056763,-192,6524.0,-2.1619038581848145,-54,9961.0
13330,0.35339146852493286,0.28640085458755493,39,6524.0,-0.4909283518791199,38,9961.0
13340,0.35523465275764465,-1.4174078702926636,-123,6524.0,4.400213718414307,65,9961.0
13350,0.3553224205970764,-3.749173402786255,48,6524.0,4.416494369506836,176,9961.0
13360,0.35542476177215576,-3.098870038986206,-69,6524.0,2.8097498416900635,-208,9961.0
13370,0.3555401563644409,-5.393940448760986,-139,6524.0,2.643263339996338,130,9961.0
13380,0.35616156458854675,-4.742525100708008,14,6524.0,0.6226235628128052,20,9961.0
13390,0.3562304377555847,-2.114375114440918,-85,6524.0,-0.6794264912605286,67,9961.0
13400,0.3562992811203003,-2.461367607116699,92,6524.0,-0.30176693201065063,-72,9961.0
13410,0.35637223720550537,1.5201336145401,-113,6524.0,-3.1531035900115967,-146,9961.0
13420,0.3570842742919922,-0.05305422842502594,42,6524.0,0.02220965176820755,122,9961.0
13430,0.35722866654396057,2.503828525543213,122,6524.0,-8.413647651672363,-164,9961.0
13440,0.3573533892631531,2.319455862045288,-34,6524.0,-8.05018138885498,-11,9961.0
13450,0.35746094584465027,3.1935083866119385,80,6524.0,-6.527833938598633,-121,9961.0
13460,0.3575565218925476,4.464327812194824,-53,6524.0,-1.4833203554153442,33,9961.0
13470,0.3570019602775574,2.848802089691162,213,6524.0,-0.22449786961078644,-25,9961.0
13480,0.3570481836795807,2.7938826084136963,-73,6524.0,-3.1549997329711914,-56,9961.0
13490,0.3570561408996582,-0.6739226579666138,31,6524.0,0.45634084939956665,43,9961.0
13500,0.35697034001350403,-1.4665265083312988,-50,6524.0,3.2563374042510986,-30,9961.0
13510,0.35650119185447693,-1.4755282402038574,103,6524.0,-3.15962553024292,46,9961.0
13520,0.3563093841075897,1.3223825693130493,69,6524.0,1.8519397974014282,141,9961.0
13530,0.3561171293258667,-1.116039752960205,-122,6524.0,2.639838457107544,-108,9961.0
13540,0.35590770840644836,-1.6373556852340698,73,6524.0,-1.6660754680633545,-10,9961.0
13550,0.3556517958641052,0.5800361037254333,-129,6524.0,-2.977247476577759,-57,9961.0
13560,0.35672226548194885,0.10725881904363632,68,6524.0,-4.048252582550049,-21,9961.0
13570,0.3565446138381958,2.016860246658325,-110,6524.0,-2.4577383995056152,-180,9961.0
13580,0.35638949275016785,-1.9860832691192627,-35,6524.0,-4.465116024017334,-55,9961.0
13590,0.3562256395816803,-2.4003102779388428,123,6524.0,-3.439138889312744,172,9961.0
13600,0.3576376736164093,0.10109377652406693,-81,6524.0,0.12775279581546783,-88,9961.0
13610,0.3575378954410553,0.4280071258544922,90,6524.0,1.7317334413528442,95,9961.0
13620,0.35746121406555176,1.0759227275848389,-126,6524.0,7.5635552406311035,-1,9961.0
13630,0.3574043810367584,1.6119548082351685,76,6524.0,5.2919111251831055,287,9961.0
13640,0.3573169708251953,0.09631988406181335,105,6524.0,4.019625663757324,-16,9961.0
13650,0.3574870824813843,1.1545829772949219,-79,6524.0,2.1228699684143066,57,9961.0
13660,0.35740143060684204,0.3987821936607361,-6,6524.0,4.596903324127197,48,9961.0
13670,0.3573461174964905,-0.8133404850959778,4,6524.0,2.647029161453247,-23,9961.0
13680,0.3572956323623657,-0.8389304280281067,113,6524.0,-1.2313176393508911,220,9961.0
13690,0.3583655059337616,0.03498009592294693,-235,6524.0,-4.16045618057251,-233,9961.0
13700,0.3583984673023224,0.8191213011741638,10,6524.0,-6.649707317352295,-26,9961.0
13710,0.3584664463996887,-6.06913948059082,-2,6524.0,-4.014833450317383,101,9961.0
13720,0.3585340976715088,-0.3252795338630676,-58,6524.0,-2.1563377380371094,-80,9961.0
13730,0.3579380214214325,0.9744892716407776,122,6524.0,0.7454830408096313,214,9961.0
13740,0.3578612804412842,0.28514233231544495,-144,6524.0,7.329662799835205,4,9961.0
13750,0.3577612340450287,0.956097424030304,31,6524.0,8.277491569519043,431,9961.0
13760,0.35762012004852295,-4.590412139892578,28,6524.0,7.6378493309021,327,9961.0
13770,0.3574393391609192,-4.802548885345459,-193,6524.0,8.026468276977539,60,9961.0
13780,0.35586777329444885,-3.7429323196411133,7,6524.0,8.775107383728027,111,9961.0
13790,0.35556647181510925,-4.121098041534424,-52,6524.0,1.7420399188995361,-33,9961.0
13800,0.35531213879585266,-0.39495140314102173,27,6524.0,-2.583258628845215,11,9961.0
13810,0.3550536036491394,1.0170214176177979,158,6524.0,-2.2909939289093018,147,9961.0
13820,0.3540768623352051,2.9033939838409424,-98,6524.0,-4.447661876678467,-252,9961.0
13830,0.35373666882514954,-1.5566794872283936,-71,6524.0,-4.2124457359313965,62,9961.0
13840,0.3533659279346466,-2.4767541885375977,169,6524.0,-3.202711820602417,-70,9961.0
13850,0.35292282700538635,-0.12223135679960251,-92,6524.0,1.4825036525726318,30,9961.0
13860,0.35344117879867554,1.4871175289154053,0,6524.0,3.6211204528808594,130,9961.0
13870,0.3530561923980713,2.80539870262146,72,6524.0,6.964234828948975,25,9961.0
13880,0.3526920676231384,3.27911114692688,-70,6524.0,7.083104133605957,197,9961.0
13890,0.35232916474342346,2.5160207748413086,195,6524.0,4.12881326675415,221,9961.0
13900,0.35197117924690247,3.943099021911621,124,6524.0,2.629349946975708,-205,9961.0
13910,0.35245028138160706,1.0543227195739746,-212,6524.0,-1.2348666191101074,21,9961.0
13920,0.3521762490272522,0.26186221837997437,7,6524.0,-1.9012813568115234,74,9961.0
13930,0.35192397236824036,-0.46077588200569153,-19,6524.0,-0.6620683073997498,-136,9961.0
13940,0.3516865670681,1.1890496015548706,-15,6524.0,-4.058811187744141,7,9961.0
13950,0.3516579568386078,1.28718101978302,177,6524.0,-4.087810516357422,29,9961.0
13960,0.3513938784599304,1.7321269512176514,-73,6524.0,-1.299104928970337,-290,9961.0
13970,0.3511481285095215,0.18311341106891632,-76,6524.0,4.41705846786499,163,9961.0
13980,0.35093003511428833,1.4110418558120728,168,6524.0,1.97559654712677,143,9961.0
13990,0.3506956100463867,-2.9888596534729004,-75,6524.0,3.2429823875427246,-3,9961.0
14000,0.3477773070335388,-6.000912189483643,-73,6524.0,3.533377170562744,208,9961.0
14010,0.34738922119140625,-4.162886619567871,54,6524.0,1.3987210988998413,-86,9961.0
14020,0.34697258472442627,-2.7194457054138184,-240,6524.0,-0.5725728869438171,-170,9961.0
14030,0.346539705991745,-4.153803825378418,-24,6524.0,-3.5256435871124268,231,9961.0
14040,0.3452734351158142,-10.021358489990234,204,6524.0,-4.877027988433838,-153,9961.0
14050,0.34480226039886475,2.9947335720062256,-26,6524.0,-9.25075912475586,-249,9961.0
14060,0.3443133234977722,2.3059349060058594,46,6524.0,-1.941427230834961,40,9961.0
14070,0.3438694477081299,6.0403008460998535,134,6524.0,-3.8822824954986572,-128,9961.0
14080,0.3444049060344696,4.182138442993164,-26,6524.0,-0.36506521701812744,-146,9961.0
14090,0.3440510630607605,4.707420349121094,121,6524.0,-2.3770477771759033,216,9961.0
14100,0.3437241017818451,-0.4051934480667114,177,6524.0,3.5205726623535156,109,9961.0
14110,0.3434693515300751,0.5523842573165894,-91,6524.0,-5.053153038024902,-184,9961.0
14120,0.34324583411216736,-2.1382803916931152,37,6524.0,-3.3700568675994873,-9,9961.0
14130,0.3429052233695984,-3.2182321548461914,27,6524.0,-2.778230905532837,-76,9961.0
14140,0.3427063822746277,-2.786799192428589,-218,6524.0,-0.9668552279472351,-124,9961.0
14150,0.34250548481941223,-2.8797943592071533,-47,6524.0,-3.1320838928222656,261,9961.0
14160,0.3422849476337433,0.9036645293235779,185,6524.0,2.947237014770508,-97,9961.0
14170,0.34284526109695435,-1.4115326404571533,-2,6524.0,4.708830833435059,-75,9961.0
