timestamp,kalman.stateZ,gyro.x,gyro.xRaw,gyro.xVariance,gyro.y,gyro.yRaw,gyro.yVariance
0,0.32022690773010254,0.9766311049461365,14,7813.0,-20.597623825073242,-359,9943.0
10,0.3202727735042572,-0.00010209182073595002,-7,7813.0,-23.359413146972656,-386,9943.0
20,0.3202650845050812,-1.3384915590286255,-22,7813.0,-22.3310604095459,-332,9943.0
30,0.3201177716255188,-2.8122591972351074,-59,7813.0,-16.120193481445312,-220,9943.0
40,0.3201271891593933,-4.223198413848877,-66,7813.0,-7.90153169631958,-83,9943.0
50,0.3190763294696808,-3.3333733081817627,-44,7813.0,0.3075224459171295,57,9943.0
60,0.3190276622772217,-1.5374712944030762,-11,7813.0,7.900777816772461,173,9943.0
70,0.318818598985672,-0.32085850834846497,16,7813.0,14.329733848571777,265,9943.0
80,0.31861865520477295,1.6838330030441284,32,7813.0,17.229005813598633,285,9943.0
90,0.3185563087463379,1.4134935140609741,27,7813.0,16.686674118041992,266,9943.0
100,0.31845739483833313,1.7802602052688599,36,7813.0,14.142570495605469,223,9943.0
110,0.3183911144733429,0.9898622035980225,11,7813.0,11.143782615661621,168,9943.0
120,0.3184577524662018,0.9550539255142212,12,7813.0,8.577877044677734,131,9943.0
130,0.31984058022499084,-0.05077880993485451,-2,7813.0,5.008371829986572,63,9943.0
140,0.32005035877227783,-0.33780285716056824,0,7813.0,1.411091685295105,9,9943.0
150,0.32045242190361023,0.9382724761962891,22,7813.0,-1.735977053642273,-44,9943.0
160,0.3207181394100189,1.4422507286071777,26,7813.0,-4.933871746063232,-85,9943.0
170,0.32089537382125854,1.578057885169983,28,7813.0,-7.457154273986816,-133,9943.0
180,0.32049161195755005,1.445776343345642,17,7813.0,-11.533476829528809,-205,9943.0
190,0.3205544054508209,-0.1858544647693634,-3,7813.0,-15.222782135009766,-268,9943.0
200,0.320591539144516,-1.3122563362121582,-6,7813.0,-17.910911560058594,-280,9943.0
210,0.3206496238708496,0.2014528065919876,19,7813.0,-14.534294128417969,-201,9943.0
220,0.32101771235466003,1.8880149126052856,26,7813.0,-7.812270164489746,-107,9943.0
230,0.3209759593009949,3.86415433883667,68,7813.0,-6.967767715454102,-134,9943.0
240,0.32094430923461914,0.048615943640470505,35,7813.0,-8.757197380065918,-176,9943.0
250,0.32074183225631714,3.4696474075317383,71,7813.0,-18.29094123840332,-335,9943.0
260,0.32128486037254333,3.3757104873657227,88,7813.0,-28.2430362701416,-539,9943.0
270,0.32123154401779175,1.4505720138549805,56,7813.0,-44.3602409362793,-804,9943.0
280,0.321392297744751,0.3697190582752228,-21,7813.0,-62.96752166748047,-1107,9943.0
290,0.32152312994003296,-5.717850685119629,-131,7813.0,-87.03145599365234,-1550,9943.0
300,0.32172131538391113,-9.248777389526367,-113,7813.0,-107.94548797607422,-1851,9943.0
310,0.3209133446216583,-11.321614265441895,-171,7813.0,-118.27684783935547,-1969,9943.0
320,0.3207181394100189,-7.471035003662109,-93,7813.0,-115.9095230102539,-1775,9943.0
330,0.32273977994918823,3.541430711746216,157,7813.0,-101.61897277832031,-1706,9943.0
340,0.32171759009361267,13.946166038513184,260,7813.0,-87.9330825805664,-1397,9943.0
350,0.3236345052719116,18.781591415405273,270,7813.0,-67.98493957519531,-858,9943.0
360,0.3248578906059265,16.494686126708984,176,7813.0,-35.65273666381836,-241,9943.0
370,0.3264426589012146,6.0843505859375,11,7813.0,3.6154487133026123,391,9943.0
380,0.32733866572380066,-6.360009670257568,-166,7813.0,44.73225784301758,960,9943.0
390,0.3291734755039215,-8.369315147399902,-293,7813.0,83.6528549194336,1727,9943.0
400,0.3344897925853729,-10.69730281829834,-295,7813.0,119.39833068847656,2160,9943.0
410,0.3349247872829437,-11.503474235534668,-260,7813.0,135.13540649414062,2382,9943.0
420,0.3354007303714752,-6.740793228149414,-114,7813.0,138.5990753173828,2263,9943.0
430,0.3353078365325928,4.222325325012207,104,7813.0,130.5027618408203,2075,9943.0
440,0.33143100142478943,14.588744163513184,330,7813.0,110.20675659179688,1606,9943.0
450,0.33289289474487305,18.315677642822266,287,7813.0,76.92471313476562,960,9943.0
460,0.3318895399570465,11.735091209411621,130,7813.0,30.913726806640625,245,9943.0
470,0.33265218138694763,6.359970569610596,60,7813.0,-21.79290771484375,-545,9943.0
480,0.3283752202987671,1.9982260465621948,34,7813.0,-78.15001678466797,-1523,9943.0
490,0.32870981097221375,-1.744109034538269,21,7813.0,-127.31692504882812,-2332,9943.0
500,0.3291638493537903,-6.966747760772705,-73,7813.0,-154.96656799316406,-2687,9943.0
510,0.3293024003505707,-5.683871269226074,-69,7813.0,-167.31292724609375,-2717,9943.0
520,0.32933542132377625,-7.577630519866943,-106,7813.0,-169.6759033203125,-2699,9943.0
530,0.329484760761261,-4.592031955718994,-46,7813.0,-170.51986694335938,-2683,9943.0
540,0.32937881350517273,-7.323585033416748,-166,7813.0,-157.27403259277344,-2542,9943.0
550,0.3290254473686218,-2.9645297527313232,14,7813.0,-128.44775390625,-1896,9943.0
560,0.33134862780570984,5.728765964508057,88,7813.0,-76.12440490722656,-1000,9943.0
570,0.33793458342552185,7.992536544799805,136,7813.0,-24.826501846313477,55,9943.0
580,0.34169405698776245,5.9426774978637695,-6,7813.0,45.358367919921875,1121,9943.0
590,0.34463897347450256,-7.832016468048096,-176,7813.0,103.29204559326172,2046,9943.0
600,0.3477075695991516,-15.595175743103027,-218,7813.0,155.26380920410156,2895,9943.0
610,0.34863874316215515,-7.162518501281738,-46,7813.0,196.13633728027344,3232,9943.0
620,0.3522036373615265,5.908006191253662,223,7813.0,216.94297790527344,3483,9943.0
630,0.3533729314804077,10.882150650024414,155,7813.0,219.95338439941406,3507,9943.0
640,0.3534437119960785,7.356531620025635,0,7813.0,199.4207763671875,3032,9943.0
650,0.35180893540382385,-0.1318412721157074,-92,7813.0,156.4143829345703,2184,9943.0
660,0.3446539640426636,-9.048226356506348,-156,7813.0,99.47187805175781,1194,9943.0
670,0.34363114833831787,-12.33512020111084,-210,7813.0,35.83220291137695,164,9943.0
680,0.3433036208152771,-9.864882469177246,-176,7813.0,-32.91733169555664,-818,9943.0
690,0.344879150390625,-0.25425922870635986,-29,7813.0,-106.86280059814453,-2134,9943.0
700,0.3378634452819824,12.636467933654785,262,7813.0,-177.8471221923828,-3198,9943.0
710,0.33806294202804565,32.523521423339844,496,7813.0,-211.83457946777344,-3541,9943.0
720,0.3383776843547821,37.4674186706543,553,7813.0,-207.56417846679688,-3385,9943.0
730,0.33836111426353455,25.61869239807129,407,7813.0,-191.60723876953125,-2996,9943.0
740,0.3430069386959076,8.898884773254395,78,7813.0,-153.57286071777344,-2457,9943.0
750,0.339197039604187,-11.260311126708984,-288,7813.0,-104.44163513183594,-1460,9943.0
760,0.33907759189605713,-25.07552719116211,-466,7813.0,-54.64589309692383,-636,9943.0
770,0.3413997292518616,-33.297706604003906,-577,7813.0,0.5813474059104919,235,9943.0
780,0.3429918587207794,-29.87761116027832,-417,7813.0,55.666770935058594,1070,9943.0
790,0.3460777997970581,-20.130876541137695,-335,7813.0,103.27264404296875,2012,9943.0
800,0.34700191020965576,-7.10901403427124,-21,7813.0,138.48387145996094,2419,9943.0
810,0.3470573425292969,5.011960983276367,135,7813.0,155.4942626953125,2655,9943.0
820,0.3470727503299713,8.935460090637207,125,7813.0,153.42832946777344,2493,9943.0
830,0.3418460786342621,9.98599910736084,159,7813.0,131.08033752441406,1973,9943.0
840,0.3420785367488861,6.566127300262451,120,7813.0,93.39917755126953,1277,9943.0
850,0.3418427109718323,0.8128200769424438,-61,7813.0,40.72142791748047,507,9943.0
860,0.34261295199394226,-4.676452159881592,-151,7813.0,-16.35309410095215,-395,9943.0
870,0.34368565678596497,-5.1131672859191895,-75,7813.0,-70.88262939453125,-1225,9943.0
880,0.3372988700866699,-4.796479225158691,-202,7813.0,-112.40989685058594,-1682,9943.0
890,0.33813047409057617,-7.469974517822266,-247,7813.0,-119.7046127319336,-1768,9943.0
900,0.3387204110622406,2.8948957920074463,76,7813.0,-101.32655334472656,-1490,9943.0
910,0.3408021628856659,13.576492309570312,307,7813.0,-75.19756317138672,-1018,9943.0
920,0.3382624089717865,23.874065399169922,359,7813.0,-36.89854431152344,-484,9943.0
930,0.3388516902923584,24.2731990814209,432,7813.0,-3.341407299041748,-73,9943.0
940,0.3393326699733734,17.709558486938477,181,7813.0,29.753307342529297,715,9943.0
950,0.3396674692630768,5.3329949378967285,76,7813.0,63.369415283203125,1228,9943.0
960,0.3396880626678467,-7.6867804527282715,-192,7813.0,87.96671295166016,1569,9943.0
970,0.3400130867958069,-20.94162940979004,-389,7813.0,100.63695526123047,1595,9943.0
980,0.3392503559589386,-30.699478149414062,-415,7813.0,102.16901397705078,1442,9943.0
990,0.3403238356113434,-27.965499877929688,-327,7813.0,88.92538452148438,1211,9943.0
1000,0.3395601511001587,-10.132916450500488,-63,7813.0,58.75444793701172,785,9943.0
1010,0.33460646867752075,8.30805778503418,192,7813.0,17.737775802612305,284,9943.0
1020,0.33420124650001526,21.128896713256836,276,7813.0,-28.98530387878418,-505,9943.0
1030,0.3344716429710388,22.13668441772461,378,7813.0,-69.57096862792969,-1325,9943.0
1040,0.33454349637031555,12.892464637756348,183,7813.0,-106.95411682128906,-1975,9943.0
1050,0.33148494362831116,-1.6704187393188477,-153,7813.0,-119.92362213134766,-2047,9943.0
1060,0.3315286338329315,-15.821382522583008,-274,7813.0,-112.10844421386719,-1946,9943.0
1070,0.33264249563217163,-17.703882217407227,-219,7813.0,-87.42449188232422,-1308,9943.0
1080,0.33255884051322937,-10.61078929901123,-189,7813.0,-51.36829376220703,-630,9943.0
1090,0.3325521945953369,-1.3725508451461792,-74,7813.0,-15.028324127197266,28,9943.0
1100,0.3357223570346832,-3.8014941215515137,-65,7813.0,28.37093734741211,556,9943.0
1110,0.3359498679637909,1.5681489706039429,87,7813.0,64.52808380126953,1174,9943.0
1120,0.33562925457954407,2.335757255554199,-11,7813.0,99.21102142333984,1725,9943.0
1130,0.33514124155044556,1.8801023960113525,33,7813.0,114.49855041503906,1916,9943.0
1140,0.3339535593986511,3.063430070877075,8,7813.0,112.8844985961914,1953,9943.0
1150,0.3340112268924713,1.9769121408462524,-29,7813.0,95.2833251953125,1408,9943.0
1160,0.3331720530986786,-0.09902569651603699,40,7813.0,67.94517517089844,762,9943.0
1170,0.332488477230072,-0.5656135082244873,88,7813.0,30.100425720214844,321,9943.0
1180,0.3325452208518982,-2.089047908782959,-38,7813.0,-13.874236106872559,-273,9943.0
1190,0.3298521637916565,-2.0700581073760986,-107,7813.0,-54.74671173095703,-1068,9943.0
1200,0.3294791579246521,0.4104437232017517,38,7813.0,-92.54390716552734,-1696,9943.0
1210,0.3293305039405823,5.849912643432617,209,7813.0,-120.597412109375,-2169,9943.0
1220,0.32878056168556213,13.342918395996094,263,7813.0,-139.20785522460938,-2464,9943.0
1230,0.3282184302806854,19.537986755371094,412,7813.0,-135.35507202148438,-2256,9943.0
1240,0.32802894711494446,23.16608428955078,454,7813.0,-120.91625213623047,-1919,9943.0
1250,0.326943576335907,20.88502311706543,263,7813.0,-91.25530242919922,-1223,9943.0
1260,0.3292669355869293,9.102253913879395,-21,7813.0,-38.93654251098633,-119,9943.0
1270,0.33765995502471924,-3.612790584564209,-127,7813.0,29.404783248901367,1043,9943.0
1280,0.3391444981098175,-13.122937202453613,-259,7813.0,93.18780517578125,1951,9943.0
1290,0.34050777554512024,-22.14175033569336,-366,7813.0,141.39096069335938,2569,9943.0
1300,0.34167617559432983,-29.25674057006836,-500,7813.0,175.86021423339844,2891,9943.0
1310,0.34192800521850586,-26.41138458251953,-408,7813.0,185.4495086669922,3193,9943.0
1320,0.3420339822769165,-17.007568359375,-266,7813.0,169.897705078125,2476,9943.0
1330,0.3414325416088104,-6.794969081878662,-55,7813.0,124.362060546875,1716,9943.0
1340,0.34066522121429443,4.490820407867432,130,7813.0,60.074745178222656,632,9943.0
1350,0.3415507972240448,16.4821720123291,208,7813.0,-0.28843945264816284,-378,9943.0
1360,0.3371419906616211,21.34722137451172,459,7813.0,-48.5331916809082,-940,9943.0
1370,0.33790796995162964,22.967864990234375,317,7813.0,-92.3759765625,-1728,9943.0
1380,0.33858394622802734,23.484243392944336,387,7813.0,-139.69630432128906,-2408,9943.0
1390,0.33871549367904663,20.343568801879883,279,7813.0,-163.57301330566406,-2889,9943.0
1400,0.3395839035511017,10.612571716308594,151,7813.0,-166.2213897705078,-2683,9943.0
1410,0.3366214632987976,3.5910263061523438,122,7813.0,-139.0312042236328,-2224,9943.0
1420,0.33574891090393066,0.19471855461597443,59,7813.0,-100.66471099853516,-1534,9943.0
1430,0.3363317549228668,-5.615627765655518,-113,7813.0,-49.02632522583008,-595,9943.0
1440,0.3390362858772278,-15.337899208068848,-311,7813.0,12.109882354736328,380,9943.0
1450,0.3432345986366272,-20.80478858947754,-351,7813.0,67.5367660522461,1313,9943.0
1460,0.3444669842720032,-22.738311767578125,-305,7813.0,111.45079803466797,2016,9943.0
1470,0.34475573897361755,-17.34621238708496,-188,7813.0,144.90586853027344,2315,9943.0
1480,0.34485292434692383,-8.930282592773438,-95,7813.0,153.2503204345703,2510,9943.0
1490,0.34190863370895386,4.9182610511779785,209,7813.0,138.77064514160156,2255,9943.0
1500,0.3409394323825836,12.671520233154297,152,7813.0,108.74494171142578,1659,9943.0
1510,0.34090930223464966,17.62699317932129,379,7813.0,64.10662841796875,737,9943.0
1520,0.34214359521865845,19.413497924804688,289,7813.0,14.098897933959961,42,9943.0
1530,0.3424781858921051,7.414389133453369,39,7813.0,-39.8214225769043,-858,9943.0
1540,0.3382333517074585,-8.23336410522461,-200,7813.0,-89.13793182373047,-1740,9943.0
1550,0.3390008807182312,-20.768404006958008,-346,7813.0,-131.0758056640625,-2374,9943.0
1560,0.3392423093318939,-23.963695526123047,-347,7813.0,-158.35147094726562,-2628,9943.0
1570,0.3397167921066284,-28.50010108947754,-518,7813.0,-161.81446838378906,-2582,9943.0
1580,0.33519965410232544,-25.283977508544922,-457,7813.0,-148.4311065673828,-2109,9943.0
1590,0.33460333943367004,-14.78464412689209,-146,7813.0,-113.23456573486328,-1667,9943.0
1600,0.3373619019985199,8.751656532287598,183,7813.0,-61.58879089355469,-734,9943.0
1610,0.33940520882606506,24.726598739624023,475,7813.0,2.9489879608154297,348,9943.0
1620,0.34070706367492676,27.08848762512207,530,7813.0,65.9093017578125,1202,9943.0
1630,0.3460703194141388,21.969419479370117,361,7813.0,115.00792694091797,1838,9943.0
1640,0.34719493985176086,13.996785163879395,147,7813.0,144.27426147460938,2367,9943.0
1650,0.3481297492980957,5.256377220153809,199,7813.0,149.79302978515625,2451,9943.0
1660,0.3480125665664673,6.088305950164795,42,7813.0,138.6487274169922,2151,9943.0
1670,0.34516581892967224,8.487126350402832,189,7813.0,112.06404876708984,1762,9943.0
1680,0.3459063768386841,20.19630241394043,287,7813.0,71.41864013671875,1034,9943.0
1690,0.3474741578102112,23.363737106323242,386,7813.0,23.619441986083984,-15,9943.0
1700,0.34763795137405396,12.05002498626709,180,7813.0,-34.128623962402344,-856,9943.0
1710,0.34015753865242004,-12.97385025024414,-414,7813.0,-91.25581359863281,-1658,9943.0
1720,0.34090349078178406,-45.11283493041992,-821,7813.0,-139.0579376220703,-2403,9943.0
1730,0.34117767214775085,-70.23959350585938,-1318,7813.0,-162.0700225830078,-2515,9943.0
1740,0.34104645252227783,-76.8780746459961,-1220,7813.0,-156.25827026367188,-2461,9943.0
1750,0.34107619524002075,-45.12095260620117,-586,7813.0,-137.64947509765625,-1987,9943.0
1760,0.33874961733818054,2.208408832550049,149,7813.0,-111.86133575439453,-1608,9943.0
1770,0.3427658975124359,36.24374008178711,685,7813.0,-62.40484619140625,-666,9943.0
1780,0.34478190541267395,49.87494659423828,816,7813.0,-5.775472640991211,235,9943.0
1790,0.34652402997016907,44.15054702758789,656,7813.0,53.05195999145508,930,9943.0
1800,0.35061413049697876,26.690067291259766,316,7813.0,97.5727767944336,1636,9943.0
1810,0.35206174850463867,5.9872589111328125,58,7813.0,129.98536682128906,2171,9943.0
1820,0.3538111746311188,-14.308048248291016,-331,7813.0,145.20504760742188,2384,9943.0
1830,0.35500261187553406,-23.950037002563477,-338,7813.0,146.73757934570312,2457,9943.0
1840,0.3557230532169342,-18.231002807617188,-291,7813.0,134.97068786621094,2028,9943.0
1850,0.3509950339794159,2.2970731258392334,171,7813.0,111.53895568847656,1524,9943.0
1860,0.3511406183242798,24.964603424072266,660,7813.0,79.44671630859375,1016,9943.0
1870,0.3515931963920593,41.468475341796875,704,7813.0,41.35164260864258,419,9943.0
1880,0.3520458936691284,38.29010009765625,480,7813.0,-1.619773268699646,-249,9943.0
1890,0.3443354070186615,16.953493118286133,109,7813.0,-44.36396789550781,-930,9943.0
1900,0.3451777398586273,-14.145639419555664,-472,7813.0,-85.84419250488281,-1527,9943.0
1910,0.3460996150970459,-43.787139892578125,-949,7813.0,-118.06108093261719,-1870,9943.0
1920,0.34665605425834656,-57.98714828491211,-853,7813.0,-123.35530090332031,-1944,9943.0
1930,0.3416702449321747,-42.02516174316406,-522,7813.0,-117.15460205078125,-1822,9943.0
1940,0.3418729603290558,-15.225582122802734,-94,7813.0,-100.42691802978516,-1584,9943.0
1950,0.34182897210121155,9.580536842346191,283,7813.0,-64.99208068847656,-820,9943.0
1960,0.3434174656867981,26.106040954589844,398,7813.0,-19.46752166748047,-113,9943.0
1970,0.34516727924346924,22.93191146850586,304,7813.0,25.776752471923828,866,9943.0
1980,0.3446715474128723,22.65629005432129,361,7813.0,70.43242645263672,1297,9943.0
1990,0.3454630970954895,15.743910789489746,156,7813.0,105.94126892089844,1830,9943.0
2000,0.3456096351146698,-0.12060560286045074,11,7813.0,126.17210388183594,1906,9943.0
2010,0.3458997309207916,-6.29014253616333,-98,7813.0,122.49368286132812,1864,9943.0
2020,0.34087610244750977,-11.678028106689453,-180,7813.0,101.9403076171875,1367,9943.0
2030,0.3400663435459137,-14.140918731689453,-164,7813.0,71.90240478515625,1103,9943.0
2040,0.33913689851760864,-16.564313888549805,-298,7813.0,47.32837677001953,763,9943.0
2050,0.33923646807670593,-12.336892127990723,-262,7813.0,12.0320405960083,93,9943.0
2060,0.3399565815925598,-5.2484564781188965,-34,7813.0,-31.44881248474121,-775,9943.0
2070,0.33502817153930664,11.197525024414062,318,7813.0,-75.83251190185547,-1567,9943.0
2080,0.33557745814323425,18.614322662353516,309,7813.0,-107.03013610839844,-1823,9943.0
2090,0.33599239587783813,27.628633499145508,504,7813.0,-114.69874572753906,-1883,9943.0
2100,0.3372098207473755,37.57400131225586,594,7813.0,-103.51007843017578,-1511,9943.0
2110,0.3356514275074005,35.126895904541016,577,7813.0,-73.27725982666016,-1134,9943.0
2120,0.33582642674446106,22.341821670532227,248,7813.0,-36.27395248413086,-503,9943.0
2130,0.3362576961517334,2.0950119495391846,-77,7813.0,8.662524223327637,264,9943.0
2140,0.3371451497077942,-17.75050163269043,-325,7813.0,36.91838455200195,725,9943.0
2150,0.3384230434894562,-30.583541870117188,-588,7813.0,68.81971740722656,1294,9943.0
2160,0.3386041224002838,-35.52040481567383,-561,7813.0,93.30178833007812,1697,9943.0
2170,0.3383096754550934,-31.312837600708008,-494,7813.0,97.97102355957031,1483,9943.0
2180,0.3386923372745514,-17.145313262939453,-109,7813.0,84.06490325927734,1184,9943.0
2190,0.33841994404792786,-0.8657835125923157,33,7813.0,54.928619384765625,707,9943.0
2200,0.33479514718055725,10.429394721984863,338,7813.0,24.35867691040039,362,9943.0
2210,0.33423832058906555,20.670726776123047,254,7813.0,-3.548903703689575,-66,9943.0
2220,0.3339036703109741,17.472614288330078,210,7813.0,-33.11440658569336,-866,9943.0
2230,0.33422479033470154,14.262405395507812,275,7813.0,-67.33329772949219,-1343,9943.0
2240,0.33197924494743347,6.5421013832092285,78,7813.0,-92.39433288574219,-1580,9943.0
2250,0.33197644352912903,-3.7102210521698,-15,7813.0,-98.74436950683594,-1704,9943.0
2260,0.33250415325164795,-15.066699981689453,-298,7813.0,-87.92123413085938,-1385,9943.0
2270,0.3325653374195099,-22.01299285888672,-242,7813.0,-64.26300811767578,-1082,9943.0
2280,0.33292144536972046,-11.113031387329102,-108,7813.0,-37.93413162231445,-625,9943.0
2290,0.3358994424343109,-1.776077389717102,-12,7813.0,-6.083016395568848,111,9943.0
2300,0.33668386936187744,1.114708423614502,102,7813.0,35.40964889526367,771,9943.0
2310,0.3372037410736084,6.825439453125,54,7813.0,69.09951782226562,1396,9943.0
2320,0.3374934792518616,8.096386909484863,123,7813.0,99.38040161132812,1877,9943.0
2330,0.336754709482193,8.114246368408203,78,7813.0,122.08673095703125,2096,9943.0
2340,0.3370351195335388,5.704031944274902,68,7813.0,124.41675567626953,1957,9943.0
2350,0.3363948464393616,7.8864264488220215,124,7813.0,99.51348876953125,1407,9943.0
2360,0.3358748257160187,8.372111320495605,261,7813.0,58.60322952270508,642,9943.0
2370,0.33338457345962524,2.4798834323883057,55,7813.0,16.151994705200195,140,9943.0
2380,0.3335550129413605,-1.185057520866394,-89,7813.0,-20.0277099609375,-323,9943.0
2390,0.33384808897972107,-4.889647006988525,-106,7813.0,-46.16533660888672,-922,9943.0
2400,0.33429476618766785,-6.622281074523926,-87,7813.0,-74.0372543334961,-1387,9943.0
2410,0.334875226020813,-3.107205629348755,1,7813.0,-104.29212188720703,-2003,9943.0
2420,0.33021748065948486,8.351189613342285,282,7813.0,-124.94730377197266,-2104,9943.0
2430,0.3307134211063385,16.770828247070312,303,7813.0,-113.05370330810547,-1903,9943.0
2440,0.3315669000148773,16.350826263427734,274,7813.0,-81.95156860351562,-1204,9943.0
2450,0.3324166536331177,7.72711706161499,70,7813.0,-43.33418273925781,-638,9943.0
2460,0.3343666195869446,-2.3631672859191895,-115,7813.0,-3.3078665733337402,259,9943.0
2470,0.3362158536911011,-11.13796615600586,-281,7813.0,46.74527359008789,1147,9943.0
2480,0.3370256721973419,-25.163639068603516,-396,7813.0,88.54280853271484,1527,9943.0
2490,0.33756980299949646,-23.77781867980957,-406,7813.0,112.58621978759766,1938,9943.0
2500,0.3376154899597168,-16.919694900512695,-189,7813.0,126.66280364990234,2052,9943.0
2510,0.3376661539077759,-4.881755352020264,-123,7813.0,121.15992736816406,2091,9943.0
2520,0.33707138895988464,5.077642917633057,72,7813.0,100.65576934814453,1486,9943.0
2530,0.33630552887916565,9.982288360595703,210,7813.0,60.879051208496094,539,9943.0
2540,0.3362531065940857,10.143964767456055,214,7813.0,9.812803268432617,-102,9943.0
2550,0.33392783999443054,9.320662498474121,84,7813.0,-40.15923309326172,-749,9943.0
2560,0.33430370688438416,5.979084014892578,53,7813.0,-79.0271987915039,-1600,9943.0
2570,0.3343653976917267,1.5548338890075684,26,7813.0,-108.10379028320312,-1982,9943.0
2580,0.33433645963668823,-6.60717248916626,-132,7813.0,-132.16062927246094,-2348,9943.0
2590,0.33201321959495544,-9.60678768157959,-87,7813.0,-152.49435424804688,-2555,9943.0
2600,0.33182957768440247,-9.00057315826416,-119,7813.0,-149.92999267578125,-2431,9943.0
2610,0.33177927136421204,-3.369985580444336,-30,7813.0,-130.0735321044922,-1975,9943.0
2620,0.33240219950675964,0.7027531862258911,90,7813.0,-95.4758529663086,-1502,9943.0
2630,0.3365447521209717,5.557686805725098,12,7813.0,-52.88460159301758,-502,9943.0
2640,0.34143051505088806,-1.4463130235671997,-76,7813.0,10.121317863464355,730,9943.0
2650,0.34344473481178284,-7.097283840179443,-153,7813.0,71.91590881347656,1351,9943.0
2660,0.34557440876960754,-8.890841484069824,-180,7813.0,124.0491714477539,2224,9943.0
2670,0.34669989347457886,-6.213016033172607,10,7813.0,161.5380401611328,2682,9943.0
2680,0.3473361134529114,0.3185866177082062,37,7813.0,178.7428436279297,2791,9943.0
2690,0.347927063703537,3.156749725341797,153,7813.0,168.28298950195312,2626,9943.0
2700,0.34716564416885376,3.0131924152374268,58,7813.0,144.488525390625,2261,9943.0
2710,0.35265329480171204,5.528339862823486,36,7813.0,106.10459899902344,1584,9943.0
2720,0.3525407612323761,10.157144546508789,205,7813.0,51.05060577392578,555,9943.0
2730,0.3437831401824951,8.975841522216797,210,7813.0,-8.543246269226074,-584,9943.0
2740,0.34440475702285767,7.0574541091918945,131,7813.0,-70.99195098876953,-1423,9943.0
2750,0.3451305329799652,7.563777446746826,67,7813.0,-134.60183715820312,-2258,9943.0
2760,0.3460063636302948,4.770483493804932,24,7813.0,-177.8453826904297,-3017,9943.0
2770,0.3386753499507904,3.8566277027130127,57,7813.0,-194.79281616210938,-3025,9943.0
2780,0.33818209171295166,5.886697292327881,95,7813.0,-185.96749877929688,-2902,9943.0
2790,0.3405582010746002,6.224289417266846,105,7813.0,-151.34310913085938,-2276,9943.0
2800,0.33997854590415955,-0.9675999879837036,18,7813.0,-95.98306274414062,-1472,9943.0
2810,0.3419717252254486,-7.21811056137085,-231,7813.0,-35.40460205078125,-419,9943.0
2820,0.34289082884788513,-16.685192108154297,-314,7813.0,26.17031478881836,793,9943.0
2830,0.344942569732666,-23.526552200317383,-372,7813.0,86.86024475097656,1711,9943.0
2840,0.34545058012008667,-20.8193359375,-346,7813.0,133.38270568847656,2375,9943.0
2850,0.34646889567375183,-13.016365051269531,-63,7813.0,160.58468627929688,2611,9943.0
2860,0.34626054763793945,-1.7756770849227905,-22,7813.0,167.9040985107422,2714,9943.0
2870,0.34587612748146057,5.957711219787598,142,7813.0,157.11293029785156,2434,9943.0
2880,0.3476319909095764,13.543654441833496,268,7813.0,131.50181579589844,2065,9943.0
2890,0.3480137884616852,20.48770523071289,216,7813.0,94.78034210205078,1500,9943.0
2900,0.34050366282463074,21.915260314941406,329,7813.0,45.12152862548828,419,9943.0
2910,0.3419058620929718,13.128623008728027,188,7813.0,-10.948981285095215,-507,9943.0
2920,0.3434165120124817,-1.5016287565231323,-86,7813.0,-70.26824951171875,-1404,9943.0
2930,0.34552904963493347,-14.852560997009277,-324,7813.0,-122.77237701416016,-2007,9943.0
2940,0.34686681628227234,-15.177351951599121,-335,7813.0,-155.2628631591797,-2358,9943.0
2950,0.33930397033691406,0.7875930666923523,52,7813.0,-150.13877868652344,-2380,9943.0
2960,0.34083256125450134,16.31778907775879,308,7813.0,-133.18421936035156,-1848,9943.0
2970,0.34087347984313965,20.560029983520508,317,7813.0,-103.8184814453125,-1489,9943.0
2980,0.3413470685482025,19.04135513305664,352,7813.0,-65.79463958740234,-815,9943.0
2990,0.34098583459854126,13.057456016540527,205,7813.0,-19.911426544189453,-265,9943.0
3000,0.34241369366645813,-4.79343318939209,-235,7813.0,30.13602066040039,718,9943.0
3010,0.34300902485847473,-26.34617042541504,-531,7813.0,78.78852081298828,1639,9943.0
3020,0.34311923384666443,-38.45021057128906,-654,7813.0,107.70128631591797,1911,9943.0
3030,0.3419502079486847,-41.18971633911133,-676,7813.0,114.50729370117188,1958,9943.0
3040,0.341829389333725,-27.848918914794922,-341,7813.0,103.80252838134766,1722,9943.0
3050,0.34160715341567993,-4.610966205596924,41,7813.0,81.28707885742188,1401,9943.0
3060,0.3409918546676636,15.789237976074219,195,7813.0,51.47536849975586,743,9943.0
3070,0.3407741189002991,19.866079330444336,303,7813.0,15.661933898925781,-54,9943.0
3080,0.3351600766181946,17.915754318237305,371,7813.0,-26.723922729492188,-807,9943.0
3090,0.33555278182029724,14.544637680053711,222,7813.0,-66.31583404541016,-1235,9943.0
3100,0.3360733389854431,-1.9259463548660278,-85,7813.0,-79.53597259521484,-1370,9943.0
3110,0.33641883730888367,-17.756200790405273,-255,7813.0,-77.90730285644531,-1351,9943.0
3120,0.33437544107437134,-19.738330841064453,-260,7813.0,-65.44134521484375,-1016,9943.0
3130,0.33466821908950806,-4.734317302703857,49,7813.0,-38.26580047607422,-647,9943.0
3140,0.33499109745025635,11.334735870361328,231,7813.0,-14.207734107971191,8,9943.0
3150,0.33586999773979187,21.500783920288086,411,7813.0,15.784552574157715,439,9943.0
3160,0.3363516926765442,25.48979377746582,363,7813.0,44.644649505615234,1073,9943.0
3170,0.3363325893878937,26.227842330932617,387,7813.0,67.27984619140625,1221,9943.0
3180,0.33628836274147034,15.731698036193848,113,7813.0,78.44051361083984,1546,9943.0
3190,0.3356775641441345,0.4816833436489105,-149,7813.0,83.3386001586914,1382,9943.0
3200,0.33441364765167236,-13.755045890808105,-288,7813.0,75.26100158691406,1216,9943.0
3210,0.3342028856277466,-14.248544692993164,-323,7813.0,57.7921142578125,937,9943.0
3220,0.3331630229949951,-14.701675415039062,-303,7813.0,33.512638092041016,275,9943.0
3230,0.3320290744304657,-11.506451606750488,-74,7813.0,0.913637638092041,-347,9943.0
3240,0.3314944803714752,-2.7978618144989014,94,7813.0,-34.36272430419922,-692,9943.0
3250,0.3299620449542999,2.672548294067383,19,7813.0,-62.94195556640625,-1168,9943.0
3260,0.32914459705352783,6.485501289367676,73,7813.0,-87.25762939453125,-1434,9943.0
3270,0.32871416211128235,9.7417631149292,162,7813.0,-102.07102966308594,-1560,9943.0
3280,0.32813966274261475,8.98285961151123,63,7813.0,-99.66604614257812,-1547,9943.0
3290,0.32903245091438293,-2.283968925476074,-112,7813.0,-77.7207260131836,-975,9943.0
3300,0.3304045498371124,-14.062318801879883,-246,7813.0,-45.70646286010742,-847,9943.0
3310,0.3310408890247345,-19.192306518554688,-363,7813.0,-10.730794906616211,-149,9943.0
3320,0.33132076263427734,-10.478121757507324,-95,7813.0,36.17521667480469,721,9943.0
3330,0.33228784799575806,0.4881393611431122,61,7813.0,80.84333038330078,1389,9943.0
3340,0.3347474932670593,12.832956314086914,245,7813.0,114.71269989013672,1997,9943.0
3350,0.3348643481731415,15.257065773010254,209,7813.0,131.63681030273438,1975,9943.0
3360,0.33470529317855835,4.776559352874756,95,7813.0,118.7759780883789,1811,9943.0
3370,0.33593231439590454,-8.030633926391602,-127,7813.0,90.04527282714844,1397,9943.0
3380,0.3350704312324524,-15.685707092285156,-244,7813.0,54.4160041809082,716,9943.0
3390,0.33228540420532227,-15.870383262634277,-293,7813.0,14.889826774597168,-12,9943.0
3400,0.331631600856781,-14.524057388305664,-166,7813.0,-21.57139778137207,-585,9943.0
3410,0.33147603273391724,-0.32666733860969543,45,7813.0,-66.25254821777344,-1144,9943.0
3420,0.3315691649913788,9.349099159240723,151,7813.0,-99.43294525146484,-1806,9943.0
3430,0.3296959102153778,19.391237258911133,402,7813.0,-124.07958221435547,-2115,9943.0
3440,0.3293056786060333,29.6348819732666,463,7813.0,-139.74940490722656,-2480,9943.0
3450,0.3302730321884155,31.87211036682129,532,7813.0,-145.03968811035156,-2369,9943.0
3460,0.33040881156921387,22.252771377563477,299,7813.0,-135.86485290527344,-2178,9943.0
3470,0.3315171003341675,-4.940784931182861,-232,7813.0,-105.0383071899414,-1618,9943.0
3480,0.33244773745536804,-24.68282127380371,-476,7813.0,-62.118736267089844,-712,9943.0
3490,0.3347225487232208,-23.8719482421875,-380,7813.0,-16.30091094970703,138,9943.0
3500,0.3356269598007202,-8.891972541809082,-26,7813.0,39.875186920166016,824,9943.0
3510,0.3375231623649597,10.802433013916016,207,7813.0,96.94429779052734,1685,9943.0
3520,0.3439328670501709,17.29150390625,267,7813.0,150.09744262695312,2632,9943.0
3530,0.34498167037963867,12.660033226013184,237,7813.0,178.26467895507812,2899,9943.0
3540,0.3456696569919586,7.771546363830566,92,7813.0,181.14413452148438,2876,9943.0
3550,0.3457218408584595,7.9837470054626465,187,7813.0,162.6292266845703,2361,9943.0
3560,0.3400023877620697,3.000887393951416,52,7813.0,130.9576873779297,2013,9943.0
3570,0.3389933705329895,-4.435408115386963,-133,7813.0,82.98680877685547,1122,9943.0
3580,0.3406003415584564,-19.42075538635254,-406,7813.0,25.459922790527344,167,9943.0
3590,0.3409801721572876,-23.238943099975586,-375,7813.0,-30.97971534729004,-817,9943.0
3600,0.3369484543800354,-21.158281326293945,-296,7813.0,-79.40974426269531,-1527,9943.0
3610,0.33827564120292664,-10.910945892333984,-139,7813.0,-119.71688079833984,-2103,9943.0
3620,0.3378269076347351,-5.332715034484863,-59,7813.0,-141.04037475585938,-2387,9943.0
3630,0.3385961353778839,-3.8103926181793213,-43,7813.0,-148.27696228027344,-2363,9943.0
3640,0.33897238969802856,-1.9506336450576782,-11,7813.0,-138.5953369140625,-2242,9943.0
3650,0.3354417383670807,-2.8610520362854004,-7,7813.0,-108.50074768066406,-1625,9943.0
3660,0.3377822935581207,2.561128616333008,143,7813.0,-70.93071746826172,-1048,9943.0
3670,0.33874133229255676,15.453253746032715,250,7813.0,-31.407377243041992,-421,9943.0
3680,0.33979493379592896,22.20833969116211,345,7813.0,17.97844886779785,640,9943.0
3690,0.3425232470035553,20.011287689208984,318,7813.0,68.52108764648438,1324,9943.0
3700,0.3430494964122772,14.037333488464355,160,7813.0,103.73857116699219,1838,9943.0
3710,0.3435375690460205,-1.649204969406128,-95,7813.0,119.26862335205078,1858,9943.0
3720,0.34351736307144165,-22.163118362426758,-417,7813.0,126.44282531738281,2024,9943.0
3730,0.34280478954315186,-30.71225929260254,-476,7813.0,120.793701171875,1803,9943.0
3740,0.34040069580078125,-23.524263381958008,-244,7813.0,102.42486572265625,1603,9943.0
3750,0.33917036652565,1.7941296100616455,122,7813.0,69.4306640625,1174,9943.0
3760,0.3384898602962494,22.070484161376953,368,7813.0,25.900136947631836,113,9943.0
3770,0.3387654721736908,27.024690628051758,497,7813.0,-24.922473907470703,-790,9943.0
3780,0.3340528607368469,19.09898567199707,274,7813.0,-74.1520004272461,-1352,9943.0
3790,0.3340235650539398,8.21902847290039,-17,7813.0,-110.1839828491211,-1866,9943.0
3800,0.3343490958213806,-9.011033058166504,-232,7813.0,-140.89955139160156,-2446,9943.0
3810,0.3342292904853821,-20.7935848236084,-478,7813.0,-161.04510498046875,-2569,9943.0
3820,0.3327142000198364,-30.329208374023438,-595,7813.0,-165.65866088867188,-2584,9943.0
3830,0.3328259289264679,-40.65406036376953,-660,7813.0,-142.03225708007812,-2021,9943.0
3840,0.3332425057888031,-24.546451568603516,-241,7813.0,-108.72042846679688,-1626,9943.0
3850,0.3329511880874634,-2.5037076473236084,-43,7813.0,-75.65264129638672,-1101,9943.0
3860,0.3380919098854065,12.298282623291016,231,7813.0,-29.935855865478516,-158,9943.0
3870,0.34223926067352295,20.481952667236328,371,7813.0,24.01333236694336,657,9943.0
3880,0.34353694319725037,20.530406951904297,196,7813.0,70.58879852294922,1563,9943.0
3890,0.34495171904563904,6.17387056350708,36,7813.0,119.20793151855469,2391,9943.0
3900,0.34597596526145935,1.2065531015396118,24,7813.0,151.78623962402344,2553,9943.0
3910,0.34651848673820496,0.4383884072303772,-9,7813.0,160.36485290527344,2655,9943.0
3920,0.34703329205513,-4.332171440124512,-55,7813.0,154.76136779785156,2301,9943.0
3930,0.34698808193206787,-7.327985763549805,16,7813.0,128.93263244628906,1818,9943.0
3940,0.3466319143772125,-4.574326992034912,-26,7813.0,93.77301788330078,1423,9943.0
3950,0.3500180244445801,-1.5994789600372314,-30,7813.0,54.790252685546875,699,9943.0
3960,0.34193313121795654,7.776379108428955,116,7813.0,13.93587875366211,106,9943.0
3970,0.34270840883255005,17.25678062438965,335,7813.0,-28.783695220947266,-734,9943.0
3980,0.3443659245967865,23.331058502197266,507,7813.0,-70.7664794921875,-1466,9943.0
3990,0.3454548716545105,17.510204315185547,150,7813.0,-112.32765197753906,-2055,9943.0
4000,0.33875271677970886,-0.05152536556124687,-92,7813.0,-131.94850158691406,-2473,9943.0
4010,0.3393445312976837,-11.768248558044434,-209,7813.0,-137.6743621826172,-2119,9943.0
4020,0.3398469090461731,-10.8846435546875,-164,7813.0,-113.68721771240234,-1697,9943.0
4030,0.3424679934978485,-7.164400100708008,-164,7813.0,-76.91520690917969,-912,9943.0
4040,0.34206998348236084,-8.48974323272705,-91,7813.0,-21.405900955200195,-238,9943.0
4050,0.3433133363723755,-1.0147207975387573,-2,7813.0,33.30582809448242,755,9943.0
4060,0.3445045053958893,10.290467262268066,254,7813.0,80.10701751708984,1533,9943.0
4070,0.34512636065483093,12.832910537719727,131,7813.0,117.15911865234375,2219,9943.0
4080,0.3457448482513428,8.129302978515625,123,7813.0,137.56304931640625,2301,9943.0
4090,0.3417089283466339,2.0684027671813965,40,7813.0,138.52149963378906,2266,9943.0
4100,0.3410356044769287,-3.265815019607544,-112,7813.0,126.78443145751953,1987,9943.0
4110,0.3423524796962738,-5.421118259429932,-75,7813.0,102.91830444335938,1552,9943.0
4120,0.3410852253437042,2.8066563606262207,63,7813.0,63.75170135498047,847,9943.0
4130,0.3353694677352905,-1.8724650144577026,-107,7813.0,12.861160278320312,-30,9943.0
4140,0.33596673607826233,-9.571231842041016,-232,7813.0,-47.57957077026367,-1107,9943.0
4150,0.3367408514022827,-18.59087371826172,-311,7813.0,-104.91995239257812,-1945,9943.0
4160,0.3377739191055298,-24.615154266357422,-386,7813.0,-147.57469177246094,-2514,9943.0
4170,0.33871179819107056,-14.988387107849121,-133,7813.0,-169.1039276123047,-2865,9943.0
4180,0.33438488841056824,6.345292568206787,270,7813.0,-174.4695281982422,-2936,9943.0
4190,0.3356449604034424,30.436471939086914,562,7813.0,-164.66700744628906,-2686,9943.0
4200,0.33548104763031006,41.801692962646484,736,7813.0,-134.8818817138672,-2045,9943.0
4210,0.3353302776813507,35.97866439819336,497,7813.0,-96.19979858398438,-1268,9943.0
4220,0.3385463356971741,12.266923904418945,80,7813.0,-47.59246826171875,-479,9943.0
4230,0.3405766487121582,-13.736230850219727,-271,7813.0,8.578261375427246,380,9943.0
4240,0.34185415506362915,-36.37176513671875,-692,7813.0,64.394775390625,1252,9943.0
4250,0.34426793456077576,-52.06953811645508,-894,7813.0,112.92483520507812,2140,9943.0
4260,0.3485727608203888,-48.44385528564453,-657,7813.0,153.13467407226562,2554,9943.0
4270,0.34900543093681335,-21.084291458129883,-197,7813.0,169.27879333496094,2703,9943.0
4280,0.3500951826572418,13.152017593383789,389,7813.0,161.3204803466797,2408,9943.0
4290,0.350119948387146,40.4728889465332,835,7813.0,140.78211975097656,2112,9943.0
4300,0.3512864112854004,51.25777816772461,734,7813.0,100.61194610595703,1574,9943.0
4310,0.3423920273780823,37.03123092651367,441,7813.0,57.47386932373047,710,9943.0
4320,0.34524860978126526,13.715468406677246,87,7813.0,-3.152245044708252,-358,9943.0
4330,0.3461761474609375,-14.586939811706543,-302,7813.0,-58.808555603027344,-1416,9943.0
4340,0.3484985828399658,-30.366792678833008,-468,7813.0,-117.98443603515625,-2066,9943.0
4350,0.3415727913379669,-22.002349853515625,-329,7813.0,-151.92715454101562,-2787,9943.0
4360,0.34284403920173645,-9.735291481018066,-100,7813.0,-155.05462646484375,-2539,9943.0
4370,0.3432050347328186,4.863038539886475,89,7813.0,-136.797119140625,-1938,9943.0
4380,0.34336602687835693,20.886951446533203,409,7813.0,-96.56099700927734,-1339,9943.0
4390,0.3436053395271301,30.736919403076172,505,7813.0,-64.16645050048828,-771,9943.0
4400,0.34235185384750366,28.715473175048828,363,7813.0,-9.692347526550293,45,9943.0
4410,0.34397032856941223,10.55850887298584,71,7813.0,37.525997161865234,925,9943.0
4420,0.34533458948135376,-10.853410720825195,-312,7813.0,92.79945373535156,1795,9943.0
4430,0.34634584188461304,-26.424787521362305,-413,7813.0,131.74887084960938,2386,9943.0
4440,0.3458452820777893,-26.80421257019043,-339,7813.0,152.10214233398438,2362,9943.0
4450,0.34585848450660706,-12.963934898376465,16,7813.0,146.47561645507812,2242,9943.0
4460,0.3454868197441101,4.525059223175049,143,7813.0,127.7523422241211,1942,9943.0
4470,0.344222754240036,16.201799392700195,287,7813.0,104.688720703125,1450,9943.0
4480,0.33890658617019653,13.50446891784668,219,7813.0,75.2078628540039,932,9943.0
4490,0.3381255865097046,1.2923141717910767,-101,7813.0,29.580045700073242,340,9943.0
4500,0.3376486301422119,-14.212621688842773,-382,7813.0,-22.592891693115234,-429,9943.0
4510,0.3405296504497528,-29.505905151367188,-609,7813.0,-61.10855484008789,-1180,9943.0
4520,0.3415811359882355,-38.26863479614258,-643,7813.0,-83.41728973388672,-1505,9943.0
4530,0.33684593439102173,-27.071271896362305,-323,7813.0,-84.79207611083984,-1478,9943.0
4540,0.3372246325016022,-3.1786179542541504,145,7813.0,-85.52277374267578,-1387,9943.0
4550,0.33742302656173706,21.438404083251953,516,7813.0,-67.4993667602539,-1114,9943.0
4560,0.33780813217163086,38.75063705444336,649,7813.0,-37.4472770690918,-338,9943.0
4570,0.33498066663742065,43.75080871582031,675,7813.0,-8.150459289550781,111,9943.0
4580,0.33453240990638733,40.290401458740234,612,7813.0,20.472288131713867,466,9943.0
4590,0.33396998047828674,13.951505661010742,22,7813.0,40.634246826171875,734,9943.0
4600,0.3334381878376007,-27.442241668701172,-546,7813.0,54.61964416503906,766,9943.0
4610,0.3325681686401367,-53.49604034423828,-903,7813.0,55.895198822021484,895,9943.0
4620,0.33113375306129456,-62.272705078125,-1023,7813.0,50.5171012878418,609,9943.0
4630,0.33025941252708435,-44.15140151977539,-492,7813.0,32.81971740722656,269,9943.0
4640,0.33058464527130127,-6.411218166351318,175,7813.0,6.385631084442139,-43,9943.0
4650,0.3312697410583496,35.65347671508789,708,7813.0,-25.311431884765625,-449,9943.0
4660,0.32943564653396606,59.34550857543945,912,7813.0,-61.715553283691406,-1120,9943.0
4670,0.3306359350681305,60.586673736572266,958,7813.0,-98.59527587890625,-1754,9943.0
4680,0.3314777612686157,44.06541061401367,525,7813.0,-125.6750259399414,-1970,9943.0
4690,0.3334958255290985,17.475317001342773,172,7813.0,-127.60884857177734,-2052,9943.0
4700,0.334697425365448,-7.704672813415527,-240,7813.0,-109.72306823730469,-1597,9943.0
4710,0.33525416254997253,-16.80576515197754,-287,7813.0,-73.24560546875,-1105,9943.0
4720,0.3369665741920471,-31.409343719482422,-525,7813.0,-32.61166000366211,-463,9943.0
4730,0.33759066462516785,-33.78871536254883,-590,7813.0,11.631803512573242,439,9943.0
4740,0.338701069355011,-27.482229232788086,-376,7813.0,46.55892562866211,1102,9943.0
4750,0.34261882305145264,-16.37986183166504,-260,7813.0,84.80821228027344,1544,9943.0
4760,0.3432559669017792,-9.177244186401367,-25,7813.0,112.75843811035156,1924,9943.0
4770,0.3434491753578186,0.16069461405277252,24,7813.0,124.95513153076172,1967,9943.0
4780,0.34347742795944214,7.442869663238525,217,7813.0,116.75398254394531,1751,9943.0
4790,0.34037116169929504,11.347060203552246,229,7813.0,86.49566650390625,1301,9943.0
4800,0.34023597836494446,13.99124526977539,140,7813.0,44.400821685791016,628,9943.0
4810,0.34142789244651794,10.535141944885254,87,7813.0,11.909269332885742,15,9943.0
4820,0.34173694252967834,9.965127944946289,133,7813.0,-13.07003402709961,-202,9943.0
4830,0.3360025882720947,16.65020179748535,212,7813.0,-37.552520751953125,-572,9943.0
4840,0.3365366756916046,16.08715057373047,161,7813.0,-57.544864654541016,-984,9943.0
4850,0.3372010588645935,0.47925761342048645,-144,7813.0,-71.75511932373047,-1172,9943.0
4860,0.33796975016593933,-21.822786331176758,-438,7813.0,-71.27778625488281,-1031,9943.0
4870,0.33870556950569153,-35.710235595703125,-595,7813.0,-55.95964050292969,-954,9943.0
4880,0.33591559529304504,-33.964874267578125,-419,7813.0,-35.29063415527344,-525,9943.0
4890,0.33688420057296753,-13.590002059936523,-167,7813.0,-4.576892375946045,73,9943.0
4900,0.33733639121055603,8.323824882507324,247,7813.0,31.47651481628418,709,9943.0
4910,0.33830130100250244,21.14603614807129,307,7813.0,70.10333251953125,1482,9943.0
4920,0.33677130937576294,27.478912353515625,440,7813.0,100.08263397216797,1723,9943.0
4930,0.3367071747779846,26.34931182861328,403,7813.0,115.19557189941406,1946,9943.0
4940,0.33594611287117004,17.272546768188477,195,7813.0,117.52105712890625,1966,9943.0
4950,0.33445608615875244,2.583549737930298,-46,7813.0,104.71708679199219,1639,9943.0
4960,0.3338852524757385,-10.004980087280273,-197,7813.0,73.79376220703125,908,9943.0
4970,0.3306995630264282,-16.09564781188965,-334,7813.0,15.853130340576172,28,9943.0
4980,0.3298540711402893,-19.096370697021484,-186,7813.0,-36.56232452392578,-898,9943.0
4990,0.3307817578315735,-13.065820693969727,-49,7813.0,-77.57279205322266,-1527,9943.0
5000,0.33093079924583435,-2.3659372329711914,62,7813.0,-107.74055480957031,-1877,9943.0
5010,0.329057514667511,6.734323501586914,286,7813.0,-128.6305389404297,-2344,9943.0
5020,0.32895511388778687,20.617788314819336,440,7813.0,-147.002197265625,-2489,9943.0
5030,0.3287580609321594,25.778501510620117,406,7813.0,-149.53945922851562,-2533,9943.0
5040,0.32853779196739197,26.603384017944336,455,7813.0,-134.8536834716797,-2172,9943.0
5050,0.3297464847564697,18.235294342041016,226,7813.0,-103.50636291503906,-1622,9943.0
5060,0.33361759781837463,3.941263437271118,-17,7813.0,-62.679527282714844,-534,9943.0
5070,0.335104763507843,-5.341039180755615,-68,7813.0,2.853405237197876,340,9943.0
5080,0.335775762796402,-10.007575988769531,-171,7813.0,50.476097106933594,1017,9943.0
5090,0.3374142050743103,-15.794458389282227,-338,7813.0,89.98151397705078,1706,9943.0
5100,0.3415679335594177,-18.285139083862305,-252,7813.0,120.76947784423828,2278,9943.0
5110,0.3421139121055603,-15.23314094543457,-271,7813.0,136.44158935546875,2397,9943.0
5120,0.3421066105365753,-8.424528121948242,-96,7813.0,141.59486389160156,2318,9943.0
5130,0.3416577875614166,-0.3252320885658264,47,7813.0,125.46322631835938,2048,9943.0
5140,0.3389325737953186,15.224041938781738,232,7813.0,83.30644226074219,1107,9943.0
5150,0.33845219016075134,20.591922760009766,328,7813.0,35.61819839477539,189,9943.0
5160,0.3386869728565216,14.770365715026855,194,7813.0,-10.122828483581543,-507,9943.0
5170,0.3396356701850891,0.23575909435749054,-90,7813.0,-53.80760955810547,-1161,9943.0
5180,0.3399844765663147,-19.17361831665039,-382,7813.0,-95.94026184082031,-1915,9943.0
5190,0.33515340089797974,-33.96372604370117,-543,7813.0,-136.1211700439453,-2566,9943.0
5200,0.3353854715824127,-40.804317474365234,-691,7813.0,-157.82229614257812,-2742,9943.0
5210,0.33570238947868347,-35.3035888671875,-501,7813.0,-156.95291137695312,-2513,9943.0
5220,0.33859601616859436,-15.71187973022461,-103,7813.0,-131.4330596923828,-2000,9943.0
5230,0.3373900055885315,14.540445327758789,325,7813.0,-87.50489807128906,-1071,9943.0
5240,0.3387651741504669,30.690704345703125,529,7813.0,-33.28201675415039,-332,9943.0
5250,0.3411562740802765,29.517486572265625,437,7813.0,22.165973663330078,599,9943.0
5260,0.3424137532711029,21.345401763916016,326,7813.0,72.24076843261719,1392,9943.0
5270,0.344144344329834,8.111302375793457,25,7813.0,115.96885681152344,2149,9943.0
5280,0.3457280099391937,-7.175944805145264,-117,7813.0,145.33889770507812,2555,9943.0
5290,0.3466390073299408,-15.786117553710938,-319,7813.0,160.68865966796875,2608,9943.0
5300,0.34784331917762756,-17.31886100769043,-228,7813.0,155.85348510742188,2390,9943.0
5310,0.3479727506637573,-11.091849327087402,-112,7813.0,133.789794921875,2208,9943.0
5320,0.3405202627182007,-5.771955966949463,-112,7813.0,100.21424865722656,1598,9943.0
5330,0.34085312485694885,3.407064437866211,15,7813.0,53.99080276489258,740,9943.0
5340,0.342102974653244,10.05363655090332,195,7813.0,-0.33121004700660706,-441,9943.0
5350,0.3428545594215393,13.555367469787598,266,7813.0,-49.809173583984375,-1186,9943.0
5360,0.33771273493766785,7.731863021850586,155,7813.0,-88.60594177246094,-1590,9943.0
5370,0.33898335695266724,0.22022411227226257,-56,7813.0,-118.40303802490234,-2010,9943.0
5380,0.3395155370235443,-4.645639896392822,3,7813.0,-141.98512268066406,-2484,9943.0
5390,0.3403615355491638,-3.9922902584075928,-26,7813.0,-153.34246826171875,-2531,9943.0
5400,0.33586016297340393,1.7169699668884277,84,7813.0,-145.96316528320312,-2457,9943.0
5410,0.3365773856639862,11.855688095092773,220,7813.0,-116.92656707763672,-1616,9943.0
5420,0.3370753824710846,12.006166458129883,135,7813.0,-70.39261627197266,-902,9943.0
5430,0.3410719037055969,0.8524499535560608,-52,7813.0,-14.891940116882324,-17,9943.0
5440,0.34208807349205017,-6.68358039855957,-116,7813.0,42.40784454345703,902,9943.0
5450,0.3434590697288513,-8.966856956481934,-146,7813.0,93.29750061035156,1750,9943.0
5460,0.3445585370063782,-10.904768943786621,-215,7813.0,132.17161560058594,2451,9943.0
5470,0.3450140058994293,-10.175446510314941,-135,7813.0,155.19540405273438,2589,9943.0
5480,0.34530699253082275,-2.276993989944458,72,7813.0,159.93617248535156,2675,9943.0
5490,0.34143027663230896,3.2089061737060547,53,7813.0,143.77415466308594,2248,9943.0
5500,0.3404582738876343,9.514918327331543,226,7813.0,105.37773132324219,1446,9943.0
5510,0.3430408835411072,15.29179573059082,210,7813.0,59.0594596862793,677,9943.0
5520,0.3424837291240692,11.440390586853027,141,7813.0,10.63548755645752,-60,9943.0
5530,0.34294888377189636,1.008354902267456,-36,7813.0,-38.95283889770508,-892,9943.0
5540,0.3371998965740204,-9.417086601257324,-185,7813.0,-91.99488830566406,-1805,9943.0
5550,0.33770647644996643,-15.619916915893555,-116,7813.0,-139.6122283935547,-2656,9943.0
5560,0.33847030997276306,-7.8049821853637695,-14,7813.0,-173.4693145751953,-2991,9943.0
5570,0.33882156014442444,-0.12954171001911163,-8,7813.0,-176.16290283203125,-2991,9943.0
5580,0.3342587947845459,6.893132209777832,219,7813.0,-162.70835876464844,-2607,9943.0
5590,0.33930692076683044,10.435275077819824,109,7813.0,-129.03550720214844,-1781,9943.0
5600,0.33891409635543823,7.3608856201171875,48,7813.0,-79.60936737060547,-974,9943.0
5610,0.34096214175224304,-5.5265913009643555,-152,7813.0,-21.6087703704834,-162,9943.0
5620,0.3443252444267273,-17.27490997314453,-353,7813.0,32.92151641845703,809,9943.0
5630,0.3452170193195343,-27.362329483032227,-428,7813.0,84.90172576904297,1659,9943.0
5640,0.3455684781074524,-24.315202713012695,-385,7813.0,122.70388793945312,2246,9943.0
5650,0.3460652828216553,-10.747162818908691,-110,7813.0,143.85955810546875,2279,9943.0
5660,0.346049964427948,6.955480098724365,210,7813.0,141.08731079101562,2257,9943.0
5670,0.34492623805999756,20.02859878540039,321,7813.0,120.63473510742188,1846,9943.0
5680,0.3446866273880005,29.68318748474121,415,7813.0,91.26322937011719,1303,9943.0
5690,0.3448766767978668,24.219215393066406,293,7813.0,55.93156814575195,773,9943.0
5700,0.34528622031211853,9.619987487792969,31,7813.0,13.843698501586914,218,9943.0
5710,0.3388845920562744,-5.128480911254883,-200,7813.0,-45.423866271972656,-800,9943.0
5720,0.3402557671070099,-16.867414474487305,-398,7813.0,-88.88153076171875,-1636,9943.0
5730,0.341676265001297,-26.415597915649414,-401,7813.0,-122.25257110595703,-2080,9943.0
5740,0.3425291180610657,-20.332794189453125,-291,7813.0,-126.86296081542969,-1875,9943.0
5750,0.34284868836402893,-3.254075765609741,62,7813.0,-112.69538116455078,-1718,9943.0
5760,0.3390372693538666,9.652363777160645,259,7813.0,-78.41365051269531,-1122,9943.0
5770,0.3396918475627899,18.451187133789062,340,7813.0,-35.111045837402344,-374,9943.0
5780,0.3409734070301056,23.67096710205078,367,7813.0,20.75343894958496,736,9943.0
5790,0.342388778924942,18.835283279418945,220,7813.0,70.0370864868164,1477,9943.0
5800,0.3430091142654419,2.1301820278167725,-77,7813.0,109.89839172363281,2031,9943.0
5810,0.3436524569988251,-13.43496322631836,-248,7813.0,134.42662048339844,2060,9943.0
5820,0.34380513429641724,-19.262575149536133,-345,7813.0,141.77151489257812,2245,9943.0
5830,0.3431767225265503,-17.578516006469727,-211,7813.0,133.8846435546875,1932,9943.0
5840,0.33833062648773193,-3.6101911067962646,116,7813.0,113.38392639160156,1575,9943.0
5850,0.33823105692863464,9.957605361938477,329,7813.0,84.73783874511719,1230,9943.0
5860,0.3376837372779846,19.84766960144043,346,7813.0,47.99320602416992,675,9943.0
5870,0.3375396728515625,22.277456283569336,326,7813.0,0.054555971175432205,-125,9943.0
5880,0.3389457166194916,14.300761222839355,104,7813.0,-58.16072463989258,-1087,9943.0
5890,0.335147500038147,1.2448487281799316,-126,7813.0,-114.70509338378906,-2079,9943.0
5900,0.3358002007007599,-9.472663879394531,-129,7813.0,-144.23440551757812,-2433,9943.0
5910,0.336235374212265,-8.609189987182617,-200,7813.0,-147.6642608642578,-2163,9943.0
5920,0.33727073669433594,-1.7543164491653442,9,7813.0,-123.98412322998047,-1857,9943.0
5930,0.3360043168067932,1.499370813369751,39,7813.0,-93.4408950805664,-1327,9943.0
5940,0.3364412784576416,2.8892500400543213,103,7813.0,-53.30179977416992,-891,9943.0
5950,0.33663830161094666,3.985780715942383,13,7813.0,-10.380167961120605,11,9943.0
5960,0.3378664553165436,-2.2246153354644775,-42,7813.0,33.871822357177734,812,9943.0
5970,0.3379668891429901,-10.638654708862305,-218,7813.0,71.41211700439453,1401,9943.0
5980,0.33825576305389404,-15.832181930541992,-190,7813.0,98.55912017822266,1706,9943.0
5990,0.3380652666091919,-15.33191204071045,-265,7813.0,113.08537292480469,1764,9943.0
6000,0.33847928047180176,-14.827958106994629,-144,7813.0,110.94612884521484,1614,9943.0
6010,0.3379606604576111,-6.562610149383545,7,7813.0,93.11666870117188,1426,9943.0
6020,0.33282479643821716,4.866318702697754,67,7813.0,57.77188491821289,897,9943.0
6030,0.33400964736938477,9.13982105255127,146,7813.0,15.798508644104004,62,9943.0
6040,0.33499228954315186,12.527799606323242,214,7813.0,-38.200870513916016,-890,9943.0
6050,0.3365929126739502,9.444918632507324,48,7813.0,-85.885986328125,-1511,9943.0
6060,0.3330916464328766,-1.2948561906814575,-218,7813.0,-116.74178314208984,-1843,9943.0
6070,0.33386844396591187,-16.255977630615234,-314,7813.0,-119.21343231201172,-1873,9943.0
6080,0.3350082039833069,-12.855755805969238,-171,7813.0,-108.14417266845703,-1554,9943.0
6090,0.33506345748901367,-3.7093818187713623,-43,7813.0,-86.12579345703125,-1315,9943.0
6100,0.3358316421508789,6.898899555206299,229,7813.0,-53.280548095703125,-728,9943.0
6110,0.3371005058288574,10.459385871887207,149,7813.0,-11.608450889587402,-186,9943.0
6120,0.3374250531196594,12.217242240905762,192,7813.0,22.49530029296875,626,9943.0
6130,0.3380833566188812,13.200632095336914,232,7813.0,55.25342559814453,1108,9943.0
6140,0.3382737934589386,9.083967208862305,103,7813.0,84.08790588378906,1544,9943.0
6150,0.3380896747112274,2.0697083473205566,18,7813.0,102.5547866821289,1572,9943.0
6160,0.33773308992385864,-7.905205249786377,-125,7813.0,105.64141082763672,1630,9943.0
6170,0.33790579438209534,-14.56371784210205,-286,7813.0,98.67829895019531,1321,9943.0
6180,0.33729302883148193,-12.721468925476074,-94,7813.0,78.78872680664062,886,9943.0
6190,0.3367871940135956,-3.837986469268799,51,7813.0,43.364990234375,437,9943.0
6200,0.3321036696434021,6.239731311798096,164,7813.0,7.996776103973389,15,9943.0
6210,0.3327067196369171,12.424495697021484,129,7813.0,-29.722074508666992,-512,9943.0
6220,0.33339923620224,10.953502655029297,60,7813.0,-64.27838134765625,-1169,9943.0
6230,0.33436140418052673,2.0501861572265625,11,7813.0,-86.69140625,-1531,9943.0
6240,0.3307604491710663,-3.1831705570220947,-190,7813.0,-97.34281921386719,-1566,9943.0
6250,0.3313937485218048,-14.240579605102539,-235,7813.0,-88.65027618408203,-1532,9943.0
6260,0.33165591955184937,-16.012327194213867,-160,7813.0,-73.49819946289062,-1177,9943.0
6270,0.3317447602748871,-5.511843204498291,-83,7813.0,-43.29151153564453,-602,9943.0
6280,0.33271828293800354,6.324474334716797,136,7813.0,-4.293234348297119,316,9943.0
6290,0.3335753381252289,9.020609855651855,138,7813.0,41.561668395996094,849,9943.0
6300,0.3343517780303955,11.456862449645996,245,7813.0,79.9709701538086,1433,9943.0
6310,0.3343609571456909,7.582399845123291,79,7813.0,107.82563018798828,1621,9943.0
6320,0.33399394154548645,2.9932973384857178,87,7813.0,113.9797592163086,1742,9943.0
6330,0.33382269740104675,6.017330646514893,76,7813.0,98.41178894042969,1548,9943.0
6340,0.3338662087917328,6.443711757659912,133,7813.0,74.25862884521484,1020,9943.0
6350,0.33312028646469116,13.521577835083008,284,7813.0,50.819461822509766,524,9943.0
6360,0.3328072130680084,18.015981674194336,355,7813.0,25.12156105041504,55,9943.0
6370,0.3312176764011383,11.236534118652344,112,7813.0,-10.732182502746582,-521,9943.0
6380,0.33114609122276306,2.0247857570648193,-97,7813.0,-50.794227600097656,-1103,9943.0
6390,0.3315945565700531,-17.109085083007812,-224,7813.0,-76.08444213867188,-1630,9943.0
6400,0.33200743794441223,-23.8760929107666,-386,7813.0,-103.17239379882812,-1831,9943.0
6410,0.3326020836830139,-29.9958553314209,-573,7813.0,-111.47270965576172,-1845,9943.0
6420,0.33152368664741516,-27.464696884155273,-337,7813.0,-101.96391296386719,-1616,9943.0
6430,0.33162721991539,-13.33769702911377,-86,7813.0,-73.94412231445312,-814,9943.0
6440,0.33281755447387695,7.256145477294922,255,7813.0,-40.82228088378906,-520,9943.0
6450,0.33436426520347595,28.81174659729004,566,7813.0,-9.238662719726562,77,9943.0
6460,0.33485251665115356,33.16323471069336,454,7813.0,30.75699806213379,579,9943.0
6470,0.33598122000694275,21.044723510742188,185,7813.0,66.01016998291016,1389,9943.0
6480,0.3370957374572754,2.745175361633301,-53,7813.0,88.14453887939453,1561,9943.0
6490,0.3375599682331085,-17.070789337158203,-337,7813.0,99.67035675048828,1654,9943.0
6500,0.33817705512046814,-26.313732147216797,-433,7813.0,95.86406707763672,1428,9943.0
6510,0.3354494273662567,-20.693613052368164,-255,7813.0,80.9613037109375,1123,9943.0
6520,0.33526095747947693,-3.291990041732788,150,7813.0,54.5175666809082,591,9943.0
6530,0.33562028408050537,11.735629081726074,338,7813.0,19.24003028869629,88,9943.0
6540,0.3366098701953888,20.578733444213867,400,7813.0,-14.792698860168457,-366,9943.0
6550,0.3334103524684906,20.957414627075195,252,7813.0,-45.241519927978516,-874,9943.0
6560,0.3340064585208893,9.92929744720459,143,7813.0,-74.13372802734375,-1506,9943.0
6570,0.33456069231033325,-5.717482089996338,41,7813.0,-93.48170471191406,-1661,9943.0
6580,0.3351457118988037,-24.259675979614258,-447,7813.0,-104.14126586914062,-1735,9943.0
6590,0.33313873410224915,-31.513872146606445,-435,7813.0,-97.22418212890625,-1621,9943.0
6600,0.3332206904888153,-16.576398849487305,-208,7813.0,-88.18509674072266,-1253,9943.0
6610,0.3346177637577057,6.462337970733643,222,7813.0,-79.04322814941406,-1241,9943.0
6620,0.33653947710990906,22.850975036621094,408,7813.0,-56.036949157714844,-723,9943.0
6630,0.33757078647613525,27.927391052246094,487,7813.0,-19.55947494506836,-182,9943.0
6640,0.337737500667572,28.57989501953125,414,7813.0,19.056806564331055,573,9943.0
6650,0.33920881152153015,14.835648536682129,201,7813.0,68.58621978759766,1288,9943.0
6660,0.339679479598999,1.2974956035614014,-46,7813.0,111.4052505493164,1962,9943.0
6670,0.34042423963546753,-7.789785385131836,-179,7813.0,139.5338897705078,2591,9943.0
6680,0.33949732780456543,-17.006999969482422,-319,7813.0,159.14419555664062,2656,9943.0
6690,0.3386094570159912,-23.21112823486328,-368,7813.0,158.26495361328125,2695,9943.0
6700,0.34152743220329285,-20.24639320373535,-314,7813.0,141.234375,2396,9943.0
6710,0.340108722448349,-12.649402618408203,-215,7813.0,107.94530487060547,1679,9943.0
6720,0.334235817193985,-0.0016328096389770508,77,7813.0,58.92189025878906,598,9943.0
6730,0.3345317542552948,12.417378425598145,355,7813.0,-7.307300090789795,-555,9943.0
6740,0.3353443741798401,18.31226348876953,343,7813.0,-61.08026123046875,-1200,9943.0
6750,0.33766499161720276,18.235923767089844,172,7813.0,-102.08232116699219,-1668,9943.0
6760,0.3386572301387787,1.0016168355941772,-146,7813.0,-131.55325317382812,-2186,9943.0
6770,0.33595016598701477,-13.005668640136719,-226,7813.0,-152.40579223632812,-2579,9943.0
6780,0.3365291655063629,-18.455636978149414,-285,7813.0,-172.2388916015625,-2672,9943.0
6790,0.33632513880729675,-15.625983238220215,-269,7813.0,-179.9862518310547,-2913,9943.0
6800,0.3349461257457733,-8.577102661132812,-69,7813.0,-178.7086181640625,-2743,9943.0
6810,0.3352670669555664,-3.0138838291168213,-5,7813.0,-155.26223754882812,-2506,9943.0
6820,0.33820146322250366,0.16674000024795532,5,7813.0,-114.1728515625,-1699,9943.0
6830,0.3390737473964691,8.139080047607422,166,7813.0,-55.39299392700195,-574,9943.0
6840,0.3397946059703827,6.006601810455322,98,7813.0,10.28493595123291,539,9943.0
6850,0.34158527851104736,3.2612271308898926,-44,7813.0,79.53584289550781,1500,9943.0
6860,0.3488594591617584,-5.0883965492248535,-120,7813.0,135.97679138183594,2432,9943.0
6870,0.348239004611969,-0.5981647372245789,60,7813.0,176.26156616210938,3019,9943.0
6880,0.3490626811981201,2.051378011703491,-61,7813.0,197.11485290527344,3309,9943.0
6890,0.3485043942928314,0.747918426990509,30,7813.0,195.63597106933594,3144,9943.0
6900,0.34324145317077637,1.841770052909851,46,7813.0,174.10702514648438,2791,9943.0
6910,0.3447868824005127,3.2033472061157227,138,7813.0,139.78338623046875,2031,9943.0
6920,0.34299904108047485,2.0856564044952393,140,7813.0,95.44580841064453,1251,9943.0
6930,0.3420552611351013,0.9397755861282349,-5,7813.0,35.92380142211914,405,9943.0
6940,0.3344716429710388,-1.5532344579696655,-108,7813.0,-28.86482048034668,-661,9943.0
6950,0.3358992338180542,-1.4397027492523193,-84,7813.0,-95.63285064697266,-1867,9943.0
6960,0.3377278745174408,0.7234124541282654,39,7813.0,-151.82130432128906,-2816,9943.0
6970,0.33795052766799927,6.0602641105651855,191,7813.0,-177.95382690429688,-3139,9943.0
6980,0.3382982611656189,3.8714585304260254,55,7813.0,-186.23939514160156,-3042,9943.0
6990,0.332485169172287,-5.506086826324463,-91,7813.0,-171.15811157226562,-2873,9943.0
7000,0.33208996057510376,-8.662291526794434,-162,7813.0,-136.91058349609375,-2030,9943.0
7010,0.3319403827190399,-7.657236576080322,-148,7813.0,-100.54680633544922,-1225,9943.0
7020,0.3325929045677185,-13.086121559143066,-271,7813.0,-39.00845718383789,-193,9943.0
7030,0.335489422082901,-19.521562576293945,-236,7813.0,19.69532012939453,627,9943.0
7040,0.3366643786430359,-20.319477081298828,-315,7813.0,75.31779479980469,1326,9943.0
7050,0.3377140760421753,-15.63912582397461,-176,7813.0,117.49417114257812,2123,9943.0
7060,0.3386990427970886,-2.9011270999908447,16,7813.0,143.0333251953125,2331,9943.0
7070,0.3394535779953003,12.371928215026855,292,7813.0,149.35235595703125,2315,9943.0
7080,0.33608725666999817,21.33903694152832,435,7813.0,131.49172973632812,1910,9943.0
7090,0.33609530329704285,23.718345642089844,488,7813.0,100.14517211914062,1247,9943.0
7100,0.3360852897167206,15.541118621826172,347,7813.0,58.10388946533203,600,9943.0
7110,0.33797118067741394,12.5636568069458,154,7813.0,7.715576648712158,-123,9943.0
7120,0.3330075740814209,7.146233558654785,8,7813.0,-50.344337463378906,-1058,9943.0
7130,0.33453652262687683,4.499978065490723,3,7813.0,-100.82123565673828,-1884,9943.0
7140,0.33565065264701843,2.479714870452881,83,7813.0,-122.4390640258789,-2050,9943.0
7150,0.3364526033401489,-3.208409309387207,-50,7813.0,-120.87818908691406,-1817,9943.0
7160,0.3328494131565094,-7.032756805419922,-210,7813.0,-100.55870056152344,-1383,9943.0
7170,0.3334786295890808,-4.068376064300537,-53,7813.0,-69.72340393066406,-898,9943.0
7180,0.33398905396461487,-4.916806221008301,-103,7813.0,-24.851638793945312,-205,9943.0
7190,0.335328072309494,-0.34972065687179565,65,7813.0,22.791595458984375,438,9943.0
7200,0.33613601326942444,7.264618873596191,111,7813.0,61.3047981262207,1043,9943.0
7210,0.3343472480773926,7.585633754730225,154,7813.0,87.27515411376953,1584,9943.0
7220,0.3345475494861603,4.24897575378418,-28,7813.0,105.26634216308594,1800,9943.0
7230,0.3347426950931549,-2.9345433712005615,-51,7813.0,103.02376556396484,1671,9943.0
7240,0.33430275321006775,-8.83487606048584,-173,7813.0,89.79679870605469,1577,9943.0
7250,0.32992053031921387,-10.62504768371582,-241,7813.0,76.40890502929688,1116,9943.0
7260,0.32910335063934326,-11.176102638244629,-174,7813.0,56.6451530456543,679,9943.0
7270,0.32759979367256165,-7.219428062438965,25,7813.0,29.30044174194336,164,9943.0
7280,0.32786405086517334,4.527103424072266,210,7813.0,-12.27678108215332,-411,9943.0
7290,0.32681214809417725,15.49093246459961,300,7813.0,-59.1485481262207,-1055,9943.0
7300,0.320729523897171,21.31566047668457,303,7813.0,-103.04457092285156,-1791,9943.0
7310,0.3187918961048126,16.328617095947266,209,7813.0,-127.26200103759766,-1988,9943.0
7320,0.3182860016822815,10.640378952026367,85,7813.0,-119.48675537109375,-1714,9943.0
7330,0.31596052646636963,1.2075847387313843,-43,7813.0,-90.69219970703125,-1230,9943.0
7340,0.3106299936771393,-3.532644271850586,-154,7813.0,-49.81850814819336,-615,9943.0
7350,0.30853530764579773,-15.27600383758545,-255,7813.0,-3.0701210498809814,132,9943.0
7360,0.30668312311172485,-17.45917510986328,-191,7813.0,45.637962341308594,772,9943.0
7370,0.30481281876564026,-16.829669952392578,-274,7813.0,73.57744598388672,1199,9943.0
7380,0.30101683735847473,-16.468542098999023,-241,7813.0,87.72771453857422,1514,9943.0
7390,0.2992355227470398,-14.487600326538086,-222,7813.0,93.73529815673828,1493,9943.0
7400,0.2983523905277252,-7.535948753356934,-145,7813.0,87.4609146118164,1475,9943.0
7410,0.29690447449684143,-4.524758338928223,1,7813.0,70.29214477539062,900,9943.0
7420,0.29540663957595825,-0.1496250033378601,69,7813.0,46.17387771606445,672,9943.0
7430,0.29105132818222046,5.947929382324219,22,7813.0,9.542670249938965,-51,9943.0
7440,0.29099979996681213,7.8655853271484375,237,7813.0,-32.31846618652344,-768,9943.0
7450,0.29104626178741455,6.214120864868164,47,7813.0,-64.11863708496094,-990,9943.0
7460,0.2912582457065582,0.3616490066051483,-6,7813.0,-81.49283599853516,-1335,9943.0
7470,0.28780725598335266,-4.129528045654297,-116,7813.0,-92.41345977783203,-1637,9943.0
7480,0.28860345482826233,-4.2031755447387695,39,7813.0,-102.41104125976562,-1779,9943.0
7490,0.288362979888916,-1.6102358102798462,15,7813.0,-108.92864227294922,-1890,9943.0
7500,0.2876092493534088,-3.020486354827881,-54,7813.0,-94.77821350097656,-1425,9943.0
7510,0.2880578339099884,-4.444054126739502,-18,7813.0,-63.45658874511719,-894,9943.0
7520,0.28816094994544983,0.998852550983429,140,7813.0,-22.68449592590332,-303,9943.0
7530,0.28823164105415344,8.37307071685791,189,7813.0,29.58421516418457,494,9943.0
7540,0.2896842658519745,7.11614465713501,22,7813.0,78.39669036865234,1402,9943.0
7550,0.29080164432525635,-1.0928418636322021,-55,7813.0,119.45977783203125,2095,9943.0
7560,0.2896742522716522,-1.493882417678833,35,7813.0,147.53762817382812,2508,9943.0
7570,0.28887709975242615,-3.1481494903564453,45,7813.0,160.51792907714844,2458,9943.0
7580,0.2873004376888275,0.9628884196281433,25,7813.0,154.78392028808594,2570,9943.0
7590,0.2847296893596649,2.860074043273926,43,7813.0,136.35641479492188,2130,9943.0
7600,0.2840784192085266,6.70847225189209,135,7813.0,89.76170349121094,1236,9943.0
7610,0.2818485200405121,8.034992218017578,77,7813.0,28.8348445892334,198,9943.0
7620,0.28018680214881897,8.404801368713379,175,7813.0,-29.219491958618164,-787,9943.0
7630,0.2796328067779541,13.73237133026123,195,7813.0,-77.61431884765625,-1377,9943.0
7640,0.2785995900630951,20.317285537719727,377,7813.0,-118.56975555419922,-2093,9943.0
7650,0.2756044566631317,19.658660888671875,299,7813.0,-146.6842041015625,-2488,9943.0
7660,0.2727576792240143,8.16362190246582,7,7813.0,-160.54949951171875,-2577,9943.0
7670,0.26953572034835815,1.0775229930877686,-60,7813.0,-166.2506866455078,-2666,9943.0
7680,0.26494500041007996,2.7332355976104736,65,7813.0,-164.1456298828125,-2628,9943.0
7690,0.26527518033981323,-1.3172379732131958,-16,7813.0,-138.85751342773438,-2171,9943.0
7700,0.2639555335044861,-10.141860008239746,-113,7813.0,-97.14868927001953,-1289,9943.0
7710,0.26262256503105164,-13.859884262084961,-175,7813.0,-30.785730361938477,-30,9943.0
7720,0.262813001871109,-19.848602294921875,-296,7813.0,51.48496627807617,1281,9943.0
7730,0.26558127999305725,-18.773258209228516,-239,7813.0,125.98993682861328,2473,9943.0
7740,0.2648511528968811,-12.372488975524902,-160,7813.0,184.87672424316406,3349,9943.0
7750,0.2649020552635193,-8.689790725708008,-248,7813.0,210.72889709472656,3591,9943.0
7760,0.26372015476226807,-8.052725791931152,-40,7813.0,212.78286743164062,3260,9943.0
7770,0.26777347922325134,-5.357761383056641,-55,7813.0,189.3896942138672,2985,9943.0
7780,0.26068076491355896,0.8531674146652222,-36,7813.0,154.35316467285156,2185,9943.0
7790,0.2593134939670563,0.1951102614402771,60,7813.0,103.25237274169922,1369,9943.0
7800,0.2581574022769928,-2.769467353820801,-119,7813.0,40.74074172973633,330,9943.0
7810,0.2606484889984131,-5.862307071685791,-85,7813.0,-23.643014907836914,-665,9943.0
7820,0.2564203143119812,-7.800837516784668,-137,7813.0,-77.75225830078125,-1431,9943.0
7830,0.25614359974861145,-8.881146430969238,-127,7813.0,-113.37175750732422,-1926,9943.0
7840,0.2552185356616974,-5.286787033081055,-61,7813.0,-133.3521270751953,-2362,9943.0
7850,0.25505781173706055,-2.380648136138916,35,7813.0,-138.0467529296875,-2240,9943.0
7860,0.25354501605033875,4.213493347167969,123,7813.0,-131.38137817382812,-1986,9943.0
7870,0.2497497797012329,10.936403274536133,169,7813.0,-111.48899841308594,-1659,9943.0
7880,0.24849635362625122,6.045524597167969,72,7813.0,-76.56010437011719,-1064,9943.0
7890,0.24953413009643555,-3.2287850379943848,-25,7813.0,-27.058164596557617,-283,9943.0
7900,0.24946081638336182,-3.662405014038086,-9,7813.0,26.598840713500977,605,9943.0
7910,0.24738740921020508,-5.439778804779053,-34,7813.0,75.83277893066406,1428,9943.0
7920,0.2479805052280426,-4.754768371582031,-91,7813.0,115.49462890625,2044,9943.0
7930,0.247030109167099,-4.820298194885254,-101,7813.0,137.9812774658203,2405,9943.0
7940,0.2476322501897812,2.1997387409210205,-21,7813.0,144.96282958984375,2259,9943.0
7950,0.24468187987804413,5.94442892074585,157,7813.0,137.04998779296875,2073,9943.0
7960,0.24407623708248138,12.884466171264648,237,7813.0,102.81787109375,1577,9943.0
7970,0.24541962146759033,13.576906204223633,254,7813.0,60.76211929321289,691,9943.0
7980,0.24525034427642822,10.846332550048828,91,7813.0,11.710813522338867,39,9943.0
7990,0.24535194039344788,8.594895362854004,255,7813.0,-33.88905715942383,-727,9943.0
8000,0.24421857297420502,5.447528839111328,21,7813.0,-67.62079620361328,-1184,9943.0
8010,0.2445177435874939,2.525235891342163,3,7813.0,-89.33204650878906,-1634,9943.0
8020,0.2444394826889038,-1.5637589693069458,11,7813.0,-100.3620376586914,-1586,9943.0
8030,0.24465887248516083,-1.837394118309021,-87,7813.0,-97.44818115234375,-1412,9943.0
8040,0.24330417811870575,-3.013552665710449,-84,7813.0,-80.41961669921875,-1201,9943.0
8050,0.24310922622680664,-8.628973007202148,-109,7813.0,-52.58210754394531,-792,9943.0
8060,0.24468281865119934,-16.346847534179688,-213,7813.0,-16.605499267578125,-198,9943.0
8070,0.24497470259666443,-19.834548950195312,-272,7813.0,21.894329071044922,503,9943.0
8080,0.2456049770116806,-12.577855110168457,-284,7813.0,53.03654479980469,1118,9943.0
8090,0.24607886373996735,-3.164355516433716,-92,7813.0,79.51403045654297,1412,9943.0
8100,0.24648544192314148,7.546258926391602,244,7813.0,92.64021301269531,1527,9943.0
8110,0.2466372549533844,20.66635513305664,376,7813.0,89.86954498291016,1491,9943.0
8120,0.24645653367042542,26.81224250793457,539,7813.0,78.72003173828125,1223,9943.0
8130,0.2446468621492386,31.753515243530273,422,7813.0,62.056461334228516,923,9943.0
8140,0.24539169669151306,28.204547882080078,409,7813.0,37.68989181518555,457,9943.0
8150,0.24468375742435455,24.501605987548828,328,7813.0,10.496865272521973,87,9943.0
8160,0.24420034885406494,16.39668846130371,334,7813.0,-16.867584228515625,-398,9943.0
8170,0.24389153718948364,12.890374183654785,176,7813.0,-42.09456253051758,-748,9943.0
8180,0.24292980134487152,4.645898818969727,72,7813.0,-64.23040771484375,-1176,9943.0
8190,0.242033913731575,-3.0526998043060303,-47,7813.0,-76.0709228515625,-1238,9943.0
8200,0.24057088792324066,-8.529261589050293,-193,7813.0,-77.16259002685547,-1246,9943.0
8210,0.2393273562192917,-14.884869575500488,-269,7813.0,-69.45047760009766,-1100,9943.0
8220,0.2409161925315857,-23.920124053955078,-359,7813.0,-52.43060302734375,-734,9943.0
8230,0.2399965077638626,-26.861312866210938,-479,7813.0,-30.53620719909668,-307,9943.0
8240,0.23971529304981232,-27.135028839111328,-463,7813.0,-2.3737611770629883,33,9943.0
8250,0.240165114402771,-26.00275421142578,-308,7813.0,26.588829040527344,525,9943.0
8260,0.23884190618991852,-27.240880966186523,-496,7813.0,51.22673797607422,962,9943.0
8270,0.23911339044570923,-20.494285583496094,-339,7813.0,63.29280471801758,1017,9943.0
8280,0.23887428641319275,-8.407145500183105,-114,7813.0,63.406795501708984,1102,9943.0
8290,0.23919758200645447,4.056337356567383,89,7813.0,58.268978118896484,854,9943.0
8300,0.2393002212047577,10.267280578613281,184,7813.0,51.09519577026367,861,9943.0
8310,0.23904116451740265,12.782719612121582,314,7813.0,35.92240524291992,439,9943.0
8320,0.2389208972454071,9.495518684387207,93,7813.0,15.690668106079102,146,9943.0
8330,0.23868516087532043,8.40175724029541,132,7813.0,-5.235015869140625,-308,9943.0
8340,0.23844392597675323,8.381998062133789,82,7813.0,-25.417236328125,-435,9943.0
8350,0.2367061972618103,8.043394088745117,227,7813.0,-44.063270568847656,-832,9943.0
8360,0.23622062802314758,12.154873847961426,200,7813.0,-59.643951416015625,-958,9943.0
8370,0.23534396290779114,12.75523853302002,185,7813.0,-70.03722381591797,-1228,9943.0
8380,0.23450051248073578,7.229015350341797,140,7813.0,-68.75909423828125,-1108,9943.0
8390,0.23159511387348175,-0.5015997886657715,-72,7813.0,-58.594383239746094,-779,9943.0
8400,0.23040126264095306,-5.710740089416504,-145,7813.0,-42.804073333740234,-602,9943.0
8410,0.2293090522289276,-6.260375022888184,-16,7813.0,-23.738466262817383,-294,9943.0
8420,0.22898705303668976,-3.7159998416900635,7,7813.0,-2.900268316268921,13,9943.0
8430,0.2284010499715805,-0.49312296509742737,-31,7813.0,20.25424575805664,482,9943.0
8440,0.22810374200344086,3.611370801925659,65,7813.0,42.56874465942383,863,9943.0
8450,0.22774063050746918,9.401925086975098,300,7813.0,62.44160842895508,1061,9943.0
8460,0.22740481793880463,16.945274353027344,221,7813.0,68.77684783935547,1139,9943.0
8470,0.22812646627426147,17.59637451171875,383,7813.0,62.39372253417969,941,9943.0
8480,0.23219677805900574,20.456100463867188,334,7813.0,49.49272918701172,777,9943.0
8490,0.23220966756343842,22.25441551208496,477,7813.0,30.146757125854492,413,9943.0
8500,0.2322431057691574,21.56570053100586,259,7813.0,9.915671348571777,134,9943.0
8510,0.23241114616394043,10.905442237854004,206,7813.0,-18.27273941040039,-462,9943.0
8520,0.228632390499115,-5.117593765258789,-190,7813.0,-40.38095474243164,-649,9943.0
8530,0.22811362147331238,-26.2064151763916,-475,7813.0,-53.27519607543945,-1034,9943.0
8540,0.22716279327869415,-40.49693298339844,-686,7813.0,-59.46107864379883,-893,9943.0
8550,0.22690629959106445,-45.158042907714844,-775,7813.0,-58.92547607421875,-974,9943.0
8560,0.22605670988559723,-41.82881546020508,-573,7813.0,-50.616058349609375,-769,9943.0
8570,0.22699584066867828,-32.3691291809082,-488,7813.0,-37.303958892822266,-451,9943.0
8580,0.22594283521175385,-21.68489646911621,-311,7813.0,-22.753931045532227,-413,9943.0
8590,0.2264685481786728,-8.391266822814941,-65,7813.0,-8.401469230651855,-2,9943.0
8600,0.22651012241840363,0.6785649061203003,51,7813.0,14.08639144897461,395,9943.0
8610,0.225640669465065,4.500614166259766,105,7813.0,45.33076095581055,789,9943.0
8620,0.22627140581607819,12.026591300964355,218,7813.0,75.96160125732422,1444,9943.0
8630,0.2258487343788147,14.485410690307617,254,7813.0,96.36817169189453,1511,9943.0
8640,0.2258891761302948,16.578105926513672,261,7813.0,97.83270263671875,1636,9943.0
8650,0.22775685787200928,24.067651748657227,448,7813.0,83.72663116455078,1265,9943.0
8660,0.22781001031398773,21.97644805908203,281,7813.0,61.300445556640625,722,9943.0
8670,0.22880811989307404,16.31560516357422,217,7813.0,35.60493850708008,533,9943.0
8680,0.22886109352111816,9.369359016418457,162,7813.0,6.572096824645996,-54,9943.0
8690,0.2288009375333786,1.378650426864624,-51,7813.0,-15.041173934936523,-463,9943.0
8700,0.2258080095052719,-7.055942058563232,-53,7813.0,-30.521116256713867,-495,9943.0
8710,0.22528734803199768,-9.451946258544922,-181,7813.0,-45.53692626953125,-824,9943.0
8720,0.2246827930212021,-13.874666213989258,-249,7813.0,-55.573028564453125,-827,9943.0
8730,0.22429433465003967,-13.703121185302734,-128,7813.0,-52.95508575439453,-841,9943.0
8740,0.22698761522769928,-7.015649318695068,-159,7813.0,-39.55378723144531,-641,9943.0
8750,0.22834251821041107,0.41496458649635315,64,7813.0,-20.271480560302734,-170,9943.0
8760,0.22892190515995026,6.506866455078125,89,7813.0,1.2258723974227905,142,9943.0
8770,0.22953617572784424,8.635916709899902,225,7813.0,18.99430274963379,467,9943.0
8780,0.2280832678079605,13.759669303894043,222,7813.0,36.24432373046875,581,9943.0
8790,0.22833670675754547,19.52814483642578,377,7813.0,48.695556640625,941,9943.0
8800,0.22955186665058136,23.308773040771484,340,7813.0,62.33299255371094,1100,9943.0
8810,0.23049713671207428,27.398815155029297,497,7813.0,71.35006713867188,1214,9943.0
8820,0.23088602721691132,31.21451187133789,476,7813.0,59.792606353759766,755,9943.0
8830,0.23383411765098572,29.365890502929688,504,7813.0,36.32868576049805,557,9943.0
8840,0.23584678769111633,18.347089767456055,235,7813.0,17.46780014038086,124,9943.0
8850,0.23650383949279785,0.07283470779657364,-59,7813.0,1.7162355184555054,40,9943.0
8860,0.23721709847450256,-17.672409057617188,-386,7813.0,-12.526026725769043,-354,9943.0
8870,0.23637445271015167,-32.05848693847656,-555,7813.0,-25.028989791870117,-348,9943.0
8880,0.23722870647907257,-39.09193420410156,-656,7813.0,-34.43748474121094,-680,9943.0
8890,0.23753122985363007,-34.67643356323242,-497,7813.0,-41.3170051574707,-503,9943.0
8900,0.23727479577064514,-25.243131637573242,-391,7813.0,-38.48603057861328,-744,9943.0
8910,0.23764120042324066,-16.15682029724121,-182,7813.0,-35.16975021362305,-485,9943.0
8920,0.23804518580436707,-8.77530288696289,-179,7813.0,-25.634204864501953,-406,9943.0
8930,0.23856298625469208,-4.638851642608643,-42,7813.0,-12.229303359985352,-66,9943.0
8940,0.23927542567253113,-1.8795057535171509,-37,7813.0,2.757927417755127,46,9943.0
8950,0.23990938067436218,1.1670838594436646,98,7813.0,8.99887466430664,122,9943.0
8960,0.23875758051872253,2.980607509613037,-51,7813.0,14.008042335510254,429,9943.0
8970,0.23921529948711395,-0.7011451125144958,17,7813.0,29.764196395874023,531,9943.0
8980,0.23979857563972473,-10.09320068359375,-256,7813.0,41.91922378540039,789,9943.0
8990,0.24026191234588623,-19.282678604125977,-363,7813.0,48.236331939697266,704,9943.0
9000,0.24139924347400665,-22.426685333251953,-403,7813.0,47.048736572265625,794,9943.0
9010,0.24177022278308868,-20.304227828979492,-211,7813.0,42.1152229309082,673,9943.0
9020,0.24183975160121918,-9.473665237426758,-176,7813.0,26.33632469177246,249,9943.0
9030,0.24197344481945038,-8.75844669342041,-264,7813.0,13.363506317138672,107,9943.0
9040,0.24177443981170654,-15.738860130310059,-207,7813.0,-8.426199913024902,-248,9943.0
9050,0.24296288192272186,-16.842205047607422,-179,7813.0,-38.065673828125,-882,9943.0
9060,0.2423553615808487,-7.193253517150879,-56,7813.0,-62.792320251464844,-1281,9943.0
9070,0.24121254682540894,2.9689724445343018,219,7813.0,-77.02063751220703,-1175,9943.0
9080,0.24189111590385437,13.631196022033691,201,7813.0,-79.43170166015625,-1372,9943.0
9090,0.24244986474514008,17.42316436767578,306,7813.0,-66.83453369140625,-879,9943.0
9100,0.24274812638759613,17.34608268737793,242,7813.0,-37.17911148071289,-495,9943.0
9110,0.24288639426231384,14.704351425170898,296,7813.0,-4.101268291473389,141,9943.0
9120,0.24321752786636353,18.960458755493164,270,7813.0,24.47348403930664,480,9943.0
9130,0.24223634600639343,21.554672241210938,431,7813.0,43.18101501464844,823,9943.0
9140,0.24202793836593628,25.128707885742188,406,7813.0,48.595211029052734,589,9943.0
9150,0.24179299175739288,26.597524642944336,406,7813.0,39.97835922241211,721,9943.0
9160,0.24299196898937225,26.521209716796875,519,7813.0,31.13549041748047,405,9943.0
9170,0.2432880848646164,26.153732299804688,336,7813.0,16.42844581604004,167,9943.0
9180,0.24373136460781097,23.640535354614258,400,7813.0,14.843015670776367,374,9943.0
9190,0.24434220790863037,16.71480941772461,233,7813.0,24.943090438842773,367,9943.0
9200,0.24461765587329865,3.1503171920776367,21,7813.0,27.605621337890625,502,9943.0
9210,0.2451440393924713,-7.482903480529785,-143,7813.0,23.369625091552734,347,9943.0
9220,0.243220254778862,-20.43026351928711,-498,7813.0,13.076496124267578,153,9943.0
9230,0.24323973059654236,-31.22869300842285,-513,7813.0,2.714609146118164,54,9943.0
9240,0.24326002597808838,-36.93367004394531,-662,7813.0,-5.4438395500183105,-222,9943.0
9250,0.24295319616794586,-35.618656158447266,-559,7813.0,-11.096692085266113,-172,9943.0
9260,0.24067699909210205,-28.432897567749023,-410,7813.0,-19.81304168701172,-267,9943.0
9270,0.24116556346416473,-24.44000816345215,-351,7813.0,-20.11037254333496,-374,9943.0
9280,0.24069824814796448,-9.228939056396484,-151,7813.0,-18.145187377929688,-266,9943.0
9290,0.2407992035150528,1.14170241355896,148,7813.0,-17.25345802307129,-162,9943.0
9300,0.24039410054683685,16.506315231323242,356,7813.0,-14.823890686035156,-232,9943.0
9310,0.2382987141609192,27.286874771118164,440,7813.0,-10.418149948120117,-178,9943.0
9320,0.23796631395816803,31.255464553833008,499,7813.0,-8.422117233276367,42,9943.0
9330,0.2379261553287506,28.384225845336914,530,7813.0,-5.083783149719238,-76,9943.0
9340,0.2377178966999054,23.705333709716797,294,7813.0,0.38597142696380615,-36,9943.0
9350,0.2343861311674118,20.402921676635742,362,7813.0,7.078347206115723,302,9943.0
9360,0.23434749245643616,11.10921859741211,150,7813.0,20.502044677734375,343,9943.0
9370,0.2342536449432373,-3.86972713470459,-218,7813.0,27.22433853149414,431,9943.0
9380,0.23421943187713623,-15.381157875061035,-219,7813.0,27.026704788208008,572,9943.0
9390,0.2347709685564041,-8.150428771972656,-82,7813.0,21.14324951171875,289,9943.0
9400,0.23612508177757263,8.968430519104004,212,7813.0,8.039430618286133,-12,9943.0
9410,0.23628894984722137,25.35950469970703,457,7813.0,-1.8496404886245728,35,9943.0
9420,0.23626866936683655,24.620149612426758,446,7813.0,-5.010789394378662,-127,9943.0
9430,0.23633424937725067,9.418403625488281,29,7813.0,-6.350622653961182,-230,9943.0
9440,0.23386788368225098,-14.22528076171875,-300,7813.0,-8.700119972229004,-64,9943.0
9450,0.23361662030220032,-34.546424865722656,-571,7813.0,-18.8050594329834,-451,9943.0
9460,0.2332652360200882,-38.46527862548828,-670,7813.0,-25.039608001708984,-434,9943.0
9470,0.23282137513160706,-32.281005859375,-441,7813.0,-21.107725143432617,-204,9943.0
9480,0.23477967083454132,-18.02765464782715,-176,7813.0,-18.021909713745117,-344,9943.0
9490,0.23579713702201843,1.5249533653259277,60,7813.0,-16.144845962524414,-371,9943.0
9500,0.23572497069835663,13.32705020904541,272,7813.0,-17.454769134521484,-181,9943.0
9510,0.23567496240139008,18.155147552490234,325,7813.0,-12.359626770019531,-165,9943.0
9520,0.23585067689418793,12.765207290649414,93,7813.0,2.84745454788208,96,9943.0
9530,0.23778089880943298,2.783423662185669,67,7813.0,24.669113159179688,585,9943.0
9540,0.23840191960334778,-3.9365830421447754,-31,7813.0,43.28183364868164,670,9943.0
9550,0.23914200067520142,2.619687795639038,75,7813.0,50.638301849365234,881,9943.0
9560,0.23964639008045197,7.800827503204346,171,7813.0,48.85426712036133,853,9943.0
9570,0.24075697362422943,15.439994812011719,242,7813.0,42.17155456542969,515,9943.0
9580,0.24129587411880493,15.287589073181152,177,7813.0,32.34545135498047,511,9943.0
9590,0.2422627955675125,8.457515716552734,151,7813.0,17.49751091003418,234,9943.0
9600,0.2438271939754486,0.8719925284385681,-135,7813.0,0.5355712175369263,-137,9943.0
9610,0.24686752259731293,-13.279641151428223,-300,7813.0,-7.767495632171631,-126,9943.0
9620,0.2476670742034912,-25.672208786010742,-409,7813.0,-16.461332321166992,-423,9943.0
9630,0.24888381361961365,-36.60850143432617,-691,7813.0,-30.870899200439453,-530,9943.0
9640,0.24959751963615417,-42.77031326293945,-637,7813.0,-39.51405715942383,-679,9943.0
9650,0.2509593963623047,-42.40122985839844,-769,7813.0,-50.62623596191406,-953,9943.0
9660,0.2545663118362427,-36.718238830566406,-480,7813.0,-56.41045379638672,-875,9943.0
9670,0.2552866041660309,-24.044639587402344,-395,7813.0,-56.98697280883789,-984,9943.0
9680,0.25615623593330383,-10.359259605407715,-31,7813.0,-45.54053497314453,-566,9943.0
9690,0.25804373621940613,3.932938575744629,49,7813.0,-23.66611099243164,-204,9943.0
9700,0.2594069838523865,8.371716499328613,202,7813.0,6.411116600036621,293,9943.0
9710,0.26100680232048035,9.359809875488281,55,7813.0,33.88009262084961,743,9943.0
9720,0.2628183960914612,1.4295258522033691,99,7813.0,61.05417251586914,1114,9943.0
9730,0.26451575756073,3.2379555702209473,116,7813.0,68.28949737548828,1201,9943.0
9740,0.2664128541946411,15.769876480102539,370,7813.0,55.79240417480469,771,9943.0
9750,0.2680247724056244,25.998958587646484,375,7813.0,40.25971984863281,618,9943.0
9760,0.26908808946609497,31.23094367980957,587,7813.0,30.090682983398438,534,9943.0
9770,0.2703823447227478,31.45606803894043,438,7813.0,22.952476501464844,183,9943.0
9780,0.27177339792251587,24.069438934326172,422,7813.0,5.858098983764648,122,9943.0
9790,0.2717057466506958,13.752372741699219,100,7813.0,-9.229426383972168,-335,9943.0
9800,0.2725902199745178,-9.662933349609375,-286,7813.0,-28.425846099853516,-407,9943.0
9810,0.2733888030052185,-31.663314819335938,-601,7813.0,-45.64458465576172,-902,9943.0
9820,0.27381405234336853,-40.52309036254883,-625,7813.0,-55.18667221069336,-794,9943.0
9830,0.27408885955810547,-31.937654495239258,-499,7813.0,-58.64670181274414,-1027,9943.0
9840,0.27443408966064453,-13.81828498840332,-118,7813.0,-58.51380157470703,-814,9943.0
9850,0.2750033438205719,1.0903273820877075,40,7813.0,-47.82316207885742,-828,9943.0
9860,0.2758520245552063,12.039642333984375,245,7813.0,-34.79868698120117,-396,9943.0
9870,0.2762181758880615,18.869218826293945,304,7813.0,-18.80980110168457,-287,9943.0
9880,0.2768094837665558,27.043354034423828,592,7813.0,-0.0615052692592144,45,9943.0
9890,0.2777554392814636,32.07563400268555,424,7813.0,20.26397132873535,461,9943.0
9900,0.2788015305995941,15.98928165435791,227,7813.0,43.81670379638672,751,9943.0
9910,0.27989503741264343,1.0454243421554565,-10,7813.0,60.17745590209961,1140,9943.0
9920,0.2797105014324188,-7.923131465911865,-131,7813.0,73.25090026855469,1083,9943.0
9930,0.28032538294792175,-2.9849512577056885,-25,7813.0,69.75603485107422,1114,9943.0
9940,0.2812342047691345,7.519470691680908,280,7813.0,47.192649841308594,655,9943.0
9950,0.2815931737422943,13.064752578735352,157,7813.0,22.484800338745117,121,9943.0
9960,0.2818441092967987,19.089548110961914,314,7813.0,-6.379791259765625,-93,9943.0
9970,0.2825281620025635,5.211104393005371,12,7813.0,-30.490962982177734,-631,9943.0
9980,0.28237178921699524,-19.022863388061523,-474,7813.0,-45.61032485961914,-714,9943.0
9990,0.2825658917427063,-34.89030075073242,-535,7813.0,-54.39856719970703,-892,9943.0
10000,0.282646507024765,-41.1338996887207,-731,7813.0,-51.28468704223633,-901,9943.0
10010,0.283120334148407,-44.78495788574219,-677,7813.0,-33.14944839477539,-337,9943.0
10020,0.2830776572227478,-34.060482025146484,-487,7813.0,-12.767916679382324,-207,9943.0
10030,0.28316113352775574,-6.195324420928955,10,7813.0,-2.437488079071045,-53,9943.0
10040,0.2831590473651886,27.393091201782227,624,7813.0,-1.0495764017105103,139,9943.0
10050,0.2824593484401703,54.95487594604492,951,7813.0,6.71144962310791,36,9943.0
10060,0.282538503408432,57.67458724975586,800,7813.0,0.22990615665912628,-27,9943.0
10070,0.2831481695175171,45.76252365112305,723,7813.0,-11.414873123168945,-149,9943.0
10080,0.2835344970226288,34.86600875854492,440,7813.0,-11.043356895446777,-249,9943.0
10090,0.28397253155708313,27.199817657470703,441,7813.0,-7.27584981918335,84,9943.0
10100,0.28420570492744446,22.132915496826172,289,7813.0,8.024656295776367,77,9943.0
10110,0.284892737865448,14.987585067749023,195,7813.0,25.00722312927246,572,9943.0
10120,0.28525495529174805,5.126518726348877,39,7813.0,36.27031707763672,438,9943.0
10130,0.28538379073143005,-5.631165504455566,-115,7813.0,34.15072250366211,648,9943.0
10140,0.28423619270324707,-14.110512733459473,-199,7813.0,22.663084030151367,248,9943.0
10150,0.2842496931552887,-24.908550262451172,-554,7813.0,7.364929676055908,-4,9943.0
10160,0.28415048122406006,-33.90351486206055,-609,7813.0,-6.599396705627441,-52,9943.0
10170,0.2844439148902893,-41.92512893676758,-679,7813.0,-22.177433013916016,-499,9943.0
10180,0.28433769941329956,-39.92753982543945,-588,7813.0,-39.77452087402344,-833,9943.0
10190,0.2853426933288574,-25.072649002075195,-358,7813.0,-54.52006149291992,-856,9943.0
10200,0.28523871302604675,-6.551239013671875,113,7813.0,-55.54892349243164,-921,9943.0
10210,0.2851773202419281,21.55228614807129,413,7813.0,-44.10456085205078,-730,9943.0
10220,0.28557711839675903,37.11261749267578,721,7813.0,-29.862369537353516,-320,9943.0
10230,0.2869793772697449,42.90630340576172,599,7813.0,-11.033035278320312,-187,9943.0
10240,0.28763827681541443,35.846031188964844,647,7813.0,2.5135557651519775,211,9943.0
10250,0.2883668839931488,34.89278793334961,515,7813.0,12.024239540100098,190,9943.0
10260,0.28900766372680664,30.930110931396484,516,7813.0,23.245243072509766,413,9943.0
10270,0.2907438576221466,20.14728546142578,142,7813.0,30.979217529296875,561,9943.0
10280,0.2914874851703644,0.05750471353530884,-12,7813.0,40.067771911621094,677,9943.0
10290,0.2922666072845459,-8.976072311401367,-216,7813.0,37.40886306762695,573,9943.0
10300,0.2925638258457184,-14.052969932556152,-315,7813.0,36.1173210144043,631,9943.0
10310,0.2934707701206207,-32.74188232421875,-610,7813.0,28.057504653930664,344,9943.0
10320,0.2936163544654846,-47.006221771240234,-812,7813.0,14.232569694519043,187,9943.0
10330,0.294195294380188,-53.08607482910156,-872,7813.0,-4.698639392852783,-293,9943.0
10340,0.2943849265575409,-49.53285598754883,-741,7813.0,-22.468425750732422,-469,9943.0
10350,0.29423320293426514,-29.395790100097656,-286,7813.0,-32.46408462524414,-466,9943.0
10360,0.2952823042869568,-10.626115798950195,-162,7813.0,-36.40674591064453,-754,9943.0
10370,0.2954915165901184,-3.862567186355591,-69,7813.0,-41.76045227050781,-634,9943.0
10380,0.2957225441932678,3.6424670219421387,61,7813.0,-43.50352478027344,-780,9943.0
10390,0.2959427833557129,12.23900318145752,273,7813.0,-36.513084411621094,-462,9943.0
10400,0.296395868062973,14.564352989196777,182,7813.0,-21.66478157043457,-402,9943.0
10410,0.29643943905830383,8.592580795288086,18,7813.0,-1.161119818687439,203,9943.0
10420,0.29705676436424255,-1.463521122932434,-74,7813.0,20.5880069732666,338,9943.0
10430,0.2978906035423279,-5.733103275299072,-86,7813.0,34.559173583984375,745,9943.0
10440,0.2986406683921814,-4.451188087463379,-52,7813.0,43.17576217651367,574,9943.0
10450,0.2981233596801758,-0.10049862414598465,-23,7813.0,45.70420837402344,821,9943.0
10460,0.2987739145755768,0.5450078845024109,90,7813.0,35.80473327636719,542,9943.0
10470,0.29967057704925537,9.613664627075195,156,7813.0,26.63282012939453,311,9943.0
10480,0.3003125786781311,16.74958038330078,366,7813.0,11.077820777893066,226,9943.0
10490,0.30162104964256287,18.809818267822266,344,7813.0,4.508788108825684,-39,9943.0
10500,0.3021373748779297,10.503263473510742,130,7813.0,0.17315703630447388,22,9943.0
10510,0.30261102318763733,2.3886685371398926,95,7813.0,-9.018712997436523,-197,9943.0
10520,0.3029683530330658,-8.489566802978516,-302,7813.0,-7.167358875274658,-180,9943.0
10530,0.3032832443714142,-16.372812271118164,-205,7813.0,-4.580690383911133,29,9943.0
10540,0.30417826771736145,-11.936117172241211,-143,7813.0,-5.535736560821533,-261,9943.0
10550,0.30448612570762634,-0.6276559233665466,54,7813.0,-9.892027854919434,-51,9943.0
10560,0.3048572242259979,11.264507293701172,230,7813.0,-12.95244312286377,-267,9943.0
10570,0.3051450848579407,17.312429428100586,272,7813.0,-18.955533981323242,-289,9943.0
10580,0.30646732449531555,16.825111389160156,302,7813.0,-27.054271697998047,-510,9943.0
10590,0.3069266676902771,8.264740943908691,61,7813.0,-27.928821563720703,-390,9943.0
10600,0.307624876499176,-9.74447250366211,-229,7813.0,-23.274274826049805,-443,9943.0
10610,0.30843445658683777,-25.312297821044922,-451,7813.0,-17.33224868774414,-215,9943.0
10620,0.30930161476135254,-21.740131378173828,-328,7813.0,1.080278992652893,51,9943.0
10630,0.31056708097457886,-15.526633262634277,-172,7813.0,17.700542449951172,427,9943.0
10640,0.31167280673980713,-1.6573303937911987,33,7813.0,30.259265899658203,478,9943.0
10650,0.312723845243454,18.09268569946289,370,7813.0,48.79477310180664,969,9943.0
10660,0.313798189163208,29.601234436035156,545,7813.0,65.4822769165039,1088,9943.0
10670,0.31464412808418274,37.723018646240234,553,7813.0,63.40950393676758,1012,9943.0
10680,0.3152082562446594,39.525726318359375,699,7813.0,41.70577621459961,570,9943.0
10690,0.3178327977657318,35.64733123779297,560,7813.0,11.707337379455566,-28,9943.0
10700,0.3186001181602478,28.276758193969727,410,7813.0,-15.23136043548584,-265,9943.0
10710,0.3192864954471588,17.30463981628418,290,7813.0,-29.104055404663086,-555,9943.0
10720,0.3198825716972351,5.482182502746582,-2,7813.0,-38.710208892822266,-633,9943.0
10730,0.32083848118782043,0.2090989202260971,6,7813.0,-46.173709869384766,-807,9943.0
10740,0.32163721323013306,-4.468496799468994,-145,7813.0,-42.00586700439453,-537,9943.0
10750,0.32258084416389465,-10.726950645446777,-160,7813.0,-34.167842864990234,-621,9943.0
10760,0.32260262966156006,-15.169190406799316,-237,7813.0,-23.357280731201172,-227,9943.0
10770,0.32386279106140137,-20.27527618408203,-425,7813.0,-0.5233924984931946,62,9943.0
10780,0.32499828934669495,-25.08731460571289,-316,7813.0,16.616310119628906,364,9943.0
10790,0.32614198327064514,-10.835172653198242,-157,7813.0,26.90915870666504,548,9943.0
10800,0.32553184032440186,3.755552053451538,138,7813.0,31.876035690307617,408,9943.0
10810,0.3264366388320923,7.475816249847412,113,7813.0,33.143165588378906,659,9943.0
10820,0.3270924389362335,6.782370090484619,112,7813.0,30.513572692871094,423,9943.0
10830,0.32757580280303955,0.2941427528858185,-37,7813.0,24.536413192749023,485,9943.0
10840,0.32793304324150085,-3.1938846111297607,-93,7813.0,28.68387222290039,447,9943.0
10850,0.32604917883872986,-1.143306851387024,14,7813.0,26.926607131958008,482,9943.0
10860,0.3259243071079254,1.128197193145752,59,7813.0,14.097593307495117,-80,9943.0
10870,0.32576853036880493,-1.008742094039917,-72,7813.0,-11.45819091796875,-191,9943.0
10880,0.3256642520427704,-7.030462265014648,-151,7813.0,-28.547788619995117,-587,9943.0
10890,0.3237657845020294,-9.641668319702148,-267,7813.0,-34.604164123535156,-517,9943.0
10900,0.32342302799224854,-17.825075149536133,-352,7813.0,-37.25767135620117,-685,9943.0
10910,0.32306480407714844,-25.69434356689453,-438,7813.0,-33.97332000732422,-457,9943.0
10920,0.32274046540260315,-26.368268966674805,-437,7813.0,-33.5728874206543,-642,9943.0
10930,0.32145634293556213,-17.515031814575195,-111,7813.0,-43.086727142333984,-698,9943.0
10940,0.3212682902812958,1.151639461517334,23,7813.0,-47.038150787353516,-743,9943.0
10950,0.32098308205604553,8.395130157470703,141,7813.0,-31.45765495300293,-315,9943.0
10960,0.32069435715675354,1.0245320796966553,-51,7813.0,7.920975208282471,464,9943.0
10970,0.3202821910381317,-6.355931758880615,-168,7813.0,35.696502685546875,587,9943.0
10980,0.31860315799713135,-14.034797668457031,-239,7813.0,47.451786041259766,918,9943.0
10990,0.3179210424423218,-10.686263084411621,-178,7813.0,57.86396789550781,969,9943.0
11000,0.316817045211792,4.546603679656982,211,7813.0,60.313438415527344,882,9943.0
11010,0.31579726934432983,20.739412307739258,424,7813.0,45.731197357177734,704,9943.0
11020,0.3141644299030304,32.13529968261719,534,7813.0,10.232287406921387,-100,9943.0
11030,0.3131789565086365,38.43873977661133,570,7813.0,-29.1286563873291,-590,9943.0
11040,0.31266024708747864,29.66498374938965,462,7813.0,-55.05713653564453,-848,9943.0
11050,0.31105366349220276,15.180323600769043,193,7813.0,-58.69125747680664,-1064,9943.0
11060,0.31048956513404846,1.2389146089553833,-88,7813.0,-53.54905319213867,-849,9943.0
11070,0.31005150079727173,-17.47882080078125,-283,7813.0,-42.1386833190918,-638,9943.0
11080,0.3094041645526886,-27.714282989501953,-516,7813.0,-37.69749450683594,-698,9943.0
11090,0.30906495451927185,-33.908748626708984,-533,7813.0,-38.27233123779297,-520,9943.0
11100,0.30865660309791565,-33.43291091918945,-522,7813.0,-31.199665069580078,-579,9943.0
11110,0.3067786693572998,-23.439865112304688,-340,7813.0,-22.169591903686523,-201,9943.0
11120,0.3064848780632019,-7.577054500579834,-31,7813.0,1.1307951211929321,126,9943.0
11130,0.3070642650127411,1.1692739725112915,-40,7813.0,25.818246841430664,425,9943.0
11140,0.3072371780872345,0.6600031852722168,52,7813.0,44.598968505859375,914,9943.0
11150,0.3072136342525482,-3.3346521854400635,18,7813.0,59.43291473388672,1003,9943.0
11160,0.3072490096092224,2.6384055614471436,22,7813.0,58.49174880981445,867,9943.0
11170,0.3075799345970154,12.632801055908203,215,7813.0,47.17171859741211,637,9943.0
11180,0.30810269713401794,23.69416046142578,437,7813.0,30.9498291015625,490,9943.0
11190,0.30838003754615784,31.037052154541016,533,7813.0,15.614640235900879,247,9943.0
11200,0.3099850118160248,35.08905792236328,548,7813.0,6.688260555267334,-89,9943.0
11210,0.31046611070632935,24.35973358154297,332,7813.0,-7.8225579261779785,-273,9943.0
11220,0.3115232586860657,6.842251300811768,40,7813.0,-26.01919174194336,-366,9943.0
11230,0.31227073073387146,-11.693074226379395,-197,7813.0,-38.9688720703125,-693,9943.0
11240,0.3141155540943146,-24.575223922729492,-502,7813.0,-40.776123046875,-680,9943.0
11250,0.3148215115070343,-36.3388557434082,-580,7813.0,-33.01729965209961,-410,9943.0
11260,0.3158126175403595,-37.13102340698242,-543,7813.0,-25.43119239807129,-456,9943.0
11270,0.31687939167022705,-34.85891342163086,-587,7813.0,-22.60167694091797,-358,9943.0
11280,0.3178384602069855,-23.845094680786133,-239,7813.0,-17.625682830810547,-175,9943.0
11290,0.3211817741394043,-2.229363203048706,-1,7813.0,6.6217546463012695,186,9943.0
11300,0.3227667212486267,7.975062847137451,160,7813.0,24.441375732421875,534,9943.0
11310,0.3243334889411926,10.937493324279785,167,7813.0,41.20845413208008,700,9943.0
11320,0.32584038376808167,19.253816604614258,315,7813.0,52.02266311645508,892,9943.0
11330,0.32834574580192566,32.97954559326172,679,7813.0,55.78351974487305,984,9943.0
11340,0.3301337957382202,36.81680679321289,514,7813.0,57.05836486816406,783,9943.0
11350,0.3312462866306305,23.539743423461914,349,7813.0,46.63035583496094,846,9943.0
11360,0.3325595557689667,1.5964925289154053,-47,7813.0,23.743568420410156,118,9943.0
11370,0.334425151348114,-15.728882789611816,-353,7813.0,-15.55244255065918,-436,9943.0
11380,0.33575698733329773,-28.278139114379883,-464,7813.0,-53.30707550048828,-914,9943.0
11390,0.3367847800254822,-37.73173522949219,-657,7813.0,-73.5803451538086,-1288,9943.0
11400,0.33789995312690735,-40.057106018066406,-694,7813.0,-78.46571350097656,-1193,9943.0
11410,0.33885785937309265,-37.19280242919922,-527,7813.0,-65.72565460205078,-970,9943.0
11420,0.34130793809890747,-24.393110275268555,-377,7813.0,-37.80048751831055,-418,9943.0
11430,0.34232673048973083,-11.81351375579834,-145,7813.0,-10.288374900817871,-79,9943.0
11440,0.3435554802417755,-1.7405471801757812,-63,7813.0,11.335570335388184,308,9943.0
11450,0.34508100152015686,1.9581713676452637,134,7813.0,27.708311080932617,493,9943.0
11460,0.34539684653282166,3.762389659881592,-20,7813.0,36.14516067504883,601,9943.0
11470,0.34675437211990356,3.861546277999878,114,7813.0,35.90164566040039,649,9943.0
11480,0.3480696678161621,7.437471389770508,103,7813.0,30.476499557495117,406,9943.0
11490,0.34924253821372986,15.842464447021484,289,7813.0,32.05242156982422,597,9943.0
11500,0.35020115971565247,28.908784866333008,562,7813.0,37.7048225402832,593,9943.0
11510,0.35018667578697205,43.66674041748047,697,7813.0,41.88060760498047,768,9943.0
11520,0.35071122646331787,42.70939636230469,721,7813.0,47.01739501953125,746,9943.0
11530,0.3511306345462799,33.45437240600586,437,7813.0,34.15296173095703,333,9943.0
11540,0.3519631624221802,21.909198760986328,312,7813.0,8.9216890335083,116,9943.0
11550,0.3499149680137634,8.838082313537598,-3,7813.0,-20.91875648498535,-581,9943.0
11560,0.3497972786426544,-11.663348197937012,-276,7813.0,-40.78836441040039,-622,9943.0
11570,0.3496765196323395,-29.195268630981445,-516,7813.0,-44.61399459838867,-794,9943.0
11580,0.34924009442329407,-40.09907531738281,-730,7813.0,-41.534271240234375,-605,9943.0
11590,0.34843915700912476,-38.767295837402344,-577,7813.0,-37.36468505859375,-662,9943.0
11600,0.34787967801094055,-28.51091766357422,-399,7813.0,-37.97639465332031,-503,9943.0
11610,0.3473397493362427,-8.431936264038086,57,7813.0,-28.52607536315918,-357,9943.0
11620,0.3468647301197052,12.41648006439209,313,7813.0,-20.88966941833496,-421,9943.0
11630,0.3468366265296936,26.385093688964844,503,7813.0,-10.494917869567871,39,9943.0
11640,0.3461047112941742,24.743244171142578,296,7813.0,5.157928466796875,80,9943.0
11650,0.34578457474708557,14.507844924926758,162,7813.0,10.509936332702637,312,9943.0
11660,0.3454073667526245,7.279744625091553,89,7813.0,21.652179718017578,326,9943.0
11670,0.34485554695129395,11.013664245605469,254,7813.0,42.33052062988281,879,9943.0
11680,0.3453024625778198,14.025876998901367,353,7813.0,58.299137115478516,973,9943.0
11690,0.34450268745422363,16.15045738220215,199,7813.0,65.50895690917969,971,9943.0
11700,0.3436060845851898,16.039636611938477,288,7813.0,55.22918701171875,870,9943.0
11710,0.3433181941509247,17.451221466064453,316,7813.0,35.0632209777832,617,9943.0
11720,0.3423978090286255,13.841816902160645,202,7813.0,10.686387062072754,10,9943.0
11730,0.3420330286026001,9.432368278503418,110,7813.0,-20.760038375854492,-547,9943.0
11740,0.3415159285068512,2.5156137943267822,-12,7813.0,-52.31074523925781,-1064,9943.0
11750,0.34059980511665344,-5.368155479431152,-105,7813.0,-73.28047943115234,-1127,9943.0
11760,0.33986222743988037,-15.919229507446289,-225,7813.0,-67.41519165039062,-1072,9943.0
11770,0.33942005038261414,-17.29134178161621,-307,7813.0,-57.446475982666016,-969,9943.0
11780,0.3387438654899597,-13.10218334197998,-114,7813.0,-46.57775115966797,-638,9943.0
11790,0.3384207785129547,-3.0448994636535645,1,7813.0,-29.72158432006836,-450,9943.0
11800,0.33810651302337646,6.008115291595459,11,7813.0,-6.149649620056152,93,9943.0
11810,0.3374709486961365,8.354958534240723,238,7813.0,13.94560718536377,366,9943.0
11820,0.3374115526676178,19.766572952270508,298,7813.0,25.632678985595703,338,9943.0
11830,0.33719339966773987,29.19898223876953,506,7813.0,30.873022079467773,580,9943.0
11840,0.337041974067688,37.947669982910156,690,7813.0,35.077911376953125,665,9943.0
11850,0.33681756258010864,36.76129150390625,540,7813.0,44.45439910888672,669,9943.0
11860,0.33640775084495544,26.39051628112793,303,7813.0,49.83560562133789,871,9943.0
11870,0.33653524518013,5.1637725830078125,66,7813.0,44.11377716064453,776,9943.0
11880,0.33617496490478516,-14.105854034423828,-351,7813.0,32.51141357421875,453,9943.0
11890,0.3359396755695343,-31.665935516357422,-621,7813.0,13.60810661315918,8,9943.0
11900,0.3373546600341797,-37.020652770996094,-671,7813.0,-14.049674987792969,-370,9943.0
11910,0.3372313976287842,-29.582256317138672,-401,7813.0,-48.10211181640625,-841,9943.0
11920,0.3370952606201172,-15.376361846923828,-165,7813.0,-73.34941864013672,-1176,9943.0
11930,0.3367712199687958,-2.3256020545959473,-71,7813.0,-75.2029800415039,-1188,9943.0
11940,0.33673030138015747,-1.0984067916870117,-70,7813.0,-54.48417282104492,-793,9943.0
11950,0.33693352341651917,-2.188284158706665,14,7813.0,-27.02045440673828,-255,9943.0
11960,0.33739569783210754,0.6748655438423157,-2,7813.0,2.6942973136901855,83,9943.0
11970,0.3376151919364929,0.8597592711448669,24,7813.0,19.350696563720703,363,9943.0
11980,0.33796340227127075,8.66950798034668,201,7813.0,24.896987915039062,529,9943.0
11990,0.3379484713077545,23.2823543548584,447,7813.0,23.853376388549805,261,9943.0
12000,0.3383066654205322,29.806489944458008,377,7813.0,19.70796775817871,336,9943.0
12010,0.33872807025909424,22.519994735717773,448,7813.0,16.063308715820312,290,9943.0
12020,0.3388577103614807,8.524601936340332,81,7813.0,9.445363998413086,78,9943.0
12030,0.3394192159175873,-9.06528091430664,-223,7813.0,10.878157615661621,171,9943.0
12040,0.33960771560668945,-19.930835723876953,-328,7813.0,10.834354400634766,268,9943.0
12050,0.3398157060146332,-26.435575485229492,-423,7813.0,8.662797927856445,60,9943.0
12060,0.33986538648605347,-25.9266414642334,-517,7813.0,6.531794548034668,106,9943.0
12070,0.33980485796928406,-21.80866050720215,-272,7813.0,3.6535744667053223,96,9943.0
12080,0.3418949246406555,-12.728204727172852,-235,7813.0,-5.807082176208496,-106,9943.0
12090,0.34184765815734863,-7.3009819984436035,-146,7813.0,-14.805964469909668,-383,9943.0
12100,0.3419129252433777,-3.6068944931030273,-129,7813.0,-16.953250885009766,-240,9943.0
12110,0.34196794033050537,-7.282930850982666,-74,7813.0,-12.005653381347656,-42,9943.0
12120,0.34210798144340515,-9.586701393127441,-251,7813.0,-4.183487415313721,-130,9943.0
12130,0.3423283100128174,-11.213375091552734,-217,7813.0,0.776592493057251,59,9943.0
12140,0.3426735997200012,-14.262413024902344,-174,7813.0,-4.2403645515441895,-105,9943.0
12150,0.34311097860336304,-15.67226505279541,-316,7813.0,-8.276318550109863,-205,9943.0
12160,0.3440326750278473,-10.813698768615723,-112,7813.0,-10.286340713500977,-40,9943.0
12170,0.34387096762657166,-0.8760033845901489,86,7813.0,-5.886970043182373,-123,9943.0
12180,0.3445262312889099,12.79732608795166,239,7813.0,-5.021584987640381,-54,9943.0
12190,0.3451597988605499,18.827144622802734,339,7813.0,-3.0239005088806152,39,9943.0
12200,0.3458287715911865,9.545461654663086,-59,7813.0,4.767613410949707,95,9943.0
12210,0.34676721692085266,-7.985175132751465,-47,7813.0,14.410433769226074,391,9943.0
12220,0.3471306562423706,-4.9919538497924805,-84,7813.0,24.506793975830078,399,9943.0
12230,0.34733062982559204,-3.2546918392181396,-135,7813.0,33.99100875854492,656,9943.0
12240,0.3472544848918915,-1.1133989095687866,93,7813.0,33.15576171875,535,9943.0
12250,0.3491705656051636,7.689145565032959,100,7813.0,24.01421546936035,289,9943.0
12260,0.3492033779621124,14.687788963317871,184,7813.0,16.23344612121582,257,9943.0
12270,0.34932467341423035,6.373548984527588,122,7813.0,5.905075550079346,-14,9943.0
12280,0.3495042026042938,-4.5815582275390625,-198,7813.0,-14.31658935546875,-438,9943.0
12290,0.35001954436302185,-21.606975555419922,-427,7813.0,-32.977256774902344,-502,9943.0
12300,0.3530886769294739,-33.64963150024414,-594,7813.0,-48.522239685058594,-995,9943.0
12310,0.3535152077674866,-37.81805419921875,-551,7813.0,-50.70707321166992,-707,9943.0
12320,0.3540588915348053,-32.56106185913086,-610,7813.0,-31.65117073059082,-431,9943.0
12330,0.35429587960243225,-31.09324836730957,-490,7813.0,-14.202434539794922,-161,9943.0
12340,0.35348162055015564,-32.238590240478516,-570,7813.0,-17.10462760925293,-373,9943.0
12350,0.35389214754104614,-25.472875595092773,-387,7813.0,-15.245121002197266,-112,9943.0
12360,0.3539796471595764,-3.7635834217071533,134,7813.0,10.445380210876465,317,9943.0
12370,0.3542441129684448,27.26727867126465,503,7813.0,33.71213912963867,485,9943.0
12380,0.35437658429145813,36.175079345703125,567,7813.0,41.56653594970703,729,9943.0
12390,0.35446518659591675,24.413190841674805,389,7813.0,36.856910705566406,576,9943.0
12400,0.3543938398361206,2.025956630706787,-93,7813.0,22.673181533813477,265,9943.0
12410,0.3544698655605316,-19.580421447753906,-410,7813.0,8.365435600280762,84,9943.0
12420,0.3542154133319855,-32.818302154541016,-533,7813.0,-4.851396560668945,-53,9943.0
12430,0.3542998433113098,-38.27425765991211,-586,7813.0,-8.291007041931152,-157,9943.0
12440,0.3542441129684448,-31.914501190185547,-472,7813.0,-9.483000755310059,-345,9943.0
12450,0.35417476296424866,-12.5033540725708,-119,7813.0,-9.381119728088379,-124,9943.0
12460,0.35420119762420654,13.14408016204834,373,7813.0,0.11289514601230621,112,9943.0
12470,0.35405853390693665,36.03561782836914,641,7813.0,2.9184114933013916,35,9943.0
12480,0.35424724221229553,43.147464752197266,687,7813.0,-3.4987001419067383,-78,9943.0
12490,0.3545033931732178,36.813480377197266,539,7813.0,-7.995672702789307,-307,9943.0
12500,0.354949027299881,25.97834587097168,380,7813.0,-10.895819664001465,-139,9943.0
12510,0.35546430945396423,15.95715045928955,272,7813.0,-6.570239543914795,-100,9943.0
12520,0.35693687200546265,6.280554294586182,46,7813.0,-3.748157501220703,-216,9943.0
12530,0.3574598431587219,1.6182975769042969,61,7813.0,-5.004073619842529,17,9943.0
12540,0.35790759325027466,10.947844505310059,377,7813.0,1.6340501308441162,37,9943.0
12550,0.3584161102771759,27.010498046875,438,7813.0,9.523791313171387,101,9943.0
12560,0.3601106107234955,32.42353820800781,520,7813.0,8.617152214050293,232,9943.0
12570,0.36039385199546814,18.60519790649414,244,7813.0,16.326622009277344,152,9943.0
12580,0.36060115694999695,8.912818908691406,113,7813.0,16.025663375854492,319,9943.0
12590,0.3606584966182709,4.012403964996338,65,7813.0,13.39432430267334,251,9943.0
12600,0.3606128990650177,0.9194800853729248,-20,7813.0,11.6981782913208,159,9943.0
12610,0.3610341548919678,0.13048040866851807,-18,7813.0,9.393428802490234,235,9943.0
12620,0.36084869503974915,1.469561219215393,70,7813.0,8.047584533691406,99,9943.0
12630,0.3605634272098541,6.985532760620117,143,7813.0,2.6523659229278564,-66,9943.0
12640,0.3602670431137085,18.081493377685547,393,7813.0,-8.628432273864746,-128,9943.0
12650,0.3610853850841522,26.030298233032227,510,7813.0,-10.991697311401367,-218,9943.0
12660,0.36085429787635803,23.455970764160156,310,7813.0,-13.17006778717041,-214,9943.0
12670,0.3605887293815613,10.33709716796875,150,7813.0,-15.456363677978516,-225,9943.0
12680,0.3602922558784485,-6.683773040771484,-189,7813.0,-12.879749298095703,-312,9943.0
12690,0.36035045981407166,-17.723743438720703,-263,7813.0,-6.294841289520264,18,9943.0
12700,0.3599613308906555,-19.32914924621582,-330,7813.0,1.2224336862564087,12,9943.0
12710,0.35957616567611694,-15.463092803955078,-230,7813.0,7.814298629760742,210,9943.0
12720,0.3591606020927429,1.5901716947555542,178,7813.0,10.28836727142334,227,9943.0
12730,0.3586430847644806,17.55727195739746,304,7813.0,13.919499397277832,144,9943.0
12740,0.35929760336875916,23.917579650878906,361,7813.0,19.461793899536133,379,9943.0
12750,0.358626127243042,28.32975959777832,509,7813.0,24.602447509765625,499,9943.0
12760,0.3577998876571655,25.06092643737793,403,7813.0,27.532901763916016,405,9943.0
12770,0.3567458689212799,18.30974769592285,168,7813.0,19.357206344604492,217,9943.0
12780,0.35662510991096497,10.660198211669922,159,7813.0,4.380657196044922,145,9943.0
12790,0.355692058801651,1.4009541273117065,67,7813.0,-11.464996337890625,-295,9943.0
12800,0.35495874285697937,-1.3476201295852661,-80,7813.0,-24.177757263183594,-470,9943.0
12810,0.35420340299606323,-4.603036880493164,-55,7813.0,-29.728403091430664,-307,9943.0
12820,0.35351625084877014,-9.620649337768555,-164,7813.0,-21.74333381652832,-365,9943.0
12830,0.3526913821697235,-17.988454818725586,-453,7813.0,-14.923992156982422,-237,9943.0
12840,0.3521316945552826,-30.261075973510742,-511,7813.0,-13.900574684143066,-176,9943.0
12850,0.35157832503318787,-36.70899200439453,-679,7813.0,-9.345176696777344,-239,9943.0
12860,0.3516724109649658,-32.91572189331055,-472,7813.0,-6.944520473480225,-55,9943.0
12870,0.3513490855693817,-21.60723304748535,-241,7813.0,-1.1871724128723145,52,9943.0
12880,0.3512173593044281,-10.074819564819336,-149,7813.0,12.285002708435059,205,9943.0
12890,0.3512172996997833,1.207688808441162,47,7813.0,21.825790405273438,379,9943.0
12900,0.3511236310005188,14.68924617767334,356,7813.0,19.943145751953125,420,9943.0
12910,0.3514551520347595,29.113252639770508,577,7813.0,15.057604789733887,83,9943.0
12920,0.3514062166213989,34.23149108886719,553,7813.0,4.777182102203369,-12,9943.0
12930,0.35139980912208557,34.79201126098633,487,7813.0,-2.9134914875030518,-12,9943.0
12940,0.3512381613254547,20.573535919189453,323,7813.0,-10.480182647705078,-156,9943.0
12950,0.3511059880256653,1.6040157079696655,-56,7813.0,-2.89494252204895,73,9943.0
12960,0.3503643274307251,-7.433674335479736,-114,7813.0,3.350367307662964,-24,9943.0
12970,0.3501456677913666,-8.472832679748535,-225,7813.0,0.44815951585769653,27,9943.0
12980,0.349862277507782,-1.1238510608673096,85,7813.0,-3.334977865219116,26,9943.0
12990,0.3497197926044464,4.330332279205322,-11,7813.0,-0.36169666051864624,-99,9943.0
13000,0.34925708174705505,-4.32130765914917,-169,7813.0,-5.39039945602417,-46,9943.0
13010,0.3491995930671692,-27.97056770324707,-495,7813.0,-13.820368766784668,-309,9943.0
13020,0.34930717945098877,-43.994850158691406,-827,7813.0,-13.185591697692871,-147,9943.0
13030,0.34959396719932556,-44.84823989868164,-621,7813.0,-7.34906530380249,-124,9943.0
13040,0.3499939739704132,-37.15069580078125,-629,7813.0,-4.401759624481201,-59,9943.0
13050,0.34956881403923035,-27.483549118041992,-350,7813.0,-9.339397430419922,-109,9943.0
13060,0.35009270906448364,-7.222745418548584,-65,7813.0,-10.931374549865723,-227,9943.0
13070,0.35056522488594055,12.90056324005127,279,7813.0,-5.337601661682129,46,9943.0
13080,0.3511311709880829,19.672000885009766,345,7813.0,8.742635726928711,127,9943.0
13090,0.3516594171524048,22.7435302734375,361,7813.0,25.026283264160156,523,9943.0
13100,0.35223424434661865,19.340970993041992,263,7813.0,38.81626510620117,654,9943.0
13110,0.35264042019844055,7.816859245300293,66,7813.0,52.62942886352539,1055,9943.0
13120,0.3527331054210663,-8.082992553710938,-170,7813.0,55.89885711669922,785,9943.0
13130,0.35411933064460754,-17.255229949951172,-333,7813.0,43.255699157714844,671,9943.0
13140,0.3543928861618042,-19.362651824951172,-226,7813.0,18.748340606689453,189,9943.0
13150,0.354646235704422,-16.867883682250977,-381,7813.0,-8.749958038330078,-334,9943.0
13160,0.3546980023384094,-16.10033416748047,-228,7813.0,-38.776702880859375,-691,9943.0
13170,0.3546377420425415,-9.816617012023926,-94,7813.0,-69.71768188476562,-1331,9943.0
13180,0.35747870802879333,-2.529529333114624,-58,7813.0,-82.751220703125,-1239,9943.0
13190,0.35796499252319336,-1.7243847846984863,-32,7813.0,-70.40638732910156,-1166,9943.0
13200,0.35793307423591614,-10.481300354003906,-233,7813.0,-51.617767333984375,-624,9943.0
13210,0.35818907618522644,-21.339632034301758,-457,7813.0,-22.080198287963867,-325,9943.0
13220,0.3576568067073822,-31.8254451751709,-462,7813.0,6.417085647583008,234,9943.0
13230,0.3582667410373688,-33.59189224243164,-621,7813.0,30.456485748291016,643,9943.0
13240,0.3591003715991974,-24.000648498535156,-209,7813.0,45.93656921386719,764,9943.0
13250,0.3597780764102936,-1.295057773590088,50,7813.0,44.49100875854492,632,9943.0
13260,0.36066964268684387,24.534130096435547,540,7813.0,32.98774337768555,589,9943.0
13270,0.35932686924934387,31.938949584960938,443,7813.0,21.553499221801758,168,9943.0
13280,0.35975322127342224,22.7989559173584,398,7813.0,14.619269371032715,296,9943.0
13290,0.3600570857524872,14.901616096496582,177,7813.0,16.980241775512695,212,9943.0
13300,0.36035025119781494,2.353761911392212,-1,7813.0,17.366182327270508,369,9943.0
13310,0.3608609139919281,-3.674611806869507,-3,7813.0,20.669801712036133,260,9943.0
13320,0.36088791489601135,-2.5712599754333496,-99,7813.0,17.569597244262695,297,9943.0
13330,0.36094075441360474,-3.135938882827759,25,7813.0,6.7247538566589355,-49,9943.0
13340,0.36085009574890137,-5.359465599060059,-178,7813.0,-11.14638614654541,-253,9943.0
13350,0.3611413836479187,-11.992166519165039,-126,7813.0,-23.481122970581055,-453,9943.0
13360,0.36102616786956787,-13.573127746582031,-281,7813.0,-25.955331802368164,-380,9943.0
13370,0.36097487807273865,-9.263262748718262,-68,7813.0,-15.309364318847656,-183,9943.0
13380,0.36105093359947205,0.31691262125968933,-28,7813.0,-9.178760528564453,-137,9943.0
13390,0.36118924617767334,6.172392845153809,172,7813.0,-5.193969249725342,-39,9943.0
13400,0.3621930778026581,8.529500007629395,115,7813.0,-6.029972076416016,-189,9943.0
13410,0.3624730110168457,4.087078094482422,87,7813.0,-14.921943664550781,-270,9943.0
13420,0.36248624324798584,1.642026662826538,-33,7813.0,-19.716598510742188,-341,9943.0
13430,0.36274927854537964,2.005521059036255,97,7813.0,-10.765490531921387,-83,9943.0
13440,0.3607308566570282,-1.532863736152649,-57,7813.0,2.3951878547668457,47,9943.0
13450,0.36084678769111633,-3.5369503498077393,-28,7813.0,9.985716819763184,258,9943.0
13460,0.3608528971672058,-0.7069898843765259,-32,7813.0,16.012231826782227,324,9943.0
13470,0.36079925298690796,2.4576854705810547,80,7813.0,24.322450637817383,508,9943.0
13480,0.3607766032218933,5.409708023071289,129,7813.0,29.936471939086914,478,9943.0
13490,0.3602961599826813,10.366212844848633,142,7813.0,32.1691780090332,575,9943.0
13500,0.3600194454193115,17.884817123413086,408,7813.0,27.256757736206055,452,9943.0
13510,0.35953131318092346,26.81261444091797,449,7813.0,13.984716415405273,15,9943.0
13520,0.3592894375324249,34.56909942626953,508,7813.0,-9.612005233764648,-179,9943.0
13530,0.3596491515636444,35.1053352355957,647,7813.0,-25.65221405029297,-439,9943.0
13540,0.3591760993003845,29.50344467163086,329,7813.0,-31.503610610961914,-622,9943.0
13550,0.3585478663444519,14.87248706817627,187,7813.0,-37.09955596923828,-698,9943.0
13560,0.35799551010131836,-11.182881355285645,-476,7813.0,-51.6693229675293,-821,9943.0
13570,0.35747089982032776,-40.13883590698242,-725,7813.0,-58.32804489135742,-1020,9943.0
13580,0.35709306597709656,-56.6152458190918,-1039,7813.0,-56.84345626831055,-735,9943.0
13590,0.3566359877586365,-58.56055450439453,-840,7813.0,-38.40015411376953,-650,9943.0
13600,0.3572761118412018,-37.07744216918945,-420,7813.0,-22.450828552246094,-148,9943.0
13610,0.35701918601989746,-8.461130142211914,-43,7813.0,7.850133419036865,238,9943.0
13620,0.354926735162735,8.732091903686523,197,7813.0,28.76087760925293,504,9943.0
13630,0.35496917366981506,16.36021614074707,287,7813.0,45.15248489379883,784,9943.0
13640,0.35491469502449036,12.66363525390625,120,7813.0,56.01004409790039,856,9943.0
13650,0.3548502027988434,-0.23531274497509003,-20,7813.0,57.383216857910156,977,9943.0
13660,0.3540716767311096,-3.1387953758239746,77,7813.0,46.24158477783203,705,9943.0
13670,0.35391122102737427,10.319131851196289,261,7813.0,26.98725128173828,340,9943.0
13680,0.35408586263656616,30.411611557006836,565,7813.0,3.3294589519500732,-165,9943.0
13690,0.3539535701274872,50.07512283325195,892,7813.0,-17.258319854736328,-264,9943.0
13700,0.35373446345329285,55.28371810913086,900,7813.0,-27.06679916381836,-433,9943.0
13710,0.3525674343109131,31.976518630981445,396,7813.0,-29.042057037353516,-601,9943.0
13720,0.353086918592453,-3.0375547409057617,-155,7813.0,-24.404029846191406,-261,9943.0
13730,0.35309919714927673,-41.74225997924805,-921,7813.0,-17.64238739013672,-343,9943.0
13740,0.35315755009651184,-70.16938018798828,-1184,7813.0,-15.740124702453613,-153,9943.0
13750,0.35276085138320923,-75.71102142333984,-1166,7813.0,-3.5015339851379395,-19,9943.0
13760,0.3535699248313904,-62.69207763671875,-928,7813.0,2.739650011062622,-81,9943.0
13770,0.3540492355823517,-43.26669692993164,-649,7813.0,0.9112460017204285,76,9943.0
13780,0.3543185293674469,-18.851816177368164,-132,7813.0,8.210503578186035,278,9943.0
13790,0.3547234833240509,9.582256317138672,288,7813.0,18.179792404174805,265,9943.0
13800,0.35557252168655396,37.028404235839844,678,7813.0,20.392578125,283,9943.0
13810,0.35659322142601013,58.994319915771484,1037,7813.0,20.65517807006836,274,9943.0
13820,0.35721561312675476,68.93834686279297,1116,7813.0,21.479068756103516,414,9943.0
13830,0.3577413260936737,67.80743408203125,1123,7813.0,16.299402236938477,330,9943.0
13840,0.3569276034832001,56.86902618408203,880,7813.0,10.639491081237793,80,9943.0
13850,0.3576364815235138,51.896610260009766,741,7813.0,2.073998212814331,-47,9943.0
13860,0.357805460691452,41.53758239746094,687,7813.0,-11.748515129089355,-55,9943.0
13870,0.3580639362335205,21.180463790893555,204,7813.0,-10.01057243347168,-279,9943.0
13880,0.35897761583328247,-10.531526565551758,-316,7813.0,-8.933893203735352,-21,9943.0
13890,0.35944032669067383,-50.07645797729492,-917,7813.0,-1.9111456871032715,-81,9943.0
13900,0.35978975892066956,-75.84680938720703,-1318,7813.0,-1.399718999862671,-50,9943.0
13910,0.3599822223186493,-78.40315246582031,-1232,7813.0,-13.22289752960205,-158,9943.0
13920,0.36152321100234985,-61.830570220947266,-872,7813.0,-24.533462524414062,-496,9943.0
13930,0.362903892993927,-33.62849044799805,-501,7813.0,-38.59467697143555,-726,9943.0
13940,0.3638274073600769,2.4887943267822266,237,7813.0,-32.279632568359375,-514,9943.0
13950,0.36479252576828003,43.63274002075195,879,7813.0,-24.60515785217285,-336,9943.0
13960,0.3659752309322357,71.11480712890625,1189,7813.0,-22.937807083129883,-352,9943.0
13970,0.3650110363960266,78.99748229980469,1283,7813.0,-5.572011470794678,54,9943.0
13980,0.36554527282714844,72.60919952392578,1157,7813.0,17.845699310302734,388,9943.0
13990,0.366048663854599,56.365360260009766,805,7813.0,42.80705642700195,828,9943.0
14000,0.36652323603630066,30.61333465576172,406,7813.0,61.054893493652344,970,9943.0
14010,0.3670537769794464,5.63377046585083,-6,7813.0,61.200408935546875,927,9943.0
14020,0.3671491742134094,-7.6429338455200195,-113,7813.0,42.45473098754883,558,9943.0
