timestamp,kalman.stateZ,gyro.x,gyro.xRaw,gyro.xVariance,gyro.y,gyro.yRaw,gyro.yVariance
0,0.30870750546455383,-7.710363388061523,-129,7813.0,17.939760208129883,294,9943.0
10,0.30859243869781494,-8.435734748840332,-136,7813.0,17.153654098510742,268,9943.0
20,0.3084515929222107,-6.774413585662842,-91,7813.0,14.285289764404297,212,9943.0
30,0.30842408537864685,-2.1512036323547363,-4,7813.0,11.349443435668945,158,9943.0
40,0.30837440490722656,1.958078384399414,56,7813.0,7.915654182434082,116,9943.0
50,0.30849871039390564,5.056074142456055,106,7813.0,5.117855072021484,67,9943.0
60,0.3086039125919342,7.503145694732666,118,7813.0,1.99873948097229,21,9943.0
70,0.3087257742881775,6.099815368652344,78,7813.0,-0.8269330263137817,-21,9943.0
80,0.3082214891910553,2.5614852905273438,26,7813.0,-3.570082664489746,-67,9943.0
90,0.30821776390075684,0.3187417984008789,-5,7813.0,-4.768264293670654,-73,9943.0
100,0.30816590785980225,-1.5229239463806152,-30,7813.0,-2.9719080924987793,-24,9943.0
110,0.30805066227912903,-1.8867661952972412,-23,7813.0,2.1004512310028076,63,9943.0
120,0.3078685700893402,0.0790320485830307,10,7813.0,8.89276123046875,180,9943.0
130,0.30814629793167114,1.1064562797546387,15,7813.0,14.94056510925293,266,9943.0
140,0.3079192042350769,0.27087169885635376,4,7813.0,18.72085952758789,311,9943.0
150,0.30767667293548584,-1.5757185220718384,-31,7813.0,18.81825065612793,300,9943.0
160,0.30754050612449646,-4.180545330047607,-74,7813.0,16.126497268676758,251,9943.0
170,0.3078973889350891,-3.2470345497131348,-53,7813.0,11.30243968963623,162,9943.0
180,0.3079163432121277,-3.088512897491455,-46,7813.0,4.00685453414917,26,9943.0
190,0.30802300572395325,0.4518740475177765,39,7813.0,-6.229349613189697,-157,9943.0
200,0.3084701597690582,5.524646759033203,96,7813.0,-21.009876251220703,-419,9943.0
210,0.3088482618331909,10.377685546875,187,7813.0,-37.5475959777832,-703,9943.0
220,0.3095633387565613,10.956415176391602,199,7813.0,-57.001869201660156,-1031,9943.0
230,0.30985352396965027,8.367188453674316,175,7813.0,-77.55345153808594,-1369,9943.0
240,0.3098125457763672,7.561840057373047,88,7813.0,-99.47734832763672,-1673,9943.0
250,0.3102508783340454,4.760761260986328,13,7813.0,-113.40624237060547,-1945,9943.0
260,0.3109799921512604,-0.21775929629802704,-53,7813.0,-126.02820587158203,-2069,9943.0
270,0.31014910340309143,-1.0147714614868164,-114,7813.0,-130.63076782226562,-2001,9943.0
280,0.308923602104187,-6.74418306350708,-74,7813.0,-111.50780487060547,-1718,9943.0
290,0.31206014752388,-4.909825325012207,-80,7813.0,-75.11505126953125,-968,9943.0
300,0.3134729266166687,-7.316842555999756,-117,7813.0,-27.417577743530273,-282,9943.0
310,0.31379806995391846,-3.1791810989379883,-22,7813.0,22.079082489013672,532,9943.0
320,0.3141700327396393,2.558751344680786,72,7813.0,59.52338790893555,1227,9943.0
330,0.3155076205730438,9.32625961303711,204,7813.0,94.00776672363281,1631,9943.0
340,0.31622886657714844,7.67402458190918,58,7813.0,113.3109359741211,1789,9943.0
350,0.316654771566391,1.625849962234497,-43,7813.0,113.38920593261719,1947,9943.0
360,0.316733181476593,-2.2469780445098877,3,7813.0,100.9411392211914,1561,9943.0
370,0.31798863410949707,0.9208000898361206,26,7813.0,76.8537826538086,991,9943.0
380,0.3181951642036438,4.186163902282715,97,7813.0,35.38359069824219,358,9943.0
390,0.3167751431465149,8.536646842956543,163,7813.0,-10.829909324645996,-466,9943.0
400,0.3178527057170868,10.607649803161621,115,7813.0,-58.89433670043945,-1060,9943.0
410,0.31858107447624207,6.928095817565918,60,7813.0,-100.4655990600586,-1615,9943.0
420,0.31961488723754883,6.57103967666626,118,7813.0,-129.93658447265625,-2208,9943.0
430,0.3200394809246063,1.2176079750061035,22,7813.0,-151.74530029296875,-2729,9943.0
440,0.31705236434936523,-5.951892852783203,-102,7813.0,-167.875244140625,-2925,9943.0
450,0.3160494267940521,-15.054374694824219,-267,7813.0,-170.8230438232422,-2738,9943.0
460,0.32041966915130615,-21.885887145996094,-360,7813.0,-142.58120727539062,-2230,9943.0
470,0.3204929828643799,-19.346445083618164,-331,7813.0,-96.45085906982422,-1227,9943.0
480,0.32437753677368164,-15.100930213928223,-196,7813.0,-42.6005973815918,-364,9943.0
490,0.3270142078399658,-9.33821964263916,-22,7813.0,25.217010498046875,622,9943.0
500,0.329205185174942,3.1069393157958984,133,7813.0,84.14306640625,1787,9943.0
510,0.33066633343696594,11.993224143981934,144,7813.0,137.9208526611328,2373,9943.0
520,0.3322276473045349,12.737763404846191,364,7813.0,171.22552490234375,2827,9943.0
530,0.3325704336166382,17.673851013183594,287,7813.0,183.47491455078125,3041,9943.0
540,0.3337540030479431,13.048638343811035,61,7813.0,173.29202270507812,2855,9943.0
550,0.33353614807128906,8.010462760925293,13,7813.0,144.99447631835938,2256,9943.0
560,0.3333580195903778,0.05852286145091057,-110,7813.0,100.49870300292969,1436,9943.0
570,0.3263927400112152,-8.51035213470459,-183,7813.0,46.18452835083008,467,9943.0
580,0.32898908853530884,-13.680766105651855,-262,7813.0,-11.016054153442383,-530,9943.0
590,0.3301229774951935,-15.559731483459473,-257,7813.0,-64.40239715576172,-1238,9943.0
600,0.332097589969635,-6.241326808929443,-71,7813.0,-104.7249526977539,-1850,9943.0
610,0.3261130154132843,-2.658851385116577,36,7813.0,-146.04347229003906,-2577,9943.0
620,0.3271632790565491,4.761989116668701,143,7813.0,-169.9435272216797,-3088,9943.0
630,0.3274048864841461,13.911957740783691,315,7813.0,-178.72116088867188,-2957,9943.0
640,0.32619190216064453,18.85675621032715,331,7813.0,-161.83309936523438,-2282,9943.0
650,0.3301316201686859,20.6566219329834,361,7813.0,-121.11512756347656,-1688,9943.0
660,0.33340030908584595,18.087421417236328,217,7813.0,-72.96549224853516,-804,9943.0
670,0.33500367403030396,4.548349380493164,-5,7813.0,-11.712964057922363,173,9943.0
680,0.3370205760002136,-12.84714412689209,-330,7813.0,50.31919860839844,1186,9943.0
690,0.3395792245864868,-30.928197860717773,-529,7813.0,102.1842041015625,1843,9943.0
700,0.33873751759529114,-38.39939498901367,-689,7813.0,145.3749542236328,2560,9943.0
710,0.34000566601753235,-33.93480682373047,-440,7813.0,173.01901245117188,2917,9943.0
720,0.3403519093990326,-19.834922790527344,-281,7813.0,180.2950439453125,3047,9943.0
730,0.3398124873638153,-5.219546794891357,-107,7813.0,171.95419311523438,2737,9943.0
740,0.33214858174324036,9.804427146911621,213,7813.0,143.849365234375,1987,9943.0
750,0.3310990631580353,20.239309310913086,340,7813.0,99.08346557617188,1341,9943.0
760,0.3319520950317383,27.97062110900879,476,7813.0,48.25918960571289,443,9943.0
770,0.3334275186061859,18.478878021240234,363,7813.0,-12.866774559020996,-552,9943.0
780,0.3353976905345917,12.088841438293457,160,7813.0,-77.88829040527344,-1566,9943.0
790,0.32862746715545654,-1.2165900468826294,-88,7813.0,-142.05474853515625,-2590,9943.0
800,0.329972505569458,-9.484272003173828,-210,7813.0,-194.88844299316406,-3171,9943.0
810,0.3312006890773773,-15.321223258972168,-324,7813.0,-206.0201873779297,-3171,9943.0
820,0.3337775468826294,-11.514006614685059,-131,7813.0,-180.52676391601562,-2820,9943.0
830,0.3301883935928345,0.2625683844089508,92,7813.0,-135.433349609375,-2027,9943.0
840,0.3312985897064209,8.383275985717773,162,7813.0,-75.98593139648438,-1113,9943.0
850,0.3320522904396057,8.031797409057617,97,7813.0,-16.184419631958008,24,9943.0
860,0.33360427618026733,4.415707588195801,72,7813.0,33.3449821472168,838,9943.0
870,0.3342679738998413,-1.2015712261199951,-55,7813.0,76.84144592285156,1523,9943.0
880,0.3366217613220215,-6.6211771965026855,-36,7813.0,112.56094360351562,1801,9943.0
890,0.3368264138698578,-3.297919988632202,-64,7813.0,130.22677612304688,2145,9943.0
900,0.33636465668678284,-6.6792802810668945,-57,7813.0,130.9692840576172,1951,9943.0
910,0.3385457992553711,-7.081415176391602,-49,7813.0,114.41413116455078,1674,9943.0
920,0.33373990654945374,-7.058561325073242,-97,7813.0,81.09455871582031,1085,9943.0
930,0.33398428559303284,-6.316656589508057,-132,7813.0,36.5096321105957,392,9943.0
940,0.33495253324508667,-8.163215637207031,-85,7813.0,-7.201296806335449,-322,9943.0
950,0.3360617756843567,-5.9345197677612305,-25,7813.0,-59.99324417114258,-1197,9943.0
960,0.3289739787578583,-6.144048690795898,-59,7813.0,-108.16471099853516,-1970,9943.0
970,0.3295728266239166,-6.565597057342529,-62,7813.0,-138.1457061767578,-2355,9943.0
980,0.3299627900123596,-5.520920276641846,-109,7813.0,-140.85084533691406,-2302,9943.0
990,0.3324783444404602,2.7294511795043945,234,7813.0,-120.5002212524414,-2038,9943.0
1000,0.3337782025337219,18.856361389160156,278,7813.0,-90.39750671386719,-1191,9943.0
1010,0.33381807804107666,18.269405364990234,295,7813.0,-39.99143600463867,-362,9943.0
1020,0.3353267014026642,7.054266929626465,48,7813.0,18.161991119384766,535,9943.0
1030,0.33711686730384827,1.425649881362915,23,7813.0,69.04901885986328,1313,9943.0
1040,0.33829265832901,-4.011136531829834,-119,7813.0,107.38827514648438,1969,9943.0
1050,0.337132066488266,-3.6449737548828125,10,7813.0,131.36447143554688,2310,9943.0
1060,0.3370019197463989,1.1539466381072998,3,7813.0,141.43240356445312,2412,9943.0
1070,0.3375622630119324,7.869427680969238,149,7813.0,134.4886932373047,2111,9943.0
1080,0.3373037874698639,15.73502254486084,329,7813.0,110.17484283447266,1633,9943.0
1090,0.3365223705768585,17.371803283691406,294,7813.0,75.3564453125,1132,9943.0
1100,0.32896173000335693,7.727567195892334,75,7813.0,29.682600021362305,505,9943.0
1110,0.3300155997276306,-0.23873171210289001,-157,7813.0,-14.728419303894043,-225,9943.0
1120,0.3307497203350067,-16.491849899291992,-374,7813.0,-50.81694412231445,-1048,9943.0
1130,0.33217644691467285,-24.744487762451172,-367,7813.0,-96.05128479003906,-1884,9943.0
1140,0.32731762528419495,-19.585041046142578,-278,7813.0,-129.85321044921875,-2288,9943.0
1150,0.3285257816314697,-6.87028694152832,-68,7813.0,-138.428466796875,-2335,9943.0
1160,0.3289510905742645,0.9513218402862549,59,7813.0,-129.7623291015625,-2161,9943.0
1170,0.32918235659599304,1.2777107954025269,-48,7813.0,-107.15821838378906,-1531,9943.0
1180,0.32874730229377747,5.659320831298828,137,7813.0,-77.3274154663086,-882,9943.0
1190,0.3308669924736023,14.975387573242188,272,7813.0,-18.035303115844727,-21,9943.0
1200,0.3320506513118744,15.20792293548584,255,7813.0,30.964082717895508,832,9943.0
1210,0.33302241563796997,6.549973011016846,99,7813.0,85.6364974975586,1446,9943.0
1220,0.33335429430007935,0.30995845794677734,-66,7813.0,118.6667251586914,2145,9943.0
1230,0.33177217841148376,-4.077001094818115,-45,7813.0,142.52227783203125,2419,9943.0
1240,0.33112332224845886,-5.97539758682251,-115,7813.0,147.95361328125,2357,9943.0
1250,0.33050230145454407,-9.956531524658203,-52,7813.0,139.2698974609375,2040,9943.0
1260,0.3291093111038208,-8.176668167114258,-133,7813.0,107.36874389648438,1559,9943.0
1270,0.32458773255348206,-1.883481740951538,-33,7813.0,52.33475875854492,439,9943.0
1280,0.325144499540329,3.8385167121887207,193,7813.0,-10.732295036315918,-647,9943.0
1290,0.3261430263519287,13.208351135253906,206,7813.0,-70.5003890991211,-1305,9943.0
1300,0.3271455764770508,19.442150115966797,364,7813.0,-121.36672973632812,-2424,9943.0
1310,0.3273686170578003,22.674419403076172,411,7813.0,-161.33596801757812,-2799,9943.0
1320,0.32499873638153076,18.60222625732422,279,7813.0,-175.0586700439453,-2774,9943.0
1330,0.32516565918922424,-1.596699595451355,-173,7813.0,-166.8960723876953,-2584,9943.0
1340,0.3271777033805847,-15.259342193603516,-330,7813.0,-142.6846160888672,-2084,9943.0
1350,0.3270280063152313,-17.665542602539062,-299,7813.0,-107.28256225585938,-1415,9943.0
1360,0.33360543847084045,-10.361445426940918,-185,7813.0,-59.514686584472656,-551,9943.0
1370,0.33366838097572327,-13.45041561126709,-223,7813.0,-4.082428932189941,328,9943.0
1380,0.3366332948207855,-7.9722819328308105,-79,7813.0,57.02948760986328,1249,9943.0
1390,0.338990181684494,1.9180545806884766,54,7813.0,109.59008026123047,2071,9943.0
1400,0.3409944176673889,6.638154029846191,115,7813.0,154.1474609375,2546,9943.0
1410,0.34230703115463257,6.436855316162109,128,7813.0,184.2985076904297,3047,9943.0
1420,0.3430728018283844,3.1124494075775146,45,7813.0,191.7030792236328,3322,9943.0
1430,0.34268689155578613,-4.1335625648498535,-134,7813.0,177.39524841308594,2897,9943.0
1440,0.3458341360092163,-10.813593864440918,-222,7813.0,144.64561462402344,2130,9943.0
1450,0.3358937203884125,-8.87425422668457,-184,7813.0,98.99169921875,1430,9943.0
1460,0.3354978859424591,-7.198512077331543,-71,7813.0,41.700016021728516,395,9943.0
1470,0.33697235584259033,1.0440664291381836,77,7813.0,-23.061386108398438,-695,9943.0
1480,0.3391733467578888,9.518172264099121,173,7813.0,-94.90682220458984,-1805,9943.0
1490,0.33440977334976196,6.907828330993652,81,7813.0,-141.9487762451172,-2450,9943.0
1500,0.33584973216056824,-2.5513861179351807,-136,7813.0,-151.23756408691406,-2517,9943.0
1510,0.33697983622550964,0.18229854106903076,110,7813.0,-145.58663940429688,-2337,9943.0
1520,0.33837851881980896,8.389278411865234,192,7813.0,-112.09123229980469,-1678,9943.0
1530,0.33407020568847656,13.273663520812988,258,7813.0,-58.41403579711914,-786,9943.0
1540,0.33457571268081665,17.3507022857666,393,7813.0,-9.82614517211914,-95,9943.0
1550,0.33493122458457947,11.764841079711914,216,7813.0,32.67736053466797,545,9943.0
1560,0.33545148372650146,-0.09582874923944473,-110,7813.0,69.4966812133789,1174,9943.0
1570,0.33556485176086426,-6.592303276062012,-85,7813.0,98.62802124023438,1746,9943.0
1580,0.33352136611938477,-11.145035743713379,-132,7813.0,112.08516693115234,1716,9943.0
1590,0.33269622921943665,-12.22819995880127,-170,7813.0,105.22772979736328,1702,9943.0
1600,0.33315443992614746,-7.382475852966309,-76,7813.0,81.87051391601562,1202,9943.0
1610,0.3321390450000763,-4.693944454193115,-179,7813.0,42.78533172607422,531,9943.0
1620,0.32686081528663635,-8.278300285339355,-78,7813.0,0.6153548359870911,-249,9943.0
1630,0.3273007869720459,-10.13476276397705,-169,7813.0,-41.39130783081055,-760,9943.0
1640,0.32828855514526367,-10.0232572555542,-209,7813.0,-80.66315460205078,-1513,9943.0
1650,0.32871195673942566,-2.246295928955078,64,7813.0,-121.06657409667969,-2263,9943.0
1660,0.32997623085975647,7.79317569732666,158,7813.0,-146.04103088378906,-2413,9943.0
1670,0.3268510103225708,16.751501083374023,391,7813.0,-142.35623168945312,-2192,9943.0
1680,0.3269330859184265,20.645248413085938,353,7813.0,-114.75139617919922,-1724,9943.0
1690,0.33024024963378906,24.437442779541016,364,7813.0,-74.8593978881836,-1113,9943.0
1700,0.3314459025859833,17.83792495727539,253,7813.0,-22.872148513793945,-186,9943.0
1710,0.33365026116371155,3.932516098022461,11,7813.0,29.119173049926758,528,9943.0
1720,0.3345676064491272,-17.029254913330078,-383,7813.0,56.83766555786133,954,9943.0
1730,0.3348918557167053,-37.31522750854492,-751,7813.0,76.89234924316406,1351,9943.0
1740,0.3352091610431671,-48.87981033325195,-832,7813.0,95.73400115966797,1634,9943.0
1750,0.33342891931533813,-47.20032501220703,-631,7813.0,99.87051391601562,1475,9943.0
1760,0.33346208930015564,-28.905183792114258,-333,7813.0,81.2386474609375,1250,9943.0
1770,0.33435946702957153,-2.667983293533325,61,7813.0,48.5064697265625,646,9943.0
1780,0.33437108993530273,22.406187057495117,428,7813.0,7.480373382568359,-139,9943.0
1790,0.33502671122550964,29.557241439819336,470,7813.0,-30.657615661621094,-587,9943.0
1800,0.3283418118953705,26.38174819946289,430,7813.0,-59.24430465698242,-976,9943.0
1810,0.328415185213089,21.927400588989258,239,7813.0,-88.5157470703125,-1549,9943.0
1820,0.3285504877567291,16.289064407348633,308,7813.0,-112.6180648803711,-1966,9943.0
1830,0.32875630259513855,15.994818687438965,333,7813.0,-122.78944396972656,-2108,9943.0
1840,0.3265743553638458,13.506568908691406,175,7813.0,-104.64444732666016,-1722,9943.0
1850,0.3291250765323639,-0.581636369228363,-82,7813.0,-71.44993591308594,-1059,9943.0
1860,0.32985827326774597,-2.4707813262939453,-79,7813.0,-29.814931869506836,-229,9943.0
1870,0.33042657375335693,-3.926358699798584,-72,7813.0,14.05850601196289,760,9943.0
1880,0.33229002356529236,-3.4327895641326904,-47,7813.0,76.55754089355469,1699,9943.0
1890,0.33514681458473206,-10.766545295715332,-203,7813.0,126.48604583740234,2332,9943.0
1900,0.3358563184738159,-14.283123016357422,-328,7813.0,156.65972900390625,2644,9943.0
1910,0.33633288741111755,-17.062917709350586,-245,7813.0,169.85662841796875,2907,9943.0
1920,0.3362751603126526,-12.001413345336914,-196,7813.0,167.11048889160156,2589,9943.0
1930,0.33161184191703796,-5.4928412437438965,-37,7813.0,150.8221435546875,2271,9943.0
1940,0.3309951424598694,4.758266925811768,210,7813.0,112.24750518798828,1573,9943.0
1950,0.3306964039802551,18.538616180419922,338,7813.0,64.04598999023438,754,9943.0
1960,0.33217793703079224,25.202228546142578,467,7813.0,12.8076753616333,-63,9943.0
1970,0.3333147168159485,23.345890045166016,400,7813.0,-38.76131057739258,-957,9943.0
1980,0.3292034864425659,19.002471923828125,185,7813.0,-84.13595581054688,-1557,9943.0
1990,0.33055102825164795,6.214158058166504,67,7813.0,-110.93096923828125,-2028,9943.0
2000,0.3322429656982422,-10.065353393554688,-260,7813.0,-128.23098754882812,-2145,9943.0
2010,0.33350104093551636,-24.746841430664062,-475,7813.0,-137.04725646972656,-2299,9943.0
2020,0.3301515281200409,-37.42238235473633,-720,7813.0,-123.80120086669922,-1823,9943.0
2030,0.3310105502605438,-41.21588897705078,-737,7813.0,-93.82364654541016,-1323,9943.0
2040,0.3317969739437103,-31.85175132751465,-444,7813.0,-53.22373962402344,-757,9943.0
2050,0.33323603868484497,-10.1475191116333,89,7813.0,-19.124889373779297,-144,9943.0
2060,0.3332540988922119,16.028247833251953,457,7813.0,22.103239059448242,565,9943.0
2070,0.33439990878105164,31.167972564697266,557,7813.0,66.41873931884766,1122,9943.0
2080,0.3351224362850189,34.75856018066406,537,7813.0,105.32061767578125,1812,9943.0
2090,0.3354969322681427,29.310928344726562,493,7813.0,127.62187194824219,2105,9943.0
2100,0.3359418511390686,14.052532196044922,155,7813.0,131.7990264892578,2095,9943.0
2110,0.33234360814094543,-8.62905502319336,-257,7813.0,113.26847076416016,1807,9943.0
2120,0.3319988548755646,-27.3879337310791,-567,7813.0,77.7198486328125,1207,9943.0
2130,0.3318644165992737,-30.855911254882812,-388,7813.0,33.96663284301758,187,9943.0
2140,0.3329353630542755,-20.454669952392578,-269,7813.0,-16.740585327148438,-438,9943.0
2150,0.32822325825691223,-4.824312686920166,-50,7813.0,-66.47185516357422,-1202,9943.0
2160,0.32890084385871887,17.520580291748047,432,7813.0,-102.9763412475586,-1948,9943.0
2170,0.32985228300094604,37.311767578125,624,7813.0,-125.57464599609375,-2115,9943.0
2180,0.33075782656669617,31.050758361816406,506,7813.0,-132.40843200683594,-2193,9943.0
2190,0.32751941680908203,8.8582124710083,0,7813.0,-130.74517822265625,-2068,9943.0
2200,0.3289197087287903,-14.585516929626465,-311,7813.0,-108.10265350341797,-1680,9943.0
2210,0.3297767639160156,-30.79300308227539,-495,7813.0,-68.2955551147461,-1092,9943.0
2220,0.33301955461502075,-36.94478988647461,-591,7813.0,-22.885950088500977,-319,9943.0
2230,0.3340758681297302,-28.724716186523438,-452,7813.0,14.770310401916504,448,9943.0
2240,0.33540642261505127,-23.61798858642578,-325,7813.0,55.73918914794922,1097,9943.0
2250,0.33679038286209106,-8.5170259475708,-122,7813.0,89.14044952392578,1703,9943.0
2260,0.3376109302043915,14.819961547851562,361,7813.0,114.01630401611328,1964,9943.0
2270,0.33872124552726746,28.357397079467773,468,7813.0,117.41185760498047,1856,9943.0
2280,0.3357357978820801,36.49887466430664,695,7813.0,99.55301666259766,1395,9943.0
2290,0.33617091178894043,34.967262268066406,599,7813.0,75.37690734863281,1040,9943.0
2300,0.3371141850948334,32.521820068359375,517,7813.0,45.73855209350586,683,9943.0
2310,0.33787867426872253,25.971426010131836,360,7813.0,13.629900932312012,174,9943.0
2320,0.33861395716667175,10.877099990844727,18,7813.0,-22.662084579467773,-394,9943.0
2330,0.3327624499797821,-7.722706317901611,-275,7813.0,-53.713584899902344,-1040,9943.0
2340,0.33332306146621704,-25.5717830657959,-433,7813.0,-84.7851791381836,-1529,9943.0
2350,0.33401644229888916,-37.29944610595703,-701,7813.0,-105.6530532836914,-1854,9943.0
2360,0.3347807824611664,-39.55132293701172,-567,7813.0,-115.74356842041016,-1973,9943.0
2370,0.32969221472740173,-35.069793701171875,-577,7813.0,-111.09913635253906,-1699,9943.0
2380,0.33032628893852234,-24.110692977905273,-262,7813.0,-86.60134887695312,-1269,9943.0
2390,0.3329593241214752,1.1060477495193481,125,7813.0,-50.202476501464844,-455,9943.0
2400,0.33451274037361145,22.303564071655273,446,7813.0,-7.334519386291504,201,9943.0
2410,0.33698827028274536,24.30202293395996,393,7813.0,38.636661529541016,792,9943.0
2420,0.33967530727386475,24.29521369934082,332,7813.0,79.25667572021484,1371,9943.0
2430,0.34081071615219116,14.111238479614258,210,7813.0,108.8823013305664,1767,9943.0
2440,0.34251320362091064,3.0773279666900635,-13,7813.0,129.74514770507812,2161,9943.0
2450,0.34376582503318787,3.7682578563690186,77,7813.0,138.35435485839844,2280,9943.0
2460,0.3383355140686035,5.841809272766113,27,7813.0,130.75794982910156,2140,9943.0
2470,0.34039583802223206,8.536996841430664,150,7813.0,103.1311264038086,1503,9943.0
2480,0.3406456708908081,11.378658294677734,264,7813.0,74.31380462646484,939,9943.0
2490,0.341539591550827,15.596786499023438,344,7813.0,44.734527587890625,478,9943.0
2500,0.3341059386730194,18.34083366394043,238,7813.0,9.307390213012695,-22,9943.0
2510,0.33504486083984375,15.683390617370605,180,7813.0,-37.53922653198242,-755,9943.0
2520,0.33648210763931274,0.23811349272727966,-94,7813.0,-82.49822998046875,-1411,9943.0
2530,0.3375729024410248,-19.423622131347656,-434,7813.0,-114.54449462890625,-1865,9943.0
2540,0.3384421765804291,-36.33956527709961,-734,7813.0,-123.86662292480469,-1973,9943.0
2550,0.3334500193595886,-55.34037780761719,-1014,7813.0,-113.20013427734375,-1549,9943.0
2560,0.3339475095272064,-63.15745162963867,-1024,7813.0,-86.19148254394531,-1170,9943.0
2570,0.3348400890827179,-46.04216384887695,-536,7813.0,-43.509521484375,-483,9943.0
2580,0.3359134793281555,-13.069559097290039,18,7813.0,-4.240157604217529,28,9943.0
2590,0.33488017320632935,24.005878448486328,675,7813.0,21.457582473754883,321,9943.0
2600,0.3363374173641205,47.76729202270508,787,7813.0,33.81821823120117,450,9943.0
2610,0.3376759886741638,49.692588806152344,796,7813.0,42.175865173339844,671,9943.0
2620,0.33845221996307373,33.49120330810547,354,7813.0,50.15141677856445,873,9943.0
2630,0.33319568634033203,12.670286178588867,111,7813.0,59.659820556640625,1122,9943.0
2640,0.33282893896102905,-4.1195831298828125,-164,7813.0,65.65264129638672,1176,9943.0
2650,0.33210083842277527,-8.876952171325684,-93,7813.0,59.26262664794922,848,9943.0
2660,0.33135786652565,-3.4907538890838623,-98,7813.0,46.44553756713867,869,9943.0
2670,0.33062484860420227,2.4749057292938232,55,7813.0,27.152612686157227,372,9943.0
2680,0.3257106840610504,8.102638244628906,174,7813.0,8.758724212646484,-39,9943.0
2690,0.3254917562007904,12.245073318481445,238,7813.0,-11.378754615783691,-305,9943.0
2700,0.325359046459198,11.672453880310059,91,7813.0,-37.317142486572266,-674,9943.0
2710,0.3251778781414032,0.9171394109725952,-25,7813.0,-59.378623962402344,-1219,9943.0
2720,0.32031145691871643,-12.334851264953613,-225,7813.0,-79.84196472167969,-1432,9943.0
2730,0.32010138034820557,-23.819780349731445,-381,7813.0,-89.94706726074219,-1734,9943.0
2740,0.3197055459022522,-26.763240814208984,-420,7813.0,-96.33423614501953,-1534,9943.0
2750,0.3205218017101288,-30.340492248535156,-441,7813.0,-80.96269989013672,-1233,9943.0
2760,0.3201204836368561,-15.49242877960205,-197,7813.0,-37.541500091552734,-341,9943.0
2770,0.3227798342704773,5.432130813598633,163,7813.0,2.799722909927368,262,9943.0
2780,0.3229004740715027,13.459146499633789,159,7813.0,29.867769241333008,621,9943.0
2790,0.3230457901954651,11.877745628356934,144,7813.0,44.14883804321289,969,9943.0
2800,0.3226269781589508,4.644338130950928,17,7813.0,65.05440521240234,1153,9943.0
2810,0.32500916719436646,2.5895748138427734,32,7813.0,74.59463500976562,1300,9943.0
2820,0.3244968354701996,13.190007209777832,288,7813.0,68.70777893066406,1050,9943.0
2830,0.3239139914512634,26.834728240966797,424,7813.0,56.00224304199219,797,9943.0
2840,0.3234950304031372,40.37063217163086,783,7813.0,39.59412384033203,393,9943.0
2850,0.321975976228714,41.52083206176758,671,7813.0,18.880931854248047,251,9943.0
2860,0.32125216722488403,26.09151268005371,332,7813.0,-1.9658277034759521,-196,9943.0
2870,0.3210439682006836,0.13691407442092896,-182,7813.0,-28.5301570892334,-421,9943.0
2880,0.3212161064147949,-30.973657608032227,-612,7813.0,-45.85420608520508,-742,9943.0
2890,0.3214517831802368,-51.933311462402344,-1017,7813.0,-61.44905090332031,-944,9943.0
2900,0.32215258479118347,-65.04285430908203,-1107,7813.0,-67.73384094238281,-1040,9943.0
2910,0.32230833172798157,-68.4131851196289,-1183,7813.0,-59.33415603637695,-851,9943.0
2920,0.32345500588417053,-49.57609939575195,-653,7813.0,-36.90184783935547,-363,9943.0
2930,0.3237449526786804,-10.350879669189453,-49,7813.0,-10.507699012756348,-60,9943.0
2940,0.3252468705177307,31.821849822998047,702,7813.0,10.976151466369629,363,9943.0
2950,0.3266889452934265,65.91653442382812,1172,7813.0,44.42940902709961,847,9943.0
2960,0.327216774225235,74.71105194091797,1118,7813.0,73.32510375976562,1313,9943.0
2970,0.32764220237731934,56.37527084350586,846,7813.0,84.23831939697266,1372,9943.0
2980,0.32798099517822266,26.025577545166016,233,7813.0,78.48169708251953,1191,9943.0
2990,0.32626962661743164,-0.36076900362968445,-44,7813.0,64.30082702636719,889,9943.0
3000,0.32698002457618713,-19.126171112060547,-354,7813.0,43.36052703857422,443,9943.0
3010,0.3268946409225464,-25.63199806213379,-327,7813.0,20.135177612304688,255,9943.0
3020,0.3266931474208832,-17.352224349975586,-228,7813.0,-0.2402772307395935,-111,9943.0
3030,0.3247751295566559,-2.7138288021087646,72,7813.0,-21.35026741027832,-353,9943.0
3040,0.32482337951660156,6.508724212646484,34,7813.0,-35.86511993408203,-560,9943.0
3050,0.3250086009502411,1.122308373451233,-23,7813.0,-51.416866302490234,-820,9943.0
3060,0.32509368658065796,-5.0241217613220215,-177,7813.0,-64.65474700927734,-992,9943.0
3070,0.32346391677856445,-22.13824462890625,-435,7813.0,-61.270172119140625,-933,9943.0
3080,0.32411670684814453,-35.26939010620117,-643,7813.0,-55.9824333190918,-850,9943.0
3090,0.32426920533180237,-39.30327606201172,-687,7813.0,-37.14030838012695,-336,9943.0
3100,0.32455337047576904,-36.36929702758789,-529,7813.0,-7.427963733673096,49,9943.0
3110,0.3248167335987091,-20.19469451904297,-314,7813.0,18.274452209472656,532,9943.0
3120,0.32531440258026123,-1.9477155208587646,49,7813.0,39.750728607177734,762,9943.0
3130,0.3252643942832947,15.104024887084961,206,7813.0,56.959434509277344,902,9943.0
3140,0.3253820538520813,29.77108383178711,550,7813.0,50.335853576660156,695,9943.0
3150,0.32521694898605347,37.567588806152344,579,7813.0,33.22547149658203,304,9943.0
3160,0.32432857155799866,29.604150772094727,520,7813.0,17.13245964050293,66,9943.0
3170,0.3241434097290039,11.408618927001953,65,7813.0,7.663511753082275,138,9943.0
3180,0.32374757528305054,-2.010937452316284,-141,7813.0,-2.8423290252685547,144,9943.0
3190,0.3233306109905243,-14.99657154083252,-317,7813.0,-8.622757911682129,-49,9943.0
3200,0.32316532731056213,-16.337244033813477,-226,7813.0,-17.098405838012695,-261,9943.0
3210,0.32155442237854004,-5.067413330078125,32,7813.0,-28.063732147216797,-552,9943.0
3220,0.3214331567287445,14.16517448425293,376,7813.0,-31.13558578491211,-589,9943.0
3230,0.32139936089515686,23.789653778076172,403,7813.0,-32.552947998046875,-678,9943.0
3240,0.3215619623661041,17.515989303588867,235,7813.0,-30.694955825805664,-566,9943.0
3250,0.3225986659526825,-2.5880141258239746,-137,7813.0,-19.584625244140625,-400,9943.0
3260,0.32292604446411133,-24.213623046875,-509,7813.0,-7.410109519958496,-126,9943.0
3270,0.3233042061328888,-38.99801254272461,-591,7813.0,11.254853248596191,199,9943.0
3280,0.3235292136669159,-36.0576171875,-465,7813.0,35.83979797363281,679,9943.0
3290,0.32307466864585876,-17.762975692749023,-66,7813.0,41.904239654541016,621,9943.0
3300,0.32296329736709595,8.352770805358887,178,7813.0,34.81123352050781,690,9943.0
3310,0.3226972222328186,23.852205276489258,363,7813.0,23.95463752746582,364,9943.0
3320,0.3224398195743561,25.829008102416992,447,7813.0,7.8163981437683105,-140,9943.0
3330,0.3219451308250427,23.82685089111328,373,7813.0,-17.95650291442871,-426,9943.0
3340,0.32102057337760925,22.838537216186523,467,7813.0,-38.24507141113281,-724,9943.0
3350,0.3205450773239136,28.903413772583008,478,7813.0,-50.06686782836914,-710,9943.0
3360,0.32006749510765076,23.420162200927734,336,7813.0,-50.9683723449707,-759,9943.0
3370,0.31973394751548767,18.953323364257812,236,7813.0,-40.93914031982422,-504,9943.0
3380,0.3213281035423279,10.182931900024414,109,7813.0,-31.827329635620117,-383,9943.0
3390,0.3211486339569092,-0.6984571814537048,-77,7813.0,-28.15975570678711,-436,9943.0
3400,0.3210367262363434,-17.55974578857422,-446,7813.0,-19.61768913269043,-201,9943.0
3410,0.3215677738189697,-37.49551773071289,-739,7813.0,-3.3688864707946777,136,9943.0
3420,0.3221965730190277,-55.82285690307617,-937,7813.0,11.308515548706055,239,9943.0
3430,0.32365626096725464,-54.09621810913086,-902,7813.0,12.27514362335205,246,9943.0
3440,0.3242810070514679,-40.9013671875,-572,7813.0,10.403937339782715,122,9943.0
3450,0.3255254030227661,-25.56813621520996,-387,7813.0,11.939264297485352,161,9943.0
3460,0.3265630304813385,-3.7094295024871826,126,7813.0,20.858154296875,225,9943.0
3470,0.32736802101135254,21.871213912963867,505,7813.0,22.54338836669922,344,9943.0
3480,0.3279002904891968,42.66925048828125,858,7813.0,33.43354034423828,515,9943.0
3490,0.32824787497520447,46.03618240356445,725,7813.0,44.203731536865234,769,9943.0
3500,0.32841694355010986,36.463619232177734,539,7813.0,49.409507751464844,887,9943.0
3510,0.32711201906204224,22.06114387512207,340,7813.0,50.00645446777344,784,9943.0
3520,0.3267768621444702,17.435216903686523,209,7813.0,43.125728607177734,833,9943.0
3530,0.32683998346328735,7.170294284820557,46,7813.0,44.83220672607422,764,9943.0
3540,0.32650336623191833,-4.062388896942139,-183,7813.0,45.49941635131836,802,9943.0
3550,0.3261127471923828,-13.483654022216797,-275,7813.0,34.92323684692383,366,9943.0
3560,0.3235064744949341,-17.159006118774414,-209,7813.0,16.03917121887207,202,9943.0
3570,0.32338207960128784,-10.614998817443848,-127,7813.0,1.6740292310714722,-14,9943.0
3580,0.3240130841732025,-8.84132194519043,-108,7813.0,-16.975170135498047,-416,9943.0
3590,0.32506147027015686,-6.624540328979492,-220,7813.0,-44.67658233642578,-756,9943.0
3600,0.3241233825683594,-9.503816604614258,-180,7813.0,-69.93682098388672,-1381,9943.0
3610,0.3251943588256836,-13.586426734924316,-228,7813.0,-87.22560119628906,-1499,9943.0
3620,0.326526403427124,-17.081012725830078,-164,7813.0,-92.80184936523438,-1695,9943.0
3630,0.32766851782798767,-12.033784866333008,-168,7813.0,-78.47059631347656,-1280,9943.0
3640,0.32790473103523254,-1.8279482126235962,172,7813.0,-54.18756103515625,-949,9943.0
3650,0.3291526138782501,13.098214149475098,251,7813.0,-18.81754493713379,-214,9943.0
3660,0.3305438458919525,20.986865997314453,336,7813.0,27.832435607910156,672,9943.0
3670,0.33203673362731934,24.858861923217773,448,7813.0,70.72933197021484,1310,9943.0
3680,0.3332771956920624,23.579164505004883,299,7813.0,99.06827545166016,1712,9943.0
3690,0.33214202523231506,17.990446090698242,285,7813.0,111.36229705810547,1926,9943.0
3700,0.3331160545349121,9.889060974121094,76,7813.0,109.01216125488281,1685,9943.0
3710,0.3334003984928131,0.634511411190033,31,7813.0,87.39964294433594,1157,9943.0
3720,0.33352747559547424,-6.499190330505371,-109,7813.0,59.3939208984375,804,9943.0
3730,0.33013907074928284,-3.05633544921875,45,7813.0,21.450254440307617,250,9943.0
3740,0.33207836747169495,1.9982545375823975,-9,7813.0,-17.0397891998291,-466,9943.0
3750,0.33350682258605957,3.9889400005340576,-55,7813.0,-56.13227844238281,-988,9943.0
3760,0.33554911613464355,3.6601755619049072,-61,7813.0,-93.082275390625,-1521,9943.0
3770,0.33151447772979736,-0.964941680431366,-45,7813.0,-117.99737548828125,-1965,9943.0
3780,0.3328142464160919,-12.407837867736816,-298,7813.0,-132.2261962890625,-2022,9943.0
3790,0.33274009823799133,-26.08222198486328,-525,7813.0,-134.92694091796875,-2092,9943.0
3800,0.3326777517795563,-31.286285400390625,-439,7813.0,-118.719970703125,-1716,9943.0
3810,0.3340034484863281,-20.986473083496094,-206,7813.0,-86.51676177978516,-1420,9943.0
3820,0.3354285657405853,-3.406002998352051,-44,7813.0,-57.6776123046875,-864,9943.0
3830,0.3356655538082123,-1.9132652282714844,-31,7813.0,-22.333385467529297,-27,9943.0
3840,0.33610886335372925,-9.895581245422363,-246,7813.0,26.717281341552734,647,9943.0
3850,0.33679643273353577,-14.94076156616211,-268,7813.0,60.81832504272461,1307,9943.0
3860,0.33538857102394104,-17.946819305419922,-291,7813.0,96.04978942871094,1836,9943.0
3870,0.33465734124183655,-20.830602645874023,-341,7813.0,125.93572235107422,2163,9943.0
3880,0.3335004448890686,-12.520984649658203,-73,7813.0,124.42639923095703,2018,9943.0
3890,0.3315255343914032,10.422281265258789,227,7813.0,103.106201171875,1469,9943.0
3900,0.33201467990875244,27.881893157958984,585,7813.0,66.72022247314453,625,9943.0
3910,0.324565589427948,37.60704803466797,710,7813.0,21.108797073364258,165,9943.0
3920,0.3223719000816345,52.61236572265625,841,7813.0,-15.358704566955566,-305,9943.0
3930,0.32068073749542236,56.2089958190918,874,7813.0,-37.700984954833984,-748,9943.0
3940,0.32049858570098877,44.422794342041016,603,7813.0,-56.54400634765625,-1218,9943.0
3950,0.3118216097354889,8.395888328552246,-46,7813.0,-71.99330139160156,-1245,9943.0
3960,0.31044504046440125,-26.416627883911133,-560,7813.0,-80.6208267211914,-1366,9943.0
3970,0.30933427810668945,-55.031394958496094,-958,7813.0,-77.76757049560547,-1326,9943.0
3980,0.30814066529273987,-68.0053939819336,-1125,7813.0,-60.979652404785156,-955,9943.0
3990,0.3053760826587677,-75.18252563476562,-1129,7813.0,-38.41285705566406,-597,9943.0
4000,0.3057517111301422,-68.81108093261719,-1011,7813.0,-6.162290573120117,-10,9943.0
4010,0.3059425354003906,-54.38685989379883,-854,7813.0,27.583852767944336,528,9943.0
4020,0.30602777004241943,-34.85679244995117,-495,7813.0,52.06753158569336,1081,9943.0
4030,0.30788853764533997,-14.396703720092773,-249,7813.0,66.6297836303711,1054,9943.0
4040,0.3051857054233551,4.141161918640137,189,7813.0,71.91508483886719,1252,9943.0
4050,0.30553755164146423,19.32994270324707,369,7813.0,71.64734649658203,1159,9943.0
4060,0.30603182315826416,34.085670471191406,584,7813.0,62.880489349365234,980,9943.0
4070,0.3066236674785614,46.526981353759766,841,7813.0,43.015933990478516,666,9943.0
4080,0.30448979139328003,60.97503662109375,1074,7813.0,18.79697608947754,172,9943.0
4090,0.3045417070388794,67.66446685791016,1098,7813.0,-4.353031635284424,-13,9943.0
4100,0.30402612686157227,63.8291015625,990,7813.0,-16.365432739257812,-423,9943.0
4110,0.3052363395690918,46.96223068237305,756,7813.0,-23.561826705932617,-494,9943.0
4120,0.30643001198768616,32.18239974975586,424,7813.0,-27.492067337036133,-417,9943.0
4130,0.30441051721572876,12.264182090759277,12,7813.0,-28.165287017822266,-302,9943.0
4140,0.30507782101631165,-7.80520486831665,-196,7813.0,-24.527793884277344,-338,9943.0
4150,0.3056063652038574,-25.836151123046875,-505,7813.0,-21.807035446166992,-379,9943.0
4160,0.30600273609161377,-39.63875198364258,-619,7813.0,-22.245338439941406,-543,9943.0
4170,0.3037690818309784,-42.313175201416016,-687,7813.0,-28.617321014404297,-562,9943.0
4180,0.3034617602825165,-40.489013671875,-628,7813.0,-29.398571014404297,-458,9943.0
4190,0.30302685499191284,-32.90422058105469,-397,7813.0,-22.952482223510742,-272,9943.0
4200,0.30295529961586,-15.276570320129395,-199,7813.0,-8.909378051757812,93,9943.0
4210,0.3012700378894806,-3.4610652923583984,-150,7813.0,26.002063751220703,644,9943.0
4220,0.30073025822639465,-1.675418734550476,-19,7813.0,68.8592758178711,1249,9943.0
4230,0.29953667521476746,3.821168899536133,20,7813.0,98.597900390625,1704,9943.0
4240,0.2983313500881195,8.510663032531738,174,7813.0,111.95806884765625,1839,9943.0
4250,0.2967010736465454,13.03133487701416,350,7813.0,118.07524108886719,1902,9943.0
4260,0.29531362652778625,17.77869987487793,198,7813.0,103.1005859375,1601,9943.0
4270,0.2945568263530731,20.8505916595459,382,7813.0,76.51787567138672,1091,9943.0
4280,0.29277303814888,16.649795532226562,228,7813.0,35.9290771484375,440,9943.0
4290,0.2907240390777588,15.183063507080078,261,7813.0,-8.224705696105957,-372,9943.0
4300,0.2896122634410858,12.809793472290039,142,7813.0,-45.06375503540039,-712,9943.0
4310,0.2877626121044159,7.905998229980469,150,7813.0,-59.06321716308594,-1088,9943.0
4320,0.2862490117549896,2.153470039367676,58,7813.0,-62.539180755615234,-899,9943.0
4330,0.2848151624202728,-2.8946380615234375,-183,7813.0,-54.73512268066406,-807,9943.0
4340,0.2838343679904938,-16.449134826660156,-305,7813.0,-39.558631896972656,-751,9943.0
4350,0.28285813331604004,-22.19098663330078,-271,7813.0,-29.170167922973633,-462,9943.0
4360,0.2827076315879822,-23.8526668548584,-470,7813.0,-17.52254867553711,-140,9943.0
4370,0.28348660469055176,-31.67104148864746,-580,7813.0,-0.6372697949409485,54,9943.0
4380,0.28430697321891785,-31.7855224609375,-541,7813.0,21.4124698638916,364,9943.0
4390,0.2812345027923584,-27.128887176513672,-380,7813.0,41.95785140991211,808,9943.0
4400,0.28222131729125977,-23.47667121887207,-430,7813.0,59.29549026489258,1070,9943.0
4410,0.2826872169971466,-23.26470184326172,-264,7813.0,64.01583862304688,972,9943.0
4420,0.2832944691181183,-12.379764556884766,-140,7813.0,60.11636734008789,1018,9943.0
4430,0.2810001075267792,0.20588351786136627,-29,7813.0,48.517494201660156,669,9943.0
4440,0.281978577375412,7.752594470977783,243,7813.0,29.87230682373047,429,9943.0
4450,0.28213071823120117,18.334156036376953,396,7813.0,-3.5909969806671143,-298,9943.0
4460,0.2824183702468872,30.26118278503418,541,7813.0,-31.820003509521484,-478,9943.0
4470,0.2829957604408264,46.74884033203125,933,7813.0,-48.450801849365234,-964,9943.0
4480,0.2809241712093353,56.3914680480957,898,7813.0,-58.8743782043457,-1048,9943.0
4490,0.2805441617965698,50.57374954223633,656,7813.0,-71.44232177734375,-1229,9943.0
4500,0.2803178131580353,30.476831436157227,451,7813.0,-73.7982406616211,-1218,9943.0
4510,0.2798801362514496,8.48352336883545,12,7813.0,-72.29106140136719,-1151,9943.0
4520,0.27890023589134216,-10.687268257141113,-283,7813.0,-66.60114288330078,-941,9943.0
4530,0.27806177735328674,-19.69707489013672,-483,7813.0,-62.97004699707031,-922,9943.0
4540,0.2770390212535858,-28.138534545898438,-467,7813.0,-57.240684509277344,-854,9943.0
4550,0.2753811478614807,-30.626970291137695,-441,7813.0,-35.691837310791016,-456,9943.0
4560,0.2750653326511383,-32.56184387207031,-477,7813.0,-4.721993923187256,106,9943.0
4570,0.27278566360473633,-36.01907730102539,-652,7813.0,23.46293830871582,659,9943.0
4580,0.2719644606113434,-40.45220947265625,-704,7813.0,47.22291564941406,906,9943.0
4590,0.27028489112854004,-37.009117126464844,-569,7813.0,63.166908264160156,1063,9943.0
4600,0.27109357714653015,-20.718332290649414,-246,7813.0,66.27660369873047,1092,9943.0
4610,0.2689208686351776,7.051270961761475,225,7813.0,59.8826789855957,925,9943.0
4620,0.2675502300262451,31.027681350708008,614,7813.0,43.17366409301758,639,9943.0
4630,0.26603925228118896,43.1880989074707,650,7813.0,17.756772994995117,89,9943.0
4640,0.2645864486694336,43.740962982177734,752,7813.0,-3.3332595825195312,-99,9943.0
4650,0.2608503997325897,37.40488052368164,551,7813.0,-14.563862800598145,-172,9943.0
4660,0.25912919640541077,30.07615089416504,538,7813.0,-20.572965621948242,-489,9943.0
4670,0.257526159286499,21.518333435058594,393,7813.0,-27.697887420654297,-392,9943.0
4680,0.2569093406200409,9.815387725830078,21,7813.0,-23.183725357055664,-243,9943.0
4690,0.2560569643974304,-9.510329246520996,-234,7813.0,-9.000866889953613,-140,9943.0
4700,0.25509828329086304,-29.452993392944336,-481,7813.0,6.941616535186768,143,9943.0
4710,0.25513774156570435,-39.67354202270508,-692,7813.0,15.510416984558105,372,9943.0
4720,0.2552120089530945,-39.77631378173828,-582,7813.0,12.170193672180176,157,9943.0
4730,0.25564655661582947,-31.492551803588867,-435,7813.0,10.786487579345703,292,9943.0
4740,0.2550831139087677,-9.561713218688965,-45,7813.0,8.006012916564941,87,9943.0
4750,0.25601470470428467,11.083199501037598,221,7813.0,8.774781227111816,325,9943.0
4760,0.256905734539032,19.2440185546875,335,7813.0,21.057212829589844,327,9943.0
4770,0.25830209255218506,22.856897354125977,325,7813.0,33.44003677368164,716,9943.0
4780,0.2595331072807312,27.123249053955078,491,7813.0,38.62348556518555,619,9943.0
4790,0.2591376006603241,34.32206726074219,581,7813.0,36.64697265625,640,9943.0
4800,0.26030686497688293,32.55379867553711,455,7813.0,31.085206985473633,456,9943.0
4810,0.26102036237716675,22.222396850585938,328,7813.0,20.35605239868164,374,9943.0
4820,0.2616163492202759,9.467132568359375,56,7813.0,7.842845916748047,-15,9943.0
4830,0.26056674122810364,0.10917652398347855,76,7813.0,-5.051751136779785,-126,9943.0
4840,0.26107361912727356,-0.5601789355278015,-72,7813.0,-8.804871559143066,-93,9943.0
4850,0.26108279824256897,-2.8385562896728516,-95,7813.0,-14.234230041503906,-356,9943.0
4860,0.26118651032447815,-8.988218307495117,-115,7813.0,-16.60965919494629,-185,9943.0
4870,0.2617647647857666,-11.773061752319336,-259,7813.0,-12.428853034973145,-167,9943.0
4880,0.2615140974521637,-17.016265869140625,-245,7813.0,-10.136996269226074,-242,9943.0
4890,0.2611587643623352,-14.359528541564941,-180,7813.0,-10.322872161865234,-165,9943.0
4900,0.26060763001441956,-10.50969409942627,-200,7813.0,-13.64606761932373,-319,9943.0
4910,0.25988805294036865,-8.294689178466797,-90,7813.0,-19.44925308227539,-256,9943.0
4920,0.26189008355140686,-8.371009826660156,-166,7813.0,-16.862369537353516,-205,9943.0
4930,0.26081496477127075,-8.681150436401367,-104,7813.0,-8.862171173095703,-210,9943.0
4940,0.2611009180545807,-7.970978736877441,-100,7813.0,4.477253437042236,212,9943.0
4950,0.2610451877117157,-5.92189884185791,-193,7813.0,25.48998260498047,501,9943.0
4960,0.2604575455188751,-8.640114784240723,-61,7813.0,41.444889068603516,717,9943.0
4970,0.25979477167129517,-8.178426742553711,-189,7813.0,47.614620208740234,814,9943.0
4980,0.25967082381248474,-5.575159072875977,-9,7813.0,41.595420837402344,481,9943.0
4990,0.25921276211738586,0.382244348526001,19,7813.0,27.20919418334961,477,9943.0
5000,0.258507639169693,5.864617347717285,157,7813.0,21.975914001464844,292,9943.0
5010,0.2570400834083557,17.59058952331543,324,7813.0,26.518198013305664,558,9943.0
5020,0.25656232237815857,31.488027572631836,563,7813.0,36.92754364013672,442,9943.0
5030,0.2560013234615326,39.59114456176758,728,7813.0,33.74290084838867,568,9943.0
5040,0.2555652856826782,39.93487548828125,606,7813.0,24.28091049194336,208,9943.0
5050,0.25704115629196167,35.37778854370117,598,7813.0,10.117491722106934,219,9943.0
5060,0.25681591033935547,31.46357536315918,390,7813.0,1.8199007511138916,-59,9943.0
5070,0.25691530108451843,9.47542667388916,95,7813.0,-9.903536796569824,-240,9943.0
5080,0.25895288586616516,-24.258214950561523,-592,7813.0,-21.999061584472656,-342,9943.0
5090,0.2607228755950928,-50.479278564453125,-933,7813.0,-34.20042037963867,-678,9943.0
5100,0.26146700978279114,-58.54143142700195,-913,7813.0,-42.78455352783203,-705,9943.0
5110,0.26265430450439453,-50.195133209228516,-819,7813.0,-45.5759162902832,-701,9943.0
5120,0.2639737129211426,-33.57485580444336,-460,7813.0,-36.91783905029297,-642,9943.0
5130,0.2658228576183319,-17.972761154174805,-160,7813.0,-25.72486686706543,-220,9943.0
5140,0.2655281722545624,-4.207525253295898,-73,7813.0,-8.406952857971191,-143,9943.0
5150,0.26691845059394836,-5.598146438598633,-66,7813.0,10.02037525177002,274,9943.0
5160,0.2683473825454712,-7.420105934143066,-175,7813.0,25.521879196166992,521,9943.0
5170,0.269883394241333,-4.731642723083496,1,7813.0,28.508840560913086,384,9943.0
5180,0.2695554494857788,-2.3517560958862305,-40,7813.0,16.859054565429688,331,9943.0
5190,0.2709360420703888,6.304236888885498,205,7813.0,5.824850082397461,-73,9943.0
5200,0.27210772037506104,21.99628257751465,481,7813.0,-6.950875282287598,-149,9943.0
5210,0.2732522785663605,33.21940231323242,532,7813.0,-17.425609588623047,-425,9943.0
5220,0.2743814289569855,29.620376586914062,495,7813.0,-23.815582275390625,-337,9943.0
5230,0.27502211928367615,25.41019058227539,309,7813.0,-26.355960845947266,-355,9943.0
5240,0.2756565809249878,17.504575729370117,267,7813.0,-26.225601196289062,-453,9943.0
5250,0.27611038088798523,7.463622093200684,129,7813.0,-20.53875732421875,-462,9943.0
5260,0.2771793305873871,1.6391870975494385,68,7813.0,-16.049102783203125,-213,9943.0
5270,0.27460938692092896,-1.651716709136963,-88,7813.0,-13.384073257446289,-34,9943.0
5280,0.2750999331474304,-8.388030052185059,-193,7813.0,-5.535751819610596,-88,9943.0
5290,0.2755180299282074,-15.02741813659668,-223,7813.0,7.37415885925293,-33,9943.0
5300,0.2755458652973175,-19.77189064025879,-307,7813.0,14.733362197875977,293,9943.0
5310,0.2757667303085327,-21.7938289642334,-350,7813.0,21.369943618774414,513,9943.0
5320,0.2758024334907532,-13.667092323303223,-205,7813.0,29.38127326965332,460,9943.0
5330,0.2757910192012787,-8.52059268951416,-115,7813.0,36.660491943359375,477,9943.0
5340,0.2756880223751068,-14.439390182495117,-327,7813.0,26.8258113861084,395,9943.0
5350,0.2753378748893738,-23.276914596557617,-415,7813.0,14.336445808410645,93,9943.0
5360,0.2746090888977051,-26.294025421142578,-431,7813.0,3.195805549621582,65,9943.0
5370,0.2740718424320221,-24.13355827331543,-387,7813.0,-7.208554744720459,-221,9943.0
5380,0.27342090010643005,-10.572571754455566,-105,7813.0,-15.718560218811035,-194,9943.0
5390,0.27246105670928955,2.9953536987304688,64,7813.0,-23.27727699279785,-402,9943.0
5400,0.2693578600883484,15.191007614135742,409,7813.0,-24.102893829345703,-373,9943.0
5410,0.2683672606945038,28.062908172607422,453,7813.0,-20.148855209350586,-278,9943.0
5420,0.26728659868240356,33.729427337646484,619,7813.0,-15.409842491149902,-323,9943.0
5430,0.2661581039428711,33.0495491027832,505,7813.0,-12.085342407226562,-52,9943.0
5440,0.2634696960449219,23.38946533203125,340,7813.0,-1.562286376953125,0,9943.0
5450,0.2618709206581116,16.391456604003906,302,7813.0,13.553258895874023,209,9943.0
5460,0.25972700119018555,12.219398498535156,150,7813.0,20.390958786010742,438,9943.0
5470,0.2584756016731262,6.62174129486084,35,7813.0,25.045042037963867,387,9943.0
5480,0.25712159276008606,-6.170964241027832,-82,7813.0,31.54693603515625,596,9943.0
5490,0.2546398639678955,-13.626378059387207,-302,7813.0,31.095991134643555,414,9943.0
5500,0.25277769565582275,-18.046491622924805,-289,7813.0,21.2210750579834,400,9943.0
5510,0.2519266903400421,-20.534826278686523,-416,7813.0,17.17449188232422,232,9943.0
5520,0.2507999539375305,-23.82006072998047,-343,7813.0,20.244253158569336,432,9943.0
5530,0.24946792423725128,-19.069351196289062,-250,7813.0,21.809518814086914,296,9943.0
5540,0.2487417459487915,-15.40886116027832,-267,7813.0,20.060691833496094,255,9943.0
5550,0.2480989545583725,-4.595654487609863,6,7813.0,11.839789390563965,257,9943.0
5560,0.24756652116775513,-0.060940563678741455,36,7813.0,4.174550533294678,37,9943.0
5570,0.24735333025455475,5.919349193572998,28,7813.0,-0.9701194763183594,-56,9943.0
5580,0.2485775202512741,6.757430553436279,127,7813.0,1.1551904678344727,174,9943.0
5590,0.24885103106498718,13.318748474121094,239,7813.0,9.75056266784668,157,9943.0
5600,0.24916084110736847,19.234596252441406,289,7813.0,15.376056671142578,362,9943.0
5610,0.24974924325942993,21.73723793029785,440,7813.0,18.506433486938477,316,9943.0
5620,0.25170180201530457,21.413902282714844,293,7813.0,17.365015029907227,192,9943.0
5630,0.25243380665779114,15.827584266662598,298,7813.0,13.848016738891602,277,9943.0
5640,0.253412127494812,10.677521705627441,101,7813.0,8.303953170776367,-37,9943.0
5650,0.25440695881843567,4.355411052703857,32,7813.0,0.8722188472747803,128,9943.0
5660,0.25628700852394104,-2.4532313346862793,-84,7813.0,-2.3422653675079346,-151,9943.0
5670,0.25749409198760986,-5.42991828918457,-76,7813.0,-10.683367729187012,-103,9943.0
5680,0.25882992148399353,-10.032384872436523,-221,7813.0,-11.420819282531738,-220,9943.0
5690,0.2602243423461914,-18.50053596496582,-348,7813.0,-7.447719573974609,-32,9943.0
5700,0.2617781162261963,-26.07312774658203,-422,7813.0,-3.7263238430023193,-96,9943.0
5710,0.2647095322608948,-24.156347274780273,-324,7813.0,7.695328712463379,277,9943.0
5720,0.26642030477523804,-17.901981353759766,-312,7813.0,26.12035369873047,374,9943.0
5730,0.2680147886276245,-10.26786994934082,-146,7813.0,39.01005935668945,792,9943.0
5740,0.2697889804840088,2.7706000804901123,179,7813.0,43.494876861572266,660,9943.0
5750,0.2719501852989197,21.366079330444336,353,7813.0,37.37572479248047,579,9943.0
5760,0.2733350694179535,25.693004608154297,457,7813.0,24.032995223999023,334,9943.0
5770,0.27454447746276855,17.922714233398438,204,7813.0,6.1240081787109375,-69,9943.0
5780,0.27552080154418945,5.926568984985352,32,7813.0,-18.98809242248535,-372,9943.0
5790,0.27663111686706543,-8.531394004821777,-215,7813.0,-33.27641677856445,-717,9943.0
5800,0.27794936299324036,-15.109020233154297,-157,7813.0,-43.64535140991211,-674,9943.0
5810,0.2783483564853668,-7.77461576461792,-120,7813.0,-54.377323150634766,-1057,9943.0
5820,0.2788963317871094,1.5713175535202026,73,7813.0,-53.53605270385742,-824,9943.0
5830,0.27936241030693054,8.63131046295166,108,7813.0,-44.41690444946289,-702,9943.0
5840,0.28001514077186584,13.208532333374023,268,7813.0,-26.240909576416016,-261,9943.0
5850,0.28042981028556824,15.631251335144043,162,7813.0,-12.028908729553223,-158,9943.0
5860,0.2806243598461151,8.933059692382812,153,7813.0,-3.0547800064086914,0,9943.0
5870,0.28085383772850037,2.995248556137085,-25,7813.0,-2.0683436393737793,-68,9943.0
5880,0.2798687517642975,-3.2638814449310303,-101,7813.0,-1.534942626953125,-37,9943.0
5890,0.28005605936050415,-19.68305778503418,-374,7813.0,5.491257190704346,203,9943.0
5900,0.2800384759902954,-30.886783599853516,-636,7813.0,17.368043899536133,282,9943.0
5910,0.28022652864456177,-31.280376434326172,-432,7813.0,28.069501876831055,464,9943.0
5920,0.2800201177597046,-21.373048782348633,-320,7813.0,34.88568115234375,623,9943.0
5930,0.27993157505989075,-8.570778846740723,-83,7813.0,42.361541748046875,772,9943.0
5940,0.2795085906982422,8.757822036743164,333,7813.0,40.03590393066406,657,9943.0
5950,0.27931517362594604,35.68483352661133,667,7813.0,26.03762435913086,217,9943.0
5960,0.27870410680770874,53.073570251464844,803,7813.0,0.9361191391944885,-164,9943.0
5970,0.27849218249320984,45.99980163574219,742,7813.0,-33.096839904785156,-589,9943.0
5980,0.27728691697120667,22.143774032592773,243,7813.0,-55.33967590332031,-1013,9943.0
5990,0.27729979157447815,-0.8278762698173523,-101,7813.0,-64.4719009399414,-993,9943.0
6000,0.2759576737880707,-18.41651725769043,-399,7813.0,-59.150390625,-1003,9943.0
6010,0.27469614148139954,-24.04147720336914,-381,7813.0,-42.55398178100586,-487,9943.0
6020,0.2730563282966614,-24.82733917236328,-400,7813.0,-16.80201530456543,-276,9943.0
6030,0.27204132080078125,-15.533266067504883,-257,7813.0,1.75691556930542,154,9943.0
6040,0.27109041810035706,-3.6081666946411133,91,7813.0,13.087569236755371,210,9943.0
6050,0.26997923851013184,9.530649185180664,157,7813.0,14.078871726989746,99,9943.0
6060,0.26940029859542847,20.33895492553711,362,7813.0,5.1753339767456055,171,9943.0
6070,0.26858237385749817,28.634658813476562,606,7813.0,1.029473066329956,41,9943.0
6080,0.26814645528793335,30.526771545410156,385,7813.0,5.922138690948486,52,9943.0
6090,0.26766419410705566,20.141769409179688,274,7813.0,13.375797271728516,320,9943.0
6100,0.2641787528991699,6.640738487243652,37,7813.0,22.78261375427246,322,9943.0
6110,0.26387321949005127,-2.00925874710083,-145,7813.0,34.698604583740234,613,9943.0
6120,0.2634873688220978,-14.334064483642578,-173,7813.0,44.93806457519531,764,9943.0
6130,0.26317721605300903,-23.324838638305664,-449,7813.0,41.307090759277344,483,9943.0
6140,0.26277151703834534,-31.78875732421875,-534,7813.0,23.808744430541992,438,9943.0
6150,0.26057490706443787,-37.31928253173828,-541,7813.0,14.163508415222168,286,9943.0
6160,0.26054659485816956,-32.56296157836914,-501,7813.0,7.92218017578125,-20,9943.0
6170,0.26027733087539673,-21.80778694152832,-294,7813.0,-7.335328102111816,-247,9943.0
6180,0.26015323400497437,-4.511535167694092,25,7813.0,-20.976970672607422,-441,9943.0
6190,0.2595376968383789,6.4729108810424805,152,7813.0,-33.228004455566406,-466,9943.0
6200,0.2594999074935913,10.867721557617188,214,7813.0,-34.608909606933594,-583,9943.0
6210,0.25930503010749817,14.023757934570312,189,7813.0,-25.87834930419922,-458,9943.0
6220,0.2592969834804535,12.315495491027832,142,7813.0,-19.321426391601562,-164,9943.0
6230,0.25820356607437134,6.361140727996826,154,7813.0,-11.826356887817383,-153,9943.0
6240,0.258535772562027,5.434362411499023,91,7813.0,-0.7350792288780212,48,9943.0
6250,0.2591710388660431,9.464256286621094,237,7813.0,19.39126205444336,500,9943.0
6260,0.2599806487560272,20.129636764526367,290,7813.0,43.34633255004883,739,9943.0
6270,0.2605453431606293,19.052183151245117,327,7813.0,52.220542907714844,968,9943.0
6280,0.259109228849411,19.988679885864258,411,7813.0,58.568519592285156,912,9943.0
6290,0.25963225960731506,17.796674728393555,150,7813.0,57.718685150146484,916,9943.0
6300,0.260102242231369,2.095977783203125,-3,7813.0,50.00615692138672,801,9943.0
6310,0.260150283575058,-9.330035209655762,-164,7813.0,26.135135650634766,176,9943.0
6320,0.2628868520259857,-13.963519096374512,-322,7813.0,-2.15584397315979,-1,9943.0
6330,0.26321983337402344,-16.494754791259766,-200,7813.0,-18.166324615478516,-373,9943.0
6340,0.26360011100769043,-15.454171180725098,-288,7813.0,-33.11075210571289,-650,9943.0
6350,0.26379260420799255,-18.12627601623535,-313,7813.0,-35.04824447631836,-439,9943.0
6360,0.2638839781284332,-19.954309463500977,-293,7813.0,-24.584972381591797,-430,9943.0
6370,0.2643505930900574,-14.992321014404297,-229,7813.0,-16.126789093017578,-206,9943.0
6380,0.26465466618537903,0.25378093123435974,150,7813.0,-12.18337345123291,-167,9943.0
6390,0.265804648399353,18.491056442260742,360,7813.0,-5.916697978973389,-101,9943.0
6400,0.26617491245269775,30.966726303100586,579,7813.0,-6.514682292938232,-138,9943.0
6410,0.2671034336090088,35.645694732666016,555,7813.0,-17.38768196105957,-271,9943.0
6420,0.26738908886909485,32.64411544799805,465,7813.0,-18.377300262451172,-311,9943.0
6430,0.2683252990245819,18.949443817138672,214,7813.0,-10.213871002197266,26,9943.0
6440,0.2693563997745514,3.0488126277923584,-43,7813.0,10.806473731994629,236,9943.0
6450,0.2703789174556732,-13.483112335205078,-267,7813.0,29.89730453491211,630,9943.0
6460,0.2721201479434967,-26.940690994262695,-497,7813.0,43.17718505859375,653,9943.0
6470,0.2731945514678955,-41.191768646240234,-748,7813.0,49.09649658203125,888,9943.0
6480,0.2746492624282837,-50.8599739074707,-815,7813.0,43.80176544189453,542,9943.0
6490,0.2755492329597473,-53.80645751953125,-899,7813.0,26.824752807617188,264,9943.0
6500,0.2778310179710388,-49.92691421508789,-667,7813.0,12.225812911987305,135,9943.0
6510,0.2786204516887665,-27.959157943725586,-295,7813.0,-5.845796585083008,-206,9943.0
6520,0.28030118346214294,-7.253871917724609,31,7813.0,-28.5936222076416,-667,9943.0
6530,0.2814776301383972,16.20684242248535,350,7813.0,-47.35626983642578,-949,9943.0
6540,0.28262996673583984,28.357276916503906,558,7813.0,-59.46242141723633,-926,9943.0
6550,0.28336358070373535,36.13485336303711,566,7813.0,-63.50484085083008,-1181,9943.0
6560,0.2843262553215027,43.293434143066406,727,7813.0,-62.27169418334961,-885,9943.0
6570,0.28565624356269836,48.67842483520508,795,7813.0,-48.469791412353516,-789,9943.0
6580,0.28652507066726685,46.472206115722656,777,7813.0,-31.79238510131836,-486,9943.0
6590,0.28600573539733887,36.71598434448242,498,7813.0,-16.08575439453125,-151,9943.0
6600,0.28721365332603455,22.590030670166016,374,7813.0,5.597164630889893,134,9943.0
6610,0.2886316776275635,11.622199058532715,156,7813.0,27.90833854675293,615,9943.0
6620,0.28976041078567505,1.9790431261062622,-31,7813.0,41.9993896484375,601,9943.0
6630,0.29009518027305603,-5.504167079925537,-119,7813.0,49.219215393066406,942,9943.0
6640,0.29112347960472107,-9.544822692871094,-208,7813.0,45.35623550415039,665,9943.0
6650,0.29234886169433594,-19.038936614990234,-342,7813.0,33.87164306640625,591,9943.0
6660,0.293209046125412,-29.319181442260742,-540,7813.0,22.223709106445312,193,9943.0
6670,0.2946412265300751,-35.573028564453125,-582,7813.0,9.921549797058105,144,9943.0
6680,0.2953260838985443,-27.084775924682617,-291,7813.0,-5.460259437561035,-247,9943.0
6690,0.2961897850036621,-3.4633383750915527,45,7813.0,-27.901098251342773,-669,9943.0
6700,0.2969782054424286,22.595523834228516,502,7813.0,-46.2393798828125,-687,9943.0
6710,0.29744353890419006,39.985740661621094,720,7813.0,-51.71358871459961,-938,9943.0
6720,0.29821068048477173,46.07191848754883,721,7813.0,-47.46556854248047,-677,9943.0
6730,0.29887324571609497,38.70953369140625,557,7813.0,-34.5130500793457,-575,9943.0
6740,0.29940783977508545,23.183252334594727,323,7813.0,-22.074995040893555,-221,9943.0
6750,0.2998732030391693,8.579302787780762,27,7813.0,-12.75180721282959,-208,9943.0
6760,0.298380047082901,-5.139647960662842,-59,7813.0,-10.513940811157227,-231,9943.0
6770,0.29913491010665894,-14.6221342086792,-327,7813.0,-7.05092716217041,69,9943.0
6780,0.2998642325401306,-22.94753646850586,-436,7813.0,5.540762424468994,160,9943.0
6790,0.3006768822669983,-25.577077865600586,-358,7813.0,26.84672737121582,551,9943.0
6800,0.3014186918735504,-21.755117416381836,-434,7813.0,46.52286148071289,886,9943.0
6810,0.29859134554862976,-18.06791114807129,-185,7813.0,60.946250915527344,1017,9943.0
6820,0.2988630533218384,-9.81069278717041,-147,7813.0,61.64690017700195,984,9943.0
6830,0.299220472574234,3.0963799953460693,188,7813.0,49.044525146484375,754,9943.0
6840,0.2997019588947296,21.263755798339844,421,7813.0,31.30776023864746,339,9943.0
6850,0.3001420199871063,31.692596435546875,536,7813.0,11.53723430633545,214,9943.0
6860,0.30044153332710266,32.25126266479492,584,7813.0,-3.7470476627349854,-169,9943.0
6870,0.30028682947158813,26.042051315307617,312,7813.0,-23.552928924560547,-457,9943.0
6880,0.3005180358886719,14.969076156616211,264,7813.0,-40.87717056274414,-724,9943.0
6890,0.299500435590744,5.915693283081055,13,7813.0,-52.2066764831543,-900,9943.0
6900,0.2992618978023529,-2.4364728927612305,-6,7813.0,-59.33511734008789,-995,9943.0
6910,0.29884639382362366,-11.27380084991455,-281,7813.0,-62.15430450439453,-998,9943.0
6920,0.2985929548740387,-22.19181251525879,-336,7813.0,-57.6777229309082,-948,9943.0
6930,0.2990604043006897,-32.926551818847656,-622,7813.0,-52.55925369262695,-766,9943.0
6940,0.2950283885002136,-45.15517044067383,-726,7813.0,-47.73576354980469,-816,9943.0
6950,0.29437902569770813,-38.709232330322266,-533,7813.0,-25.161531448364258,-161,9943.0
6960,0.294948548078537,-22.621774673461914,-368,7813.0,13.920048713684082,406,9943.0
6970,0.2953818738460541,-8.625267028808594,-11,7813.0,51.72244644165039,1068,9943.0
6980,0.29173722863197327,2.015007972717285,19,7813.0,81.16470336914062,1237,9943.0
6990,0.29159078001976013,7.822155475616455,222,7813.0,75.20626831054688,1206,9943.0
7000,0.2916053235530853,21.53455924987793,465,7813.0,58.56132888793945,847,9943.0
7010,0.2912013530731201,31.105409622192383,502,7813.0,51.72752380371094,710,9943.0
7020,0.2917783856391907,39.22209930419922,658,7813.0,44.70913314819336,773,9943.0
7030,0.29055625200271606,36.83057403564453,570,7813.0,23.683053970336914,264,9943.0
7040,0.2904375195503235,17.79877281188965,161,7813.0,-3.5142035484313965,-261,9943.0
7050,0.2903496325016022,-2.467216730117798,-86,7813.0,-25.160188674926758,-424,9943.0
7060,0.29019463062286377,-16.64695167541504,-308,7813.0,-40.16581726074219,-783,9943.0
7070,0.28931039571762085,-22.969579696655273,-426,7813.0,-43.9288444519043,-668,9943.0
7080,0.28912055492401123,-25.17040252685547,-358,7813.0,-37.00442886352539,-515,9943.0
7090,0.2894781231880188,-21.413803100585938,-400,7813.0,-27.399478912353516,-409,9943.0
7100,0.2896274924278259,-18.49599266052246,-242,7813.0,-10.63011360168457,38,9943.0
7110,0.28860601782798767,-11.875667572021484,-112,7813.0,4.240574836730957,47,9943.0
7120,0.2889351546764374,-3.2656683921813965,-88,7813.0,9.524791717529297,244,9943.0
7130,0.2894437611103058,-2.9529294967651367,-29,7813.0,19.530656814575195,442,9943.0
7140,0.2900628447532654,-4.183624267578125,-45,7813.0,27.692781448364258,314,9943.0
7150,0.290730357170105,-3.2432172298431396,-95,7813.0,21.339792251586914,362,9943.0
7160,0.28991174697875977,0.8525845408439636,63,7813.0,20.12061882019043,447,9943.0
7170,0.2907688021659851,5.305424690246582,65,7813.0,25.370006561279297,383,9943.0
7180,0.29153141379356384,3.123502016067505,-91,7813.0,32.45158386230469,631,9943.0
7190,0.29269132018089294,-7.237015724182129,-83,7813.0,31.888647079467773,497,9943.0
7200,0.29337334632873535,-3.206922769546509,66,7813.0,21.031185150146484,175,9943.0
7210,0.2941250205039978,5.32471227645874,85,7813.0,6.817716121673584,114,9943.0
7220,0.29490089416503906,7.729334831237793,194,7813.0,-5.154333114624023,-58,9943.0
7230,0.2956937849521637,11.196451187133789,175,7813.0,-19.444425582885742,-438,9943.0
7240,0.2964703440666199,13.908673286437988,164,7813.0,-30.047069549560547,-532,9943.0
7250,0.2980765402317047,17.844392776489258,398,7813.0,-34.32075500488281,-585,9943.0
7260,0.2989109456539154,17.173625946044922,232,7813.0,-42.06819152832031,-808,9943.0
7270,0.2996271550655365,8.243313789367676,93,7813.0,-40.83462142944336,-562,9943.0
7280,0.3004527688026428,-6.600296497344971,-194,7813.0,-31.63216781616211,-500,9943.0
7290,0.3004362881183624,-20.121047973632812,-367,7813.0,-12.187405586242676,-120,9943.0
7300,0.3013930320739746,-31.937349319458008,-630,7813.0,11.308138847351074,288,9943.0
7310,0.30215728282928467,-43.50129318237305,-715,7813.0,29.040424346923828,540,9943.0
7320,0.30286478996276855,-47.257530212402344,-768,7813.0,36.328983306884766,511,9943.0
7330,0.3031475841999054,-30.208921432495117,-352,7813.0,39.11445617675781,721,9943.0
7340,0.30445387959480286,-8.604218482971191,-46,7813.0,22.919307708740234,352,9943.0
7350,0.30525892972946167,-4.094076156616211,-33,7813.0,-5.041625022888184,-355,9943.0
7360,0.3061625361442566,11.695643424987793,122,7813.0,-33.648075103759766,-624,9943.0
7370,0.3070312738418579,15.143664360046387,320,7813.0,-57.05567169189453,-860,9943.0
7380,0.3076956868171692,13.730443954467773,234,7813.0,-64.32235717773438,-1148,9943.0
7390,0.3088439106941223,13.536720275878906,227,7813.0,-57.22282409667969,-803,9943.0
7400,0.3097692131996155,22.239587783813477,392,7813.0,-37.226806640625,-552,9943.0
7410,0.3105674982070923,30.24971580505371,499,7813.0,-14.397298812866211,-11,9943.0
7420,0.31101563572883606,32.524105072021484,543,7813.0,11.285469055175781,176,9943.0
7430,0.3123013973236084,27.603416442871094,440,7813.0,29.515783309936523,586,9943.0
7440,0.3135569989681244,20.519283294677734,270,7813.0,41.48452377319336,570,9943.0
7450,0.3148481845855713,5.933818340301514,60,7813.0,45.7442626953125,779,9943.0
7460,0.3159576952457428,-9.467777252197266,-247,7813.0,45.85206985473633,701,9943.0
7470,0.31824377179145813,-29.1934871673584,-563,7813.0,40.870914459228516,604,9943.0
7480,0.31937333941459656,-49.79888153076172,-914,7813.0,22.28534507751465,278,9943.0
7490,0.32047730684280396,-50.506202697753906,-768,7813.0,7.277626037597656,158,9943.0
7500,0.32135578989982605,-31.053726196289062,-288,7813.0,-11.072465896606445,-259,9943.0
7510,0.3233572244644165,3.2702279090881348,171,7813.0,-26.592294692993164,-598,9943.0
7520,0.32430553436279297,31.388460159301758,635,7813.0,-39.7754020690918,-540,9943.0
7530,0.32516762614250183,53.65768051147461,957,7813.0,-35.24732208251953,-544,9943.0
7540,0.32579466700553894,59.07172775268555,957,7813.0,-23.02065086364746,-223,9943.0
7550,0.32647839188575745,48.29349136352539,650,7813.0,-9.945170402526855,-142,9943.0
7560,0.3270784616470337,30.262657165527344,448,7813.0,11.960809707641602,322,9943.0
7570,0.3277131915092468,13.13550090789795,119,7813.0,23.88994598388672,476,9943.0
7580,0.3282240629196167,4.2960734367370605,83,7813.0,28.141386032104492,435,9943.0
7590,0.3286992013454437,-2.1989965438842773,-76,7813.0,22.190567016601562,326,9943.0
7600,0.3307884931564331,-12.57400894165039,-256,7813.0,13.93287181854248,81,9943.0
7610,0.331197053194046,-20.42995262145996,-314,7813.0,2.1791112422943115,44,9943.0
7620,0.3315896689891815,-20.18033218383789,-317,7813.0,-6.000577926635742,-204,9943.0
7630,0.33186811208724976,-22.954389572143555,-347,7813.0,-12.434081077575684,-201,9943.0
7640,0.3326442837715149,-20.796463012695312,-333,7813.0,-21.622285842895508,-512,9943.0
7650,0.33280426263809204,-19.8607120513916,-334,7813.0,-34.857479095458984,-497,9943.0
7660,0.33310699462890625,-15.636106491088867,-150,7813.0,-23.0532169342041,-355,9943.0
7670,0.33365172147750854,-1.5606056451797485,39,7813.0,-0.71028071641922,208,9943.0
7680,0.33412253856658936,12.334769248962402,282,7813.0,17.69862174987793,198,9943.0
7690,0.33482715487480164,21.543258666992188,378,7813.0,26.45174789428711,532,9943.0
7700,0.33508962392807007,22.192249298095703,304,7813.0,35.957481384277344,506,9943.0
7710,0.33535027503967285,17.367807388305664,227,7813.0,38.990257263183594,701,9943.0
7720,0.33546164631843567,8.112386703491211,56,7813.0,38.57355880737305,564,9943.0
7730,0.33477330207824707,-2.9141247272491455,-77,7813.0,39.032867431640625,589,9943.0
7740,0.3344697952270508,-12.974370956420898,-267,7813.0,26.200037002563477,258,9943.0
7750,0.33408358693122864,-20.544702529907227,-373,7813.0,8.892191886901855,107,9943.0
7760,0.3337395191192627,-20.609909057617188,-230,7813.0,-7.881183624267578,-231,9943.0
7770,0.3324085772037506,-18.681032180786133,-378,7813.0,-19.39533042907715,-436,9943.0
7780,0.33190351724624634,-13.989335060119629,-145,7813.0,-22.49239158630371,-278,9943.0
7790,0.33148688077926636,0.15984466671943665,150,7813.0,-21.811208724975586,-420,9943.0
7800,0.3312247693538666,14.65069580078125,250,7813.0,-23.680166244506836,-469,9943.0
7810,0.33080244064331055,20.948810577392578,391,7813.0,-27.317489624023438,-438,9943.0
7820,0.32971662282943726,19.010051727294922,243,7813.0,-28.942060470581055,-568,9943.0
7830,0.32950490713119507,13.935924530029297,231,7813.0,-24.380630493164062,-186,9943.0
7840,0.3292337656021118,3.172913074493408,-48,7813.0,-3.7364401817321777,28,9943.0
7850,0.3289619982242584,5.400979042053223,221,7813.0,18.69671630859375,484,9943.0
7860,0.3284441828727722,20.100160598754883,349,7813.0,34.92863845825195,521,9943.0
7870,0.3280801773071289,29.304126739501953,515,7813.0,44.033790588378906,854,9943.0
7880,0.3277775049209595,34.179996490478516,596,7813.0,54.216548919677734,840,9943.0
7890,0.32730138301849365,31.97538948059082,399,7813.0,61.20906448364258,1003,9943.0
7900,0.32668620347976685,19.864484786987305,363,7813.0,53.70089340209961,868,9943.0
7910,0.3258097469806671,10.790027618408203,218,7813.0,33.923954010009766,453,9943.0
7920,0.32509472966194153,1.0143120288848877,-50,7813.0,7.348862648010254,-68,9943.0
7930,0.32462459802627563,-12.4109525680542,-360,7813.0,-21.254581451416016,-393,9943.0
7940,0.32468336820602417,-30.0777530670166,-540,7813.0,-37.09037780761719,-631,9943.0
7950,0.32625409960746765,-46.19524002075195,-814,7813.0,-43.096675872802734,-743,9943.0
7960,0.3256395161151886,-57.138450622558594,-948,7813.0,-42.69838333129883,-786,9943.0
7970,0.3253764510154724,-44.8367805480957,-710,7813.0,-39.122467041015625,-614,9943.0
7980,0.3252546191215515,-24.5955867767334,-227,7813.0,-33.57083511352539,-345,9943.0
7990,0.32469719648361206,-1.0078084468841553,94,7813.0,-19.34395408630371,-285,9943.0
8000,0.3248458802700043,18.591196060180664,295,7813.0,-14.968522071838379,-329,9943.0
8010,0.32530391216278076,19.205814361572266,216,7813.0,-6.769845485687256,-10,9943.0
8020,0.32576119899749756,10.601604461669922,248,7813.0,0.7539324760437012,84,9943.0
8030,0.3263232707977295,10.061734199523926,268,7813.0,-3.0362961292266846,-120,9943.0
8040,0.32597386837005615,16.705711364746094,239,7813.0,-2.3023033142089844,-136,9943.0
8050,0.3263913094997406,25.519433975219727,497,7813.0,-2.111844062805176,69,9943.0
8060,0.3267292380332947,29.425094604492188,525,7813.0,0.5268097519874573,33,9943.0
8070,0.3269891142845154,18.97032928466797,193,7813.0,4.327042579650879,14,9943.0
8080,0.3262559473514557,5.580624103546143,122,7813.0,25.889169692993164,699,9943.0
8090,0.32635432481765747,0.788941502571106,4,7813.0,42.09148406982422,625,9943.0
8100,0.3263177275657654,-1.2056270837783813,-160,7813.0,32.329166412353516,482,9943.0
8110,0.3267238736152649,-8.89135456085205,-150,7813.0,7.00480318069458,70,9943.0
8120,0.3279057443141937,-22.328706741333008,-472,7813.0,-10.299650192260742,-311,9943.0
8130,0.32810214161872864,-40.69947814941406,-804,7813.0,-24.518856048583984,-471,9943.0
8140,0.32857105135917664,-54.14298629760742,-871,7813.0,-40.167320251464844,-603,9943.0
8150,0.3287107050418854,-52.99568176269531,-771,7813.0,-52.39486312866211,-956,9943.0
8160,0.3292361795902252,-40.24992752075195,-641,7813.0,-63.623321533203125,-1078,9943.0
8170,0.3307393789291382,-32.47734451293945,-479,7813.0,-69.17880249023438,-980,9943.0
8180,0.3312402665615082,-30.127836227416992,-460,7813.0,-53.093963623046875,-890,9943.0
8190,0.33169907331466675,-17.137557983398438,-237,7813.0,-34.74899673461914,-431,9943.0
8200,0.3324202299118042,5.6329498291015625,249,7813.0,-4.633955478668213,5,9943.0
8210,0.33216267824172974,35.84859848022461,698,7813.0,24.06195831298828,445,9943.0
8220,0.33285772800445557,57.67072296142578,1007,7813.0,44.51872253417969,968,9943.0
8230,0.33330684900283813,66.96183013916016,1109,7813.0,60.12479782104492,981,9943.0
8240,0.33363205194473267,57.0879020690918,768,7813.0,59.161075592041016,964,9943.0
8250,0.3345854878425598,32.53146743774414,473,7813.0,46.58457565307617,782,9943.0
8260,0.3373680114746094,3.8711729049682617,-85,7813.0,27.928539276123047,220,9943.0
8270,0.3377673625946045,-22.841806411743164,-508,7813.0,10.757193565368652,194,9943.0
8280,0.3385753929615021,-47.91158676147461,-812,7813.0,-4.608841896057129,-116,9943.0
8290,0.33907321095466614,-54.96705627441406,-871,7813.0,-21.838924407958984,-497,9943.0
8300,0.34070679545402527,-39.24055862426758,-591,7813.0,-46.12641906738281,-884,9943.0
8310,0.3414136469364166,-20.805030822753906,-241,7813.0,-61.101661682128906,-973,9943.0
8320,0.34230250120162964,-4.536128044128418,70,7813.0,-65.45430755615234,-1097,9943.0
8330,0.3433838486671448,12.488494873046875,237,7813.0,-64.93403625488281,-1000,9943.0
8340,0.3446201682090759,27.82853889465332,614,7813.0,-47.99281311035156,-588,9943.0
8350,0.3455999195575714,44.25712966918945,702,7813.0,-20.77383041381836,-345,9943.0
8360,0.34658050537109375,44.469329833984375,703,7813.0,2.8660953044891357,245,9943.0
8370,0.3478647470474243,36.416988372802734,457,7813.0,25.966705322265625,630,9943.0
8380,0.3489985167980194,24.738126754760742,327,7813.0,57.04627990722656,1007,9943.0
8390,0.34841468930244446,6.443929195404053,-32,7813.0,78.37631225585938,1443,9943.0
8400,0.3491872549057007,-13.427940368652344,-261,7813.0,90.36286926269531,1417,9943.0
8410,0.3500882387161255,-28.310903549194336,-535,7813.0,82.27196502685547,1255,9943.0
8420,0.3504105806350708,-33.58641815185547,-469,7813.0,61.53831481933594,945,9943.0
8430,0.34982845187187195,-26.7943058013916,-442,7813.0,31.90057945251465,214,9943.0
8440,0.3505614995956421,-21.56644630432129,-397,7813.0,-1.4800615310668945,-110,9943.0
8450,0.3508356809616089,-18.9333553314209,-285,7813.0,-22.696575164794922,-508,9943.0
8460,0.35094940662384033,-14.560128211975098,-200,7813.0,-43.27357864379883,-810,9943.0
8470,0.35132187604904175,-12.157647132873535,-209,7813.0,-57.42383575439453,-823,9943.0
8480,0.3490627408027649,-7.85446834564209,-169,7813.0,-54.814453125,-998,9943.0
8490,0.3488583564758301,0.25794798135757446,34,7813.0,-51.06557846069336,-690,9943.0
8500,0.3486427664756775,4.30788516998291,112,7813.0,-47.19448471069336,-861,9943.0
8510,0.34840476512908936,6.900732040405273,119,7813.0,-35.712398529052734,-410,9943.0
8520,0.3479744493961334,9.915956497192383,171,7813.0,-23.421112060546875,-378,9943.0
8530,0.3478739857673645,17.5613956451416,336,7813.0,-11.518516540527344,-94,9943.0
8540,0.3475222885608673,7.261828899383545,29,7813.0,13.786713600158691,343,9943.0
8550,0.3472454845905304,-1.355651617050171,24,7813.0,40.08017349243164,750,9943.0
8560,0.3456282317638397,-1.642791509628296,-27,7813.0,56.569854736328125,930,9943.0
8570,0.3450201749801636,1.870279312133789,59,7813.0,60.09099578857422,1027,9943.0
8580,0.3442596197128296,0.07244651764631271,-25,7813.0,52.949031829833984,771,9943.0
8590,0.3433111906051636,-0.7350572943687439,-6,7813.0,39.90888977050781,595,9943.0
8600,0.3424206078052521,-1.3473764657974243,70,7813.0,20.496152877807617,309,9943.0
8610,0.3420230746269226,-3.370009183883667,-81,7813.0,-1.776795506477356,-202,9943.0
8620,0.3411431908607483,-3.689984083175659,-89,7813.0,-23.436838150024414,-484,9943.0
8630,0.3401549160480499,-3.2521579265594482,3,7813.0,-37.63493347167969,-529,9943.0
8640,0.3392634987831116,-1.9682890176773071,-9,7813.0,-37.08007049560547,-620,9943.0
8650,0.33954086899757385,-5.604783058166504,-169,7813.0,-24.255390167236328,-359,9943.0
8660,0.3389395475387573,-12.777515411376953,-215,7813.0,-23.39777183532715,-336,9943.0
8670,0.33842015266418457,-22.480653762817383,-387,7813.0,-32.46759033203125,-613,9943.0
8680,0.3380325436592102,-17.889400482177734,-339,7813.0,-38.0560302734375,-614,9943.0
8690,0.33676645159721375,-8.452709197998047,13,7813.0,-33.44816207885742,-535,9943.0
8700,0.3367205858230591,17.63259506225586,395,7813.0,-20.6771183013916,-315,9943.0
8710,0.3366464376449585,31.725719451904297,528,7813.0,-0.5209977626800537,185,9943.0
8720,0.33666446805000305,26.0467586517334,381,7813.0,25.449249267578125,475,9943.0
8730,0.336769700050354,16.71501350402832,247,7813.0,43.887474060058594,807,9943.0
8740,0.3368016183376312,11.142399787902832,208,7813.0,58.41498947143555,1052,9943.0
8750,0.3367014527320862,11.093769073486328,174,7813.0,75.94454956054688,1236,9943.0
8760,0.33631062507629395,10.620781898498535,155,7813.0,77.06535339355469,1232,9943.0
8770,0.3359908163547516,7.808586120605469,170,7813.0,54.12606430053711,779,9943.0
8780,0.3362075686454773,6.174533843994141,135,7813.0,20.110389709472656,120,9943.0
8790,0.3360506594181061,6.367913722991943,78,7813.0,-16.28227424621582,-479,9943.0
8800,0.33606454730033875,3.275153875350952,-18,7813.0,-38.86958312988281,-705,9943.0
8810,0.33618661761283875,-18.052967071533203,-414,7813.0,-51.02887725830078,-730,9943.0
8820,0.3361576497554779,-40.16214370727539,-744,7813.0,-52.36689758300781,-916,9943.0
8830,0.33694586157798767,-46.13496017456055,-810,7813.0,-48.67167282104492,-771,9943.0
8840,0.33701813220977783,-37.273414611816406,-534,7813.0,-42.692115783691406,-595,9943.0
8850,0.3374287784099579,-26.408552169799805,-421,7813.0,-30.78665542602539,-484,9943.0
8860,0.3383226692676544,-10.68624210357666,-160,7813.0,-13.885137557983398,-110,9943.0
8870,0.33713921904563904,-3.967352867126465,35,7813.0,8.371832847595215,328,9943.0
8880,0.33779749274253845,6.448695182800293,106,7813.0,32.120426177978516,518,9943.0
8890,0.33859795331954956,13.424901008605957,202,7813.0,53.07689666748047,997,9943.0
8900,0.33925068378448486,25.088319778442383,499,7813.0,57.41474914550781,1041,9943.0
8910,0.34099438786506653,32.383121490478516,541,7813.0,47.20908737182617,607,9943.0
8920,0.3415217101573944,33.4289436340332,474,7813.0,29.482696533203125,340,9943.0
8930,0.34190309047698975,27.568824768066406,501,7813.0,13.221357345581055,271,9943.0
8940,0.34255358576774597,20.008426666259766,394,7813.0,0.009978600777685642,-74,9943.0
8950,0.3429599404335022,17.663938522338867,237,7813.0,-11.035983085632324,-231,9943.0
8960,0.34573549032211304,21.3725528717041,369,7813.0,-19.947967529296875,-308,9943.0
8970,0.3462419807910919,10.249998092651367,43,7813.0,-37.648048400878906,-743,9943.0
8980,0.3468148410320282,-12.317888259887695,-375,7813.0,-44.571372985839844,-599,9943.0
8990,0.3473375737667084,-36.867130279541016,-735,7813.0,-31.490264892578125,-465,9943.0
9000,0.3484145700931549,-58.02484893798828,-1045,7813.0,-13.065993309020996,-46,9943.0
9010,0.34913378953933716,-69.23020935058594,-1143,7813.0,7.978271961212158,200,9943.0
9020,0.3500956892967224,-63.50621032714844,-969,7813.0,18.20838165283203,351,9943.0
9030,0.35093578696250916,-41.902584075927734,-486,7813.0,24.703332901000977,473,9943.0
9040,0.35186296701431274,-16.7857608795166,-136,7813.0,15.844947814941406,84,9943.0
9050,0.353929728269577,4.435075759887695,165,7813.0,-9.244837760925293,-274,9943.0
9060,0.3548929989337921,27.174551010131836,565,7813.0,-14.284098625183105,-238,9943.0
9070,0.35566943883895874,50.16841506958008,1001,7813.0,-11.88472843170166,-113,9943.0
9080,0.3564499020576477,65.6399154663086,1049,7813.0,-9.380130767822266,-192,9943.0
9090,0.35833895206451416,64.44205474853516,1009,7813.0,-2.953778028488159,87,9943.0
9100,0.3588204085826874,53.38514709472656,817,7813.0,6.846705913543701,27,9943.0
9110,0.359296590089798,37.83005142211914,530,7813.0,11.017755508422852,356,9943.0
9120,0.3595031499862671,22.614797592163086,305,7813.0,16.440448760986328,192,9943.0
9130,0.3595454692840576,7.197494983673096,77,7813.0,21.11911964416504,290,9943.0
9140,0.35842952132225037,-6.482397079467773,-216,7813.0,20.287086486816406,239,9943.0
9150,0.35835134983062744,-21.499635696411133,-392,7813.0,10.451981544494629,191,9943.0
9160,0.35830795764923096,-30.593074798583984,-514,7813.0,0.5129150152206421,-53,9943.0
9170,0.358114093542099,-31.43986701965332,-556,7813.0,-8.93055248260498,-151,9943.0
9180,0.35956984758377075,-29.945846557617188,-451,7813.0,-21.161853790283203,-321,9943.0
9190,0.3596009612083435,-29.804773330688477,-549,7813.0,-24.017053604125977,-492,9943.0
9200,0.35954490303993225,-32.29835510253906,-596,7813.0,-18.243070602416992,-238,9943.0
9210,0.3594167232513428,-34.82501220703125,-444,7813.0,-15.803264617919922,-157,9943.0
9220,0.35933804512023926,-21.41067886352539,-222,7813.0,-13.280770301818848,-183,9943.0
9230,0.3595271408557892,-4.808114528656006,46,7813.0,4.2627058029174805,8,9943.0
9240,0.3593614995479584,27.129283905029297,527,7813.0,23.40620994567871,448,9943.0
9250,0.3589770793914795,55.09920120239258,1016,7813.0,30.883411407470703,533,9943.0
9260,0.3586597144603729,64.6963882446289,1103,7813.0,32.308204650878906,508,9943.0
9270,0.3578135073184967,59.424190521240234,870,7813.0,24.211063385009766,219,9943.0
9280,0.356986939907074,40.946292877197266,556,7813.0,13.410981178283691,188,9943.0
9290,0.3563263714313507,19.48227882385254,294,7813.0,1.5025430917739868,41,9943.0
9300,0.3560272753238678,0.08046862483024597,-144,7813.0,-6.341314792633057,-198,9943.0
9310,0.35474780201911926,-11.538358688354492,-264,7813.0,-14.250696182250977,-208,9943.0
9320,0.35393285751342773,-14.988398551940918,-197,7813.0,-18.577604293823242,-255,9943.0
9330,0.3531796932220459,-12.968058586120605,-162,7813.0,-19.209304809570312,-379,9943.0
9340,0.3525227904319763,-6.176336288452148,-115,7813.0,-22.87300682067871,-526,9943.0
9350,0.35275596380233765,-6.811997413635254,-88,7813.0,-29.055908203125,-468,9943.0
9360,0.3523103594779968,-11.930017471313477,-113,7813.0,-26.728771209716797,-376,9943.0
9370,0.3518807888031006,-14.600045204162598,-303,7813.0,-16.223501205444336,-267,9943.0
9380,0.3516424596309662,-15.630337715148926,-254,7813.0,-10.031736373901367,-195,9943.0
9390,0.3512377440929413,8.21510124206543,280,7813.0,-18.23468017578125,-264,9943.0
9400,0.3506852984428406,28.812885284423828,617,7813.0,-10.260436058044434,-122,9943.0
9410,0.3501357436180115,39.12568283081055,669,7813.0,10.847250938415527,189,9943.0
9420,0.34948980808258057,48.97041320800781,815,7813.0,18.990205764770508,361,9943.0
9430,0.3489043116569519,38.26839065551758,501,7813.0,26.487035751342773,506,9943.0
9440,0.34858983755111694,7.409844398498535,-21,7813.0,34.0876579284668,428,9943.0
9450,0.34783634543418884,-15.044647216796875,-333,7813.0,25.79855728149414,407,9943.0
9460,0.3473300337791443,-28.057470321655273,-469,7813.0,16.21770477294922,387,9943.0
9470,0.3465932607650757,-31.077754974365234,-531,7813.0,9.15035343170166,40,9943.0
9480,0.34607577323913574,-36.93360137939453,-557,7813.0,-8.726065635681152,-211,9943.0
9490,0.3471698760986328,-13.382847785949707,-94,7813.0,-16.437929153442383,-390,9943.0
9500,0.34689822793006897,10.512876510620117,185,7813.0,-21.37066078186035,-307,9943.0
9510,0.34662604331970215,17.04642105102539,276,7813.0,-22.248979568481445,-247,9943.0
9520,0.3465203046798706,12.150248527526855,191,7813.0,-18.847675323486328,-315,9943.0
9530,0.34507039189338684,-4.1995015144348145,-210,7813.0,-12.170456886291504,-256,9943.0
9540,0.3451542854309082,-24.219926834106445,-487,7813.0,-9.53337287902832,-93,9943.0
9550,0.3453829288482666,-44.26326370239258,-813,7813.0,-13.449186325073242,-159,9943.0
9560,0.3458847999572754,-54.027687072753906,-832,7813.0,-8.179229736328125,-124,9943.0
9570,0.3454291820526123,-26.231182098388672,-339,7813.0,0.4361170828342438,-46,9943.0
9580,0.3461407423019409,4.583691120147705,230,7813.0,0.716853678226471,-6,9943.0
9590,0.34676992893218994,34.95914077758789,658,7813.0,1.5046207904815674,59,9943.0
9600,0.3473643958568573,45.30195236206055,821,7813.0,8.641252517700195,241,9943.0
9610,0.347931832075119,42.171085357666016,638,7813.0,29.66183853149414,454,9943.0
9620,0.348385214805603,32.91450119018555,486,7813.0,43.72193908691406,732,9943.0
9630,0.34878629446029663,16.963268280029297,221,7813.0,52.485618591308594,921,9943.0
9640,0.34938663244247437,3.750828742980957,-6,7813.0,48.346595764160156,661,9943.0
9650,0.34987759590148926,-3.8769640922546387,-213,7813.0,29.272424697875977,342,9943.0
9660,0.3512715697288513,-17.469388961791992,-299,7813.0,6.590688228607178,89,9943.0
9670,0.35176169872283936,-26.900272369384766,-335,7813.0,-13.676152229309082,-372,9943.0
9680,0.3521496653556824,-24.10089111328125,-413,7813.0,-24.22614860534668,-490,9943.0
9690,0.3526375889778137,-22.123632431030273,-390,7813.0,-31.01218032836914,-388,9943.0
9700,0.3530956506729126,-27.23682403564453,-488,7813.0,-24.313940048217773,-435,9943.0
9710,0.3535207509994507,-38.44187927246094,-705,7813.0,-16.36739730834961,-276,9943.0
9720,0.35421520471572876,-40.790889739990234,-643,7813.0,-10.794416427612305,14,9943.0
9730,0.35491102933883667,-39.67515182495117,-579,7813.0,-2.4301679134368896,-100,9943.0
9740,0.35551586747169495,-39.890846252441406,-642,7813.0,-2.2291440963745117,-111,9943.0
9750,0.3562755286693573,-21.92844581604004,-84,7813.0,-1.5132805109024048,143,9943.0
9760,0.3572320342063904,16.165512084960938,467,7813.0,11.02629280090332,278,9943.0
9770,0.35806044936180115,41.5153923034668,755,7813.0,22.030729293823242,447,9943.0
9780,0.3586494028568268,56.71917724609375,1015,7813.0,26.078243255615234,531,9943.0
9790,0.3589932918548584,59.70241165161133,849,7813.0,34.955711364746094,457,9943.0
9800,0.35884150862693787,42.66920471191406,588,7813.0,38.2705078125,661,9943.0
9810,0.35889267921447754,22.726661682128906,322,7813.0,36.92478561401367,442,9943.0
9820,0.3588171601295471,9.1229887008667,98,7813.0,25.462696075439453,426,9943.0
9830,0.3593243956565857,-1.957606554031372,18,7813.0,8.261982917785645,-17,9943.0
9840,0.35865622758865356,-8.069416046142578,-230,7813.0,-12.283935546875,-341,9943.0
9850,0.358361154794693,-11.654196739196777,-197,7813.0,-32.35296630859375,-511,9943.0
9860,0.3581795394420624,-18.410551071166992,-359,7813.0,-38.9346809387207,-655,9943.0
9870,0.3578781187534332,-25.458478927612305,-469,7813.0,-32.5255126953125,-463,9943.0
9880,0.35686373710632324,-30.33251190185547,-431,7813.0,-25.559797286987305,-523,9943.0
9890,0.3565385639667511,-30.652921676635742,-575,7813.0,-21.461528778076172,-266,9943.0
9900,0.3561383783817291,-42.101165771484375,-725,7813.0,-14.8599853515625,-185,9943.0
9910,0.3556261360645294,-58.7919921875,-1050,7813.0,2.4942076206207275,-5,9943.0
9920,0.3555135726928711,-60.16828536987305,-933,7813.0,10.11258602142334,271,9943.0
9930,0.35521072149276733,-39.685035705566406,-423,7813.0,12.586718559265137,245,9943.0
9940,0.3550797402858734,-0.6378657221794128,150,7813.0,5.555136680603027,-4,9943.0
9950,0.35487955808639526,28.318002700805664,503,7813.0,1.4208064079284668,-61,9943.0
9960,0.3547055721282959,44.76338577270508,798,7813.0,2.101919412612915,79,9943.0
9970,0.35370486974716187,59.884361267089844,1045,7813.0,10.378722190856934,248,9943.0
9980,0.3533080816268921,69.84689331054688,1149,7813.0,11.532824516296387,211,9943.0
9990,0.3527089059352875,65.77315521240234,993,7813.0,10.211845397949219,102,9943.0
10000,0.35167214274406433,52.308799743652344,664,7813.0,6.80323600769043,152,9943.0
10010,0.3523808717727661,27.503873825073242,399,7813.0,8.644193649291992,151,9943.0
10020,0.3515391945838928,5.1393351554870605,-28,7813.0,6.222194194793701,-21,9943.0
10030,0.3509781062602997,-7.002374172210693,-107,7813.0,4.449087619781494,61,9943.0
10040,0.3504573404788971,-11.281248092651367,-194,7813.0,-12.59695816040039,-267,9943.0
10050,0.3500575125217438,-17.8775691986084,-352,7813.0,-23.877521514892578,-464,9943.0
10060,0.3499873876571655,-24.016563415527344,-487,7813.0,-31.281686782836914,-548,9943.0
10070,0.34970372915267944,-39.356624603271484,-625,7813.0,-41.18882369995117,-647,9943.0
10080,0.34947314858436584,-52.41862869262695,-964,7813.0,-36.37660217285156,-657,9943.0
10090,0.3494410216808319,-71.88450622558594,-1361,7813.0,-15.843369483947754,-76,9943.0
10100,0.34794193506240845,-89.25013732910156,-1410,7813.0,6.290914535522461,309,9943.0
10110,0.3476661145687103,-75.70030212402344,-1024,7813.0,25.39813804626465,408,9943.0
10120,0.3485700190067291,-37.28044891357422,-474,7813.0,26.595609664916992,346,9943.0
10130,0.3493385314941406,-0.28743812441825867,152,7813.0,9.9024076461792,64,9943.0
10140,0.34986862540245056,31.222246170043945,628,7813.0,-13.010409355163574,-221,9943.0
10150,0.34977900981903076,54.611637115478516,951,7813.0,-17.98462677001953,-335,9943.0
10160,0.3500303030014038,66.72917175292969,1121,7813.0,-15.307530403137207,-289,9943.0
10170,0.3501656949520111,74.85302734375,1214,7813.0,-14.911763191223145,-320,9943.0
10180,0.35041287541389465,81.78284454345703,1316,7813.0,-19.512168884277344,-273,9943.0
10190,0.34946563839912415,75.38612365722656,1221,7813.0,-14.118067741394043,-86,9943.0
10200,0.3493903577327728,59.760169982910156,872,7813.0,1.5653985738754272,51,9943.0
10210,0.3500615954399109,35.22712326049805,403,7813.0,12.730550765991211,278,9943.0
10220,0.3500160574913025,3.820899486541748,-69,7813.0,20.935285568237305,352,9943.0
10230,0.3500402271747589,-24.992578506469727,-579,7813.0,33.380332946777344,488,9943.0
10240,0.3492988646030426,-45.15690994262695,-712,7813.0,37.53899383544922,611,9943.0
10250,0.34937790036201477,-43.88697052001953,-702,7813.0,19.007312774658203,242,9943.0
10260,0.3498401641845703,-47.14960479736328,-778,7813.0,-0.0719071477651596,-104,9943.0
10270,0.35001587867736816,-47.18525695800781,-821,7813.0,-9.210192680358887,-271,9943.0
10280,0.35141250491142273,-45.2658576965332,-656,7813.0,-15.780803680419922,-227,9943.0
10290,0.35178402066230774,-28.576684951782227,-308,7813.0,-15.693431854248047,-125,9943.0
10300,0.35238826274871826,-12.538363456726074,-92,7813.0,-9.326719284057617,-266,9943.0
10310,0.3529255986213684,7.976589202880859,235,7813.0,-22.941469192504883,-386,9943.0
10320,0.3544056713581085,28.70868682861328,640,7813.0,-23.091466903686523,-378,9943.0
10330,0.35552799701690674,51.77888107299805,954,7813.0,-15.55945110321045,-164,9943.0
10340,0.3563271462917328,63.43467330932617,1157,7813.0,-5.557594299316406,32,9943.0
10350,0.35698118805885315,68.1583023071289,1061,7813.0,4.428673267364502,-28,9943.0
10360,0.3575933575630188,63.63951873779297,937,7813.0,7.89918327331543,236,9943.0
10370,0.3577047288417816,44.580509185791016,606,7813.0,11.089118957519531,111,9943.0
10380,0.35890433192253113,22.179157257080078,230,7813.0,19.44446563720703,397,9943.0
10390,0.35901761054992676,-1.300888180732727,-119,7813.0,28.661304473876953,499,9943.0
10400,0.35920092463493347,-13.859825134277344,-216,7813.0,38.62452697753906,690,9943.0
10410,0.3608856797218323,-8.58261775970459,-32,7813.0,34.31828308105469,399,9943.0
10420,0.36100342869758606,4.538279056549072,124,7813.0,13.930623054504395,223,9943.0
10430,0.3608994483947754,5.522854328155518,13,7813.0,-8.59827995300293,-425,9943.0
10440,0.36090606451034546,-9.701311111450195,-325,7813.0,-35.754539489746094,-531,9943.0
10450,0.3609846234321594,-42.188392639160156,-783,7813.0,-40.19752883911133,-725,9943.0
10460,0.36410439014434814,-64.8890151977539,-1161,7813.0,-26.075462341308594,-340,9943.0
10470,0.36421483755111694,-76.87675476074219,-1283,7813.0,-11.094245910644531,-152,9943.0
10480,0.3645908832550049,-76.45576477050781,-1125,7813.0,8.487664222717285,268,9943.0
10490,0.3647347688674927,-56.203182220458984,-812,7813.0,24.565900802612305,386,9943.0
10500,0.3660760223865509,-28.65188217163086,-402,7813.0,38.77340316772461,657,9943.0
10510,0.366457998752594,-1.613618016242981,157,7813.0,35.48798370361328,637,9943.0
10520,0.3669586181640625,20.088619232177734,413,7813.0,25.409618377685547,336,9943.0
10530,0.36730703711509705,37.75080871582031,582,7813.0,19.525911331176758,254,9943.0
10540,0.3691548705101013,43.810054779052734,771,7813.0,13.001545906066895,333,9943.0
10550,0.3693121075630188,49.283016204833984,825,7813.0,9.727785110473633,39,9943.0
10560,0.3691527545452118,51.4940185546875,863,7813.0,4.1152119636535645,121,9943.0
10570,0.36950233578681946,53.973819732666016,848,7813.0,-3.7439165115356445,-143,9943.0
10580,0.3692423403263092,39.38813781738281,544,7813.0,-15.480392456054688,-211,9943.0
10590,0.36912205815315247,16.925321578979492,129,7813.0,-27.023393630981445,-447,9943.0
10600,0.36885419487953186,-4.878677845001221,-120,7813.0,-21.96763801574707,-388,9943.0
10610,0.3685136139392853,-26.09427261352539,-489,7813.0,-19.847488403320312,-228,9943.0
10620,0.368010938167572,-39.72883224487305,-747,7813.0,-12.52903938293457,-181,9943.0
10630,0.36613211035728455,-41.848060607910156,-574,7813.0,-5.015965461730957,-64,9943.0
10640,0.36542659997940063,-35.84154510498047,-603,7813.0,-0.938210666179657,17,9943.0
10650,0.3647111654281616,-29.68824005126953,-462,7813.0,-2.7333083152770996,-117,9943.0
10660,0.3638428747653961,-27.106826782226562,-464,7813.0,1.762202262878418,187,9943.0
10670,0.3631981611251831,-40.71503829956055,-740,7813.0,24.841035842895508,440,9943.0
10680,0.3626486659049988,-48.14358139038086,-813,7813.0,42.138736724853516,804,9943.0
10690,0.36207231879234314,-38.75860595703125,-433,7813.0,44.4486083984375,750,9943.0
10700,0.36144599318504333,-8.410176277160645,11,7813.0,32.568294525146484,447,9943.0
10710,0.3614007234573364,33.42774963378906,757,7813.0,9.881879806518555,-34,9943.0
10720,0.3615870773792267,64.81686401367188,1104,7813.0,-20.965801239013672,-433,9943.0
10730,0.36124444007873535,71.80147552490234,1186,7813.0,-36.773719787597656,-573,9943.0
10740,0.3608776330947876,56.38851547241211,783,7813.0,-37.094112396240234,-621,9943.0
10750,0.3610949218273163,33.44480514526367,473,7813.0,-27.32352638244629,-322,9943.0
10760,0.36133837699890137,16.44289207458496,231,7813.0,-15.334944725036621,-301,9943.0
10770,0.36128702759742737,3.680649995803833,11,7813.0,-7.329995155334473,-49,9943.0
10780,0.36093559861183167,-9.579102516174316,-213,7813.0,-2.3235440254211426,-129,9943.0
10790,0.3603820502758026,-19.318574905395508,-302,7813.0,-3.7468178272247314,18,9943.0
10800,0.3602191209793091,-26.894588470458984,-485,7813.0,-0.1621723473072052,-124,9943.0
10810,0.3599826395511627,-34.165435791015625,-578,7813.0,0.4680957794189453,129,9943.0
10820,0.3596362769603729,-46.06135177612305,-809,7813.0,2.8795952796936035,-55,9943.0
10830,0.35953524708747864,-60.53209686279297,-1080,7813.0,17.54335594177246,467,9943.0
10840,0.3594294488430023,-67.67887115478516,-1059,7813.0,38.60190963745117,657,9943.0
10850,0.3569759726524353,-61.56383514404297,-976,7813.0,48.97459030151367,814,9943.0
10860,0.35696685314178467,-34.68013000488281,-383,7813.0,47.43678665161133,758,9943.0
10870,0.35793957114219666,-1.4055171012878418,147,7813.0,27.439416885375977,464,9943.0
10880,0.3583543300628662,29.03105354309082,566,7813.0,10.030699729919434,7,9943.0
10890,0.35771483182907104,48.25372314453125,870,7813.0,-18.178272247314453,-502,9943.0
10900,0.3581930696964264,62.64147186279297,1108,7813.0,-31.445789337158203,-429,9943.0
10910,0.35855311155319214,69.72689819335938,1193,7813.0,-27.02714729309082,-463,9943.0
10920,0.35885295271873474,61.40473556518555,818,7813.0,-25.67458152770996,-429,9943.0
10930,0.35893532633781433,36.80670928955078,513,7813.0,-16.915353775024414,-121,9943.0
10940,0.3583534061908722,10.557112693786621,-63,7813.0,-10.770782470703125,-255,9943.0
10950,0.3585518002510071,-14.297403335571289,-302,7813.0,-8.619613647460938,-53,9943.0
10960,0.35848167538642883,-28.74954605102539,-613,7813.0,0.5496673583984375,79,9943.0
10970,0.3583480417728424,-38.60267639160156,-647,7813.0,11.332509994506836,385,9943.0
10980,0.3568919897079468,-43.73084259033203,-767,7813.0,22.287128448486328,242,9943.0
10990,0.3565225601196289,-43.86460876464844,-688,7813.0,21.362451553344727,361,9943.0
11000,0.3567056357860565,-32.260257720947266,-413,7813.0,8.479438781738281,95,9943.0
11010,0.356745183467865,-20.73683738708496,-264,7813.0,-14.747857093811035,-445,9943.0
11020,0.3568074703216553,-9.995006561279297,-160,7813.0,-37.5120735168457,-794,9943.0
11030,0.355681449174881,5.260228633880615,118,7813.0,-42.36766815185547,-573,9943.0
11040,0.3562626242637634,25.996580123901367,552,7813.0,-20.737192153930664,-37,9943.0
11050,0.35659798979759216,56.577430725097656,1014,7813.0,5.424783706665039,178,9943.0
11060,0.35695210099220276,77.6055679321289,1402,7813.0,27.416696548461914,597,9943.0
11070,0.35541215538978577,86.08696746826172,1337,7813.0,39.045989990234375,638,9943.0
11080,0.3560793697834015,70.6611557006836,1073,7813.0,55.08255386352539,1053,9943.0
11090,0.35606104135513306,45.04258728027344,548,7813.0,61.551513671875,909,9943.0
11100,0.35565322637557983,12.320478439331055,1,7813.0,51.42573547363281,816,9943.0
11110,0.35617437958717346,-16.202896118164062,-318,7813.0,28.672822952270508,282,9943.0
11120,0.35451173782348633,-33.10944366455078,-633,7813.0,-4.930699348449707,-343,9943.0
11130,0.35440313816070557,-42.366546630859375,-802,7813.0,-45.584259033203125,-892,9943.0
11140,0.35410186648368835,-55.60245132446289,-916,7813.0,-71.04203033447266,-1081,9943.0
11150,0.3538191616535187,-63.250099182128906,-1034,7813.0,-77.60081481933594,-1329,9943.0
11160,0.35366368293762207,-58.01951599121094,-981,7813.0,-68.3812026977539,-1039,9943.0
11170,0.3532927334308624,-42.79717254638672,-586,7813.0,-50.7463264465332,-589,9943.0
11180,0.3527611494064331,-30.515159606933594,-389,7813.0,-35.53652572631836,-600,9943.0
11190,0.3527604341506958,-15.813593864440918,-270,7813.0,-26.452251434326172,-496,9943.0
11200,0.3518984913825989,-0.23599490523338318,131,7813.0,-14.379544258117676,-134,9943.0
11210,0.3520982563495636,23.66234588623047,539,7813.0,-9.486884117126465,-88,9943.0
11220,0.35243043303489685,47.80508804321289,791,7813.0,-5.7387237548828125,-211,9943.0
11230,0.3530639111995697,58.22697830200195,927,7813.0,0.14408937096595764,73,9943.0
11240,0.35364940762519836,54.67171859741211,944,7813.0,21.227628707885742,496,9943.0
11250,0.35310637950897217,51.53717803955078,761,7813.0,51.00564193725586,946,9943.0
11260,0.3534431457519531,37.00680923461914,611,7813.0,71.29484558105469,1204,9943.0
11270,0.35346221923828125,18.238492965698242,186,7813.0,82.7933349609375,1348,9943.0
11280,0.355311781167984,-7.779414176940918,-244,7813.0,77.08501434326172,1274,9943.0
11290,0.3540154993534088,-29.249067306518555,-513,7813.0,48.57826614379883,633,9943.0
11300,0.3546026647090912,-42.63560104370117,-779,7813.0,9.157081604003906,-154,9943.0
11310,0.3550705909729004,-51.65339279174805,-869,7813.0,-33.73052978515625,-788,9943.0
11320,0.355408638715744,-52.237091064453125,-802,7813.0,-68.58185577392578,-1097,9943.0
11330,0.354636013507843,-52.85036087036133,-812,7813.0,-75.79459381103516,-1240,9943.0
11340,0.35477983951568604,-45.85462188720703,-739,7813.0,-73.25719451904297,-1226,9943.0
11350,0.3548121154308319,-31.67679214477539,-446,7813.0,-68.93675994873047,-1059,9943.0
11360,0.3550077974796295,-10.780022621154785,-15,7813.0,-55.643287658691406,-762,9943.0
11370,0.3570041060447693,14.159675598144531,308,7813.0,-32.94111251831055,-530,9943.0
11380,0.35407283902168274,38.96079635620117,648,7813.0,-9.277124404907227,15,9943.0
11390,0.3547820448875427,53.52131271362305,1002,7813.0,10.59758472442627,235,9943.0
11400,0.3555186092853546,60.8702278137207,885,7813.0,28.066905975341797,562,9943.0
11410,0.3565269708633423,57.601078033447266,990,7813.0,46.75093460083008,815,9943.0
11420,0.35623058676719666,39.70292663574219,462,7813.0,62.40481948852539,1128,9943.0
11430,0.35685479640960693,12.044201850891113,150,7813.0,70.02080535888672,1161,9943.0
11440,0.3572734296321869,-9.876977920532227,-292,7813.0,62.477439880371094,945,9943.0
11450,0.358101487159729,-24.42304039001465,-451,7813.0,50.68166732788086,819,9943.0
11460,0.35838955640792847,-32.836700439453125,-484,7813.0,32.046470642089844,362,9943.0
11470,0.3597196936607361,-31.653907775878906,-517,7813.0,3.7468345165252686,-242,9943.0
11480,0.35996341705322266,-30.09607696533203,-506,7813.0,-27.792131423950195,-485,9943.0
11490,0.36025482416152954,-34.3254280090332,-531,7813.0,-42.69169235229492,-606,9943.0
11500,0.3601732850074768,-35.29373550415039,-579,7813.0,-34.005008697509766,-587,9943.0
11510,0.35993748903274536,-30.425037384033203,-526,7813.0,-26.289697647094727,-360,9943.0
11520,0.3601120114326477,-24.31535530090332,-276,7813.0,-26.515146255493164,-442,9943.0
11530,0.3600141704082489,-13.844362258911133,-228,7813.0,-30.50680923461914,-644,9943.0
11540,0.3599899709224701,-3.2212555408477783,15,7813.0,-41.147071838378906,-671,9943.0
11550,0.35893282294273376,4.143848419189453,88,7813.0,-38.67176055908203,-633,9943.0
11560,0.35884493589401245,11.843411445617676,197,7813.0,-28.374658584594727,-346,9943.0
11570,0.3592134416103363,17.986501693725586,393,7813.0,-16.05805778503418,-254,9943.0
11580,0.3593132793903351,32.708412170410156,620,7813.0,-3.012899398803711,204,9943.0
11590,0.3594130873680115,43.50111389160156,728,7813.0,20.724382400512695,440,9943.0
11600,0.35961318016052246,33.9562873840332,407,7813.0,46.558658599853516,977,9943.0
11610,0.360183984041214,17.117815017700195,267,7813.0,66.4214859008789,1065,9943.0
11620,0.3599949777126312,9.521554946899414,46,7813.0,72.3629150390625,1258,9943.0
11630,0.35952600836753845,1.535691738128662,92,7813.0,69.1611099243164,1026,9943.0
11640,0.3587857186794281,-1.6834070682525635,-99,7813.0,50.363162994384766,537,9943.0
11650,0.3584732115268707,-2.87760066986084,-44,7813.0,19.2518253326416,131,9943.0
11660,0.3580784797668457,-3.883397102355957,-12,7813.0,-6.032103538513184,-187,9943.0
11670,0.3578157126903534,-7.795840740203857,-164,7813.0,-25.028356552124023,-464,9943.0
11680,0.35744181275367737,-13.177459716796875,-277,7813.0,-37.48299026489258,-510,9943.0
11690,0.3597686290740967,-20.033164978027344,-322,7813.0,-48.82502365112305,-930,9943.0
11700,0.35947927832603455,-19.792024612426758,-313,7813.0,-62.52546691894531,-1039,9943.0
11710,0.35925257205963135,-15.16279411315918,-176,7813.0,-67.63661193847656,-1076,9943.0
11720,0.35898423194885254,-7.204304218292236,-112,7813.0,-65.79830932617188,-1075,9943.0
11730,0.3581249713897705,-0.6166254281997681,61,7813.0,-50.46541976928711,-681,9943.0
11740,0.35848578810691833,10.978372573852539,207,7813.0,-23.16851234436035,-337,9943.0
11750,0.35865503549575806,21.17962646484375,404,7813.0,10.743922233581543,451,9943.0
11760,0.3588944971561432,27.05757713317871,485,7813.0,46.40325164794922,764,9943.0
11770,0.3586318790912628,32.6170768737793,529,7813.0,70.89714050292969,1366,9943.0
11780,0.3587287664413452,22.19002914428711,343,7813.0,92.76121520996094,1422,9943.0
11790,0.3585950434207916,14.101112365722656,187,7813.0,94.4582748413086,1523,9943.0
11800,0.3584493100643158,5.387726783752441,99,7813.0,73.97576904296875,1210,9943.0
11810,0.35834062099456787,3.680401086807251,158,7813.0,40.276695251464844,382,9943.0
11820,0.3593132495880127,13.415841102600098,312,7813.0,-6.858588218688965,-353,9943.0
11830,0.3594130575656891,26.5487003326416,403,7813.0,-45.853675842285156,-907,9943.0
11840,0.35992786288261414,24.30717658996582,359,7813.0,-78.48920440673828,-1322,9943.0
11850,0.35974717140197754,7.482663154602051,81,7813.0,-93.10610961914062,-1595,9943.0
11860,0.3603796362876892,-20.560148239135742,-491,7813.0,-92.23729705810547,-1457,9943.0
11870,0.36060041189193726,-46.1718864440918,-796,7813.0,-88.96807861328125,-1485,9943.0
11880,0.3605824410915375,-62.86912536621094,-1095,7813.0,-77.2774887084961,-1106,9943.0
11890,0.3607219159603119,-69.18065643310547,-1046,7813.0,-54.538265228271484,-858,9943.0
11900,0.35881268978118896,-61.773231506347656,-1022,7813.0,-22.512407302856445,-61,9943.0
11910,0.35914376378059387,-45.11532211303711,-524,7813.0,18.7672176361084,454,9943.0
11920,0.35971710085868835,-15.954866409301758,-226,7813.0,52.828495025634766,1033,9943.0
11930,0.36047258973121643,13.16034984588623,421,7813.0,72.23554229736328,1239,9943.0
11940,0.3607909679412842,38.80724334716797,663,7813.0,81.12843322753906,1296,9943.0
11950,0.3590427339076996,52.595211029052734,823,7813.0,81.19949340820312,1321,9943.0
11960,0.3589385449886322,53.08078384399414,846,7813.0,68.88407897949219,1121,9943.0
11970,0.3585999310016632,42.43617630004883,718,7813.0,43.727325439453125,500,9943.0
11980,0.35930460691452026,26.691335678100586,305,7813.0,11.376288414001465,38,9943.0
11990,0.3613954782485962,4.3582868576049805,-56,7813.0,-10.551554679870605,-132,9943.0
12000,0.36155229806900024,-25.658235549926758,-489,7813.0,-17.584503173828125,-266,9943.0
12010,0.3617524206638336,-50.85399627685547,-974,7813.0,-27.252803802490234,-617,9943.0
12020,0.3617607653141022,-58.05335235595703,-933,7813.0,-33.854331970214844,-505,9943.0
12030,0.3618999719619751,-53.20072937011719,-782,7813.0,-41.495487213134766,-684,9943.0
12040,0.36180222034454346,-42.99798583984375,-669,7813.0,-50.07815933227539,-948,9943.0
12050,0.36282914876937866,-27.09919548034668,-406,7813.0,-48.293785095214844,-704,9943.0
12060,0.3630867004394531,-9.936418533325195,45,7813.0,-37.70647430419922,-517,9943.0
12070,0.36433616280555725,12.533541679382324,223,7813.0,-22.135576248168945,-374,9943.0
12080,0.3619305193424225,24.73654556274414,476,7813.0,-5.342866897583008,101,9943.0
12090,0.36220332980155945,30.372114181518555,521,7813.0,22.39256477355957,374,9943.0
12100,0.3624729812145233,36.305625915527344,632,7813.0,48.481876373291016,998,9943.0
12110,0.3625703454017639,35.42470932006836,574,7813.0,72.46430206298828,1166,9943.0
12120,0.3615477383136749,25.77949333190918,315,7813.0,84.08770751953125,1455,9943.0
12130,0.3612293004989624,12.465218544006348,237,7813.0,81.14813995361328,1278,9943.0
12140,0.3608394265174866,8.842178344726562,150,7813.0,55.05093002319336,622,9943.0
12150,0.3614129424095154,8.982009887695312,95,7813.0,11.525568962097168,-54,9943.0
12160,0.36130398511886597,13.350264549255371,307,7813.0,-28.858009338378906,-521,9943.0
12170,0.36150455474853516,16.47664451599121,281,7813.0,-59.03607940673828,-977,9943.0
12180,0.36128494143486023,11.452043533325195,96,7813.0,-57.05019760131836,-1042,9943.0
12190,0.36125490069389343,-6.825849533081055,-228,7813.0,-42.24998474121094,-494,9943.0
12200,0.36112529039382935,-31.079608917236328,-585,7813.0,-32.4388542175293,-646,9943.0
12210,0.3601507246494293,-45.68014144897461,-813,7813.0,-28.259449005126953,-274,9943.0
12220,0.3601017892360687,-50.57883071899414,-823,7813.0,-12.693065643310547,-141,9943.0
12230,0.36013343930244446,-48.1089973449707,-767,7813.0,-1.2337801456451416,35,9943.0
12240,0.3601440191268921,-28.53269386291504,-222,7813.0,2.0083305835723877,161,9943.0
12250,0.36035147309303284,-1.0372247695922852,180,7813.0,9.330443382263184,110,9943.0
12260,0.3594580888748169,31.68567657470703,612,7813.0,15.683757781982422,309,9943.0
12270,0.3593951463699341,51.6301155090332,930,7813.0,24.632720947265625,616,9943.0
12280,0.35920149087905884,58.39841842651367,946,7813.0,33.54156494140625,526,9943.0
12290,0.35889047384262085,55.1253547668457,805,7813.0,34.30108642578125,590,9943.0
12300,0.35900017619132996,45.2998046875,715,7813.0,31.611804962158203,595,9943.0
12310,0.3586852252483368,31.887493133544922,398,7813.0,24.96723747253418,305,9943.0
12320,0.3580150604248047,21.253177642822266,215,7813.0,11.87554931640625,132,9943.0
12330,0.35769203305244446,13.901751518249512,275,7813.0,-2.180269956588745,-74,9943.0
12340,0.36057883501052856,6.061450481414795,10,7813.0,-12.24193286895752,-350,9943.0
12350,0.3601727783679962,-7.111611843109131,-242,7813.0,-16.464889526367188,-172,9943.0
12360,0.36012890934944153,-22.98444366455078,-510,7813.0,-13.80726432800293,-196,9943.0
12370,0.35992950201034546,-41.43974304199219,-760,7813.0,-22.4144229888916,-376,9943.0
12380,0.35983729362487793,-48.69196319580078,-683,7813.0,-33.12770080566406,-580,9943.0
12390,0.3595666289329529,-39.93410110473633,-653,7813.0,-41.03369140625,-795,9943.0
12400,0.35965943336486816,-17.853185653686523,-171,7813.0,-39.58171081542969,-475,9943.0
12410,0.3598442077636719,7.384899139404297,285,7813.0,-25.85466766357422,-382,9943.0
12420,0.3601246178150177,26.06127166748047,367,7813.0,-10.717963218688965,-118,9943.0
12430,0.35939279198646545,16.8588924407959,286,7813.0,0.6431302428245544,116,9943.0
12440,0.3594475984573364,6.000034809112549,67,7813.0,17.271541595458984,226,9943.0
12450,0.3594015836715698,4.14747953414917,90,7813.0,25.546154022216797,522,9943.0
12460,0.3592554032802582,-0.9819777607917786,-15,7813.0,31.172008514404297,476,9943.0
12470,0.35901618003845215,-9.13976764678955,-216,7813.0,28.24212646484375,362,9943.0
12480,0.3569723665714264,-7.129247188568115,-58,7813.0,15.543891906738281,284,9943.0
12490,0.3565673530101776,-0.4864656329154968,130,7813.0,-5.810251235961914,-233,9943.0
12500,0.3562442362308502,6.919230937957764,49,7813.0,-14.415251731872559,-281,9943.0
12510,0.3557693362236023,-1.3369853496551514,-21,7813.0,-12.478564262390137,-115,9943.0
12520,0.35568228363990784,-8.574182510375977,-131,7813.0,-14.830342292785645,-308,9943.0
12530,0.3553451597690582,-19.046829223632812,-364,7813.0,-27.201786041259766,-579,9943.0
12540,0.3550788462162018,-22.1414794921875,-347,7813.0,-33.35087203979492,-407,9943.0
12550,0.35497888922691345,-24.677682876586914,-353,7813.0,-21.6433162689209,-345,9943.0
12560,0.3537728786468506,-16.938182830810547,-273,7813.0,-11.064451217651367,-198,9943.0
12570,0.3536185026168823,-3.374783754348755,70,7813.0,-14.033258438110352,-115,9943.0
12580,0.3537510931491852,8.403761863708496,152,7813.0,-13.501981735229492,-288,9943.0
12590,0.3536582887172699,16.090654373168945,219,7813.0,-8.132716178894043,-45,9943.0
12600,0.35354793071746826,21.94275665283203,445,7813.0,6.070256233215332,192,9943.0
12610,0.35310396552085876,27.332847595214844,397,7813.0,15.603866577148438,166,9943.0
12620,0.3527680039405823,21.623661041259766,340,7813.0,25.42803382873535,549,9943.0
12630,0.3523687720298767,7.446319580078125,121,7813.0,31.834558486938477,474,9943.0
12640,0.3522356152534485,-8.187088012695312,-189,7813.0,32.00178909301758,497,9943.0
12650,0.3523271977901459,-10.04470157623291,-130,7813.0,21.355695724487305,367,9943.0
12660,0.3518562912940979,-3.619375705718994,20,7813.0,8.737442016601562,42,9943.0
12670,0.35149431228637695,1.66542387008667,-29,7813.0,-3.6331849098205566,-205,9943.0
12680,0.35109636187553406,2.124638557434082,78,7813.0,-18.025266647338867,-316,9943.0
12690,0.35075244307518005,-4.127941131591797,-10,7813.0,-32.81219482421875,-626,9943.0
12700,0.35177314281463623,-1.2703273296356201,-38,7813.0,-43.2049560546875,-810,9943.0
12710,0.3515923023223877,-1.86432683467865,-32,7813.0,-42.231788635253906,-550,9943.0
12720,0.3518339693546295,-9.001007080078125,-172,7813.0,-23.8276309967041,-318,9943.0
12730,0.35190728306770325,-22.495685577392578,-476,7813.0,2.5216734409332275,127,9943.0
12740,0.3523719906806946,-29.512636184692383,-398,7813.0,18.028297424316406,385,9943.0
12750,0.3528177738189697,-5.877220153808594,-22,7813.0,28.458587646484375,357,9943.0
12760,0.353095144033432,17.096899032592773,393,7813.0,32.29145431518555,518,9943.0
12770,0.35341551899909973,35.43585205078125,666,7813.0,32.25783920288086,639,9943.0
12780,0.3540791869163513,42.77876281738281,671,7813.0,36.95281219482422,545,9943.0
12790,0.35414236783981323,38.962032318115234,534,7813.0,43.380393981933594,759,9943.0
12800,0.3539164960384369,24.656112670898438,387,7813.0,41.7928466796875,731,9943.0
12810,0.3544422388076782,11.446032524108887,235,7813.0,26.945362091064453,267,9943.0
12820,0.3540736734867096,18.731548309326172,349,7813.0,1.350142240524292,-121,9943.0
12830,0.3568405210971832,39.92137145996094,843,7813.0,-18.46494483947754,-247,9943.0
12840,0.356549471616745,47.4716796875,746,7813.0,-29.405803680419922,-588,9943.0
12850,0.3571028411388397,36.39396286010742,446,7813.0,-33.57039260864258,-422,9943.0
12860,0.3571232259273529,2.9838454723358154,-252,7813.0,-28.554656982421875,-474,9943.0
12870,0.3591170012950897,-43.94232177734375,-970,7813.0,-16.385421752929688,-100,9943.0
12880,0.35938674211502075,-85.89923858642578,-1625,7813.0,-1.7510977983474731,34,9943.0
12890,0.35976406931877136,-106.6047134399414,-1715,7813.0,-0.15110059082508087,7,9943.0
12900,0.3597349524497986,-106.20372009277344,-1724,7813.0,4.773979187011719,59,9943.0
12910,0.3595726490020752,-85.74142456054688,-1071,7813.0,11.212239265441895,209,9943.0
12920,0.3604852855205536,-35.78036880493164,-234,7813.0,10.011493682861328,191,9943.0
12930,0.36168164014816284,11.238537788391113,295,7813.0,11.77454662322998,148,9943.0
12940,0.3625883460044861,39.55663299560547,766,7813.0,17.039995193481445,363,9943.0
12950,0.3633039891719818,61.0544548034668,1153,7813.0,25.983583450317383,608,9943.0
12960,0.3638763427734375,71.67251586914062,1140,7813.0,23.826597213745117,236,9943.0
12970,0.36432409286499023,61.172298431396484,836,7813.0,12.858528137207031,241,9943.0
12980,0.36458146572113037,35.39330291748047,505,7813.0,2.5566983222961426,-54,9943.0
12990,0.3646978735923767,6.6093573570251465,-204,7813.0,-2.849745750427246,98,9943.0
13000,0.36674758791923523,-21.257535934448242,-386,7813.0,2.6478285789489746,94,9943.0
13010,0.36684444546699524,-23.776721954345703,-353,7813.0,13.322038650512695,307,9943.0
13020,0.36691591143608093,-14.717811584472656,-156,7813.0,18.519594192504883,212,9943.0
13030,0.3669789731502533,-1.8790150880813599,-59,7813.0,4.061139106750488,-22,9943.0
13040,0.36701151728630066,-7.2405619621276855,-140,7813.0,-17.038631439208984,-278,9943.0
13050,0.3682042062282562,-18.293148040771484,-386,7813.0,-27.489938735961914,-592,9943.0
13060,0.368314653635025,-21.810184478759766,-385,7813.0,-36.073020935058594,-503,9943.0
13070,0.3685949742794037,-24.87331199645996,-370,7813.0,-31.858732223510742,-542,9943.0
13080,0.36891433596611023,-23.42984390258789,-421,7813.0,-25.587188720703125,-320,9943.0
13090,0.36881357431411743,-21.438392639160156,-209,7813.0,-14.396096229553223,-268,9943.0
13100,0.3690883219242096,-3.675950765609741,-37,7813.0,-0.9980331659317017,-9,9943.0
13110,0.3697006404399872,5.464376926422119,170,7813.0,0.7210129499435425,121,9943.0
13120,0.3700818121433258,12.677994728088379,233,7813.0,8.278870582580566,99,9943.0
13130,0.37050697207450867,24.222509384155273,488,7813.0,22.682050704956055,489,9943.0
13140,0.3703814148902893,32.28579330444336,596,7813.0,34.788639068603516,540,9943.0
13150,0.3703656494617462,31.28218650817871,450,7813.0,40.167030334472656,660,9943.0
13160,0.370240181684494,24.414989471435547,379,7813.0,34.665863037109375,594,9943.0
13170,0.36992356181144714,10.09380054473877,76,7813.0,29.199522018432617,344,9943.0
13180,0.3703049123287201,1.9487184286117554,3,7813.0,29.552263259887695,550,9943.0
13190,0.3699069023132324,4.579624652862549,201,7813.0,23.75230598449707,297,9943.0
13200,0.36934608221054077,13.251638412475586,190,7813.0,-0.9981151223182678,-276,9943.0
13210,0.36879777908325195,19.286161422729492,226,7813.0,-32.08277893066406,-607,9943.0
13220,0.3685893714427948,14.532334327697754,277,7813.0,-54.41559600830078,-951,9943.0
13230,0.3678353726863861,7.563684940338135,-8,7813.0,-57.5191650390625,-867,9943.0
13240,0.36731216311454773,-2.6756107807159424,-6,7813.0,-45.34689712524414,-736,9943.0
13250,0.3666428327560425,-9.680070877075195,-320,7813.0,-27.588726043701172,-320,9943.0
13260,0.36631864309310913,-19.983875274658203,-275,7813.0,-0.5472542643547058,88,9943.0
13270,0.36544400453567505,-24.81375503540039,-516,7813.0,17.557594299316406,299,9943.0
13280,0.36502644419670105,-19.889530181884766,-227,7813.0,27.694244384765625,592,9943.0
13290,0.3644726872444153,-1.137664794921875,145,7813.0,33.433902740478516,496,9943.0
13300,0.3639547526836395,27.83879852294922,528,7813.0,42.33494567871094,762,9943.0
13310,0.36213135719299316,46.809730529785156,851,7813.0,46.9076042175293,898,9943.0
13320,0.3612559139728546,49.6236572265625,838,7813.0,51.111019134521484,778,9943.0
13330,0.3610301911830902,34.12685775756836,412,7813.0,44.86318588256836,522,9943.0
13340,0.36055877804756165,3.066471576690674,-135,7813.0,20.882352828979492,254,9943.0
13350,0.35967981815338135,-30.352249145507812,-585,7813.0,-5.421102046966553,-104,9943.0
13360,0.35813024640083313,-44.49592208862305,-705,7813.0,-26.580228805541992,-575,9943.0
13370,0.3571409285068512,-37.99955368041992,-597,7813.0,-36.63258361816406,-707,9943.0
13380,0.35619938373565674,-24.957746505737305,-366,7813.0,-44.2435417175293,-676,9943.0
13390,0.35522887110710144,-17.20269775390625,-203,7813.0,-43.884071350097656,-680,9943.0
13400,0.35381945967674255,-1.944697380065918,56,7813.0,-40.61640167236328,-632,9943.0
13410,0.35289904475212097,11.434916496276855,132,7813.0,-34.422889709472656,-510,9943.0
13420,0.35303249955177307,12.744125366210938,267,7813.0,-21.014726638793945,-157,9943.0
13430,0.35261070728302,6.458927631378174,120,7813.0,-2.8969223499298096,-50,9943.0
13440,0.3507891297340393,-4.125027656555176,-215,7813.0,17.620325088500977,375,9943.0
13450,0.35078370571136475,-24.498411178588867,-415,7813.0,30.181922912597656,626,9943.0
13460,0.35058578848838806,-31.062057495117188,-445,7813.0,31.013174057006836,528,9943.0
13470,0.35046014189720154,-12.685389518737793,-78,7813.0,33.08344650268555,482,9943.0
13480,0.35067206621170044,20.459774017333984,563,7813.0,30.2821102142334,457,9943.0
13490,0.34993407130241394,59.62574005126953,1077,7813.0,26.78858184814453,512,9943.0
13500,0.34965986013412476,71.69834899902344,1164,7813.0,30.52707290649414,660,9943.0
13510,0.35006770491600037,60.156517028808594,913,7813.0,33.39044952392578,531,9943.0
13520,0.34987616539001465,37.67793655395508,385,7813.0,28.87583351135254,282,9943.0
13530,0.3489534854888916,10.03123664855957,-47,7813.0,16.94569206237793,321,9943.0
13540,0.34877458214759827,-20.918807983398438,-482,7813.0,6.577070236206055,96,9943.0
13550,0.3489800691604614,-48.198238372802734,-890,7813.0,-3.826385021209717,-156,9943.0
13560,0.3487807512283325,-60.79780960083008,-994,7813.0,-16.298416137695312,-448,9943.0
13570,0.34861597418785095,-55.98206329345703,-783,7813.0,-33.94901657104492,-627,9943.0
13580,0.34697192907333374,-33.24488067626953,-369,7813.0,-52.024784088134766,-815,9943.0
13590,0.34695497155189514,-9.746214866638184,-14,7813.0,-56.213462829589844,-1022,9943.0
13600,0.34675851464271545,5.812155246734619,185,7813.0,-61.51003646850586,-993,9943.0
13610,0.3466533124446869,9.47840404510498,114,7813.0,-55.14723587036133,-691,9943.0
13620,0.3445795476436615,-4.945335388183594,-240,7813.0,-35.59857177734375,-519,9943.0
13630,0.3448885381221771,-28.499805450439453,-581,7813.0,-16.165788650512695,-55,9943.0
13640,0.34499043226242065,-27.80449676513672,-371,7813.0,3.1573984622955322,205,9943.0
13650,0.34557968378067017,-1.0113903284072876,84,7813.0,28.452539443969727,690,9943.0
13660,0.3433650732040405,25.436979293823242,576,7813.0,58.17068099975586,1081,9943.0
13670,0.3435385823249817,44.85093307495117,781,7813.0,69.548583984375,1046,9943.0
13680,0.3434215486049652,53.49285125732422,874,7813.0,69.10537719726562,1057,9943.0
13690,0.34303370118141174,45.5830078125,677,7813.0,61.925628662109375,1018,9943.0
13700,0.3426613211631775,18.722427368164062,247,7813.0,48.41315460205078,736,9943.0
13710,0.34332185983657837,-1.8514167070388794,-134,7813.0,23.996795654296875,188,9943.0
13720,0.34353405237197876,-12.301591873168945,-271,7813.0,-7.39448356628418,-335,9943.0
13730,0.34330111742019653,-17.97833251953125,-308,7813.0,-37.11127853393555,-720,9943.0
13740,0.3434099555015564,-18.280702590942383,-241,7813.0,-66.28087615966797,-1118,9943.0
13750,0.34224238991737366,-23.10838508605957,-335,7813.0,-81.8790054321289,-1441,9943.0
13760,0.34195542335510254,-30.155508041381836,-646,7813.0,-84.18048858642578,-1398,9943.0
13770,0.34193944931030273,-37.5755615234375,-585,7813.0,-72.33944702148438,-967,9943.0
13780,0.34179970622062683,-42.63109588623047,-688,7813.0,-54.67936325073242,-960,9943.0
13790,0.3428756892681122,-39.801029205322266,-697,7813.0,-37.50740432739258,-473,9943.0
13800,0.341820627450943,-40.21192932128906,-550,7813.0,-9.925885200500488,-31,9943.0
13810,0.3425217866897583,-40.29486083984375,-713,7813.0,14.719120025634766,244,9943.0
13820,0.3430773615837097,-35.74416732788086,-511,7813.0,30.465993881225586,589,9943.0
13830,0.3442360758781433,-16.21813201904297,-143,7813.0,43.21499252319336,789,9943.0
13840,0.34420374035835266,16.042400360107422,399,7813.0,44.388160705566406,710,9943.0
13850,0.3450250029563904,47.3511962890625,914,7813.0,44.36494827270508,638,9943.0
13860,0.345551073551178,75.19895935058594,1262,7813.0,35.3704719543457,458,9943.0
13870,0.34590721130371094,73.0021743774414,1136,7813.0,22.126079559326172,401,9943.0
13880,0.3464466631412506,47.342227935791016,756,7813.0,16.743406295776367,270,9943.0
13890,0.3473517596721649,16.361040115356445,105,7813.0,11.665952682495117,51,9943.0
13900,0.3478851318359375,-13.08635425567627,-329,7813.0,2.704653263092041,82,9943.0
13910,0.34854093194007874,-26.98331642150879,-470,7813.0,0.21799466013908386,74,9943.0
13920,0.34899842739105225,-23.225187301635742,-398,7813.0,-6.513179779052734,-244,9943.0
13930,0.35054653882980347,-19.213214874267578,-299,7813.0,-16.053831100463867,-294,9943.0
13940,0.35097530484199524,-9.527410507202148,-74,7813.0,-28.5128231048584,-362,9943.0
13950,0.35145580768585205,-7.341425895690918,-187,7813.0,-33.01182174682617,-662,9943.0
13960,0.35214370489120483,-17.02117919921875,-409,7813.0,-36.3438720703125,-537,9943.0
13970,0.35248205065727234,-33.35661697387695,-520,7813.0,-28.480985641479492,-440,9943.0
13980,0.3533143401145935,-44.39152526855469,-874,7813.0,-14.386242866516113,-228,9943.0
13990,0.35394901037216187,-42.000667572021484,-562,7813.0,-1.505906581878662,117,9943.0
14000,0.35506492853164673,-15.799090385437012,-93,7813.0,5.67103385925293,51,9943.0
14010,0.35617387294769287,7.069408893585205,81,7813.0,8.928081512451172,192,9943.0
14020,0.3565722703933716,19.591983795166016,422,7813.0,13.668591499328613,406,9943.0
14030,0.3575955331325531,32.949554443359375,561,7813.0,16.207901000976562,256,9943.0
14040,0.35845687985420227,40.60125732421875,635,7813.0,25.25535011291504,473,9943.0
