timestamp,kalman.stateZ,gyro.x,gyro.xRaw,gyro.xVariance,gyro.y,gyro.yRaw,gyro.yVariance
0,0.313193142414093,-1.5621453523635864,-22,7813.0,4.94693660736084,124,9943.0
10,0.31307053565979004,-0.23822976648807526,4,7813.0,13.502508163452148,252,9943.0
20,0.31292545795440674,1.0296422243118286,9,7813.0,19.455461502075195,340,9943.0
30,0.312727153301239,-0.8015658259391785,-20,7813.0,22.394346237182617,378,9943.0
40,0.31285178661346436,-3.4602935314178467,-71,7813.0,22.871206283569336,372,9943.0
50,0.31268730759620667,-6.822234153747559,-117,7813.0,20.812849044799805,341,9943.0
60,0.3126644790172577,-7.466744422912598,-119,7813.0,18.294694900512695,289,9943.0
70,0.3126281201839447,-4.462705135345459,-46,7813.0,14.761347770690918,221,9943.0
80,0.3126598000526428,0.13877998292446136,29,7813.0,9.689807891845703,134,9943.0
90,0.31311264634132385,5.109740257263184,110,7813.0,3.933297634124756,40,9943.0
100,0.3136894106864929,8.843844413757324,141,7813.0,-1.8201899528503418,-50,9943.0
110,0.3139179050922394,8.58100700378418,139,7813.0,-6.3155622482299805,-117,9943.0
120,0.3141349256038666,7.065082550048828,111,7813.0,-9.474872589111328,-167,9943.0
130,0.3145214319229126,3.436858654022217,36,7813.0,-11.897072792053223,-205,9943.0
140,0.3140929341316223,-1.7270052433013916,-52,7813.0,-14.470281600952148,-245,9943.0
150,0.3141268789768219,-5.255570888519287,-94,7813.0,-16.762035369873047,-282,9943.0
160,0.31408652663230896,-7.496750831604004,-122,7813.0,-17.589111328125,-282,9943.0
170,0.31404727697372437,-6.166538715362549,-84,7813.0,-16.837890625,-275,9943.0
180,0.31402716040611267,-2.5735442638397217,-27,7813.0,-16.23074722290039,-256,9943.0
190,0.313229501247406,0.2524034380912781,24,7813.0,-12.4028959274292,-179,9943.0
200,0.313260555267334,4.506458759307861,94,7813.0,-9.28256893157959,-158,9943.0
210,0.3132675588130951,4.786588191986084,77,7813.0,-11.024064064025879,-191,9943.0
220,0.31332212686538696,2.0591678619384766,-6,7813.0,-15.721522331237793,-263,9943.0
230,0.3121412694454193,-0.3666461706161499,-26,7813.0,-22.291790008544922,-406,9943.0
240,0.3121747374534607,-3.7228901386260986,-65,7813.0,-30.417694091796875,-518,9943.0
250,0.31211304664611816,-0.3178406357765198,3,7813.0,-42.43711471557617,-742,9943.0
260,0.31208881735801697,5.588404178619385,159,7813.0,-57.119956970214844,-1005,9943.0
270,0.3121287524700165,13.421516418457031,261,7813.0,-74.43644714355469,-1291,9943.0
280,0.312221497297287,19.096736907958984,328,7813.0,-89.99070739746094,-1505,9943.0
290,0.31227806210517883,16.21421241760254,264,7813.0,-103.26439666748047,-1751,9943.0
300,0.3118619918823242,7.163271903991699,119,7813.0,-112.86019134521484,-1880,9943.0
310,0.310741662979126,-4.608263969421387,-151,7813.0,-111.32781982421875,-1766,9943.0
320,0.31226468086242676,-10.141470909118652,-166,7813.0,-105.69377899169922,-1710,9943.0
330,0.31271934509277344,-8.655454635620117,-140,7813.0,-93.0108642578125,-1530,9943.0
340,0.31185242533683777,-5.055028438568115,-76,7813.0,-72.10846710205078,-1007,9943.0
350,0.3117966949939728,-0.9426600933074951,20,7813.0,-35.35670852661133,-263,9943.0
360,0.3183284103870392,4.675556659698486,90,7813.0,17.21119499206543,662,9943.0
370,0.3201221525669098,5.204392433166504,69,7813.0,69.79389953613281,1485,9943.0
380,0.321271687746048,2.268958806991577,10,7813.0,116.07538604736328,2290,9943.0
390,0.3224499523639679,1.8507763147354126,22,7813.0,146.75042724609375,2622,9943.0
400,0.32264676690101624,-1.9890731573104858,-34,7813.0,162.1251220703125,2640,9943.0
410,0.322407603263855,1.1790525913238525,73,7813.0,147.30477905273438,2406,9943.0
420,0.32435622811317444,6.26326847076416,116,7813.0,119.49998474121094,1741,9943.0
430,0.32456132769584656,7.335351467132568,194,7813.0,81.75508117675781,1089,9943.0
440,0.3239530920982361,5.212123394012451,73,7813.0,35.432010650634766,412,9943.0
450,0.32101237773895264,-1.6457693576812744,-57,7813.0,-15.322956085205078,-417,9943.0
460,0.32150349020957947,-13.342482566833496,-167,7813.0,-56.12590789794922,-1305,9943.0
470,0.3232018053531647,-16.56827735900879,-202,7813.0,-99.38993072509766,-2020,9943.0
480,0.3242679536342621,-11.41571044921875,-132,7813.0,-133.1684112548828,-2465,9943.0
490,0.3217736780643463,-2.577955961227417,-27,7813.0,-153.10728454589844,-2609,9943.0
500,0.3238418400287628,12.230094909667969,219,7813.0,-155.8266143798828,-2504,9943.0
510,0.32443034648895264,26.153867721557617,358,7813.0,-147.7110137939453,-2279,9943.0
520,0.3248547911643982,25.33901596069336,466,7813.0,-137.04299926757812,-2121,9943.0
530,0.32358238101005554,22.40962791442871,279,7813.0,-121.08493041992188,-1954,9943.0
540,0.3280017375946045,12.084120750427246,118,7813.0,-91.98674774169922,-1240,9943.0
550,0.3293777108192444,-2.629727363586426,-110,7813.0,-47.81354522705078,-404,9943.0
560,0.33093151450157166,-15.391058921813965,-254,7813.0,23.825157165527344,721,9943.0
570,0.3327379524707794,-27.78399085998535,-564,7813.0,81.57075500488281,1633,9943.0
580,0.3365272283554077,-38.513526916503906,-624,7813.0,135.98794555664062,2506,9943.0
590,0.33809617161750793,-36.96357727050781,-565,7813.0,166.88124084472656,2991,9943.0
600,0.33890005946159363,-21.905885696411133,-289,7813.0,186.93740844726562,3155,9943.0
610,0.33875977993011475,-5.81693696975708,35,7813.0,196.7397918701172,3096,9943.0
620,0.33340030908584595,17.870716094970703,381,7813.0,170.9720458984375,2630,9943.0
630,0.33200350403785706,36.220909118652344,583,7813.0,121.32913208007812,1771,9943.0
640,0.33096614480018616,44.239322662353516,598,7813.0,66.7690658569336,731,9943.0
650,0.33136385679244995,32.84337615966797,295,7813.0,7.099265098571777,-60,9943.0
660,0.33346977829933167,0.08449234813451767,-203,7813.0,-52.412044525146484,-1082,9943.0
670,0.3292398154735565,-30.892011642456055,-615,7813.0,-98.9678726196289,-1890,9943.0
680,0.3305915892124176,-44.65815734863281,-709,7813.0,-131.7168731689453,-2373,9943.0
690,0.3320327401161194,-33.07002258300781,-428,7813.0,-155.74290466308594,-2784,9943.0
700,0.33324313163757324,-13.12144947052002,-72,7813.0,-170.16854858398438,-2996,9943.0
710,0.33046841621398926,10.622442245483398,272,7813.0,-178.7514190673828,-2795,9943.0
720,0.33086901903152466,38.207820892333984,672,7813.0,-171.5486297607422,-2656,9943.0
730,0.33060163259506226,43.27783966064453,658,7813.0,-149.7593536376953,-2438,9943.0
740,0.3334576487541199,21.233346939086914,206,7813.0,-108.50318908691406,-1559,9943.0
750,0.3354749083518982,5.756661891937256,76,7813.0,-45.021026611328125,-358,9943.0
760,0.33747100830078125,-11.480796813964844,-273,7813.0,24.40271759033203,599,9943.0
770,0.3395725190639496,-34.0859375,-658,7813.0,86.67491912841797,1770,9943.0
780,0.3413565158843994,-41.91243362426758,-641,7813.0,131.75030517578125,2335,9943.0
790,0.34111371636390686,-40.592166900634766,-674,7813.0,163.58328247070312,2723,9943.0
800,0.34036561846733093,-27.270753860473633,-258,7813.0,176.7396697998047,2690,9943.0
810,0.34015780687332153,-1.9402825832366943,163,7813.0,167.23875427246094,2603,9943.0
820,0.3398357927799225,20.09134864807129,384,7813.0,150.79876708984375,2474,9943.0
830,0.3415873050689697,33.33100509643555,514,7813.0,123.40333557128906,2041,9943.0
840,0.3324469327926636,38.97382354736328,528,7813.0,83.48623657226562,1205,9943.0
850,0.3325333595275879,28.657352447509766,312,7813.0,31.292322158813477,97,9943.0
860,0.3340691328048706,10.538745880126953,137,7813.0,-32.832027435302734,-932,9943.0
870,0.33629110455513,-4.885498523712158,-111,7813.0,-95.72949981689453,-1943,9943.0
880,0.33921465277671814,-15.539227485656738,-227,7813.0,-153.27371215820312,-2678,9943.0
890,0.3328188359737396,-13.684834480285645,-132,7813.0,-194.3148193359375,-3279,9943.0
900,0.3339110016822815,0.9860728979110718,96,7813.0,-208.35995483398438,-3283,9943.0
910,0.3385770916938782,15.240742683410645,191,7813.0,-186.89451599121094,-2948,9943.0
920,0.3394256830215454,12.44906997680664,307,7813.0,-156.739013671875,-2600,9943.0
930,0.3370387554168701,13.769619941711426,191,7813.0,-113.90531921386719,-1643,9943.0
940,0.33868929743766785,12.358115196228027,194,7813.0,-62.981048583984375,-704,9943.0
950,0.3419732451438904,2.2171788215637207,-38,7813.0,-6.282099723815918,129,9943.0
960,0.3425811529159546,-4.830217361450195,-74,7813.0,50.74616241455078,1050,9943.0
970,0.3475303053855896,-10.391037940979004,-198,7813.0,100.74413299560547,1907,9943.0
980,0.34904149174690247,-13.234498977661133,-190,7813.0,134.74020385742188,2501,9943.0
990,0.3492316007614136,-11.295413970947266,-187,7813.0,153.50592041015625,2648,9943.0
1000,0.3496190011501312,-6.445878982543945,17,7813.0,152.93458557128906,2481,9943.0
1010,0.34955862164497375,-0.8497570157051086,-46,7813.0,138.8016815185547,2271,9943.0
1020,0.34277135133743286,0.7900391221046448,-67,7813.0,112.43639373779297,1773,9943.0
1030,0.3440742790699005,-0.903016209602356,-105,7813.0,73.19586944580078,842,9943.0
1040,0.3441123366355896,-1.832812786102295,9,7813.0,30.596954345703125,270,9943.0
1050,0.34443286061286926,1.819952368736267,105,7813.0,-13.16250991821289,-490,9943.0
1060,0.33488237857818604,14.894078254699707,394,7813.0,-58.865135192871094,-1204,9943.0
1070,0.33561161160469055,31.91832160949707,568,7813.0,-99.35888671875,-1731,9943.0
1080,0.3364418148994446,17.595352172851562,122,7813.0,-114.69648742675781,-1683,9943.0
1090,0.3370771110057831,-6.4290771484375,-263,7813.0,-100.87269592285156,-1527,9943.0
1100,0.33757483959198,-29.407705307006836,-496,7813.0,-73.1358642578125,-935,9943.0
1110,0.3326759934425354,-36.19207000732422,-587,7813.0,-36.08830261230469,-645,9943.0
1120,0.33216607570648193,-33.445953369140625,-455,7813.0,0.015966691076755524,309,9943.0
1130,0.33250632882118225,-22.811019897460938,-301,7813.0,44.94232177734375,1042,9943.0
1140,0.3327682614326477,-3.701190948486328,125,7813.0,84.1910629272461,1663,9943.0
1150,0.33264315128326416,20.560449600219727,388,7813.0,115.2179946899414,2031,9943.0
1160,0.33221402764320374,31.392593383789062,634,7813.0,125.82984924316406,1973,9943.0
1170,0.3309972882270813,35.240013122558594,516,7813.0,118.82606506347656,1968,9943.0
1180,0.33043354749679565,28.164447784423828,358,7813.0,100.55159759521484,1771,9943.0
1190,0.32497069239616394,10.826669692993164,22,7813.0,74.17693328857422,969,9943.0
1200,0.32382071018218994,-6.766025066375732,-200,7813.0,31.14044761657715,129,9943.0
1210,0.3229673206806183,-15.89432430267334,-214,7813.0,-16.106224060058594,-596,9943.0
1220,0.32369697093963623,-16.91875457763672,-176,7813.0,-65.19527435302734,-1259,9943.0
1230,0.324662983417511,-12.056716918945312,-122,7813.0,-113.23287200927734,-2083,9943.0
1240,0.32271286845207214,7.579905986785889,218,7813.0,-144.08731079101562,-2360,9943.0
1250,0.32297253608703613,29.056541442871094,537,7813.0,-147.58981323242188,-2364,9943.0
1260,0.3228084444999695,36.939823150634766,477,7813.0,-125.0262451171875,-1754,9943.0
1270,0.3229246437549591,20.521955490112305,189,7813.0,-83.23690032958984,-1024,9943.0
1280,0.32734325528144836,-2.9762115478515625,-127,7813.0,-28.265621185302734,-25,9943.0
1290,0.32747676968574524,-26.465852737426758,-458,7813.0,26.22993278503418,543,9943.0
1300,0.3282698094844818,-42.448551177978516,-629,7813.0,70.98384094238281,1351,9943.0
1310,0.3283170163631439,-39.34236526489258,-610,7813.0,104.19837188720703,1767,9943.0
1320,0.33110371232032776,-27.03783416748047,-198,7813.0,121.9208755493164,2156,9943.0
1330,0.3307470381259918,-6.513108253479004,-101,7813.0,123.56498718261719,1904,9943.0
1340,0.33017081022262573,11.47429084777832,256,7813.0,98.65180206298828,1359,9943.0
1350,0.330034077167511,25.791568756103516,450,7813.0,56.092193603515625,736,9943.0
1360,0.33059725165367126,23.507835388183594,360,7813.0,9.6982421875,-68,9943.0
1370,0.32649853825569153,11.01074504852295,109,7813.0,-32.78623580932617,-732,9943.0
1380,0.3269595205783844,-3.6342318058013916,-53,7813.0,-64.68714141845703,-1158,9943.0
1390,0.3275390565395355,-13.513213157653809,-282,7813.0,-88.52976989746094,-1339,9943.0
1400,0.3280573785305023,-16.89054298400879,-283,7813.0,-109.5828628540039,-1930,9943.0
1410,0.3259004056453705,-7.429690361022949,-86,7813.0,-126.5267105102539,-2170,9943.0
1420,0.3264297544956207,18.004314422607422,487,7813.0,-119.4254379272461,-1928,9943.0
1430,0.32638785243034363,31.61598014831543,626,7813.0,-95.3527603149414,-1612,9943.0
1440,0.32984378933906555,24.927881240844727,380,7813.0,-60.888282775878906,-940,9943.0
1450,0.330583393573761,5.755610466003418,-8,7813.0,-17.525930404663086,-175,9943.0
1460,0.33393678069114685,-13.920755386352539,-285,7813.0,30.824451446533203,784,9943.0
1470,0.33576932549476624,-27.062437057495117,-461,7813.0,84.14827728271484,1818,9943.0
1480,0.3365601599216461,-28.769826889038086,-507,7813.0,137.73406982421875,2653,9943.0
1490,0.3376840054988861,-22.48369598388672,-332,7813.0,176.70645141601562,2963,9943.0
1500,0.33650609850883484,-7.601341247558594,-144,7813.0,186.1099395751953,2869,9943.0
1510,0.3357921540737152,3.128176689147949,177,7813.0,168.5938720703125,2609,9943.0
1520,0.3380788266658783,16.91506576538086,284,7813.0,127.02947998046875,1942,9943.0
1530,0.3365832269191742,23.100473403930664,402,7813.0,79.85051727294922,1005,9943.0
1540,0.33256208896636963,25.743074417114258,442,7813.0,29.2926082611084,273,9943.0
1550,0.3331781029701233,12.521681785583496,51,7813.0,-20.671350479125977,-539,9943.0
1560,0.333970308303833,-7.203105926513672,-171,7813.0,-66.5328140258789,-1260,9943.0
1570,0.3351079225540161,-20.807323455810547,-386,7813.0,-103.93804931640625,-1955,9943.0
1580,0.33657562732696533,-26.53253746032715,-328,7813.0,-137.32528686523438,-2366,9943.0
1590,0.33310386538505554,-16.96590805053711,-317,7813.0,-154.01614379882812,-2404,9943.0
1600,0.3330753743648529,-6.119945526123047,-112,7813.0,-141.68026733398438,-1982,9943.0
1610,0.3351569175720215,-2.4523794651031494,-146,7813.0,-115.23664093017578,-1734,9943.0
1620,0.3349367082118988,-7.8529486656188965,-198,7813.0,-79.78960418701172,-1024,9943.0
1630,0.3336432874202728,-9.94314956665039,-158,7813.0,-27.464685440063477,-81,9943.0
1640,0.3330247104167938,-13.051456451416016,-229,7813.0,26.234254837036133,657,9943.0
1650,0.33398380875587463,-16.35104751586914,-316,7813.0,73.7687759399414,1360,9943.0
1660,0.33511635661125183,-5.221569538116455,-45,7813.0,112.82130432128906,2027,9943.0
1670,0.33473795652389526,15.027674674987793,362,7813.0,136.08587646484375,2289,9943.0
1680,0.3310280442237854,35.26531982421875,512,7813.0,133.89431762695312,2256,9943.0
1690,0.3317260146141052,41.24693298339844,724,7813.0,112.54383850097656,1642,9943.0
1700,0.3301140069961548,39.84658432006836,631,7813.0,73.1563949584961,951,9943.0
1710,0.3289325535297394,23.303482055664062,341,7813.0,23.85186195373535,188,9943.0
1720,0.32588130235671997,-2.9495773315429688,-380,7813.0,-24.747779846191406,-560,9943.0
1730,0.325608491897583,-30.477182388305664,-565,7813.0,-61.98187255859375,-1302,9943.0
1740,0.32575562596321106,-38.47724533081055,-550,7813.0,-91.82383728027344,-1547,9943.0
1750,0.3259282410144806,-25.269128799438477,-258,7813.0,-112.27669525146484,-1876,9943.0
1760,0.32594212889671326,-9.393195152282715,-122,7813.0,-118.55424499511719,-1867,9943.0
1770,0.32508915662765503,10.141469955444336,266,7813.0,-116.68065643310547,-1834,9943.0
1780,0.32515403628349304,26.366195678710938,436,7813.0,-100.42489624023438,-1501,9943.0
1790,0.32490959763526917,27.474628448486328,311,7813.0,-72.90931701660156,-927,9943.0
1800,0.32615959644317627,20.32066535949707,158,7813.0,-42.030540466308594,-371,9943.0
1810,0.32911911606788635,-4.697049140930176,-279,7813.0,0.29107213020324707,391,9943.0
1820,0.33004501461982727,-33.902984619140625,-653,7813.0,56.50593948364258,1187,9943.0
1830,0.3304871618747711,-47.43571090698242,-601,7813.0,103.18419647216797,1823,9943.0
1840,0.3307526707649231,-30.325031280517578,-381,7813.0,130.30055236816406,2141,9943.0
1850,0.33174246549606323,-0.9414251446723938,38,7813.0,129.76095581054688,2169,9943.0
1860,0.33130523562431335,20.18220329284668,451,7813.0,110.28014373779297,1609,9943.0
1870,0.33100229501724243,41.92900085449219,654,7813.0,71.03256225585938,791,9943.0
1880,0.33033332228660583,41.685508728027344,672,7813.0,23.446313858032227,63,9943.0
1890,0.33079028129577637,20.849533081054688,238,7813.0,-30.72638511657715,-624,9943.0
1900,0.32803845405578613,-4.4490966796875,-201,7813.0,-68.57352447509766,-1311,9943.0
1910,0.32793375849723816,-29.60553550720215,-682,7813.0,-98.92166900634766,-1800,9943.0
1920,0.3277665376663208,-50.541927337646484,-822,7813.0,-110.10816192626953,-1800,9943.0
1930,0.32767027616500854,-45.44863510131836,-667,7813.0,-98.69026947021484,-1684,9943.0
1940,0.326587051153183,-23.88368034362793,-279,7813.0,-72.28028869628906,-1047,9943.0
1950,0.32641345262527466,-4.233789443969727,129,7813.0,-36.580318450927734,-501,9943.0
1960,0.3262333273887634,14.261964797973633,379,7813.0,-9.850540161132812,-167,9943.0
1970,0.3266257345676422,31.93254852294922,644,7813.0,19.609567642211914,335,9943.0
1980,0.3278074562549591,56.514892578125,1015,7813.0,47.81929397583008,900,9943.0
1990,0.3303370177745819,62.55302047729492,1118,7813.0,77.92900085449219,1322,9943.0
2000,0.3307504653930664,50.43849563598633,766,7813.0,99.09043884277344,1585,9943.0
2010,0.33137044310569763,17.723833084106445,211,7813.0,110.08372497558594,1767,9943.0
2020,0.33301064372062683,-16.228286743164062,-391,7813.0,109.04769897460938,1673,9943.0
2030,0.3307161331176758,-47.048885345458984,-801,7813.0,92.3802261352539,1509,9943.0
2040,0.330353319644928,-62.9765739440918,-1124,7813.0,68.85969543457031,1013,9943.0
2050,0.3299616575241089,-64.04638671875,-1072,7813.0,29.504240036010742,336,9943.0
2060,0.3306368589401245,-55.60322570800781,-865,7813.0,-20.740894317626953,-580,9943.0
2070,0.328530490398407,-44.51966857910156,-624,7813.0,-59.07339859008789,-1071,9943.0
2080,0.3283809423446655,-19.913619995117188,-217,7813.0,-80.09164428710938,-1277,9943.0
2090,0.3286677300930023,11.410224914550781,311,7813.0,-84.81057739257812,-1459,9943.0
2100,0.3292752802371979,42.761898040771484,929,7813.0,-75.92869567871094,-1235,9943.0
2110,0.32963383197784424,60.13324737548828,984,7813.0,-56.94941329956055,-861,9943.0
2120,0.32814785838127136,57.45274353027344,832,7813.0,-32.49501419067383,-352,9943.0
2130,0.3285929262638092,40.61662292480469,595,7813.0,-12.012921333312988,41,9943.0
2140,0.3303513526916504,21.959331512451172,280,7813.0,12.846735954284668,417,9943.0
2150,0.33123359084129333,13.687315940856934,169,7813.0,33.47892761230469,588,9943.0
2160,0.33066070079803467,13.264042854309082,180,7813.0,45.60677719116211,749,9943.0
2170,0.33107107877731323,10.294401168823242,188,7813.0,48.89362716674805,911,9943.0
2180,0.3315834105014801,10.322153091430664,120,7813.0,57.67176055908203,983,9943.0
2190,0.3317188024520874,7.256783962249756,0,7813.0,55.435569763183594,1022,9943.0
2200,0.33050939440727234,-4.6290178298950195,-121,7813.0,53.20951843261719,954,9943.0
2210,0.3300183415412903,-18.9163875579834,-519,7813.0,43.52290725708008,782,9943.0
2220,0.3300585448741913,-32.2452278137207,-515,7813.0,27.72117042541504,428,9943.0
2230,0.32898861169815063,-20.77723503112793,-292,7813.0,2.498272657394409,8,9943.0
2240,0.32783862948417664,-5.166802883148193,20,7813.0,-21.404613494873047,-457,9943.0
2250,0.3272676467895508,6.5045695304870605,205,7813.0,-34.90743637084961,-594,9943.0
2260,0.32564857602119446,10.681082725524902,189,7813.0,-49.86104965209961,-1005,9943.0
2270,0.32382866740226746,1.188262701034546,-72,7813.0,-67.57121276855469,-982,9943.0
2280,0.3221421241760254,-17.171510696411133,-386,7813.0,-75.12216186523438,-1266,9943.0
2290,0.3189929127693176,-31.9449520111084,-682,7813.0,-74.30384063720703,-1063,9943.0
2300,0.3180241882801056,-38.14126205444336,-619,7813.0,-68.59123229980469,-1083,9943.0
2310,0.31788936257362366,-30.041772842407227,-482,7813.0,-66.4335708618164,-1006,9943.0
2320,0.31634721159935,-15.233857154846191,-149,7813.0,-60.7064094543457,-1089,9943.0
2330,0.3183624744415283,-4.72786808013916,3,7813.0,-59.54961013793945,-968,9943.0
2340,0.31910306215286255,7.7744011878967285,139,7813.0,-44.142616271972656,-667,9943.0
2350,0.31809788942337036,4.368129253387451,-5,7813.0,-9.474508285522461,48,9943.0
2360,0.3209221661090851,-7.736858367919922,-126,7813.0,39.73692321777344,853,9943.0
2370,0.32178059220314026,-0.7392975091934204,216,7813.0,82.4127426147461,1554,9943.0
2380,0.32658854126930237,20.309049606323242,474,7813.0,115.24581909179688,1856,9943.0
2390,0.32766056060791016,33.55543518066406,622,7813.0,125.4299545288086,2149,9943.0
2400,0.32763800024986267,39.819541931152344,680,7813.0,124.9951400756836,2157,9943.0
2410,0.32788389921188354,40.56819152832031,523,7813.0,107.50980377197266,1575,9943.0
2420,0.32594728469848633,34.43064498901367,640,7813.0,76.50431060791016,1094,9943.0
2430,0.3283912241458893,25.342714309692383,242,7813.0,35.322444915771484,304,9943.0
2440,0.3286418318748474,11.276301383972168,133,7813.0,-23.97714614868164,-670,9943.0
2450,0.3293599486351013,-6.503488063812256,-270,7813.0,-66.15401458740234,-1322,9943.0
2460,0.3307187259197235,-24.737625122070312,-443,7813.0,-101.68463134765625,-1659,9943.0
2470,0.3280088007450104,-29.29867935180664,-594,7813.0,-119.63111114501953,-2156,9943.0
2480,0.32829415798187256,-28.807518005371094,-386,7813.0,-133.30262756347656,-2268,9943.0
2490,0.3284234404563904,-19.77218246459961,-308,7813.0,-142.79443359375,-2450,9943.0
2500,0.3275274932384491,-9.95508861541748,-33,7813.0,-131.723876953125,-2019,9943.0
2510,0.3292734622955322,4.8534088134765625,200,7813.0,-99.92213439941406,-1453,9943.0
2520,0.3301338255405426,10.62099552154541,210,7813.0,-51.349761962890625,-716,9943.0
2530,0.3312382996082306,9.126648902893066,131,7813.0,1.971630334854126,223,9943.0
2540,0.332518607378006,1.876120924949646,-100,7813.0,59.05504608154297,1314,9943.0
2550,0.33503833413124084,-15.704619407653809,-275,7813.0,114.12960815429688,2182,9943.0
2560,0.33604589104652405,-21.759674072265625,-381,7813.0,141.99761962890625,2578,9943.0
2570,0.3365462124347687,-18.139135360717773,-295,7813.0,170.63148498535156,2697,9943.0
2580,0.33623477816581726,-8.229015350341797,-80,7813.0,172.40074157714844,2677,9943.0
2590,0.33849260210990906,1.9596459865570068,56,7813.0,155.00599670410156,2413,9943.0
2600,0.3322606682777405,4.355156421661377,73,7813.0,108.86620330810547,1523,9943.0
2610,0.33182772994041443,3.111027479171753,57,7813.0,44.02164077758789,355,9943.0
2620,0.33269640803337097,5.184134483337402,17,7813.0,-23.007884979248047,-515,9943.0
2630,0.33351024985313416,1.5166159868240356,-79,7813.0,-75.19548797607422,-1509,9943.0
2640,0.3285243809223175,5.867944240570068,135,7813.0,-112.82978057861328,-2083,9943.0
2650,0.3288572132587433,13.616525650024414,251,7813.0,-149.73960876464844,-2698,9943.0
2660,0.3288177251815796,21.361358642578125,409,7813.0,-177.63648986816406,-2854,9943.0
2670,0.330679714679718,26.73804473876953,356,7813.0,-173.61737060546875,-2593,9943.0
2680,0.32864370942115784,20.767637252807617,200,7813.0,-140.69921875,-2027,9943.0
2690,0.32770249247550964,13.649468421936035,160,7813.0,-99.61355590820312,-1184,9943.0
2700,0.330579549074173,6.357818126678467,37,7813.0,-49.47132110595703,-306,9943.0
2710,0.3318291902542114,-9.962371826171875,-283,7813.0,3.986806631088257,259,9943.0
2720,0.3339523673057556,-28.63113021850586,-454,7813.0,63.91150665283203,1156,9943.0
2730,0.33727017045021057,-34.731510162353516,-485,7813.0,121.42545318603516,2010,9943.0
2740,0.33814746141433716,-28.519287109375,-432,7813.0,159.96446228027344,2708,9943.0
2750,0.3384806513786316,-21.403324127197266,-195,7813.0,179.7718963623047,2979,9943.0
2760,0.3393802344799042,-10.490427017211914,-189,7813.0,172.789306640625,2772,9943.0
2770,0.33530092239379883,-0.6704099178314209,50,7813.0,144.9677276611328,2169,9943.0
2780,0.33442628383636475,11.928162574768066,210,7813.0,99.56743621826172,1512,9943.0
2790,0.33397427201271057,18.851722717285156,327,7813.0,48.755455017089844,381,9943.0
2800,0.33521735668182373,19.033552169799805,347,7813.0,-8.449974060058594,-288,9943.0
2810,0.33573800325393677,17.059803009033203,157,7813.0,-59.8660888671875,-1232,9943.0
2820,0.331398606300354,12.95505142211914,282,7813.0,-111.62442779541016,-2097,9943.0
2830,0.331805557012558,8.793403625488281,92,7813.0,-149.0054473876953,-2409,9943.0
2840,0.3321375250816345,-0.04283023253083229,-68,7813.0,-156.0282440185547,-2438,9943.0
2850,0.3321305513381958,-6.987517356872559,-187,7813.0,-131.82601928710938,-2022,9943.0
2860,0.32988440990448,-11.27190113067627,-257,7813.0,-97.3757095336914,-1429,9943.0
2870,0.3304716646671295,-14.999006271362305,-186,7813.0,-63.8126106262207,-868,9943.0
2880,0.33243122696876526,-14.466300010681152,-203,7813.0,-15.193584442138672,-77,9943.0
2890,0.3327113687992096,-5.515209674835205,-136,7813.0,35.01554870605469,752,9943.0
2900,0.3328222930431366,-4.704047679901123,-67,7813.0,77.083984375,1467,9943.0
2910,0.33334189653396606,-3.7340474128723145,15,7813.0,108.5463638305664,1792,9943.0
2920,0.33327987790107727,-9.873655319213867,-178,7813.0,118.86376953125,1869,9943.0
2930,0.33308330178260803,-17.144916534423828,-197,7813.0,110.80481719970703,1779,9943.0
2940,0.3320094048976898,-13.441983222961426,-250,7813.0,87.4853515625,1336,9943.0
2950,0.32674849033355713,-2.6642861366271973,77,7813.0,58.96924591064453,829,9943.0
2960,0.3283108174800873,10.639114379882812,225,7813.0,18.644094467163086,283,9943.0
2970,0.328339159488678,20.98147201538086,361,7813.0,-25.818601608276367,-823,9943.0
2980,0.32878658175468445,22.071935653686523,415,7813.0,-70.92851257324219,-1219,9943.0
2990,0.3270992338657379,22.117341995239258,341,7813.0,-100.9538803100586,-1732,9943.0
3000,0.32723814249038696,21.1289119720459,281,7813.0,-117.86294555664062,-2029,9943.0
3010,0.32746148109436035,19.22627830505371,387,7813.0,-131.1975860595703,-2123,9943.0
3020,0.3275500535964966,13.239733695983887,235,7813.0,-126.93866729736328,-2112,9943.0
3030,0.32726824283599854,13.280943870544434,104,7813.0,-102.1689224243164,-1507,9943.0
3040,0.32966646552085876,-3.8735949993133545,-45,7813.0,-70.7091064453125,-931,9943.0
3050,0.3304537534713745,-8.237137794494629,-198,7813.0,-24.649436950683594,-270,9943.0
3060,0.33056211471557617,-12.919290542602539,-230,7813.0,14.612802505493164,498,9943.0
3070,0.33153069019317627,-14.804265975952148,-240,7813.0,57.14480209350586,1319,9943.0
3080,0.3372170031070709,-17.479507446289062,-314,7813.0,107.4383773803711,2059,9943.0
3090,0.3375329375267029,-17.20301055908203,-358,7813.0,137.38916015625,2446,9943.0
3100,0.3378218114376068,-16.132238388061523,-199,7813.0,152.71487426757812,2526,9943.0
3110,0.3375200629234314,-9.926815032958984,-211,7813.0,149.0655059814453,2213,9943.0
3120,0.3323099911212921,-0.11053458601236343,147,7813.0,123.61223602294922,1846,9943.0
3130,0.33379459381103516,9.267352104187012,146,7813.0,76.445068359375,895,9943.0
3140,0.3333252966403961,10.610956192016602,116,7813.0,25.44761848449707,79,9943.0
3150,0.33352258801460266,9.611427307128906,245,7813.0,-18.445104598999023,-431,9943.0
3160,0.3341202437877655,2.0692286491394043,-68,7813.0,-58.17204666137695,-1254,9943.0
3170,0.32943201065063477,-5.076566219329834,-93,7813.0,-102.84976959228516,-1872,9943.0
3180,0.32978829741477966,-7.988007545471191,-164,7813.0,-133.90585327148438,-2405,9943.0
3190,0.32998207211494446,-6.474115371704102,29,7813.0,-141.52859497070312,-2226,9943.0
3200,0.3298100233078003,1.6734428405761719,108,7813.0,-126.5965347290039,-1831,9943.0
3210,0.32959485054016113,1.4415816068649292,39,7813.0,-92.99099731445312,-1327,9943.0
3220,0.32974496483802795,0.5539731979370117,62,7813.0,-45.109840393066406,-520,9943.0
3230,0.33034762740135193,-0.5310450792312622,96,7813.0,18.312021255493164,629,9943.0
3240,0.33224403858184814,-4.204455852508545,-85,7813.0,73.54839324951172,1409,9943.0
3250,0.33262017369270325,-6.883158206939697,-76,7813.0,118.23407745361328,2011,9943.0
3260,0.333011656999588,2.409134864807129,94,7813.0,149.18637084960938,2467,9943.0
3270,0.3324867784976959,3.348813772201538,200,7813.0,160.48873901367188,2353,9943.0
3280,0.332800954580307,5.313661575317383,41,7813.0,148.61782836914062,2469,9943.0
3290,0.3337251543998718,5.560122966766357,60,7813.0,124.88998413085938,1940,9943.0
3300,0.32989275455474854,7.99604606628418,140,7813.0,84.86756134033203,1108,9943.0
3310,0.32888901233673096,7.594726085662842,65,7813.0,28.150827407836914,298,9943.0
3320,0.32822340726852417,4.050386428833008,77,7813.0,-28.591720581054688,-843,9943.0
3330,0.3288111090660095,-2.9586503505706787,-92,7813.0,-80.70591735839844,-1438,9943.0
3340,0.32859382033348083,-11.625138282775879,-271,7813.0,-124.91248321533203,-2227,9943.0
3350,0.32862088084220886,-13.447603225708008,-194,7813.0,-165.8628692626953,-2928,9943.0
3360,0.32790181040763855,-5.041253089904785,38,7813.0,-190.4661407470703,-3209,9943.0
3370,0.3290928900241852,2.571807622909546,97,7813.0,-182.42977905273438,-2851,9943.0
3380,0.327692449092865,12.6560697555542,314,7813.0,-158.50039672851562,-2368,9943.0
3390,0.325907438993454,17.268770217895508,279,7813.0,-112.39228057861328,-1551,9943.0
3400,0.32637307047843933,11.457489013671875,130,7813.0,-39.9580078125,-348,9943.0
3410,0.32995378971099854,2.272139549255371,-48,7813.0,32.6519775390625,700,9943.0
3420,0.33104902505874634,-8.370115280151367,-227,7813.0,96.59906005859375,1911,9943.0
3430,0.3349708318710327,-15.152828216552734,-259,7813.0,144.236083984375,2434,9943.0
3440,0.3353031575679779,-15.220076560974121,-113,7813.0,164.19354248046875,2757,9943.0
3450,0.3356407880783081,-8.808197021484375,-100,7813.0,159.14781188964844,2585,9943.0
3460,0.3354031443595886,2.786522626876831,20,7813.0,141.5588836669922,2256,9943.0
3470,0.3308878540992737,7.558172702789307,173,7813.0,112.82518768310547,1573,9943.0
3480,0.3300187587738037,12.473015785217285,244,7813.0,73.77438354492188,1181,9943.0
3490,0.33033981919288635,12.292285919189453,94,7813.0,25.927894592285156,69,9943.0
3500,0.3314823806285858,2.9224154949188232,117,7813.0,-29.786401748657227,-712,9943.0
3510,0.332241952419281,-6.047245502471924,-224,7813.0,-94.18746948242188,-1764,9943.0
3520,0.32828161120414734,-7.854500770568848,-58,7813.0,-142.19320678710938,-2423,9943.0
3530,0.32824841141700745,-5.469350814819336,-104,7813.0,-150.85891723632812,-2630,9943.0
3540,0.3289314806461334,-5.832663059234619,-15,7813.0,-148.94903564453125,-2413,9943.0
3550,0.32843005657196045,-5.620166301727295,-72,7813.0,-137.8737335205078,-2083,9943.0
3560,0.32768920063972473,-9.477031707763672,-200,7813.0,-99.74683380126953,-1463,9943.0
3570,0.3282572627067566,-12.85548210144043,-155,7813.0,-50.5484733581543,-641,9943.0
3580,0.33085572719573975,-11.134913444519043,-191,7813.0,0.14712989330291748,238,9943.0
3590,0.3312363922595978,-13.860258102416992,-112,7813.0,53.044918060302734,1052,9943.0
3600,0.3328401446342468,-9.884299278259277,-82,7813.0,103.348388671875,1761,9943.0
3610,0.3342488706111908,-2.200909376144409,-9,7813.0,140.20652770996094,2322,9943.0
3620,0.3344975411891937,3.4924838542938232,49,7813.0,157.40966796875,2668,9943.0
3630,0.334486722946167,9.580577850341797,239,7813.0,157.1875,2560,9943.0
3640,0.3335147798061371,17.797149658203125,211,7813.0,135.8215789794922,2023,9943.0
3650,0.329939067363739,16.530750274658203,350,7813.0,99.58617401123047,1397,9943.0
3660,0.33146703243255615,10.056950569152832,47,7813.0,52.3201904296875,752,9943.0
3670,0.3316096365451813,1.7258403301239014,-3,7813.0,2.55643630027771,-330,9943.0
3680,0.33240291476249695,-5.630480766296387,-60,7813.0,-54.10824966430664,-1110,9943.0
3690,0.33429431915283203,-4.050291061401367,-57,7813.0,-105.57820129394531,-1795,9943.0
3700,0.3316701352596283,0.38670462369918823,11,7813.0,-124.23640441894531,-2031,9943.0
3710,0.3324390947818756,9.591434478759766,147,7813.0,-130.5129852294922,-2224,9943.0
3720,0.33294403553009033,3.9884209632873535,50,7813.0,-110.32923126220703,-1700,9943.0
3730,0.33338457345962524,0.7051306962966919,43,7813.0,-83.1634521484375,-1233,9943.0
3740,0.33080995082855225,-4.766174793243408,-75,7813.0,-52.980709075927734,-661,9943.0
3750,0.33074334263801575,-9.481523513793945,-208,7813.0,-9.913607597351074,115,9943.0
3760,0.3315421938896179,-12.953471183776855,-255,7813.0,34.92259216308594,891,9943.0
3770,0.3319384455680847,-11.659600257873535,-184,7813.0,79.59253692626953,1607,9943.0
3780,0.3310278058052063,-7.977602005004883,-191,7813.0,109.0943832397461,1874,9943.0
3790,0.33032578229904175,-3.6877167224884033,-166,7813.0,121.6090316772461,1893,9943.0
3800,0.3296831250190735,5.650942325592041,215,7813.0,112.7947998046875,1713,9943.0
3810,0.328233927488327,15.223331451416016,294,7813.0,86.77996063232422,1280,9943.0
3820,0.32871702313423157,21.708349227905273,336,7813.0,47.60186004638672,569,9943.0
3830,0.32690364122390747,14.164427757263184,191,7813.0,5.2396135330200195,-266,9943.0
3840,0.3268970549106598,5.194265842437744,70,7813.0,-50.795955657958984,-1103,9943.0
3850,0.327838659286499,-2.7008960247039795,-153,7813.0,-107.8861312866211,-1804,9943.0
3860,0.32782214879989624,-16.89420509338379,-311,7813.0,-133.16738891601562,-2236,9943.0
3870,0.3257806897163391,-23.07605743408203,-360,7813.0,-117.61103820800781,-2007,9943.0
3880,0.3257400691509247,-17.188961029052734,-135,7813.0,-103.6094741821289,-1439,9943.0
3890,0.3261173665523529,-11.579509735107422,-135,7813.0,-65.59574890136719,-683,9943.0
3900,0.3265947997570038,-5.822204113006592,-76,7813.0,-18.487590789794922,-118,9943.0
3910,0.3282114863395691,-1.3971151113510132,96,7813.0,30.2218074798584,690,9943.0
3920,0.32922986149787903,6.973989009857178,304,7813.0,74.00985717773438,1258,9943.0
3930,0.33005791902542114,14.539011001586914,283,7813.0,96.3961410522461,1696,9943.0
3940,0.33025598526000977,20.586986541748047,308,7813.0,104.08126831054688,1819,9943.0
3950,0.3311620354652405,20.994125366210938,270,7813.0,97.63341522216797,1568,9943.0
3960,0.32895776629447937,13.735888481140137,141,7813.0,78.17626190185547,1170,9943.0
3970,0.3287712037563324,6.694338321685791,122,7813.0,50.550907135009766,607,9943.0
3980,0.32852381467819214,-0.5667705535888672,-7,7813.0,15.399548530578613,167,9943.0
3990,0.32921433448791504,-9.277737617492676,-292,7813.0,-18.254528045654297,-399,9943.0
4000,0.32676905393600464,-12.912936210632324,-195,7813.0,-51.68801498413086,-1063,9943.0
4010,0.3270666003227234,-12.054844856262207,-168,7813.0,-88.68008422851562,-1684,9943.0
4020,0.3269418179988861,-2.9877490997314453,58,7813.0,-130.1982879638672,-2238,9943.0
4030,0.3272591233253479,3.673356294631958,-31,7813.0,-149.04627990722656,-2380,9943.0
4040,0.32696565985679626,4.017734050750732,83,7813.0,-131.9158935546875,-1910,9943.0
4050,0.3263719975948334,8.629157066345215,95,7813.0,-99.35961151123047,-1354,9943.0
4060,0.32712239027023315,2.0892603397369385,-147,7813.0,-51.73380661010742,-584,9943.0
4070,0.3297969102859497,-10.374366760253906,-285,7813.0,-5.137161731719971,97,9943.0
4080,0.3305400609970093,-19.4445858001709,-349,7813.0,51.720035552978516,1155,9943.0
4090,0.3339453637599945,-22.756263732910156,-297,7813.0,114.05564880371094,2013,9943.0
4100,0.3354211747646332,-22.525400161743164,-224,7813.0,147.74557495117188,2352,9943.0
4110,0.33632466197013855,-6.61414098739624,-125,7813.0,158.05963134765625,2629,9943.0
4120,0.3366734981536865,6.4140424728393555,185,7813.0,153.05990600585938,2419,9943.0
4130,0.33205094933509827,18.83881950378418,356,7813.0,130.19818115234375,2019,9943.0
4140,0.33227261900901794,28.78091049194336,547,7813.0,89.89945983886719,1195,9943.0
4150,0.33531704545021057,28.372385025024414,423,7813.0,39.43632888793945,513,9943.0
4160,0.3358319103717804,15.72883415222168,196,7813.0,-10.650115013122559,-426,9943.0
4170,0.33679747581481934,3.5868868827819824,60,7813.0,-48.739013671875,-982,9943.0
4180,0.3326033353805542,-7.705606937408447,-235,7813.0,-77.54676055908203,-1267,9943.0
4190,0.33301517367362976,-13.387852668762207,-255,7813.0,-107.42081451416016,-1960,9943.0
4200,0.3337037265300751,-9.708053588867188,-68,7813.0,-134.10948181152344,-2295,9943.0
4210,0.33406639099121094,3.4031896591186523,188,7813.0,-146.34768676757812,-2541,9943.0
4220,0.33038845658302307,18.484716415405273,337,7813.0,-131.90574645996094,-1980,9943.0
4230,0.3344951570034027,23.332195281982422,475,7813.0,-85.42607116699219,-1263,9943.0
4240,0.335105836391449,18.825136184692383,377,7813.0,-42.032325744628906,-658,9943.0
4250,0.33615270256996155,10.697999954223633,88,7813.0,3.1149370670318604,203,9943.0
4260,0.33547455072402954,-2.7562992572784424,-83,7813.0,54.59165954589844,1135,9943.0
4270,0.33633628487586975,-14.218423843383789,-274,7813.0,94.6707534790039,1748,9943.0
4280,0.33675533533096313,-25.225683212280273,-408,7813.0,124.7176513671875,2224,9943.0
4290,0.3364679217338562,-31.49022674560547,-582,7813.0,145.51878356933594,2476,9943.0
4300,0.3358627259731293,-27.298362731933594,-337,7813.0,149.70350646972656,2297,9943.0
4310,0.3298581838607788,-16.233320236206055,-203,7813.0,128.72564697265625,1928,9943.0
4320,0.3332894742488861,-1.5574060678482056,75,7813.0,88.62229919433594,1226,9943.0
4330,0.3327084481716156,9.796614646911621,270,7813.0,35.141807556152344,257,9943.0
4340,0.3336219787597656,14.92686653137207,229,7813.0,-24.70376968383789,-516,9943.0
4350,0.32870033383369446,15.4470853805542,167,7813.0,-77.1551742553711,-1613,9943.0
4360,0.3289946913719177,10.875754356384277,258,7813.0,-123.70298767089844,-2171,9943.0
4370,0.32991182804107666,8.378276824951172,75,7813.0,-162.14794921875,-2832,9943.0
4380,0.33063602447509766,8.132938385009766,152,7813.0,-186.75311279296875,-3007,9943.0
4390,0.3308888077735901,10.6522855758667,116,7813.0,-187.07501220703125,-2922,9943.0
4400,0.3300265073776245,4.653785705566406,-13,7813.0,-156.91262817382812,-2308,9943.0
4410,0.33124208450317383,8.006866455078125,49,7813.0,-116.63787841796875,-1563,9943.0
4420,0.33081114292144775,3.073066234588623,-13,7813.0,-61.268428802490234,-633,9943.0
4430,0.3335656225681305,-2.6193325519561768,-113,7813.0,-5.585078716278076,371,9943.0
4440,0.3377647399902344,-8.101187705993652,-227,7813.0,52.374759674072266,1263,9943.0
4450,0.3388962745666504,-13.287918090820312,-247,7813.0,106.80804443359375,1942,9943.0
4460,0.33948957920074463,-21.32516860961914,-315,7813.0,148.4508819580078,2589,9943.0
4470,0.341044545173645,-23.945541381835938,-308,7813.0,164.39117431640625,2752,9943.0
4480,0.3385462760925293,-21.273527145385742,-374,7813.0,156.99586486816406,2587,9943.0
4490,0.3384319543838501,-20.944061279296875,-332,7813.0,138.12142944335938,2017,9943.0
4500,0.3377958834171295,-18.099634170532227,-284,7813.0,105.51972961425781,1354,9943.0
4510,0.3376331031322479,-4.548776626586914,-9,7813.0,55.17417907714844,607,9943.0
4520,0.3393073081970215,10.053976058959961,242,7813.0,-2.040815830230713,-407,9943.0
4530,0.33123207092285156,18.644920349121094,368,7813.0,-61.397743225097656,-1215,9943.0
4540,0.3318771719932556,23.888944625854492,385,7813.0,-113.05087280273438,-2206,9943.0
4550,0.3324713110923767,32.58181381225586,547,7813.0,-151.25315856933594,-2605,9943.0
4560,0.33282962441444397,36.94043731689453,583,7813.0,-174.6765594482422,-2992,9943.0
4570,0.3291977047920227,14.97413444519043,189,7813.0,-175.85397338867188,-2866,9943.0
4580,0.3290921151638031,-2.376511812210083,-97,7813.0,-145.03549194335938,-2188,9943.0
4590,0.3292161524295807,-18.540443420410156,-274,7813.0,-95.20661163330078,-1382,9943.0
4600,0.3310057520866394,-26.715190887451172,-380,7813.0,-29.6251163482666,-64,9943.0
4610,0.33249300718307495,-30.292367935180664,-437,7813.0,43.886802673339844,935,9943.0
4620,0.3357902765274048,-26.984458923339844,-470,7813.0,104.25233459472656,1936,9943.0
4630,0.3375190794467926,-16.24408531188965,-178,7813.0,151.28074645996094,2566,9943.0
4640,0.33726850152015686,2.4057986736297607,172,7813.0,179.3519744873047,2960,9943.0
4650,0.3385050892829895,16.132408142089844,336,7813.0,186.91677856445312,3057,9943.0
4660,0.3361978530883789,22.24187660217285,428,7813.0,173.9358367919922,2896,9943.0
4670,0.33558008074760437,22.153654098510742,272,7813.0,138.9674530029297,2124,9943.0
4680,0.33494991064071655,15.022575378417969,273,7813.0,90.8519058227539,1095,9943.0
4690,0.3384609520435333,10.586143493652344,106,7813.0,35.34708023071289,475,9943.0
4700,0.33106812834739685,4.683004379272461,20,7813.0,-20.563404083251953,-656,9943.0
4710,0.3320235013961792,-2.3704657554626465,45,7813.0,-77.88143157958984,-1576,9943.0
4720,0.33372631669044495,-15.19437313079834,-402,7813.0,-125.3416519165039,-2183,9943.0
4730,0.33431926369667053,-32.438575744628906,-608,7813.0,-143.6901092529297,-2205,9943.0
4740,0.3351629376411438,-40.75654983520508,-729,7813.0,-124.08134460449219,-1825,9943.0
4750,0.3324699401855469,-26.348247528076172,-279,7813.0,-78.97333526611328,-1065,9943.0
4760,0.3330550193786621,1.284494400024414,128,7813.0,-32.60272216796875,-456,9943.0
4770,0.3342498242855072,25.302072525024414,515,7813.0,7.0608296394348145,241,9943.0
4780,0.33493518829345703,42.9957160949707,836,7813.0,40.88798904418945,780,9943.0
4790,0.3321053981781006,43.752132415771484,723,7813.0,69.04154205322266,1093,9943.0
4800,0.33198362588882446,28.763757705688477,415,7813.0,89.07510375976562,1524,9943.0
4810,0.3317084312438965,5.601050853729248,81,7813.0,97.26569366455078,1511,9943.0
4820,0.330724835395813,-16.331134796142578,-354,7813.0,87.25214385986328,1308,9943.0
4830,0.33002766966819763,-35.74343490600586,-587,7813.0,62.45353698730469,1022,9943.0
4840,0.32672032713890076,-36.39522171020508,-653,7813.0,33.430023193359375,393,9943.0
4850,0.32665273547172546,-24.67076301574707,-255,7813.0,-3.5591604709625244,-307,9943.0
4860,0.32621097564697266,-11.909709930419922,-140,7813.0,-42.54703903198242,-732,9943.0
4870,0.3263876438140869,2.636718511581421,96,7813.0,-79.78298950195312,-1565,9943.0
4880,0.3233944773674011,19.991540908813477,385,7813.0,-114.61597442626953,-2024,9943.0
4890,0.32311081886291504,25.082656860351562,448,7813.0,-124.8984375,-2084,9943.0
4900,0.32305148243904114,13.072426795959473,133,7813.0,-113.2711181640625,-1733,9943.0
4910,0.3229225277900696,5.645224571228027,60,7813.0,-82.11504364013672,-1056,9943.0
4920,0.3251999616622925,4.526979446411133,139,7813.0,-35.368690490722656,-331,9943.0
4930,0.32615217566490173,9.662835121154785,294,7813.0,15.21984577178955,475,9943.0
4940,0.32674136757850647,14.484527587890625,194,7813.0,56.28654861450195,999,9943.0
4950,0.3276575207710266,13.760543823242188,101,7813.0,84.90121459960938,1347,9943.0
4960,0.3279648423194885,5.809703826904297,110,7813.0,96.6451644897461,1766,9943.0
4970,0.32846739888191223,-5.895816802978516,-71,7813.0,104.30436706542969,1775,9943.0
4980,0.3282378613948822,-11.752193450927734,-348,7813.0,99.06924438476562,1638,9943.0
4990,0.32763808965682983,-15.342690467834473,-150,7813.0,78.69957733154297,1052,9943.0
5000,0.3277510404586792,-12.63524055480957,-184,7813.0,39.53953552246094,378,9943.0
5010,0.3254334032535553,-11.20120906829834,-233,7813.0,-6.964326858520508,-222,9943.0
5020,0.32568591833114624,-6.747117042541504,-90,7813.0,-41.37141036987305,-914,9943.0
5030,0.3265204429626465,2.6114661693573,177,7813.0,-73.70469665527344,-1387,9943.0
5040,0.32723602652549744,5.33711576461792,0,7813.0,-109.7169418334961,-1897,9943.0
5050,0.3278009295463562,2.935354471206665,76,7813.0,-135.806884765625,-2343,9943.0
5060,0.32458069920539856,-2.3404605388641357,-58,7813.0,-141.8673858642578,-2450,9943.0
5070,0.3248245418071747,-5.690970420837402,-73,7813.0,-132.99209594726562,-2149,9943.0
5080,0.3250559866428375,5.901050090789795,213,7813.0,-101.23747253417969,-1374,9943.0
5090,0.3280920386314392,14.659295082092285,217,7813.0,-49.78453826904297,-534,9943.0
5100,0.33030378818511963,13.50053596496582,130,7813.0,1.9697424173355103,497,9943.0
5110,0.3320375680923462,5.453028202056885,-21,7813.0,62.51355743408203,1498,9943.0
5120,0.33319422602653503,-7.692449569702148,-184,7813.0,108.99303436279297,2117,9943.0
5130,0.3351849913597107,-17.02739143371582,-239,7813.0,139.42535400390625,2596,9943.0
5140,0.33283889293670654,-17.157638549804688,-285,7813.0,152.69564819335938,2636,9943.0
5150,0.3333624303340912,-8.25306224822998,-199,7813.0,141.74664306640625,2237,9943.0
5160,0.3331807255744934,-7.143642425537109,-88,7813.0,124.52908325195312,1906,9943.0
5170,0.33267509937286377,-2.052365779876709,-14,7813.0,96.99497985839844,1425,9943.0
5180,0.33450913429260254,-2.181419849395752,-31,7813.0,60.726226806640625,727,9943.0
5190,0.3277609944343567,-3.9692933559417725,-91,7813.0,9.872847557067871,-161,9943.0
5200,0.3278762102127075,2.757520914077759,52,7813.0,-34.438804626464844,-741,9943.0
5210,0.3287924528121948,3.453104019165039,139,7813.0,-70.38795471191406,-1177,9943.0
5220,0.3295595943927765,8.6187744140625,34,7813.0,-100.14424896240234,-1722,9943.0
5230,0.32690247893333435,5.5806684494018555,148,7813.0,-120.72227478027344,-2052,9943.0
5240,0.3278971314430237,-0.39253634214401245,12,7813.0,-120.78378295898438,-2001,9943.0
5250,0.32903194427490234,-5.159592628479004,-89,7813.0,-94.98158264160156,-1447,9943.0
5260,0.33110755681991577,-10.153862953186035,-121,7813.0,-58.48404312133789,-841,9943.0
5270,0.3302508592605591,-10.944229125976562,-27,7813.0,-19.23110008239746,-213,9943.0
5280,0.3311813473701477,-0.7637900710105896,105,7813.0,26.487659454345703,453,9943.0
5290,0.33247610926628113,12.898994445800781,237,7813.0,69.0047836303711,1265,9943.0
5300,0.333322674036026,17.6263484954834,343,7813.0,101.10842895507812,1775,9943.0
5310,0.33395299315452576,15.774666786193848,268,7813.0,127.30867767333984,2001,9943.0
5320,0.33089515566825867,6.634526252746582,89,7813.0,129.39620971679688,2108,9943.0
5330,0.3305703103542328,-8.976471900939941,-98,7813.0,110.57218170166016,1787,9943.0
5340,0.3316710293292999,-12.997403144836426,-368,7813.0,73.44877624511719,1067,9943.0
5350,0.33111807703971863,-13.409878730773926,-221,7813.0,25.785377502441406,79,9943.0
5360,0.3282459080219269,-9.230169296264648,4,7813.0,-28.71625518798828,-641,9943.0
5370,0.32871371507644653,0.34193915128707886,-53,7813.0,-72.7652359008789,-1323,9943.0
5380,0.32853394746780396,6.451447486877441,104,7813.0,-96.48632049560547,-1762,9943.0
5390,0.32934054732322693,6.716152667999268,112,7813.0,-104.70590209960938,-1690,9943.0
5400,0.32976216077804565,5.5015716552734375,151,7813.0,-97.3399658203125,-1458,9943.0
5410,0.32626110315322876,0.5716290473937988,-114,7813.0,-75.17311096191406,-1113,9943.0
5420,0.32739508152008057,-12.3311767578125,-346,7813.0,-51.1933708190918,-571,9943.0
5430,0.3277786076068878,-29.235788345336914,-543,7813.0,-20.205909729003906,-182,9943.0
5440,0.32862144708633423,-37.520050048828125,-704,7813.0,15.112147331237793,472,9943.0
5450,0.32866230607032776,-32.66852951049805,-450,7813.0,47.4847297668457,949,9943.0
5460,0.3292187750339508,-1.236983299255371,-4,7813.0,65.92899322509766,1186,9943.0
5470,0.32966360449790955,25.605493545532227,529,7813.0,74.552001953125,1101,9943.0
5480,0.3297484517097473,44.685150146484375,795,7813.0,71.51902770996094,1045,9943.0
5490,0.32748720049858093,58.17594528198242,995,7813.0,50.30574035644531,700,9943.0
5500,0.32724857330322266,54.35342025756836,735,7813.0,30.476055145263672,558,9943.0
5510,0.3269661068916321,36.096317291259766,467,7813.0,6.319395065307617,-205,9943.0
5520,0.3269820809364319,18.833505630493164,267,7813.0,-33.49030685424805,-694,9943.0
5530,0.32723140716552734,-6.5319085121154785,-244,7813.0,-71.32503509521484,-1264,9943.0
5540,0.3272089958190918,-28.831851959228516,-576,7813.0,-99.47801208496094,-1655,9943.0
5550,0.3270280063152313,-40.98160934448242,-757,7813.0,-119.31127166748047,-2007,9943.0
5560,0.326921671628952,-44.23790740966797,-757,7813.0,-115.7153549194336,-1840,9943.0
5570,0.32638537883758545,-37.77460861206055,-545,7813.0,-98.2513198852539,-1496,9943.0
5580,0.32391807436943054,-31.483882904052734,-502,7813.0,-63.96543502807617,-999,9943.0
5590,0.32641738653182983,-25.75902557373047,-348,7813.0,-21.104339599609375,-157,9943.0
5600,0.3270723819732666,-19.16411590576172,-151,7813.0,27.379873275756836,687,9943.0
5610,0.3287738561630249,-8.979564666748047,-110,7813.0,68.52371978759766,1268,9943.0
5620,0.33079102635383606,-0.4269404113292694,162,7813.0,100.70613098144531,1731,9943.0
5630,0.33147093653678894,14.644989013671875,342,7813.0,115.64871978759766,1937,9943.0
5640,0.3325788378715515,29.128393173217773,502,7813.0,111.76956939697266,1985,9943.0
5650,0.33358073234558105,39.93638229370117,641,7813.0,97.30174255371094,1530,9943.0
5660,0.33427393436431885,50.88071823120117,843,7813.0,68.31655883789062,814,9943.0
5670,0.32998764514923096,54.64926528930664,899,7813.0,32.381492614746094,355,9943.0
5680,0.33013734221458435,51.49203109741211,825,7813.0,-4.86890172958374,-358,9943.0
5690,0.3295598030090332,36.206085205078125,480,7813.0,-33.3170051574707,-678,9943.0
5700,0.32931721210479736,7.571724891662598,-94,7813.0,-57.091487884521484,-954,9943.0
5710,0.3274379074573517,-18.70598602294922,-470,7813.0,-60.83440399169922,-882,9943.0
5720,0.32675307989120483,-34.581851959228516,-672,7813.0,-58.15281295776367,-930,9943.0
5730,0.32614392042160034,-46.583431243896484,-649,7813.0,-51.21306610107422,-789,9943.0
5740,0.3254183232784271,-45.012908935546875,-615,7813.0,-39.58866500854492,-488,9943.0
5750,0.32605209946632385,-32.520206451416016,-474,7813.0,-24.854034423828125,-360,9943.0
5760,0.324655145406723,-17.42912483215332,-235,7813.0,-11.964744567871094,-87,9943.0
5770,0.324389785528183,-11.15347957611084,-87,7813.0,6.271835803985596,294,9943.0
5780,0.3248615860939026,-12.795112609863281,-270,7813.0,29.82404899597168,635,9943.0
5790,0.32506462931632996,-18.28907012939453,-227,7813.0,58.632511138916016,1227,9943.0
5800,0.3244935870170593,-19.478824615478516,-220,7813.0,72.20304107666016,1350,9943.0
5810,0.3245670795440674,-2.4546852111816406,-22,7813.0,80.16403198242188,1346,9943.0
5820,0.3246615529060364,10.170130729675293,217,7813.0,77.71443176269531,1143,9943.0
5830,0.324601948261261,19.072521209716797,317,7813.0,67.10211944580078,996,9943.0
5840,0.3241390585899353,28.887874603271484,569,7813.0,50.184207916259766,763,9943.0
5850,0.32511094212532043,31.733104705810547,398,7813.0,23.9093017578125,347,9943.0
5860,0.32439419627189636,23.895883560180664,457,7813.0,2.4365525245666504,-152,9943.0
5870,0.3239167034626007,19.50188636779785,301,7813.0,-22.38921356201172,-313,9943.0
5880,0.32287338376045227,15.99254322052002,257,7813.0,-41.14641571044922,-798,9943.0
5890,0.3231739401817322,14.86169147491455,252,7813.0,-55.711273193359375,-1146,9943.0
5900,0.32238924503326416,14.426504135131836,256,7813.0,-61.370338439941406,-935,9943.0
5910,0.3218294084072113,14.674906730651855,249,7813.0,-56.164276123046875,-828,9943.0
5920,0.3212871849536896,2.5817179679870605,-146,7813.0,-47.21766662597656,-701,9943.0
5930,0.32188546657562256,-20.372997283935547,-474,7813.0,-40.86068344116211,-538,9943.0
5940,0.32138124108314514,-44.946937561035156,-756,7813.0,-31.48694610595703,-471,9943.0
5950,0.321116179227829,-49.265869140625,-757,7813.0,-19.319576263427734,-368,9943.0
5960,0.32078635692596436,-38.589534759521484,-538,7813.0,0.16778573393821716,75,9943.0
5970,0.32044193148612976,-18.84844207763672,-111,7813.0,18.956666946411133,431,9943.0
5980,0.32193470001220703,0.9951897859573364,20,7813.0,25.911048889160156,498,9943.0
5990,0.32194167375564575,16.621719360351562,378,7813.0,16.367673873901367,212,9943.0
6000,0.3218473494052887,31.996177673339844,655,7813.0,0.6464134454727173,-188,9943.0
6010,0.3217127323150635,35.71271896362305,532,7813.0,-11.09893798828125,-193,9943.0
6020,0.3223097026348114,23.618736267089844,306,7813.0,-20.21860694885254,-292,9943.0
6030,0.3220638334751129,10.266481399536133,76,7813.0,-24.223979949951172,-471,9943.0
6040,0.3220694959163666,2.294642448425293,-8,7813.0,-25.535261154174805,-525,9943.0
6050,0.32200145721435547,2.9887146949768066,169,7813.0,-24.882116317749023,-429,9943.0
6060,0.32183510065078735,9.592649459838867,308,7813.0,-24.327938079833984,-409,9943.0
6070,0.32191941142082214,18.66083526611328,227,7813.0,-22.68485450744629,-270,9943.0
6080,0.3220599591732025,11.928459167480469,263,7813.0,-12.998531341552734,83,9943.0
6090,0.3220694959163666,0.15570864081382751,-153,7813.0,-6.391268730163574,35,9943.0
6100,0.3222331404685974,-22.37575340270996,-589,7813.0,-3.7094943523406982,-33,9943.0
6110,0.32440122961997986,-46.553382873535156,-873,7813.0,0.41542547941207886,114,9943.0
6120,0.3243967294692993,-59.870277404785156,-1033,7813.0,-0.929848849773407,33,9943.0
6130,0.32406240701675415,-65.22234344482422,-1145,7813.0,1.5612417459487915,6,9943.0
6140,0.32402756810188293,-53.69813919067383,-709,7813.0,2.6986639499664307,51,9943.0
6150,0.3236812949180603,-19.96929931640625,-108,7813.0,8.621030807495117,91,9943.0
6160,0.3240453004837036,19.57718849182129,534,7813.0,10.022563934326172,253,9943.0
6170,0.3242436647415161,48.435054779052734,834,7813.0,8.558810234069824,93,9943.0
6180,0.32418254017829895,60.72398376464844,946,7813.0,2.9971959590911865,40,9943.0
6190,0.3242266774177551,60.64823532104492,989,7813.0,-4.589119911193848,-18,9943.0
6200,0.3240589201450348,45.50986099243164,695,7813.0,-2.441126585006714,-48,9943.0
6210,0.32382655143737793,21.490686416625977,125,7813.0,5.528562068939209,124,9943.0
6220,0.32408884167671204,-13.031160354614258,-330,7813.0,10.409841537475586,383,9943.0
6230,0.32406190037727356,-32.84586715698242,-567,7813.0,11.92916202545166,310,9943.0
6240,0.3243713080883026,-32.5137939453125,-541,7813.0,10.711322784423828,292,9943.0
6250,0.32427680492401123,-19.032564163208008,-231,7813.0,15.40405559539795,209,9943.0
6260,0.3242262303829193,1.6049742698669434,190,7813.0,19.872777938842773,374,9943.0
6270,0.32427453994750977,16.88846206665039,446,7813.0,25.783477783203125,387,9943.0
6280,0.32449212670326233,21.492496490478516,379,7813.0,32.854854583740234,649,9943.0
6290,0.3248884379863739,24.799116134643555,425,7813.0,35.52355194091797,704,9943.0
6300,0.3252204954624176,22.1447811126709,198,7813.0,32.696380615234375,506,9943.0
6310,0.32523059844970703,7.132307052612305,-91,7813.0,28.519264221191406,313,9943.0
6320,0.32536011934280396,-10.270642280578613,-286,7813.0,22.75917625427246,302,9943.0
6330,0.3245733976364136,-25.27419662475586,-482,7813.0,15.086053848266602,112,9943.0
6340,0.3244590759277344,-26.636442184448242,-377,7813.0,10.033143997192383,143,9943.0
6350,0.3243277072906494,-18.475685119628906,-201,7813.0,9.756569862365723,147,9943.0
6360,0.3238973319530487,-5.859938144683838,-26,7813.0,4.561614036560059,115,9943.0
6370,0.3241482079029083,2.2208054065704346,1,7813.0,-6.7929182052612305,-361,9943.0
6380,0.32382917404174805,5.730648994445801,94,7813.0,-24.469606399536133,-624,9943.0
6390,0.3235134184360504,9.14050006866455,186,7813.0,-46.855316162109375,-874,9943.0
6400,0.32331582903862,7.098968029022217,125,7813.0,-59.20368194580078,-879,9943.0
6410,0.323156476020813,-3.3318214416503906,-87,7813.0,-58.2537956237793,-957,9943.0
6420,0.3220585584640503,-2.2332112789154053,-124,7813.0,-49.28500747680664,-902,9943.0
6430,0.32209980487823486,1.0134949684143066,70,7813.0,-33.74114227294922,-539,9943.0
6440,0.32202184200286865,9.329256057739258,246,7813.0,-7.035300254821777,69,9943.0
6450,0.3227265179157257,13.342310905456543,362,7813.0,19.28281593322754,426,9943.0
6460,0.3227323591709137,18.082759857177734,296,7813.0,33.29425048828125,653,9943.0
6470,0.3231502175331116,17.67205047607422,322,7813.0,41.63153839111328,820,9943.0
6480,0.32340455055236816,9.6116304397583,188,7813.0,51.79729080200195,899,9943.0
6490,0.3239261507987976,-4.207746982574463,-279,7813.0,56.40591049194336,969,9943.0
6500,0.32393985986709595,-22.7542781829834,-364,7813.0,47.00947189331055,903,9943.0
6510,0.3236992657184601,-24.18937110900879,-511,7813.0,27.715591430664062,390,9943.0
6520,0.324175626039505,-32.013858795166016,-545,7813.0,12.240174293518066,99,9943.0
6530,0.32428792119026184,-35.051055908203125,-579,7813.0,7.9643707275390625,87,9943.0
6540,0.32393771409988403,-44.64756393432617,-735,7813.0,6.528409957885742,157,9943.0
6550,0.32303881645202637,-38.518314361572266,-644,7813.0,-3.946941375732422,-207,9943.0
6560,0.32304704189300537,-15.394474029541016,38,7813.0,-24.58037567138672,-563,9943.0
6570,0.32325851917266846,24.51947021484375,471,7813.0,-47.4465217590332,-783,9943.0
6580,0.3231668472290039,45.53997039794922,785,7813.0,-68.02606964111328,-1284,9943.0
6590,0.3229938745498657,57.01601028442383,995,7813.0,-87.56952667236328,-1516,9943.0
6600,0.32268375158309937,56.2292366027832,892,7813.0,-95.83206176757812,-1489,9943.0
6610,0.3220379054546356,43.948455810546875,629,7813.0,-89.02412414550781,-1379,9943.0
6620,0.3233640789985657,29.81264877319336,298,7813.0,-76.09271240234375,-1134,9943.0
6630,0.3236376941204071,0.7201563119888306,-141,7813.0,-48.213035583496094,-571,9943.0
6640,0.3245096504688263,-28.676158905029297,-636,7813.0,-11.80277156829834,-61,9943.0
6650,0.3258451521396637,-50.7745361328125,-793,7813.0,24.659605026245117,535,9943.0
6660,0.32614579796791077,-54.3326416015625,-840,7813.0,46.67523956298828,861,9943.0
6670,0.3277888298034668,-42.4488410949707,-430,7813.0,68.36035919189453,1326,9943.0
6680,0.32909852266311646,-22.28099822998047,-324,7813.0,87.26254272460938,1545,9943.0
6690,0.33043959736824036,5.82338285446167,83,7813.0,107.83585357666016,1840,9943.0
6700,0.3315586745738983,18.470468521118164,369,7813.0,110.24299621582031,1722,9943.0
6710,0.3318139314651489,22.24215316772461,392,7813.0,100.3724594116211,1540,9943.0
6720,0.33211401104927063,22.26105308532715,347,7813.0,67.61029815673828,1080,9943.0
6730,0.32819345593452454,21.739267349243164,329,7813.0,27.635988235473633,101,9943.0
6740,0.3292970359325409,15.386731147766113,255,7813.0,-13.197739601135254,-306,9943.0
6750,0.3298129439353943,10.735799789428711,130,7813.0,-47.42835235595703,-904,9943.0
6760,0.33094581961631775,9.569623947143555,136,7813.0,-78.73070526123047,-1393,9943.0
6770,0.32771676778793335,4.781993389129639,124,7813.0,-100.07489776611328,-1930,9943.0
6780,0.32769569754600525,-1.8801813125610352,-89,7813.0,-112.74544525146484,-1891,9943.0
6790,0.32743483781814575,-16.51951789855957,-272,7813.0,-110.796875,-1752,9943.0
6800,0.32788482308387756,-27.125091552734375,-392,7813.0,-97.24158477783203,-1381,9943.0
6810,0.32573702931404114,-23.670778274536133,-352,7813.0,-68.99036407470703,-1168,9943.0
6820,0.3287292718887329,-21.52239227294922,-366,7813.0,-26.067331314086914,-292,9943.0
6830,0.32888874411582947,-18.232961654663086,-303,7813.0,24.904499053955078,496,9943.0
6840,0.3300415277481079,-12.576371192932129,-118,7813.0,68.81707763671875,1359,9943.0
6850,0.3316638469696045,1.3011536598205566,108,7813.0,105.34859466552734,1904,9943.0
6860,0.330477774143219,14.53175163269043,304,7813.0,126.6981201171875,2077,9943.0
6870,0.3308405876159668,18.106632232666016,363,7813.0,134.29486083984375,2160,9943.0
6880,0.33075016736984253,21.162715911865234,311,7813.0,123.17062377929688,1974,9943.0
6890,0.33028221130371094,11.351637840270996,50,7813.0,97.20587921142578,1508,9943.0
6900,0.3284905254840851,0.028210023418068886,-40,7813.0,57.319801330566406,674,9943.0
6910,0.3285696804523468,-8.203529357910156,-147,7813.0,9.357483863830566,-2,9943.0
6920,0.32892945408821106,-17.903902053833008,-430,7813.0,-26.666248321533203,-758,9943.0
6930,0.3301611840724945,-29.15383529663086,-456,7813.0,-54.45635223388672,-946,9943.0
6940,0.3305540978908539,-32.790687561035156,-560,7813.0,-75.82974243164062,-1290,9943.0
6950,0.3283786475658417,-18.1944522857666,-143,7813.0,-94.22966766357422,-1566,9943.0
6960,0.3294074237346649,11.539663314819336,387,7813.0,-111.87602233886719,-1977,9943.0
6970,0.33069783449172974,37.793609619140625,830,7813.0,-117.05794525146484,-1915,9943.0
6980,0.3312070965766907,58.84050369262695,1111,7813.0,-115.81198120117188,-1776,9943.0
6990,0.33251965045928955,64.9285659790039,946,7813.0,-95.47327423095703,-1330,9943.0
7000,0.33315372467041016,44.9921989440918,533,7813.0,-60.655418395996094,-828,9943.0
7010,0.33363255858421326,12.873056411743164,11,7813.0,-26.305614471435547,-164,9943.0
7020,0.33428508043289185,-22.152334213256836,-499,7813.0,20.523786544799805,586,9943.0
7030,0.337942898273468,-44.83625411987305,-820,7813.0,68.99472045898438,1359,9943.0
7040,0.33884257078170776,-60.496070861816406,-1012,7813.0,113.31249237060547,1985,9943.0
7050,0.3391476571559906,-59.925106048583984,-986,7813.0,143.11895751953125,2256,9943.0
7060,0.33839452266693115,-44.67832946777344,-491,7813.0,148.70762634277344,2451,9943.0
7070,0.3401297628879547,-17.13237762451172,-138,7813.0,131.77206420898438,2003,9943.0
7080,0.3378947973251343,9.640872955322266,292,7813.0,94.46653747558594,1287,9943.0
7090,0.3368346691131592,31.426069259643555,514,7813.0,43.4039192199707,263,9943.0
7100,0.3372507095336914,40.97877883911133,753,7813.0,-12.197669982910156,-600,9943.0
7110,0.3380294442176819,37.951499938964844,506,7813.0,-69.4351577758789,-1200,9943.0
7120,0.3354668915271759,21.537202835083008,295,7813.0,-110.29279327392578,-1935,9943.0
7130,0.33625122904777527,0.7687297463417053,-75,7813.0,-130.75901794433594,-2193,9943.0
7140,0.33655744791030884,-14.216558456420898,-297,7813.0,-143.39309692382812,-2236,9943.0
7150,0.3374343514442444,-18.46049690246582,-269,7813.0,-148.86233520507812,-2379,9943.0
7160,0.3347802460193634,-10.58647632598877,-169,7813.0,-143.89073181152344,-2338,9943.0
7170,0.33480527997016907,3.5305397510528564,162,7813.0,-128.81149291992188,-2008,9943.0
7180,0.33446088433265686,2.5552327632904053,35,7813.0,-99.33454132080078,-1475,9943.0
7190,0.33751821517944336,-3.2954819202423096,-47,7813.0,-54.40781021118164,-685,9943.0
7200,0.3397279381752014,-8.81090259552002,-134,7813.0,-2.243543863296509,251,9943.0
7210,0.3434051275253296,-9.13906478881836,-152,7813.0,59.224246978759766,1305,9943.0
7220,0.34537190198898315,-9.272780418395996,-134,7813.0,113.40167999267578,2192,9943.0
7230,0.34546440839767456,-9.01114273071289,-175,7813.0,160.7809295654297,2831,9943.0
7240,0.34669092297554016,-9.28172492980957,-208,7813.0,188.64187622070312,3224,9943.0
7250,0.34438884258270264,-4.091151714324951,48,7813.0,205.61289978027344,3219,9943.0
7260,0.344230055809021,10.801589012145996,232,7813.0,195.3258819580078,3043,9943.0
7270,0.3473357558250427,28.912181854248047,536,7813.0,156.21942138671875,2402,9943.0
7280,0.3463606536388397,40.135990142822266,680,7813.0,99.8184814453125,1344,9943.0
7290,0.34574058651924133,39.15284729003906,623,7813.0,34.74112319946289,309,9943.0
7300,0.33841633796691895,28.506362915039062,356,7813.0,-27.145835876464844,-683,9943.0
7310,0.33958199620246887,8.114486694335938,-20,7813.0,-80.9268798828125,-1694,9943.0
7320,0.34092020988464355,-11.063725471496582,-180,7813.0,-125.43104553222656,-2160,9943.0
7330,0.3418303430080414,-23.47933578491211,-477,7813.0,-162.87661743164062,-2685,9943.0
7340,0.33557748794555664,-25.507320404052734,-417,7813.0,-193.0081787109375,-3153,9943.0
7350,0.3358546793460846,-20.93959617614746,-319,7813.0,-206.83079528808594,-3471,9943.0
7360,0.3336758613586426,-17.227203369140625,-259,7813.0,-202.47145080566406,-3262,9943.0
7370,0.3320618271827698,-25.985898971557617,-446,7813.0,-180.72488403320312,-2834,9943.0
7380,0.3279019594192505,-37.45840072631836,-553,7813.0,-140.7582550048828,-2090,9943.0
7390,0.3263991177082062,-36.26991271972656,-543,7813.0,-80.56230163574219,-1074,9943.0
7400,0.3298693895339966,-28.076459884643555,-403,7813.0,-13.981727600097656,64,9943.0
7410,0.3297590911388397,-15.690116882324219,-196,7813.0,68.3072738647461,1384,9943.0
7420,0.3320619761943817,-14.136502265930176,-178,7813.0,134.0015411376953,2370,9943.0
7430,0.3300135135650635,-12.409823417663574,-105,7813.0,181.68630981445312,3279,9943.0
7440,0.32601287961006165,4.215717792510986,97,7813.0,206.1408233642578,3379,9943.0
7450,0.325423926115036,18.385507583618164,243,7813.0,205.59559631347656,3354,9943.0
7460,0.3235912024974823,25.730257034301758,516,7813.0,183.85740661621094,2848,9943.0
7470,0.3111996054649353,25.215063095092773,288,7813.0,142.56939697265625,2029,9943.0
7480,0.31022003293037415,24.642406463623047,473,7813.0,83.83970642089844,1285,9943.0
7490,0.3071882128715515,20.253480911254883,322,7813.0,29.597028732299805,72,9943.0
7500,0.3049237132072449,15.12713623046875,88,7813.0,-22.041807174682617,-459,9943.0
7510,0.3037625849246979,1.2766226530075073,63,7813.0,-63.90366744995117,-1231,9943.0
7520,0.2937958836555481,-15.055222511291504,-325,7813.0,-90.75025177001953,-1491,9943.0
7530,0.29177847504615784,-30.490406036376953,-553,7813.0,-111.79098510742188,-1928,9943.0
7540,0.28975197672843933,-36.92607116699219,-472,7813.0,-118.37769317626953,-1958,9943.0
7550,0.2888369858264923,-25.265941619873047,-351,7813.0,-112.19715118408203,-1719,9943.0
7560,0.28213322162628174,-16.242618560791016,-244,7813.0,-80.07343292236328,-1244,9943.0
7570,0.2823586165904999,-11.654950141906738,-169,7813.0,-35.400184631347656,-486,9943.0
7580,0.2834605574607849,-12.84437370300293,-159,7813.0,13.961657524108887,498,9943.0
7590,0.2855914235115051,-13.725543975830078,-278,7813.0,68.89159393310547,1451,9943.0
7600,0.28628242015838623,-18.431520462036133,-361,7813.0,119.66082000732422,2186,9943.0
7610,0.281067818403244,-15.490720748901367,-164,7813.0,149.64080810546875,2532,9943.0
7620,0.2821643352508545,-3.628887891769409,51,7813.0,165.25733947753906,2836,9943.0
7630,0.2823585271835327,12.340354919433594,356,7813.0,161.6274871826172,2441,9943.0
7640,0.28481680154800415,28.124422073364258,442,7813.0,135.92591857910156,1921,9943.0
7650,0.279428631067276,37.92667007446289,687,7813.0,97.25770568847656,1421,9943.0
7660,0.2795092761516571,44.837459564208984,819,7813.0,50.219764709472656,543,9943.0
7670,0.2789648771286011,44.73978042602539,701,7813.0,5.957852840423584,-230,9943.0
7680,0.28179752826690674,38.14064025878906,618,7813.0,-34.725582122802734,-841,9943.0
7690,0.279122531414032,24.082048416137695,230,7813.0,-71.67323303222656,-1432,9943.0
7700,0.2795906364917755,9.313891410827637,211,7813.0,-101.07733154296875,-1732,9943.0
7710,0.2798324525356293,-2.8729400634765625,-149,7813.0,-111.8249740600586,-1834,9943.0
7720,0.28046420216560364,-12.081282615661621,-336,7813.0,-102.4585189819336,-1585,9943.0
7730,0.2806006371974945,-23.79010772705078,-323,7813.0,-73.01834869384766,-863,9943.0
7740,0.2780098617076874,-28.583829879760742,-500,7813.0,-29.219772338867188,-72,9943.0
7750,0.2784895896911621,-30.70731544494629,-581,7813.0,18.76416778564453,536,9943.0
7760,0.2784614562988281,-26.135934829711914,-383,7813.0,59.03716278076172,1021,9943.0
7770,0.2785049378871918,-15.438587188720703,-138,7813.0,91.99468231201172,1610,9943.0
7780,0.27675870060920715,-3.1288442611694336,-66,7813.0,111.8450927734375,1945,9943.0
7790,0.2760883569717407,8.232423782348633,200,7813.0,114.90690612792969,1656,9943.0
7800,0.2768097519874573,17.28384017944336,308,7813.0,96.9158706665039,1597,9943.0
7810,0.275999516248703,24.892255783081055,484,7813.0,63.36625671386719,832,9943.0
7820,0.275055855512619,29.70233917236328,476,7813.0,19.47508430480957,196,9943.0
7830,0.27368760108947754,22.480758666992188,351,7813.0,-26.161569595336914,-798,9943.0
7840,0.2732354700565338,12.553568840026855,102,7813.0,-70.04615783691406,-1169,9943.0
7850,0.2723408341407776,-7.218202590942383,-222,7813.0,-99.05015563964844,-1793,9943.0
7860,0.2721392512321472,-22.530776977539062,-371,7813.0,-121.87434387207031,-1978,9943.0
7870,0.27046993374824524,-32.10013198852539,-570,7813.0,-132.61317443847656,-2097,9943.0
7880,0.2686087191104889,-35.84317398071289,-607,7813.0,-126.1926040649414,-2018,9943.0
7890,0.2690272927284241,-31.872060775756836,-483,7813.0,-98.21814727783203,-1397,9943.0
7900,0.26736584305763245,-34.33514404296875,-567,7813.0,-57.01496505737305,-638,9943.0
7910,0.26585930585861206,-30.455907821655273,-527,7813.0,-5.134767055511475,104,9943.0
7920,0.2650284767150879,-22.96600341796875,-288,7813.0,42.8081169128418,837,9943.0
7930,0.2649097442626953,-16.117202758789062,-235,7813.0,79.52391052246094,1523,9943.0
7940,0.26389533281326294,-10.078518867492676,-84,7813.0,101.03136444091797,1674,9943.0
7950,0.2628941237926483,0.36126023530960083,-67,7813.0,101.89200592041016,1668,9943.0
7960,0.261971652507782,3.661203384399414,86,7813.0,77.7935562133789,1149,9943.0
7970,0.26197123527526855,5.6994948387146,110,7813.0,44.1222038269043,480,9943.0
7980,0.2609894573688507,17.35969352722168,226,7813.0,7.721596717834473,-119,9943.0
7990,0.260306715965271,24.169870376586914,477,7813.0,-25.050233840942383,-336,9943.0
8000,0.2573927938938141,29.71241569519043,581,7813.0,-45.251651763916016,-812,9943.0
8010,0.25611913204193115,32.75117492675781,512,7813.0,-52.80231475830078,-870,9943.0
8020,0.25505098700523376,37.888553619384766,732,7813.0,-51.48690414428711,-793,9943.0
8030,0.25372886657714844,38.067195892333984,544,7813.0,-36.90494918823242,-570,9943.0
8040,0.25351205468177795,33.5019645690918,560,7813.0,-24.135786056518555,-363,9943.0
8050,0.2540012300014496,22.92685890197754,294,7813.0,-11.777875900268555,-55,9943.0
8060,0.25384995341300964,8.036867141723633,100,7813.0,5.145866394042969,67,9943.0
8070,0.2540852427482605,-2.8459479808807373,-70,7813.0,26.89750099182129,614,9943.0
8080,0.25457823276519775,-12.600478172302246,-214,7813.0,44.0390510559082,697,9943.0
8090,0.2548030614852905,-13.893983840942383,-203,7813.0,64.69760131835938,1175,9943.0
8100,0.2552347481250763,-5.638753890991211,-42,7813.0,71.69458770751953,1172,9943.0
8110,0.2556828260421753,0.9641944766044617,-46,7813.0,71.08431243896484,1198,9943.0
8120,0.2558634579181671,3.8714969158172607,85,7813.0,59.75624084472656,931,9943.0
8130,0.2565183639526367,7.160482406616211,194,7813.0,35.97364044189453,460,9943.0
8140,0.25658881664276123,13.962481498718262,180,7813.0,6.649021148681641,-7,9943.0
8150,0.2565988004207611,15.455109596252441,283,7813.0,-24.190034866333008,-373,9943.0
8160,0.25695347785949707,12.43585205078125,175,7813.0,-49.43661117553711,-1044,9943.0
8170,0.256906121969223,1.7626674175262451,-82,7813.0,-67.49093627929688,-1052,9943.0
8180,0.25756680965423584,-10.256625175476074,-210,7813.0,-72.77497863769531,-1150,9943.0
8190,0.2574065029621124,-17.566844940185547,-359,7813.0,-68.27169799804688,-1020,9943.0
8200,0.2569240629673004,-20.577350616455078,-310,7813.0,-50.92515182495117,-805,9943.0
8210,0.25731712579727173,-24.53767204284668,-355,7813.0,-25.642736434936523,-260,9943.0
8220,0.2565158009529114,-25.290809631347656,-502,7813.0,-1.4830790758132935,29,9943.0
8230,0.25651946663856506,-23.653730392456055,-304,7813.0,14.353437423706055,315,9943.0
8240,0.2565710246562958,-16.46315574645996,-297,7813.0,21.302579879760742,285,9943.0
8250,0.25614142417907715,-7.032034397125244,23,7813.0,14.864985466003418,337,9943.0
8260,0.2564980387687683,4.321603775024414,32,7813.0,12.312115669250488,90,9943.0
8270,0.25544482469558716,5.39598274230957,114,7813.0,21.071985244750977,419,9943.0
8280,0.25543275475502014,3.193081855773926,62,7813.0,29.671829223632812,514,9943.0
8290,0.2554388642311096,-3.1373021602630615,-140,7813.0,38.84908676147461,786,9943.0
8300,0.25525423884391785,-7.217697620391846,-78,7813.0,44.97991180419922,721,9943.0
8310,0.25399115681648254,-3.6286191940307617,-94,7813.0,44.19707107543945,588,9943.0
8320,0.25336822867393494,-3.4418771266937256,48,7813.0,36.44009780883789,649,9943.0
8330,0.25265103578567505,-5.1418986320495605,-192,7813.0,23.13041877746582,189,9943.0
8340,0.2518117129802704,-11.536421775817871,-174,7813.0,5.641082286834717,-93,9943.0
8350,0.25153303146362305,-14.529211044311523,-158,7813.0,-12.209153175354004,-210,9943.0
8360,0.2505348324775696,-17.91391944885254,-354,7813.0,-28.23456382751465,-707,9943.0
8370,0.24921934306621552,-20.26863670349121,-323,7813.0,-43.080810546875,-702,9943.0
8380,0.24762162566184998,-19.772005081176758,-298,7813.0,-50.498130798339844,-772,9943.0
8390,0.24581147730350494,-12.948994636535645,-246,7813.0,-44.483848571777344,-769,9943.0
8400,0.2465839684009552,-1.4741849899291992,79,7813.0,-29.613853454589844,-481,9943.0
8410,0.24538059532642365,8.007241249084473,128,7813.0,-14.179413795471191,-204,9943.0
8420,0.24463725090026855,18.466035842895508,401,7813.0,-1.2082600593566895,135,9943.0
8430,0.24376216530799866,22.925317764282227,328,7813.0,8.31194019317627,58,9943.0
8440,0.24394811689853668,19.94927215576172,298,7813.0,15.435484886169434,259,9943.0
8450,0.24342013895511627,10.577705383300781,69,7813.0,19.46807861328125,257,9943.0
8460,0.24259096384048462,-1.2936087846755981,-75,7813.0,30.469675064086914,648,9943.0
8470,0.24296870827674866,-6.320334434509277,-10,7813.0,42.818294525146484,758,9943.0
8480,0.24482375383377075,-1.700234055519104,-51,7813.0,55.21305847167969,817,9943.0
8490,0.2447984367609024,7.291224479675293,195,7813.0,60.86732482910156,1102,9943.0
8500,0.24465727806091309,17.54737091064453,368,7813.0,54.46174621582031,892,9943.0
8510,0.24465125799179077,21.77619171142578,283,7813.0,43.397396087646484,763,9943.0
8520,0.24424752593040466,17.058156967163086,207,7813.0,32.149169921875,417,9943.0
8530,0.24448081851005554,5.239868640899658,45,7813.0,14.011816024780273,210,9943.0
8540,0.24433211982250214,-9.878369331359863,-122,7813.0,-9.750652313232422,-264,9943.0
8550,0.24411147832870483,-17.68500518798828,-369,7813.0,-27.844287872314453,-623,9943.0
8560,0.24368827044963837,-12.693044662475586,-179,7813.0,-38.83113479614258,-575,9943.0
8570,0.2450769692659378,-8.050764083862305,-46,7813.0,-39.083099365234375,-564,9943.0
8580,0.24474787712097168,-3.8630001544952393,-68,7813.0,-27.69193458557129,-428,9943.0
8590,0.24458476901054382,2.8502068519592285,89,7813.0,-11.339752197265625,25,9943.0
8600,0.24488046765327454,9.722291946411133,254,7813.0,4.497873783111572,106,9943.0
8610,0.24532295763492584,19.517723083496094,308,7813.0,20.516969680786133,317,9943.0
8620,0.2447488158941269,28.601491928100586,550,7813.0,28.194814682006836,609,9943.0
8630,0.24521945416927338,34.758426666259766,574,7813.0,32.78417205810547,517,9943.0
8640,0.24568302929401398,29.81899642944336,332,7813.0,30.124637603759766,523,9943.0
8650,0.2457851767539978,13.063533782958984,215,7813.0,32.861480712890625,617,9943.0
8660,0.24914544820785522,-6.786065578460693,-212,7813.0,43.97282409667969,598,9943.0
8670,0.24999797344207764,-23.393198013305664,-371,7813.0,43.03992462158203,798,9943.0
8680,0.2500963509082794,-36.18544006347656,-549,7813.0,38.13282012939453,497,9943.0
8690,0.2511804699897766,-40.22715759277344,-754,7813.0,26.001476287841797,274,9943.0
8700,0.2555628716945648,-40.78181076049805,-717,7813.0,11.785643577575684,202,9943.0
8710,0.2562469244003296,-35.654117584228516,-528,7813.0,-7.513258457183838,-169,9943.0
8720,0.2564339339733124,-28.09967803955078,-385,7813.0,-21.419445037841797,-363,9943.0
8730,0.2569328546524048,-27.53778076171875,-455,7813.0,-26.358022689819336,-487,9943.0
8740,0.2578224539756775,-26.977079391479492,-477,7813.0,-26.528352737426758,-529,9943.0
8750,0.2612134516239166,-35.836936950683594,-586,7813.0,-22.966899871826172,-320,9943.0
8760,0.2613070011138916,-36.03036880493164,-550,7813.0,-11.21227741241455,-15,9943.0
8770,0.26116135716438293,-24.075708389282227,-271,7813.0,-1.2027791738510132,-49,9943.0
8780,0.2616127133369446,5.296574592590332,285,7813.0,-9.0288724899292,-137,9943.0
8790,0.26308301091194153,44.34903335571289,871,7813.0,-16.005996704101562,-253,9943.0
8800,0.26385560631752014,72.59764862060547,1231,7813.0,-21.45737648010254,-406,9943.0
8810,0.2641550600528717,79.90475463867188,1264,7813.0,-26.501644134521484,-363,9943.0
8820,0.26456376910209656,72.85322570800781,1131,7813.0,-27.902421951293945,-377,9943.0
8830,0.2660345733165741,55.47388458251953,728,7813.0,-28.304489135742188,-522,9943.0
8840,0.26559320092201233,33.43211364746094,508,7813.0,-20.808406829833984,-234,9943.0
8850,0.26649466156959534,21.117034912109375,264,7813.0,-5.241959095001221,-83,9943.0
8860,0.26769912242889404,10.08475399017334,79,7813.0,13.28029727935791,471,9943.0
8870,0.2684052884578705,1.757711410522461,-29,7813.0,44.388763427734375,766,9943.0
8880,0.268382728099823,-6.651402473449707,-67,7813.0,67.5460433959961,1289,9943.0
8890,0.2693210244178772,-1.3996762037277222,162,7813.0,69.12564849853516,1092,9943.0
8900,0.2703855633735657,10.81956672668457,225,7813.0,55.55836868286133,722,9943.0
8910,0.2714618444442749,21.16826820373535,426,7813.0,34.87137985229492,508,9943.0
8920,0.2708326578140259,24.45624542236328,380,7813.0,11.683465957641602,-36,9943.0
8930,0.2714965343475342,17.80722999572754,164,7813.0,-17.630064010620117,-394,9943.0
8940,0.2720984220504761,2.1169605255126953,-21,7813.0,-40.01169204711914,-795,9943.0
8950,0.27269482612609863,-17.646886825561523,-453,7813.0,-52.52644348144531,-792,9943.0
8960,0.27330178022384644,-36.564449310302734,-703,7813.0,-56.86185073852539,-1085,9943.0
8970,0.271220326423645,-51.579036712646484,-838,7813.0,-57.9505729675293,-829,9943.0
8980,0.27107492089271545,-52.24761199951172,-836,7813.0,-51.39634323120117,-811,9943.0
8990,0.2712863087654114,-39.101810455322266,-536,7813.0,-38.57013702392578,-545,9943.0
9000,0.27127957344055176,-20.556171417236328,-243,7813.0,-16.813405990600586,-137,9943.0
9010,0.26718881726264954,-9.404943466186523,-149,7813.0,3.3542497158050537,82,9943.0
9020,0.2673795223236084,-3.5694663524627686,6,7813.0,24.445934295654297,599,9943.0
9030,0.2670208811759949,3.7581961154937744,107,7813.0,37.76987075805664,635,9943.0
9040,0.2669149339199066,16.50302505493164,291,7813.0,49.088138580322266,921,9943.0
9050,0.2666166126728058,13.191736221313477,173,7813.0,57.29073715209961,841,9943.0
9060,0.26533427834510803,5.005563259124756,5,7813.0,53.428436279296875,825,9943.0
9070,0.2651978135108948,2.396674633026123,107,7813.0,41.263038635253906,610,9943.0
9080,0.26472368836402893,4.540302276611328,46,7813.0,16.435348510742188,91,9943.0
9090,0.26445865631103516,9.62292766571045,135,7813.0,-12.949299812316895,-292,9943.0
9100,0.2641496956348419,6.417234420776367,168,7813.0,-33.5330810546875,-645,9943.0
9110,0.26352012157440186,6.422844886779785,127,7813.0,-46.33293151855469,-894,9943.0
9120,0.262909859418869,10.926434516906738,185,7813.0,-47.02630615234375,-766,9943.0
9130,0.2623027265071869,11.543442726135254,225,7813.0,-39.75333023071289,-681,9943.0
9140,0.2616262137889862,7.579380989074707,80,7813.0,-30.376659393310547,-421,9943.0
9150,0.26091238856315613,0.5194581747055054,9,7813.0,-13.472018241882324,-174,9943.0
9160,0.260660320520401,-8.443132400512695,-197,7813.0,5.567511558532715,208,9943.0
9170,0.26054489612579346,-17.151765823364258,-240,7813.0,16.129085540771484,254,9943.0
9180,0.26056355237960815,-20.674970626831055,-365,7813.0,14.599417686462402,222,9943.0
9190,0.25997111201286316,-22.031267166137695,-306,7813.0,15.019096374511719,316,9943.0
9200,0.2601299285888672,-22.17946434020996,-430,7813.0,12.010260581970215,98,9943.0
9210,0.2604367733001709,-31.650564193725586,-627,7813.0,10.000444412231445,198,9943.0
9220,0.26091739535331726,-33.97352600097656,-464,7813.0,15.621899604797363,347,9943.0
9230,0.26314395666122437,-20.979347229003906,-284,7813.0,14.236454963684082,176,9943.0
9240,0.264043390750885,-12.345696449279785,-181,7813.0,4.578770637512207,-76,9943.0
9250,0.2647528648376465,-5.691473484039307,-133,7813.0,-9.665918350219727,-174,9943.0
9260,0.26542702317237854,0.1959855556488037,70,7813.0,-12.076864242553711,-68,9943.0
9270,0.2663528025150299,1.3784396648406982,54,7813.0,-12.2846097946167,-205,9943.0
9280,0.2670050859451294,3.7618136405944824,20,7813.0,-10.242364883422852,-301,9943.0
9290,0.26764535903930664,8.560586929321289,114,7813.0,-13.725701332092285,-167,9943.0
9300,0.26827213168144226,14.070807456970215,303,7813.0,-10.656352996826172,-69,9943.0
9310,0.2689308524131775,22.915433883666992,381,7813.0,-7.987110614776611,-160,9943.0
9320,0.26972904801368713,29.78138542175293,452,7813.0,-7.098905086517334,-180,9943.0
9330,0.27026838064193726,31.61013412475586,567,7813.0,-4.721258163452148,39,9943.0
9340,0.2711993455886841,26.247224807739258,432,7813.0,-0.6730566024780273,-72,9943.0
9350,0.27197009325027466,21.431285858154297,307,7813.0,-6.309908866882324,-57,9943.0
9360,0.27404147386550903,13.205658912658691,190,7813.0,-13.29866886138916,-294,9943.0
9370,0.27502313256263733,7.182969093322754,1,7813.0,-12.933627128601074,-92,9943.0
9380,0.27599430084228516,-10.040752410888672,-183,7813.0,-2.511586904525757,-82,9943.0
9390,0.2770526111125946,-21.726078033447266,-390,7813.0,3.751699686050415,118,9943.0
9400,0.2780766189098358,-20.164934158325195,-260,7813.0,17.136240005493164,459,9943.0
9410,0.2794429063796997,-20.345922470092773,-375,7813.0,27.736255645751953,498,9943.0
9420,0.28035974502563477,-10.444731712341309,-61,7813.0,32.05815887451172,627,9943.0
9430,0.2812531888484955,-1.8491321802139282,-37,7813.0,29.30905532836914,345,9943.0
9440,0.2822132408618927,0.5948185324668884,-170,7813.0,16.32322120666504,308,9943.0
9450,0.2832992970943451,-6.954383373260498,-92,7813.0,7.472179889678955,131,9943.0
9460,0.28385668992996216,-15.117839813232422,-331,7813.0,0.878694474697113,-143,9943.0
9470,0.28421875834465027,-15.80512523651123,-172,7813.0,-6.289548873901367,-230,9943.0
9480,0.2844952642917633,-7.734834671020508,-7,7813.0,-22.051982879638672,-400,9943.0
9490,0.2851516604423523,2.3293344974517822,8,7813.0,-38.24176788330078,-746,9943.0
9500,0.28520020842552185,9.174942970275879,263,7813.0,-40.18859100341797,-533,9943.0
9510,0.28539037704467773,22.78253936767578,417,7813.0,-33.46498489379883,-558,9943.0
9520,0.2855440080165863,29.453092575073242,442,7813.0,-30.25638198852539,-559,9943.0
9530,0.286145955324173,29.558698654174805,551,7813.0,-28.929384231567383,-335,9943.0
9540,0.28672757744789124,27.46651840209961,314,7813.0,-21.91554832458496,-459,9943.0
9550,0.28715530037879944,17.976991653442383,261,7813.0,-15.989387512207031,-71,9943.0
9560,0.2877669632434845,11.911056518554688,158,7813.0,1.9412848949432373,100,9943.0
9570,0.28827446699142456,15.519983291625977,283,7813.0,23.318470001220703,531,9943.0
9580,0.2870064973831177,16.504182815551758,202,7813.0,37.16109848022461,630,9943.0
9590,0.2872889041900635,11.361540794372559,190,7813.0,50.78681564331055,904,9943.0
9600,0.28768086433410645,3.156909227371216,-55,7813.0,54.09675598144531,830,9943.0
9610,0.28788405656814575,-7.233127117156982,-34,7813.0,41.35718536376953,643,9943.0
9620,0.2879936993122101,-11.468147277832031,-284,7813.0,17.579669952392578,57,9943.0
9630,0.2902321517467499,-18.0858097076416,-283,7813.0,2.6447956562042236,11,9943.0
9640,0.29004964232444763,-20.86884117126465,-419,7813.0,-6.807571887969971,-135,9943.0
9650,0.2899147570133209,-19.400405883789062,-392,7813.0,-11.572616577148438,-323,9943.0
9660,0.28969669342041016,-12.373608589172363,-84,7813.0,-26.215286254882812,-420,9943.0
9670,0.29155072569847107,1.058230996131897,64,7813.0,-40.85527038574219,-765,9943.0
9680,0.2912384867668152,17.1162052154541,316,7813.0,-48.178916931152344,-816,9943.0
9690,0.2910597026348114,27.019502639770508,553,7813.0,-44.60921096801758,-674,9943.0
9700,0.29101523756980896,30.745758056640625,396,7813.0,-31.546308517456055,-440,9943.0
9710,0.2921644449234009,23.573341369628906,415,7813.0,-15.445893287658691,-102,9943.0
9720,0.2922545075416565,10.308780670166016,-25,7813.0,-3.092180013656616,64,9943.0
9730,0.29274600744247437,-11.361329078674316,-240,7813.0,7.56417179107666,187,9943.0
9740,0.2931121587753296,-21.0908203125,-367,7813.0,26.83354377746582,597,9943.0
9750,0.29352495074272156,-13.507430076599121,-197,7813.0,45.94333267211914,793,9943.0
9760,0.29070836305618286,-8.268966674804688,-200,7813.0,58.44967269897461,933,9943.0
9770,0.29119938611984253,-2.5538973808288574,30,7813.0,58.55386734008789,1030,9943.0
9780,0.29138270020484924,3.555776834487915,186,7813.0,45.65634536743164,661,9943.0
9790,0.29154735803604126,17.58650779724121,256,7813.0,18.270856857299805,193,9943.0
9800,0.2934102416038513,19.815065383911133,253,7813.0,-5.014908790588379,-164,9943.0
9810,0.2934182584285736,8.975018501281738,178,7813.0,-24.288162231445312,-394,9943.0
9820,0.29323551058769226,-4.84329891204834,-145,7813.0,-32.09212112426758,-721,9943.0
9830,0.29317718744277954,-14.498259544372559,-297,7813.0,-38.703086853027344,-543,9943.0
9840,0.29363974928855896,-18.89024543762207,-179,7813.0,-39.61298370361328,-701,9943.0
9850,0.2933126986026764,-16.891149520874023,-330,7813.0,-41.39341354370117,-771,9943.0
9860,0.2930310070514679,-11.61230182647705,-57,7813.0,-37.21018981933594,-407,9943.0
9870,0.2927563190460205,4.29718017578125,111,7813.0,-18.239192962646484,-335,9943.0
9880,0.29278624057769775,7.300444602966309,114,7813.0,-4.5179667472839355,-42,9943.0
9890,0.29411929845809937,3.3850035667419434,85,7813.0,9.150080680847168,219,9943.0
9900,0.2943539023399353,-5.491730213165283,-164,7813.0,22.152639389038086,415,9943.0
9910,0.29473447799682617,-18.861501693725586,-285,7813.0,33.50516128540039,621,9943.0
9920,0.29525843262672424,-20.883331298828125,-287,7813.0,35.80643844604492,556,9943.0
9930,0.29399001598358154,-21.494205474853516,-346,7813.0,31.842382431030273,397,9943.0
9940,0.29453539848327637,-10.207090377807617,-93,7813.0,17.814781188964844,184,9943.0
9950,0.29482242465019226,5.326237201690674,152,7813.0,-3.830937385559082,-50,9943.0
9960,0.29528114199638367,13.792434692382812,290,7813.0,-18.229204177856445,-353,9943.0
9970,0.29554399847984314,16.084386825561523,245,7813.0,-25.714845657348633,-569,9943.0
9980,0.29734793305397034,13.412071228027344,159,7813.0,-31.09446144104004,-440,9943.0
9990,0.2974802255630493,-2.918407678604126,-23,7813.0,-25.6798095703125,-418,9943.0
10000,0.29744753241539,-8.981761932373047,-238,7813.0,-21.03640365600586,-409,9943.0
10010,0.29763805866241455,-9.078374862670898,-61,7813.0,-15.783658981323242,-162,9943.0
10020,0.2982407510280609,1.4808571338653564,172,7813.0,-1.3500194549560547,-28,9943.0
10030,0.2983749210834503,17.611900329589844,271,7813.0,10.092066764831543,137,9943.0
10040,0.2985574007034302,27.092145919799805,508,7813.0,17.01312828063965,493,9943.0
10050,0.29879650473594666,24.519311904907227,419,7813.0,18.55227279663086,174,9943.0
10060,0.30002912878990173,15.699612617492676,61,7813.0,11.62203311920166,193,9943.0
10070,0.30055558681488037,-6.268126010894775,-82,7813.0,7.346004009246826,170,9943.0
10080,0.30115023255348206,-19.96607208251953,-446,7813.0,5.850411415100098,-62,9943.0
10090,0.301815927028656,-34.83681106567383,-613,7813.0,5.959217548370361,202,9943.0
10100,0.30271995067596436,-39.84962463378906,-577,7813.0,9.65394401550293,178,9943.0
10110,0.30486172437667847,-27.815162658691406,-311,7813.0,9.096845626831055,13,9943.0
10120,0.3056131899356842,-0.1498470902442932,124,7813.0,7.809444904327393,154,9943.0
10130,0.3063206374645233,19.16499137878418,479,7813.0,8.84122371673584,206,9943.0
10140,0.30699795484542847,32.3198356628418,563,7813.0,15.460525512695312,143,9943.0
10150,0.3080286979675293,33.9847297668457,510,7813.0,13.033595085144043,266,9943.0
10160,0.30835700035095215,26.632110595703125,372,7813.0,10.993412971496582,200,9943.0
10170,0.30851125717163086,15.45667552947998,139,7813.0,6.230574131011963,-63,9943.0
10180,0.30912256240844727,1.1509909629821777,-47,7813.0,-1.2007540464401245,-62,9943.0
10190,0.30940377712249756,-6.074900150299072,-60,7813.0,-8.28067398071289,-253,9943.0
10200,0.31020793318748474,-11.575810432434082,-240,7813.0,-21.09490203857422,-457,9943.0
10210,0.31048673391342163,-11.713943481445312,-176,7813.0,-26.4959659576416,-326,9943.0
10220,0.31081026792526245,-9.891928672790527,-165,7813.0,-23.97214126586914,-419,9943.0
10230,0.3112468719482422,-15.17394733428955,-325,7813.0,-19.251022338867188,-252,9943.0
10240,0.3114089369773865,-25.344629287719727,-431,7813.0,-15.262044906616211,-253,9943.0
10250,0.312148779630661,-34.75777053833008,-664,7813.0,-8.075772285461426,-96,9943.0
10260,0.31258928775787354,-41.20423126220703,-600,7813.0,4.99815559387207,284,9943.0
10270,0.31313762068748474,-32.024051666259766,-514,7813.0,23.295143127441406,408,9943.0
10280,0.3138461410999298,-9.760702133178711,5,7813.0,36.677955627441406,601,9943.0
10290,0.3165433406829834,10.499058723449707,297,7813.0,42.44480514526367,773,9943.0
10300,0.31749752163887024,31.29506492614746,558,7813.0,46.384803771972656,685,9943.0
10310,0.31857165694236755,45.03657150268555,732,7813.0,36.992191314697266,574,9943.0
10320,0.31927451491355896,49.77783203125,757,7813.0,20.179250717163086,422,9943.0
10330,0.3208930790424347,38.93838882446289,629,7813.0,6.382356643676758,-19,9943.0
10340,0.321585088968277,26.534183502197266,308,7813.0,-12.267340660095215,-386,9943.0
10350,0.32277753949165344,10.55120849609375,156,7813.0,-28.9055233001709,-465,9943.0
10360,0.3234291672706604,-2.309868812561035,-53,7813.0,-51.232818603515625,-950,9943.0
10370,0.32361575961112976,-13.014687538146973,-311,7813.0,-60.4626579284668,-1104,9943.0
10380,0.3240196704864502,-25.70722007751465,-412,7813.0,-58.18166732788086,-781,9943.0
10390,0.3249347507953644,-30.13671875,-470,7813.0,-47.06412124633789,-671,9943.0
10400,0.32527634501457214,-28.32440948486328,-422,7813.0,-30.113630294799805,-359,9943.0
10410,0.32612505555152893,-23.131513595581055,-308,7813.0,-14.503230094909668,-257,9943.0
10420,0.3254518210887909,-24.692197799682617,-483,7813.0,9.418192863464355,243,9943.0
10430,0.3261471390724182,-28.483976364135742,-454,7813.0,25.4653377532959,477,9943.0
10440,0.3269951641559601,-30.5328369140625,-469,7813.0,32.79032897949219,651,9943.0
10450,0.3276582658290863,-14.721511840820312,-182,7813.0,37.36787414550781,538,9943.0
10460,0.32614001631736755,13.28343677520752,336,7813.0,32.43770980834961,534,9943.0
10470,0.3268844187259674,42.51508331298828,838,7813.0,20.89629364013672,400,9943.0
10480,0.327408105134964,69.60917663574219,1205,7813.0,6.200575828552246,181,9943.0
10490,0.3278118669986725,80.49976348876953,1332,7813.0,0.24617020785808563,-130,9943.0
10500,0.32719242572784424,72.54389190673828,1040,7813.0,-4.730021953582764,-125,9943.0
10510,0.32788726687431335,46.55191421508789,659,7813.0,-9.265447616577148,35,9943.0
10520,0.3279486298561096,8.003633499145508,-51,7813.0,-8.436450958251953,-191,9943.0
10530,0.32772600650787354,-28.672313690185547,-589,7813.0,-9.241090774536133,-162,9943.0
10540,0.3277980089187622,-50.16889190673828,-784,7813.0,-14.709638595581055,-267,9943.0
10550,0.32808011770248413,-54.531959533691406,-908,7813.0,-22.078683853149414,-425,9943.0
10560,0.32776710391044617,-46.519508361816406,-785,7813.0,-27.016109466552734,-365,9943.0
10570,0.3273072838783264,-38.0943603515625,-560,7813.0,-29.825056076049805,-400,9943.0
10580,0.327129065990448,-29.33839988708496,-393,7813.0,-31.005516052246094,-536,9943.0
10590,0.3264847695827484,-19.508941650390625,-315,7813.0,-19.24727439880371,-374,9943.0
10600,0.32647186517715454,-9.258733749389648,-73,7813.0,-15.34252643585205,-217,9943.0
10610,0.32683277130126953,0.3221064805984497,113,7813.0,-8.334854125976562,-63,9943.0
10620,0.32697004079818726,20.454439163208008,495,7813.0,-7.4444146156311035,-141,9943.0
10630,0.3271665573120117,46.57650375366211,811,7813.0,7.781816005706787,247,9943.0
10640,0.32637181878089905,68.01897430419922,1210,7813.0,28.145156860351562,629,9943.0
10650,0.32651856541633606,82.08500671386719,1413,7813.0,46.21870040893555,864,9943.0
10660,0.3263457715511322,73.32040405273438,1042,7813.0,56.31425857543945,896,9943.0
10670,0.3260177671909332,36.681114196777344,427,7813.0,54.20436096191406,942,9943.0
10680,0.3261822760105133,0.7033814191818237,-102,7813.0,43.52484893798828,698,9943.0
10690,0.32595500349998474,-27.977344512939453,-611,7813.0,31.042377471923828,307,9943.0
10700,0.32587599754333496,-49.334964752197266,-846,7813.0,12.893270492553711,5,9943.0
10710,0.32578539848327637,-47.93720626831055,-680,7813.0,-15.286784172058105,-322,9943.0
10720,0.32412776350975037,-29.52796173095703,-416,7813.0,-44.81856155395508,-745,9943.0
10730,0.32378965616226196,-15.478791236877441,-158,7813.0,-52.16474914550781,-771,9943.0
10740,0.3236459195613861,-5.723623752593994,-126,7813.0,-46.883853912353516,-793,9943.0
10750,0.3234575688838959,-3.5348541736602783,-66,7813.0,-45.92374801635742,-841,9943.0
10760,0.32351189851760864,-2.3315439224243164,2,7813.0,-47.317779541015625,-616,9943.0
10770,0.3220164179801941,-2.6191980838775635,-26,7813.0,-32.0559196472168,-442,9943.0
10780,0.32197800278663635,3.1643993854522705,106,7813.0,-3.298773765563965,111,9943.0
10790,0.3223603665828705,19.71641731262207,480,7813.0,27.243284225463867,581,9943.0
10800,0.3228156864643097,39.472633361816406,696,7813.0,49.74079513549805,790,9943.0
10810,0.3211863934993744,49.316978454589844,826,7813.0,59.00507354736328,1055,9943.0
10820,0.3212006092071533,47.81428527832031,760,7813.0,65.328369140625,993,9943.0
10830,0.3216158151626587,29.796812057495117,353,7813.0,59.55331802368164,813,9943.0
10840,0.32221555709838867,7.11528205871582,-28,7813.0,47.760459899902344,682,9943.0
10850,0.32237905263900757,-8.404243469238281,-171,7813.0,23.089303970336914,332,9943.0
10860,0.32088327407836914,-23.679773330688477,-537,7813.0,-4.229697227478027,-252,9943.0
10870,0.32148173451423645,-39.12039566040039,-766,7813.0,-30.821081161499023,-717,9943.0
10880,0.32124146819114685,-48.2465705871582,-811,7813.0,-46.90499496459961,-775,9943.0
10890,0.32130369544029236,-55.37031555175781,-910,7813.0,-57.117576599121094,-1018,9943.0
10900,0.320088267326355,-53.87166213989258,-879,7813.0,-62.163089752197266,-1075,9943.0
10910,0.32007184624671936,-36.66070556640625,-521,7813.0,-52.58911895751953,-692,9943.0
10920,0.32031145691871643,-27.13014030456543,-430,7813.0,-31.80909538269043,-362,9943.0
10930,0.32041794061660767,-19.65245246887207,-281,7813.0,-7.875930309295654,-87,9943.0
10940,0.3205733299255371,-6.685123920440674,-97,7813.0,4.011598587036133,121,9943.0
10950,0.3222199082374573,-0.8852326273918152,-30,7813.0,7.931748867034912,192,9943.0
10960,0.3228866755962372,-4.204371452331543,-166,7813.0,11.642524719238281,189,9943.0
10970,0.3237069845199585,-10.188817977905273,-137,7813.0,24.64240264892578,427,9943.0
10980,0.3246047794818878,-8.458757400512695,-87,7813.0,28.04918098449707,412,9943.0
10990,0.3252343535423279,12.446209907531738,312,7813.0,33.692039489746094,483,9943.0
11000,0.3260102868080139,38.1514892578125,651,7813.0,26.79069709777832,323,9943.0
11010,0.3268384337425232,43.124481201171875,652,7813.0,16.802902221679688,363,9943.0
11020,0.3273892104625702,26.434097290039062,316,7813.0,5.313216209411621,23,9943.0
11030,0.32826822996139526,4.379791259765625,-50,7813.0,-1.4565564393997192,-109,9943.0
11040,0.3286432921886444,-8.70102596282959,-138,7813.0,-4.421998977661133,92,9943.0
11050,0.3289787471294403,-17.997051239013672,-265,7813.0,4.175567150115967,255,9943.0
11060,0.32920777797698975,-18.5965518951416,-338,7813.0,13.520683288574219,177,9943.0
11070,0.32931217551231384,-14.48749828338623,-156,7813.0,10.280604362487793,230,9943.0
11080,0.32968994975090027,-9.249028205871582,-50,7813.0,6.738365650177002,127,9943.0
11090,0.330119252204895,-3.5870609283447266,-48,7813.0,2.9155712127685547,-9,9943.0
11100,0.33045676350593567,2.0801093578338623,-30,7813.0,-1.2845381498336792,33,9943.0
11110,0.33087849617004395,2.079848527908325,90,7813.0,-7.965208530426025,-86,9943.0
11120,0.3323984742164612,-1.1542474031448364,-39,7813.0,-24.23161506652832,-419,9943.0
11130,0.33304086327552795,-6.8539323806762695,-176,7813.0,-27.758785247802734,-430,9943.0
11140,0.333859384059906,-6.034505367279053,-64,7813.0,-25.58831214904785,-315,9943.0
11150,0.3347035050392151,-2.6872918605804443,-95,7813.0,-15.453688621520996,-279,9943.0
11160,0.3365490138530731,9.874937057495117,162,7813.0,-3.1634557247161865,120,9943.0
11170,0.3375011086463928,22.272071838378906,513,7813.0,8.801971435546875,186,9943.0
11180,0.33827462792396545,36.660518646240234,562,7813.0,19.33446502685547,315,9943.0
11190,0.3387906849384308,40.340660095214844,629,7813.0,35.35679626464844,739,9943.0
11200,0.3389437198638916,26.88379669189453,366,7813.0,47.65618133544922,701,9943.0
11210,0.33914169669151306,5.804882526397705,-16,7813.0,47.773250579833984,790,9943.0
11220,0.33970144391059875,-11.178352355957031,-138,7813.0,41.969879150390625,671,9943.0
11230,0.33959823846817017,-9.463635444641113,-223,7813.0,29.218669891357422,298,9943.0
11240,0.33943450450897217,-14.253460884094238,-326,7813.0,9.091291427612305,11,9943.0
11250,0.33977532386779785,-20.827621459960938,-362,7813.0,-26.207229614257812,-539,9943.0
11260,0.3396700322628021,-24.43306541442871,-317,7813.0,-53.0327033996582,-973,9943.0
11270,0.33953648805618286,-20.62263298034668,-310,7813.0,-69.59552764892578,-1290,9943.0
11280,0.33932745456695557,-4.351646423339844,-18,7813.0,-79.37039184570312,-1247,9943.0
11290,0.3392583131790161,4.297411918640137,159,7813.0,-79.22020721435547,-1149,9943.0
11300,0.33900535106658936,3.1247851848602295,-29,7813.0,-70.61023712158203,-1105,9943.0
11310,0.3389599621295929,-8.284750938415527,-124,7813.0,-48.34125518798828,-586,9943.0
11320,0.33911511301994324,-11.52112865447998,-180,7813.0,-23.711265563964844,-298,9943.0
11330,0.3398270606994629,-1.2701959609985352,73,7813.0,11.535505294799805,395,9943.0
11340,0.3380972445011139,14.464900016784668,248,7813.0,41.817569732666016,778,9943.0
11350,0.3382777273654938,28.443273544311523,543,7813.0,66.17487335205078,1199,9943.0
11360,0.3383384048938751,30.9947509765625,395,7813.0,74.24591827392578,1153,9943.0
11370,0.33821311593055725,19.93446159362793,208,7813.0,71.5262680053711,1233,9943.0
11380,0.33982667326927185,6.899666786193848,63,7813.0,71.20930480957031,1224,9943.0
11390,0.3394681513309479,-2.4170351028442383,-59,7813.0,59.612060546875,795,9943.0
11400,0.33918559551239014,-9.910106658935547,-234,7813.0,32.79773712158203,358,9943.0
11410,0.33893880248069763,-13.237584114074707,-166,7813.0,0.7057244181632996,-167,9943.0
11420,0.33937984704971313,-10.332137107849121,-107,7813.0,-31.784442901611328,-574,9943.0
11430,0.3398778736591339,-6.987193584442139,-200,7813.0,-54.30697250366211,-1002,9943.0
11440,0.33974021673202515,-15.659646987915039,-360,7813.0,-55.679351806640625,-980,9943.0
11450,0.3397383391857147,-24.575225830078125,-411,7813.0,-54.44500732421875,-778,9943.0
11460,0.3397347629070282,-31.145742416381836,-594,7813.0,-48.59682846069336,-913,9943.0
11470,0.33910179138183594,-30.835369110107422,-478,7813.0,-44.767337799072266,-596,9943.0
11480,0.33918312191963196,-28.744192123413086,-422,7813.0,-31.850818634033203,-564,9943.0
11490,0.33971288800239563,-21.726764678955078,-337,7813.0,-10.130948066711426,-20,9943.0
11500,0.34042495489120483,-10.85191822052002,2,7813.0,2.2478997707366943,100,9943.0
11510,0.34091904759407043,11.020636558532715,233,7813.0,20.908090591430664,431,9943.0
11520,0.33991965651512146,23.911897659301758,470,7813.0,47.10197067260742,974,9943.0
11530,0.3403460681438446,29.69154930114746,494,7813.0,64.4746322631836,1015,9943.0
11540,0.34083831310272217,25.855777740478516,435,7813.0,67.74446868896484,1106,9943.0
11550,0.34106528759002686,19.588193893432617,287,7813.0,63.906768798828125,897,9943.0
11560,0.3422616422176361,7.5868730545043945,28,7813.0,48.79303741455078,741,9943.0
11570,0.34272316098213196,-1.5685207843780518,-41,7813.0,24.982933044433594,163,9943.0
11580,0.34322047233581543,6.264644145965576,119,7813.0,-13.883587837219238,-415,9943.0
11590,0.3435346186161041,15.514063835144043,290,7813.0,-41.021629333496094,-795,9943.0
11600,0.3438112437725067,20.104469299316406,374,7813.0,-65.19119262695312,-975,9943.0
11610,0.34524160623550415,15.687052726745605,129,7813.0,-62.1019401550293,-1060,9943.0
11620,0.34563443064689636,3.823237180709839,52,7813.0,-51.5732536315918,-749,9943.0
11630,0.34601452946662903,-8.927346229553223,-218,7813.0,-39.30585479736328,-697,9943.0
11640,0.34656938910484314,-20.167024612426758,-365,7813.0,-32.75200653076172,-349,9943.0
11650,0.3465965688228607,-28.567996978759766,-507,7813.0,-20.19379234313965,-219,9943.0
11660,0.34729504585266113,-41.796958923339844,-747,7813.0,-0.7143711447715759,116,9943.0
11670,0.34792715311050415,-48.240135192871094,-738,7813.0,14.38215446472168,141,9943.0
11680,0.34840309619903564,-37.249977111816406,-553,7813.0,19.09003257751465,299,9943.0
11690,0.3475033938884735,-11.995476722717285,-51,7813.0,27.269105911254883,609,9943.0
11700,0.34812575578689575,4.088778018951416,160,7813.0,31.504348754882812,435,9943.0
11710,0.34842032194137573,18.339847564697266,336,7813.0,26.847118377685547,368,9943.0
11720,0.3485549986362457,28.78032112121582,597,7813.0,22.889530181884766,412,9943.0
11730,0.3487691879272461,35.89784240722656,664,7813.0,18.33034896850586,218,9943.0
11740,0.35030868649482727,31.653701782226562,452,7813.0,5.0153326988220215,-48,9943.0
11750,0.3502982556819916,21.760576248168945,257,7813.0,-8.931111335754395,-324,9943.0
11760,0.3501364588737488,5.957685947418213,81,7813.0,-14.373991012573242,-155,9943.0
11770,0.35016825795173645,-10.082374572753906,-292,7813.0,-8.799585342407227,-242,9943.0
11780,0.3503250777721405,-20.45424461364746,-350,7813.0,-0.959848165512085,117,9943.0
11790,0.3500477969646454,-22.231792449951172,-189,7813.0,6.3871636390686035,114,9943.0
11800,0.3499302268028259,-15.099684715270996,-293,7813.0,5.264176368713379,-51,9943.0
11810,0.3498769998550415,-7.455634117126465,-73,7813.0,-6.99791955947876,-75,9943.0
11820,0.35137417912483215,-9.653779983520508,-116,7813.0,-15.65225887298584,-263,9943.0
11830,0.3514806926250458,-17.11147117614746,-318,7813.0,-20.26109504699707,-400,9943.0
11840,0.3516535758972168,-19.72525978088379,-409,7813.0,-22.482444763183594,-353,9943.0
11850,0.3518339693546295,-18.501699447631836,-192,7813.0,-21.671899795532227,-292,9943.0
11860,0.3520534038543701,0.2154713124036789,47,7813.0,-11.535720825195312,-177,9943.0
11870,0.35242027044296265,21.74665641784668,399,7813.0,4.224661350250244,129,9943.0
11880,0.3526860177516937,40.99119567871094,716,7813.0,21.738508224487305,488,9943.0
11890,0.35276806354522705,41.156639099121094,651,7813.0,36.73043441772461,619,9943.0
11900,0.35270223021507263,35.345821380615234,424,7813.0,39.345767974853516,614,9943.0
11910,0.35292941331863403,21.96259307861328,351,7813.0,25.789058685302734,388,9943.0
11920,0.35270726680755615,10.307074546813965,149,7813.0,-0.9138811826705933,-145,9943.0
11930,0.3525875508785248,-5.359697341918945,-143,7813.0,-26.57033348083496,-611,9943.0
11940,0.3528672158718109,-17.340831756591797,-386,7813.0,-37.666988372802734,-532,9943.0
11950,0.352608323097229,-25.709630966186523,-384,7813.0,-41.04389953613281,-640,9943.0
11960,0.35259905457496643,-23.87356948852539,-414,7813.0,-44.55472946166992,-880,9943.0
11970,0.3525165617465973,-15.363911628723145,-225,7813.0,-44.27724838256836,-624,9943.0
11980,0.35244423151016235,-2.3067197799682617,86,7813.0,-51.7458381652832,-797,9943.0
11990,0.35280874371528625,6.444033622741699,53,7813.0,-43.3736686706543,-663,9943.0
12000,0.3528803288936615,5.932865142822266,150,7813.0,-30.321144104003906,-312,9943.0
12010,0.3531407117843628,15.30020809173584,331,7813.0,-10.478984832763672,-104,9943.0
12020,0.3538441061973572,28.516557693481445,489,7813.0,20.233930587768555,529,9943.0
12030,0.3543347418308258,34.68241500854492,623,7813.0,47.00407028198242,822,9943.0
12040,0.3547355830669403,41.36149597167969,693,7813.0,60.36592483520508,1047,9943.0
12050,0.3549506962299347,45.52256774902344,790,7813.0,75.21851348876953,1380,9943.0
12060,0.3550172746181488,36.44197082519531,491,7813.0,78.38093566894531,1207,9943.0
12070,0.35557064414024353,17.617097854614258,127,7813.0,59.25328826904297,784,9943.0
12080,0.35530564188957214,-2.0153818130493164,-140,7813.0,23.88465690612793,389,9943.0
12090,0.35509204864501953,-18.040058135986328,-304,7813.0,-9.790709495544434,-341,9943.0
12100,0.3553258180618286,-34.811370849609375,-698,7813.0,-37.501930236816406,-749,9943.0
12110,0.3553481101989746,-45.52662658691406,-777,7813.0,-42.96347427368164,-805,9943.0
12120,0.35518890619277954,-37.75396728515625,-472,7813.0,-40.8644905090332,-495,9943.0
12130,0.3546362817287445,-26.323156356811523,-315,7813.0,-37.27981185913086,-473,9943.0
12140,0.3545461595058441,-14.992124557495117,-219,7813.0,-31.054651260375977,-512,9943.0
12150,0.35446488857269287,0.5435126423835754,7,7813.0,-16.04025650024414,-129,9943.0
12160,0.3549647629261017,11.462492942810059,279,7813.0,-8.320843696594238,-24,9943.0
12170,0.35524770617485046,15.11655044555664,217,7813.0,0.575806200504303,26,9943.0
12180,0.35508260130882263,10.025734901428223,74,7813.0,15.985997200012207,403,9943.0
12190,0.3554062247276306,5.656408786773682,157,7813.0,29.36175537109375,654,9943.0
12200,0.3557046949863434,6.567116737365723,78,7813.0,37.988250732421875,637,9943.0
12210,0.35599225759506226,4.1590142250061035,64,7813.0,39.38214111328125,580,9943.0
12220,0.35605913400650024,0.9419155120849609,61,7813.0,34.22999572753906,564,9943.0
12230,0.3561082184314728,5.769789218902588,168,7813.0,27.806066513061523,436,9943.0
12240,0.3562604486942291,13.322699546813965,284,7813.0,11.921248435974121,69,9943.0
12250,0.35612791776657104,22.498584747314453,357,7813.0,-6.904918193817139,-363,9943.0
12260,0.35606086254119873,23.841510772705078,412,7813.0,-26.355453491210938,-374,9943.0
12270,0.35580092668533325,21.379241943359375,298,7813.0,-32.42567443847656,-676,9943.0
12280,0.3555864989757538,10.870726585388184,59,7813.0,-32.41387939453125,-483,9943.0
12290,0.3553706109523773,-3.2507572174072266,-45,7813.0,-17.573461532592773,-252,9943.0
12300,0.3552561402320862,-19.491790771484375,-464,7813.0,-5.652858257293701,-64,9943.0
12310,0.3549503982067108,-26.490947723388672,-388,7813.0,2.82861065864563,157,9943.0
12320,0.35479292273521423,-27.575353622436523,-458,7813.0,9.442392349243164,36,9943.0
12330,0.35472556948661804,-24.50813102722168,-380,7813.0,8.356226921081543,226,9943.0
12340,0.3546665608882904,-18.585195541381836,-158,7813.0,8.216408729553223,122,9943.0
12350,0.3532746136188507,1.3340094089508057,35,7813.0,13.092377662658691,164,9943.0
12360,0.3533707857131958,23.931434631347656,540,7813.0,14.757174491882324,356,9943.0
12370,0.3534918427467346,41.50644302368164,748,7813.0,6.4458818435668945,-51,9943.0
12380,0.3534328043460846,49.84807205200195,790,7813.0,0.42829835414886475,81,9943.0
12390,0.3532504439353943,41.88200378417969,694,7813.0,0.3960433900356293,159,9943.0
12400,0.35446932911872864,16.293363571166992,36,7813.0,4.389087677001953,64,9943.0
12410,0.35405585169792175,-14.130979537963867,-256,7813.0,4.338649749755859,121,9943.0
12420,0.353609174489975,-34.32305908203125,-677,7813.0,7.23226261138916,61,9943.0
12430,0.35305652022361755,-46.254188537597656,-738,7813.0,10.470709800720215,230,9943.0
12440,0.3525601327419281,-48.55784606933594,-822,7813.0,13.897013664245605,146,9943.0
12450,0.3519038259983063,-40.169960021972656,-631,7813.0,13.511026382446289,228,9943.0
12460,0.3510284125804901,-23.903629302978516,-307,7813.0,1.1883203983306885,103,9943.0
12470,0.35059595108032227,-8.402763366699219,-57,7813.0,-7.990209579467773,-290,9943.0
12480,0.3495837152004242,0.8075057864189148,17,7813.0,-19.663715362548828,-439,9943.0
12490,0.34903430938720703,6.620041847229004,152,7813.0,-29.255584716796875,-424,9943.0
12500,0.3484960198402405,6.4901251792907715,207,7813.0,-30.905303955078125,-538,9943.0
12510,0.3479790985584259,5.7428178787231445,-24,7813.0,-28.600711822509766,-486,9943.0
12520,0.3476937711238861,-0.6079329252243042,82,7813.0,-16.327211380004883,-81,9943.0
12530,0.3467857241630554,7.416863918304443,62,7813.0,10.472949028015137,258,9943.0
12540,0.34656718373298645,13.517720222473145,228,7813.0,27.464319229125977,547,9943.0
12550,0.34641405940055847,14.455175399780273,272,7813.0,27.43680191040039,342,9943.0
12560,0.34619206190109253,9.195188522338867,45,7813.0,16.33319854736328,112,9943.0
12570,0.3452508747577667,-4.502068996429443,-89,7813.0,13.046853065490723,368,9943.0
12580,0.3449091613292694,-19.722900390625,-329,7813.0,21.25953483581543,309,9943.0
12590,0.3445065915584564,-30.856006622314453,-567,7813.0,25.671205520629883,338,9943.0
12600,0.34399303793907166,-33.624637603759766,-480,7813.0,24.733394622802734,487,9943.0
12610,0.34366878867149353,-25.346269607543945,-323,7813.0,10.91925048828125,126,9943.0
12620,0.34354475140571594,-9.211541175842285,16,7813.0,-16.454099655151367,-451,9943.0
12630,0.3431292772293091,10.180411338806152,195,7813.0,-49.024620056152344,-972,9943.0
12640,0.3429189920425415,20.48501205444336,353,7813.0,-64.72817993164062,-1126,9943.0
12650,0.342783123254776,25.749622344970703,364,7813.0,-60.11251449584961,-807,9943.0
12660,0.3418510854244232,11.354421615600586,142,7813.0,-54.07725524902344,-968,9943.0
12670,0.3416495621204376,4.769782543182373,-16,7813.0,-39.448638916015625,-386,9943.0
12680,0.3412545621395111,-10.966806411743164,-249,7813.0,-0.7791779041290283,97,9943.0
12690,0.3415987491607666,-28.298961639404297,-508,7813.0,38.764564514160156,778,9943.0
12700,0.3420499861240387,-32.197059631347656,-450,7813.0,62.98154830932617,1031,9943.0
12710,0.3415106236934662,-17.713096618652344,-205,7813.0,69.69091033935547,1142,9943.0
12720,0.34193986654281616,-2.3935329914093018,81,7813.0,60.41698455810547,982,9943.0
12730,0.34261634945869446,15.443012237548828,319,7813.0,36.694114685058594,433,9943.0
12740,0.3431647717952728,18.955097198486328,228,7813.0,10.25732421875,73,9943.0
12750,0.34465622901916504,11.444324493408203,48,7813.0,1.595251441001892,-83,9943.0
12760,0.34498757123947144,2.786722183227539,56,7813.0,-11.266448974609375,-170,9943.0
12770,0.3453272879123688,-1.4749928712844849,33,7813.0,-14.500446319580078,-301,9943.0
12780,0.3456866443157196,-6.697165012359619,-180,7813.0,-16.300607681274414,-418,9943.0
12790,0.34751424193382263,-4.363885879516602,-21,7813.0,-16.85757064819336,-251,9943.0
12800,0.3477288782596588,4.419290065765381,51,7813.0,-14.58172607421875,-247,9943.0
12810,0.347960501909256,14.695308685302734,242,7813.0,-19.314800262451172,-450,9943.0
12820,0.3482171893119812,11.03905963897705,206,7813.0,-16.567733764648438,-114,9943.0
12830,0.3485349118709564,-2.0987796783447266,-180,7813.0,-8.338858604431152,-318,9943.0
12840,0.34945476055145264,-20.2065372467041,-323,7813.0,-18.002578735351562,-258,9943.0
12850,0.34989461302757263,-27.15433120727539,-515,7813.0,-25.562240600585938,-373,9943.0
12860,0.35044369101524353,-29.309406280517578,-440,7813.0,-13.692028999328613,-51,9943.0
12870,0.3510366976261139,-28.885942459106445,-439,7813.0,2.1794235706329346,63,9943.0
12880,0.3499962389469147,-16.52549171447754,-146,7813.0,5.469455718994141,176,9943.0
12890,0.3506583273410797,7.082735061645508,255,7813.0,23.367591857910156,589,9943.0
12900,0.35131165385246277,19.634967803955078,286,7813.0,36.15288543701172,525,9943.0
12910,0.3520216643810272,18.406463623046875,342,7813.0,40.57144546508789,741,9943.0
12920,0.35250425338745117,18.772220611572266,347,7813.0,43.50446701049805,664,9943.0
12930,0.35298073291778564,25.6909236907959,438,7813.0,41.93519592285156,601,9943.0
12940,0.3534300625324249,27.59202766418457,481,7813.0,33.33457946777344,619,9943.0
12950,0.35362038016319275,24.49374771118164,482,7813.0,17.361881256103516,96,9943.0
12960,0.35366353392601013,24.18430519104004,356,7813.0,-9.013105392456055,-332,9943.0
12970,0.35385802388191223,17.72480010986328,260,7813.0,-28.85605812072754,-423,9943.0
12980,0.35404008626937866,6.3297882080078125,126,7813.0,-37.80731964111328,-711,9943.0
12990,0.3539949655532837,-8.266226768493652,-285,7813.0,-43.612510681152344,-656,9943.0
13000,0.3539465367794037,-21.731063842773438,-291,7813.0,-40.614471435546875,-648,9943.0
13010,0.3551681339740753,-29.37314224243164,-576,7813.0,-23.670501708984375,-316,9943.0
13020,0.3553728759288788,-32.865989685058594,-502,7813.0,-10.243273735046387,-84,9943.0
13030,0.35546207427978516,-34.408958435058594,-607,7813.0,-0.1578676551580429,-44,9943.0
13040,0.35585635900497437,-24.879985809326172,-287,7813.0,10.037270545959473,322,9943.0
13050,0.3562783896923065,-8.916354179382324,3,7813.0,21.188615798950195,327,9943.0
13060,0.35771089792251587,14.313639640808105,266,7813.0,28.933727264404297,380,9943.0
13070,0.3582374155521393,25.47465705871582,460,7813.0,29.2150821685791,503,9943.0
13080,0.35861408710479736,29.129871368408203,565,7813.0,29.678380966186523,514,9943.0
13090,0.3588171601295471,40.18302917480469,722,7813.0,24.389007568359375,305,9943.0
13100,0.359439492225647,47.91663360595703,754,7813.0,18.867919921875,331,9943.0
13110,0.35950177907943726,39.066768646240234,620,7813.0,20.106258392333984,409,9943.0
13120,0.35932761430740356,14.98418140411377,221,7813.0,14.907449722290039,273,9943.0
13130,0.3591172695159912,-6.885537624359131,-325,7813.0,15.675023078918457,188,9943.0
13140,0.35996782779693604,-24.30767822265625,-437,7813.0,10.748323440551758,101,9943.0
13150,0.35983750224113464,-18.50103187561035,-209,7813.0,-20.98826789855957,-352,9943.0
13160,0.35950395464897156,-6.088704586029053,-72,7813.0,-44.288150787353516,-874,9943.0
13170,0.35920998454093933,-9.37963581085205,-244,7813.0,-53.63928985595703,-995,9943.0
13180,0.3590470254421234,-9.76751708984375,-132,7813.0,-57.75199890136719,-763,9943.0
13190,0.35875532031059265,-10.064324378967285,-125,7813.0,-52.17230224609375,-884,9943.0
13200,0.35829654335975647,-5.791517734527588,-169,7813.0,-41.87073516845703,-633,9943.0
13210,0.35828113555908203,-6.978771686553955,-52,7813.0,-25.92963218688965,-276,9943.0
13220,0.35799506306648254,-5.804210662841797,-80,7813.0,-5.2374043464660645,-47,9943.0
13230,0.3581179082393646,-8.61715030670166,-124,7813.0,23.244403839111328,502,9943.0
13240,0.3582812249660492,-12.481375694274902,-175,7813.0,48.115116119384766,880,9943.0
13250,0.35834866762161255,-6.460803031921387,-58,7813.0,64.78433990478516,1037,9943.0
13260,0.3585025668144226,12.116113662719727,264,7813.0,73.20637512207031,1155,9943.0
13270,0.3590221107006073,32.343074798583984,554,7813.0,59.63161087036133,931,9943.0
13280,0.35855451226234436,38.12615966796875,666,7813.0,37.359859466552734,431,9943.0
13290,0.3584422171115875,35.67037582397461,492,7813.0,17.73060417175293,231,9943.0
13300,0.3587336242198944,23.428010940551758,372,7813.0,-10.00731086730957,-284,9943.0
13310,0.358835905790329,8.686346054077148,27,7813.0,-31.663585662841797,-623,9943.0
13320,0.3602922558784485,-8.948861122131348,-188,7813.0,-48.90945053100586,-930,9943.0
13330,0.360180139541626,-16.697582244873047,-310,7813.0,-49.658241271972656,-664,9943.0
13340,0.36002132296562195,-20.94355010986328,-412,7813.0,-37.145626068115234,-563,9943.0
13350,0.3600902557373047,-28.029748916625977,-546,7813.0,-15.550374984741211,-219,9943.0
13360,0.35798996686935425,-23.34517478942871,-257,7813.0,-7.401365280151367,46,9943.0
13370,0.35782817006111145,-9.996002197265625,-55,7813.0,-9.938854217529297,-175,9943.0
13380,0.35787233710289,-0.23320911824703217,-56,7813.0,-16.904865264892578,-420,9943.0
13390,0.35798048973083496,2.014378786087036,82,7813.0,-31.461090087890625,-653,9943.0
13400,0.35815921425819397,1.8250290155410767,87,7813.0,-39.46826934814453,-591,9943.0
13410,0.35736164450645447,1.0660645961761475,-81,7813.0,-32.47305679321289,-577,9943.0
13420,0.35774269700050354,-11.753555297851562,-257,7813.0,-8.114258766174316,205,9943.0
13430,0.3580385148525238,-22.812641143798828,-327,7813.0,24.861495971679688,548,9943.0
13440,0.35856425762176514,-22.257410049438477,-367,7813.0,42.40944290161133,689,9943.0
13450,0.35640496015548706,-14.583124160766602,-115,7813.0,54.38774871826172,1015,9943.0
13460,0.35637006163597107,7.690372467041016,317,7813.0,67.73692321777344,1210,9943.0
13470,0.35657140612602234,33.26192855834961,688,7813.0,66.02182006835938,1058,9943.0
13480,0.35664820671081543,49.201499938964844,800,7813.0,59.73225402832031,798,9943.0
13490,0.35636624693870544,50.511573791503906,851,7813.0,40.84294891357422,559,9943.0
13500,0.3582346737384796,45.526126861572266,752,7813.0,9.729393005371094,-118,9943.0
13510,0.3586730659008026,38.33816146850586,602,7813.0,-22.29469871520996,-485,9943.0
13520,0.3586527705192566,25.386289596557617,265,7813.0,-46.33523178100586,-876,9943.0
13530,0.3582901656627655,13.756843566894531,146,7813.0,-56.08251953125,-850,9943.0
13540,0.35927870869636536,-2.0444416999816895,-90,7813.0,-43.89155960083008,-717,9943.0
13550,0.35930755734443665,-30.69959831237793,-686,7813.0,-31.01755142211914,-494,9943.0
13560,0.35938405990600586,-61.12796401977539,-1021,7813.0,-17.129924774169922,-139,9943.0
13570,0.35950204730033875,-72.43292999267578,-1184,7813.0,-13.466879844665527,-281,9943.0
13580,0.35732346773147583,-63.04051208496094,-950,7813.0,-17.247825622558594,-397,9943.0
13590,0.357322633266449,-41.9110221862793,-494,7813.0,-23.753061294555664,-328,9943.0
13600,0.35750800371170044,-14.207103729248047,-162,7813.0,-22.81684684753418,-443,9943.0
13610,0.35757386684417725,12.075431823730469,286,7813.0,-17.917497634887695,-261,9943.0
13620,0.35800355672836304,39.31404113769531,834,7813.0,-9.501593589782715,59,9943.0
13630,0.35637587308883667,61.3021240234375,1119,7813.0,0.4408901035785675,20,9943.0
13640,0.35672181844711304,72.7160873413086,1144,7813.0,19.328378677368164,431,9943.0
13650,0.35677585005760193,75.79666137695312,1241,7813.0,42.9085693359375,782,9943.0
13660,0.3567240536212921,48.564788818359375,568,7813.0,58.129791259765625,968,9943.0
13670,0.35678836703300476,12.461549758911133,106,7813.0,66.60731506347656,1158,9943.0
13680,0.35748517513275146,-20.466596603393555,-467,7813.0,64.99244689941406,891,9943.0
13690,0.3573165833950043,-43.472007751464844,-771,7813.0,44.39763641357422,667,9943.0
13700,0.357039213180542,-52.30485916137695,-838,7813.0,13.071044921875,121,9943.0
13710,0.35716551542282104,-51.51426315307617,-818,7813.0,-21.10565948486328,-523,9943.0
13720,0.35786867141723633,-44.41765594482422,-736,7813.0,-48.95494079589844,-940,9943.0
13730,0.35794663429260254,-34.627437591552734,-603,7813.0,-64.92923736572266,-1060,9943.0
13740,0.3578622341156006,-28.52822494506836,-405,7813.0,-70.17986297607422,-1009,9943.0
13750,0.3577849864959717,-20.814796447753906,-308,7813.0,-61.08311080932617,-1015,9943.0
13760,0.3561880886554718,-15.203120231628418,-328,7813.0,-52.33769226074219,-807,9943.0
13770,0.35618117451667786,-5.433261871337891,17,7813.0,-36.80665588378906,-380,9943.0
13780,0.35631829500198364,1.9735164642333984,-2,7813.0,-13.699397087097168,-260,9943.0
13790,0.3565741777420044,6.658389568328857,139,7813.0,7.453677177429199,370,9943.0
13800,0.35469451546669006,5.355903625488281,72,7813.0,32.99846649169922,613,9943.0
13810,0.3551108241081238,0.04295192286372185,-163,7813.0,48.532718658447266,886,9943.0
13820,0.35534432530403137,-7.760830879211426,-81,7813.0,57.23582077026367,1006,9943.0
13830,0.35537493228912354,-9.280753135681152,-164,7813.0,58.77152633666992,884,9943.0
13840,0.35607394576072693,5.777472972869873,172,7813.0,51.7950325012207,761,9943.0
13850,0.35539475083351135,29.992603302001953,522,7813.0,38.74543380737305,615,9943.0
13860,0.35527580976486206,41.34366226196289,713,7813.0,20.66081428527832,292,9943.0
13870,0.35533595085144043,30.645263671875,444,7813.0,1.1793690919876099,-100,9943.0
13880,0.35562950372695923,13.034947395324707,53,7813.0,-26.26852798461914,-646,9943.0
13890,0.3562045991420746,-8.057653427124023,-315,7813.0,-51.161556243896484,-821,9943.0
13900,0.3560635447502136,-32.98228073120117,-590,7813.0,-58.12895584106445,-884,9943.0
13910,0.35623589158058167,-44.744667053222656,-744,7813.0,-51.232330322265625,-904,9943.0
13920,0.35606610774993896,-37.91737747192383,-572,7813.0,-39.21934509277344,-466,9943.0
13930,0.3551567494869232,-18.42958641052246,-106,7813.0,-22.38604164123535,-322,9943.0
13940,0.3553687334060669,10.806890487670898,223,7813.0,-13.525566101074219,-278,9943.0
13950,0.3558140695095062,30.730281829833984,592,7813.0,-14.537933349609375,-118,9943.0
13960,0.35641729831695557,35.34355163574219,555,7813.0,-16.69216537475586,-330,9943.0
13970,0.35703524947166443,22.79818344116211,163,7813.0,-8.095880508422852,3,9943.0
13980,0.35718902945518494,-1.7885613441467285,-82,7813.0,10.145644187927246,267,9943.0
13990,0.3578265309333801,-25.59926414489746,-531,7813.0,31.4101505279541,579,9943.0
14000,0.35835349559783936,-24.469125747680664,-275,7813.0,41.37068557739258,820,9943.0
14010,0.358854204416275,-11.974145889282227,-48,7813.0,42.44401931762695,657,9943.0
