timestamp,kalman.stateZ,gyro.x,gyro.xRaw,gyro.xVariance,gyro.y,gyro.yRaw,gyro.yVariance
0,0.310264527797699,-6.544742584228516,-107,7813.0,-9.620694160461426,-188,9943.0
10,0.3104197382926941,-5.218057632446289,-74,7813.0,-14.426795959472656,-249,9943.0
20,0.311044842004776,-0.5947847962379456,19,7813.0,-16.321138381958008,-262,9943.0
30,0.31129157543182373,4.615738868713379,95,7813.0,-15.205708503723145,-253,9943.0
40,0.31146836280822754,7.905259609222412,147,7813.0,-14.366501808166504,-228,9943.0
50,0.31151753664016724,8.906603813171387,146,7813.0,-12.589964866638184,-204,9943.0
60,0.31146758794784546,6.573906898498535,93,7813.0,-12.242552757263184,-213,9943.0
70,0.31214508414268494,2.204101324081421,9,7813.0,-12.85932445526123,-213,9943.0
80,0.31206536293029785,-3.411539316177368,-79,7813.0,-11.6298828125,-156,9943.0
90,0.3120836317539215,-7.513790130615234,-128,7813.0,-3.682086706161499,-10,9943.0
100,0.3120414614677429,-7.482819080352783,-112,7813.0,5.565186500549316,151,9943.0
110,0.3121667802333832,-4.355111598968506,-53,7813.0,15.0808744430542,279,9943.0
120,0.31217026710510254,-1.4715423583984375,-13,7813.0,20.258882522583008,357,9943.0
130,0.3121188282966614,3.1673848628997803,69,7813.0,22.254568099975586,363,9943.0
140,0.31217220425605774,3.382863759994507,46,7813.0,21.838918685913086,345,9943.0
150,0.3122659921646118,0.8237506151199341,3,7813.0,18.496171951293945,284,9943.0
160,0.31045615673065186,-2.2011594772338867,-41,7813.0,15.37501049041748,215,9943.0
170,0.310634583234787,-3.9505953788757324,-75,7813.0,8.788498878479004,118,9943.0
180,0.3109534680843353,-3.464951992034912,-39,7813.0,2.584420919418335,2,9943.0
190,0.31099972128868103,-0.7443245649337769,25,7813.0,-7.288540840148926,-194,9943.0
200,0.3115007281303406,4.6382527351379395,142,7813.0,-19.691984176635742,-426,9943.0
210,0.3117271661758423,11.576351165771484,183,7813.0,-36.502349853515625,-662,9943.0
220,0.3120136857032776,12.690726280212402,247,7813.0,-52.827674865722656,-1021,9943.0
230,0.3121665418148041,15.610475540161133,233,7813.0,-76.23320770263672,-1364,9943.0
240,0.31199079751968384,3.409076690673828,42,7813.0,-89.42333221435547,-1554,9943.0
250,0.31310227513313293,-10.048144340515137,-189,7813.0,-87.26444244384766,-1410,9943.0
260,0.3125869929790497,-15.153656005859375,-242,7813.0,-74.16140747070312,-1134,9943.0
270,0.31308382749557495,-14.684078216552734,-183,7813.0,-58.59489822387695,-897,9943.0
280,0.3126012980937958,-8.734121322631836,14,7813.0,-42.801902770996094,-687,9943.0
290,0.31383201479911804,-1.952968955039978,86,7813.0,-26.78701400756836,-474,9943.0
300,0.31356847286224365,7.6443681716918945,95,7813.0,-19.73073959350586,-181,9943.0
310,0.3133683502674103,14.74753475189209,247,7813.0,-7.931676387786865,-58,9943.0
320,0.3137378394603729,16.609333038330078,277,7813.0,1.0548789501190186,35,9943.0
330,0.3146578371524811,12.721501350402832,184,7813.0,3.69100284576416,33,9943.0
340,0.3149177134037018,4.623927593231201,61,7813.0,3.2526543140411377,97,9943.0
350,0.3150903284549713,-3.23836612701416,-132,7813.0,2.5868868827819824,1,9943.0
360,0.31545698642730713,-7.529808521270752,-38,7813.0,-9.193501472473145,-213,9943.0
370,0.31582093238830566,-2.6885457038879395,-83,7813.0,-21.88595962524414,-424,9943.0
380,0.31535759568214417,-1.1650782823562622,-1,7813.0,-39.847572326660156,-628,9943.0
390,0.31565266847610474,0.20502088963985443,46,7813.0,-51.49922561645508,-1005,9943.0
400,0.31571799516677856,2.3608806133270264,94,7813.0,-61.82060623168945,-1097,9943.0
410,0.315748393535614,7.583770275115967,100,7813.0,-66.0735855102539,-1099,9943.0
420,0.317239910364151,12.936616897583008,126,7813.0,-61.78977966308594,-823,9943.0
430,0.31769150495529175,8.02798843383789,53,7813.0,-34.62078857421875,-286,9943.0
440,0.3185042440891266,0.4159545302391052,-32,7813.0,7.6639909744262695,317,9943.0
450,0.3196743428707123,-0.5127609968185425,-102,7813.0,51.84898376464844,976,9943.0
460,0.32192346453666687,-8.422738075256348,-143,7813.0,81.27509307861328,1301,9943.0
470,0.3223065435886383,-10.191868782043457,-60,7813.0,101.96696472167969,1572,9943.0
480,0.32237040996551514,-1.5232110023498535,29,7813.0,113.98808288574219,1928,9943.0
490,0.3218230605125427,5.503265857696533,155,7813.0,116.10115814208984,1859,9943.0
500,0.32406267523765564,8.970189094543457,171,7813.0,97.8160400390625,1402,9943.0
510,0.32065531611442566,6.4072394371032715,11,7813.0,56.24789810180664,693,9943.0
520,0.32104066014289856,-1.1406521797180176,-163,7813.0,0.9480505585670471,-121,9943.0
530,0.3220450282096863,-7.496284484863281,-150,7813.0,-45.30754852294922,-905,9943.0
540,0.32293757796287537,-9.740731239318848,-115,7813.0,-79.81777954101562,-1410,9943.0
550,0.32138702273368835,-6.593438625335693,-7,7813.0,-104.57035827636719,-1826,9943.0
560,0.3218175768852234,0.26308009028434753,64,7813.0,-120.75725555419922,-2065,9943.0
570,0.322282075881958,1.688740849494934,12,7813.0,-135.48597717285156,-2116,9943.0
580,0.324603408575058,5.739692211151123,83,7813.0,-143.6073455810547,-2325,9943.0
590,0.32384589314460754,10.215180397033691,196,7813.0,-141.6637420654297,-2350,9943.0
600,0.32449769973754883,13.27552318572998,189,7813.0,-115.59845733642578,-1663,9943.0
610,0.32620254158973694,13.233362197875977,210,7813.0,-65.73523712158203,-775,9943.0
620,0.3287715017795563,10.587570190429688,137,7813.0,2.0231008529663086,381,9943.0
630,0.3311804234981537,2.5695109367370605,12,7813.0,74.1205062866211,1515,9943.0
640,0.33599138259887695,-7.336808681488037,-163,7813.0,136.79722595214844,2521,9943.0
650,0.336762398481369,-12.9855318069458,-209,7813.0,175.39788818359375,2836,9943.0
660,0.3374031186103821,-17.924015045166016,-285,7813.0,192.54823303222656,3201,9943.0
670,0.3384906053543091,-23.436355590820312,-473,7813.0,194.43450927734375,3198,9943.0
680,0.33061766624450684,-24.15175437927246,-443,7813.0,176.6520538330078,2794,9943.0
690,0.3292645812034607,-21.092391967773438,-302,7813.0,140.70018005371094,1986,9943.0
700,0.3325316905975342,-13.592875480651855,-97,7813.0,88.2907485961914,1023,9943.0
710,0.3327386975288391,-3.4569156169891357,74,7813.0,24.859399795532227,36,9943.0
720,0.33464646339416504,8.19469928741455,184,7813.0,-42.0035400390625,-964,9943.0
730,0.3295610547065735,17.815214157104492,336,7813.0,-102.48751831054688,-2056,9943.0
740,0.3303881883621216,18.087263107299805,378,7813.0,-151.33457946777344,-2881,9943.0
750,0.33193257451057434,16.573917388916016,270,7813.0,-193.98648071289062,-3384,9943.0
760,0.3325815796852112,11.26795768737793,123,7813.0,-219.8022003173828,-3798,9943.0
770,0.32865723967552185,-2.6624388694763184,17,7813.0,-220.57962036132812,-3637,9943.0
780,0.32888826727867126,-10.755874633789062,-217,7813.0,-195.77743530273438,-2939,9943.0
790,0.33771878480911255,-7.0317277908325195,-63,7813.0,-156.93478393554688,-2320,9943.0
800,0.33915072679519653,-6.354361534118652,-119,7813.0,-111.91624450683594,-1583,9943.0
810,0.3396943509578705,-6.169273376464844,-36,7813.0,-57.88833236694336,-612,9943.0
820,0.3417162001132965,-2.5482687950134277,-59,7813.0,9.193533897399902,618,9943.0
830,0.34242933988571167,-6.9364728927612305,-161,7813.0,81.09691619873047,1804,9943.0
840,0.3453868627548218,-10.101670265197754,-89,7813.0,141.04977416992188,2555,9943.0
850,0.3469218611717224,-11.431150436401367,-141,7813.0,180.16848754882812,2875,9943.0
860,0.3462051749229431,-3.139467716217041,22,7813.0,196.86187744140625,3085,9943.0
870,0.34672805666923523,-0.17657236754894257,14,7813.0,186.06349182128906,2782,9943.0
880,0.34859970211982727,0.46551331877708435,112,7813.0,156.83935546875,2178,9943.0
890,0.348588764667511,-1.7049779891967773,18,7813.0,116.74498748779297,1710,9943.0
900,0.34904563426971436,-7.243575572967529,-146,7813.0,69.92955780029297,888,9943.0
910,0.33900389075279236,-7.701922416687012,-156,7813.0,6.904102802276611,-177,9943.0
920,0.3408046364784241,0.7311106324195862,-38,7813.0,-63.560821533203125,-1316,9943.0
930,0.3437770903110504,9.797524452209473,114,7813.0,-124.45027923583984,-2194,9943.0
940,0.3458951711654663,8.766003608703613,136,7813.0,-155.3864288330078,-2647,9943.0
950,0.33535146713256836,-0.19556504487991333,-35,7813.0,-161.71998596191406,-2514,9943.0
960,0.33635643124580383,2.273975372314453,63,7813.0,-149.81822204589844,-2338,9943.0
970,0.3363797962665558,2.0091986656188965,79,7813.0,-119.0291519165039,-1895,9943.0
980,0.3373299837112427,-0.6227770447731018,-64,7813.0,-74.85029602050781,-1015,9943.0
990,0.3379703760147095,-1.680087685585022,-3,7813.0,-20.53034019470215,96,9943.0
1000,0.338835746049881,4.658143997192383,130,7813.0,41.14303207397461,893,9943.0
1010,0.34010395407676697,12.166593551635742,224,7813.0,96.33544158935547,1809,9943.0
1020,0.34095579385757446,11.390235900878906,138,7813.0,136.2350616455078,2354,9943.0
1030,0.3407493233680725,8.505132675170898,120,7813.0,155.306396484375,2706,9943.0
1040,0.3376390337944031,5.116296291351318,6,7813.0,153.19371032714844,2638,9943.0
1050,0.3369634747505188,0.7198266386985779,0,7813.0,134.37759399414062,2150,9943.0
1060,0.33556658029556274,-6.99084997177124,-194,7813.0,102.30538177490234,1622,9943.0
1070,0.33848437666893005,-17.885326385498047,-526,7813.0,64.0716781616211,874,9943.0
1080,0.32909080386161804,-18.788066864013672,-407,7813.0,15.137618064880371,-18,9943.0
1090,0.32925325632095337,-16.031600952148438,-198,7813.0,-37.30068588256836,-1001,9943.0
1100,0.3305000066757202,-13.89764404296875,-121,7813.0,-89.08106994628906,-1799,9943.0
1110,0.33094310760498047,-7.83754301071167,2,7813.0,-128.14450073242188,-2282,9943.0
1120,0.33199816942214966,1.0281120538711548,74,7813.0,-139.4995574951172,-2314,9943.0
1130,0.3263517916202545,17.792898178100586,427,7813.0,-126.50727844238281,-2187,9943.0
1140,0.3270477056503296,31.257938385009766,549,7813.0,-97.62918090820312,-1440,9943.0
1150,0.3285253345966339,29.263442993164062,444,7813.0,-55.38488006591797,-704,9943.0
1160,0.32851260900497437,21.192338943481445,266,7813.0,-11.306886672973633,124,9943.0
1170,0.3289940655231476,11.745185852050781,190,7813.0,28.37748908996582,615,9943.0
1180,0.32937952876091003,-2.218264102935791,-80,7813.0,60.90846252441406,906,9943.0
1190,0.32933884859085083,-15.515654563903809,-332,7813.0,76.43159484863281,1243,9943.0
1200,0.32897934317588806,-28.16390037536621,-479,7813.0,88.96369934082031,1408,9943.0
1210,0.32738545536994934,-27.598522186279297,-459,7813.0,96.4831771850586,1586,9943.0
1220,0.32662278413772583,-15.518843650817871,-192,7813.0,89.20914459228516,1230,9943.0
1230,0.32676494121551514,2.5596845149993896,238,7813.0,67.21337890625,947,9943.0
1240,0.3269200623035431,14.169523239135742,229,7813.0,38.0303955078125,547,9943.0
1250,0.32735902070999146,15.506224632263184,186,7813.0,-0.4235494136810303,-198,9943.0
1260,0.324153333902359,11.115009307861328,205,7813.0,-42.00890350341797,-884,9943.0
1270,0.32498908042907715,4.392976760864258,-2,7813.0,-81.13855743408203,-1528,9943.0
1280,0.32547932863235474,-7.5011067390441895,-103,7813.0,-111.06460571289062,-2013,9943.0
1290,0.3261018693447113,-14.18189811706543,-236,7813.0,-127.37319946289062,-2154,9943.0
1300,0.32263270020484924,-14.18401050567627,-125,7813.0,-115.84049224853516,-1832,9943.0
1310,0.32265740633010864,1.039764404296875,36,7813.0,-92.44629669189453,-1571,9943.0
1320,0.3260011374950409,6.771730422973633,90,7813.0,-63.55472946166992,-1020,9943.0
1330,0.3257943391799927,10.02401351928711,147,7813.0,-17.46938133239746,-65,9943.0
1340,0.32714754343032837,9.026627540588379,204,7813.0,42.16286849975586,1024,9943.0
1350,0.3329734802246094,9.924388885498047,140,7813.0,98.73665618896484,1871,9943.0
1360,0.33356979489326477,5.113290309906006,26,7813.0,143.09765625,2538,9943.0
1370,0.33418339490890503,2.4810032844543457,-23,7813.0,163.9649658203125,2743,9943.0
1380,0.3339546024799347,4.300180435180664,119,7813.0,157.6595458984375,2452,9943.0
1390,0.33191555738449097,5.4957122802734375,113,7813.0,134.08334350585938,1905,9943.0
1400,0.3332544267177582,13.985522270202637,314,7813.0,90.10083770751953,1373,9943.0
1410,0.33387333154678345,16.017120361328125,134,7813.0,38.34303283691406,327,9943.0
1420,0.33432698249816895,4.421764850616455,93,7813.0,-18.450429916381836,-615,9943.0
1430,0.3294120728969574,-17.322696685791016,-361,7813.0,-68.24858093261719,-1215,9943.0
1440,0.32990527153015137,-26.605243682861328,-499,7813.0,-102.73372650146484,-1789,9943.0
1450,0.3305255174636841,-27.294025421142578,-475,7813.0,-121.20063781738281,-2022,9943.0
1460,0.3319304883480072,-28.642276763916016,-460,7813.0,-123.22061920166016,-2085,9943.0
1470,0.3316558301448822,-33.95204544067383,-547,7813.0,-109.73088073730469,-1753,9943.0
1480,0.32835623621940613,-37.50972366333008,-487,7813.0,-81.34932708740234,-1125,9943.0
1490,0.32899346947669983,-36.12260055541992,-544,7813.0,-40.583221435546875,-496,9943.0
1500,0.32981395721435547,-30.64258575439453,-377,7813.0,5.806584358215332,334,9943.0
1510,0.33175399899482727,-4.492724418640137,221,7813.0,50.99152755737305,1042,9943.0
1520,0.33344417810440063,28.48914909362793,660,7813.0,85.22196197509766,1470,9943.0
1530,0.3342178463935852,48.76184844970703,906,7813.0,107.81107330322266,1881,9943.0
1540,0.33483847975730896,54.715606689453125,880,7813.0,122.99967956542969,1956,9943.0
1550,0.3347027897834778,49.68680191040039,712,7813.0,117.59077453613281,2038,9943.0
1560,0.33227741718292236,37.89455795288086,476,7813.0,99.05648040771484,1330,9943.0
1570,0.33173829317092896,22.565065383911133,277,7813.0,62.7924919128418,773,9943.0
1580,0.33117443323135376,7.020991802215576,124,7813.0,20.22677993774414,-47,9943.0
1590,0.3307850956916809,-5.551671028137207,-152,7813.0,-19.39399528503418,-460,9943.0
1600,0.33144044876098633,-14.794249534606934,-392,7813.0,-56.97421646118164,-1059,9943.0
1610,0.32741937041282654,-24.372068405151367,-431,7813.0,-91.82015991210938,-1807,9943.0
1620,0.32735922932624817,-27.704893112182617,-455,7813.0,-123.17778778076172,-2194,9943.0
1630,0.3268759846687317,-24.037330627441406,-391,7813.0,-142.1383056640625,-2473,9943.0
1640,0.32626813650131226,-13.01642894744873,-86,7813.0,-142.38063049316406,-2214,9943.0
1650,0.3255976736545563,11.767023086547852,291,7813.0,-107.73689270019531,-1677,9943.0
1660,0.325982928276062,27.906845092773438,456,7813.0,-64.6171646118164,-790,9943.0
1670,0.3264421820640564,29.91435432434082,438,7813.0,-8.719048500061035,260,9943.0
1680,0.3272169232368469,20.27991485595703,301,7813.0,41.99068069458008,1089,9943.0
1690,0.3276710510253906,13.93152141571045,121,7813.0,82.92481231689453,1513,9943.0
1700,0.32967516779899597,-11.536290168762207,-338,7813.0,97.65930938720703,1584,9943.0
1710,0.32981401681900024,-34.81564712524414,-666,7813.0,103.25009155273438,1839,9943.0
1720,0.32954877614974976,-43.63642120361328,-724,7813.0,95.52739715576172,1481,9943.0
1730,0.33068254590034485,-38.69621276855469,-688,7813.0,66.96829223632812,863,9943.0
1740,0.32836291193962097,-27.11887550354004,-260,7813.0,23.30356216430664,148,9943.0
1750,0.3283282220363617,-7.656916618347168,-102,7813.0,-13.730337142944336,-257,9943.0
1760,0.32851722836494446,9.65110969543457,213,7813.0,-45.2927131652832,-1016,9943.0
1770,0.32840412855148315,23.646495819091797,454,7813.0,-78.43289184570312,-1391,9943.0
1780,0.3258344233036041,29.37295150756836,563,7813.0,-108.41230010986328,-1849,9943.0
1790,0.3258512020111084,30.647869110107422,408,7813.0,-126.93495178222656,-2064,9943.0
1800,0.3259470760822296,20.52132225036621,196,7813.0,-127.29206848144531,-1922,9943.0
1810,0.32777202129364014,9.483123779296875,97,7813.0,-104.81169128417969,-1427,9943.0
1820,0.3284522294998169,8.678609848022461,131,7813.0,-76.46137237548828,-929,9943.0
1830,0.32890909910202026,12.017881393432617,140,7813.0,-37.203025817871094,-291,9943.0
1840,0.32980120182037354,14.028155326843262,314,7813.0,24.856775283813477,618,9943.0
1850,0.3315925598144531,19.817523956298828,298,7813.0,83.56796264648438,1507,9943.0
1860,0.3324952721595764,10.168048858642578,109,7813.0,132.8700714111328,2265,9943.0
1870,0.33479610085487366,-0.02958880551159382,-53,7813.0,164.9608612060547,2822,9943.0
1880,0.33496490120887756,-14.544792175292969,-264,7813.0,174.57000732421875,2768,9943.0
1890,0.3372916281223297,-26.951353073120117,-458,7813.0,161.91973876953125,2511,9943.0
1900,0.33687156438827515,-33.3411865234375,-488,7813.0,122.96907806396484,1780,9943.0
1910,0.3306218385696411,-28.74488067626953,-543,7813.0,65.61567687988281,872,9943.0
1920,0.3301096558570862,-21.312467575073242,-225,7813.0,6.668196201324463,-243,9943.0
1930,0.33096641302108765,-7.424692153930664,-36,7813.0,-45.60453414916992,-838,9943.0
1940,0.33213794231414795,10.918793678283691,174,7813.0,-88.43771362304688,-1627,9943.0
1950,0.33303195238113403,18.845516204833984,355,7813.0,-125.93507385253906,-2204,9943.0
1960,0.32829663157463074,18.873035430908203,345,7813.0,-147.3732147216797,-2587,9943.0
1970,0.32847803831100464,11.983163833618164,140,7813.0,-155.0831298828125,-2573,9943.0
1980,0.33079978823661804,3.30741548538208,9,7813.0,-145.25621032714844,-2200,9943.0
1990,0.3313847780227661,-8.61483383178711,-125,7813.0,-116.4171371459961,-1751,9943.0
2000,0.3318319022655487,-17.240995407104492,-271,7813.0,-82.85909271240234,-1290,9943.0
2010,0.3331673741340637,-25.762691497802734,-387,7813.0,-43.51120376586914,-654,9943.0
2020,0.3354358375072479,-25.175687789916992,-488,7813.0,19.303417205810547,545,9943.0
2030,0.3371833264827728,-25.170372009277344,-390,7813.0,80.4580307006836,1527,9943.0
2040,0.33860355615615845,-6.879570960998535,-53,7813.0,121.05111694335938,2260,9943.0
2050,0.33975356817245483,11.908244132995605,305,7813.0,141.60543823242188,2319,9943.0
2060,0.3402201235294342,21.862945556640625,436,7813.0,147.25392150878906,2263,9943.0
2070,0.3405054211616516,28.128700256347656,534,7813.0,137.239990234375,2156,9943.0
2080,0.33981579542160034,39.447269439697266,799,7813.0,113.20315551757812,1686,9943.0
2090,0.33443212509155273,49.633304595947266,675,7813.0,74.37579345703125,1131,9943.0
2100,0.33528873324394226,29.86505889892578,380,7813.0,34.926475524902344,249,9943.0
2110,0.3348286747932434,3.1924359798431396,-78,7813.0,-3.6663687229156494,-252,9943.0
2120,0.3352441191673279,-19.589187622070312,-362,7813.0,-37.532169342041016,-791,9943.0
2130,0.3301992118358612,-28.274112701416016,-536,7813.0,-77.496337890625,-1351,9943.0
2140,0.3299499452114105,-26.309410095214844,-439,7813.0,-108.26536560058594,-1923,9943.0
2150,0.3299716114997864,-22.947433471679688,-385,7813.0,-127.0127182006836,-2108,9943.0
2160,0.3298628032207489,-30.35999298095703,-445,7813.0,-118.6456527709961,-1894,9943.0
2170,0.32936200499534607,-28.428640365600586,-445,7813.0,-90.2780532836914,-1436,9943.0
2180,0.3272594213485718,-17.657636642456055,-180,7813.0,-58.524322509765625,-594,9943.0
2190,0.32769066095352173,4.107574462890625,284,7813.0,-11.726489067077637,239,9943.0
2200,0.3281649351119995,24.28683090209961,430,7813.0,44.53762435913086,1155,9943.0
2210,0.3290402293205261,36.111305236816406,557,7813.0,95.8282241821289,1947,9943.0
2220,0.3308856189250946,35.21493911743164,487,7813.0,128.05763244628906,2329,9943.0
2230,0.33059045672416687,24.401548385620117,221,7813.0,137.4351043701172,2143,9943.0
2240,0.3302658200263977,8.931593894958496,55,7813.0,129.39279174804688,1960,9943.0
2250,0.32969507575035095,-8.495440483093262,-140,7813.0,90.42191314697266,992,9943.0
2260,0.331394761800766,-20.567054748535156,-432,7813.0,33.25095748901367,383,9943.0
2270,0.3256509304046631,-26.841005325317383,-525,7813.0,-18.8729190826416,-388,9943.0
2280,0.3256432116031647,-26.02204704284668,-348,7813.0,-63.831512451171875,-1445,9943.0
2290,0.32587653398513794,-21.603425979614258,-323,7813.0,-107.01962280273438,-1786,9943.0
2300,0.3251538872718811,-15.175028800964355,-207,7813.0,-134.32981872558594,-2286,9943.0
2310,0.32345083355903625,-8.553781509399414,-198,7813.0,-144.5547637939453,-2364,9943.0
2320,0.32335907220840454,-9.176173210144043,-104,7813.0,-132.44688415527344,-2087,9943.0
2330,0.3229885399341583,-13.843395233154297,-212,7813.0,-97.04325866699219,-1532,9943.0
2340,0.32480236887931824,-10.03813648223877,-82,7813.0,-49.551456451416016,-652,9943.0
2350,0.3284606337547302,5.227386951446533,241,7813.0,0.8276826739311218,238,9943.0
2360,0.3294539153575897,22.17520523071289,498,7813.0,39.586265563964844,694,9943.0
2370,0.33078646659851074,21.584075927734375,380,7813.0,66.11547088623047,1055,9943.0
2380,0.3314545154571533,23.71759796142578,411,7813.0,80.45855712890625,1305,9943.0
2390,0.3318161070346832,24.5242919921875,455,7813.0,83.20697784423828,1287,9943.0
2400,0.3331376910209656,10.93750286102295,212,7813.0,86.57037353515625,1256,9943.0
2410,0.33325642347335815,4.812978744506836,59,7813.0,81.40736389160156,1240,9943.0
2420,0.33310776948928833,-1.4207937717437744,106,7813.0,74.12574768066406,1063,9943.0
2430,0.333489328622818,0.08062337338924408,-33,7813.0,55.78548049926758,857,9943.0
2440,0.32931068539619446,-3.7294657230377197,-47,7813.0,31.171680450439453,364,9943.0
2450,0.329190731048584,-5.85344934463501,-191,7813.0,0.06900182366371155,-30,9943.0
2460,0.3290415108203888,-6.654844760894775,-157,7813.0,-22.792089462280273,-539,9943.0
2470,0.32890188694000244,-7.9111714363098145,-45,7813.0,-39.111576080322266,-761,9943.0
2480,0.3257812559604645,-9.284213066101074,-121,7813.0,-60.14324951171875,-1178,9943.0
2490,0.3257885277271271,-7.570993900299072,-53,7813.0,-81.33219146728516,-1408,9943.0
2500,0.3257328271865845,-5.611067295074463,-138,7813.0,-95.65973663330078,-1583,9943.0
2510,0.32622385025024414,-10.746654510498047,-208,7813.0,-94.13419342041016,-1438,9943.0
2520,0.32691991329193115,-12.02025318145752,-54,7813.0,-78.7743911743164,-1290,9943.0
2530,0.32784196734428406,2.242661476135254,148,7813.0,-50.86088943481445,-800,9943.0
2540,0.3284998834133148,13.028596878051758,137,7813.0,-6.25221061706543,16,9943.0
2550,0.3294528126716614,0.009310525842010975,-38,7813.0,42.86326599121094,1020,9943.0
2560,0.33119863271713257,-11.594409942626953,-156,7813.0,91.57958221435547,1783,9943.0
2570,0.33224669098854065,-14.617354393005371,-315,7813.0,121.67253875732422,2135,9943.0
2580,0.33252519369125366,-16.96040916442871,-239,7813.0,137.9010467529297,2431,9943.0
2590,0.33435606956481934,1.0547266006469727,127,7813.0,141.27365112304688,2112,9943.0
2600,0.3344239890575409,17.205148696899414,406,7813.0,123.11778259277344,1975,9943.0
2610,0.3339783847332001,32.20235824584961,501,7813.0,92.70877075195312,1268,9943.0
2620,0.33099645376205444,38.744144439697266,541,7813.0,49.298274993896484,625,9943.0
2630,0.3313998579978943,35.502281188964844,552,7813.0,7.7724409103393555,-28,9943.0
2640,0.3310145139694214,20.17300796508789,365,7813.0,-28.537818908691406,-801,9943.0
2650,0.33066532015800476,0.5304428339004517,-122,7813.0,-67.45150756835938,-1124,9943.0
2660,0.32832980155944824,-19.156038284301758,-406,7813.0,-97.04524230957031,-1668,9943.0
2670,0.32769331336021423,-25.896774291992188,-467,7813.0,-128.64071655273438,-2161,9943.0
2680,0.3274199664592743,-30.507841110229492,-562,7813.0,-151.5635986328125,-2531,9943.0
2690,0.32682132720947266,-27.349607467651367,-420,7813.0,-153.94949340820312,-2381,9943.0
2700,0.3270185887813568,-10.640403747558594,2,7813.0,-138.45306396484375,-2077,9943.0
2710,0.3288434147834778,11.439352989196777,215,7813.0,-91.72161102294922,-1220,9943.0
2720,0.32898062467575073,15.310585021972656,166,7813.0,-30.053964614868164,-33,9943.0
2730,0.3296249210834503,10.116307258605957,150,7813.0,34.98876953125,968,9943.0
2740,0.33177971839904785,4.227921962738037,94,7813.0,94.97600555419922,1795,9943.0
2750,0.3357805013656616,-3.4508793354034424,-42,7813.0,138.13565063476562,2332,9943.0
2760,0.33625540137290955,-5.60899019241333,-172,7813.0,156.6377716064453,2625,9943.0
2770,0.3360517919063568,-2.6803531646728516,-35,7813.0,154.43917846679688,2591,9943.0
2780,0.33571657538414,1.039544939994812,-54,7813.0,133.87924194335938,1904,9943.0
2790,0.33206456899642944,7.403416156768799,233,7813.0,95.45500946044922,1238,9943.0
2800,0.3312307596206665,12.742890357971191,229,7813.0,46.51470947265625,584,9943.0
2810,0.3306094706058502,16.032886505126953,194,7813.0,1.8934810161590576,-384,9943.0
2820,0.33131957054138184,8.421854019165039,133,7813.0,-46.2008056640625,-1013,9943.0
2830,0.3317655026912689,-0.21449868381023407,-32,7813.0,-95.60031127929688,-1873,9943.0
2840,0.3269478380680084,-3.8679144382476807,-88,7813.0,-144.0540313720703,-2484,9943.0
2850,0.3268820345401764,-0.4527907073497772,-39,7813.0,-180.60427856445312,-3125,9943.0
2860,0.3262508511543274,2.936051845550537,86,7813.0,-186.14111328125,-2964,9943.0
2870,0.325192391872406,10.101410865783691,246,7813.0,-163.74192810058594,-2516,9943.0
2880,0.3283580243587494,9.212616920471191,113,7813.0,-122.0528793334961,-1733,9943.0
2890,0.3279218375682831,3.375678777694702,-111,7813.0,-75.57421112060547,-789,9943.0
2900,0.32843923568725586,-13.624744415283203,-347,7813.0,-16.743181228637695,221,9943.0
2910,0.33069881796836853,-24.326501846313477,-432,7813.0,45.22445297241211,1020,9943.0
2920,0.33097413182258606,-31.33931541442871,-467,7813.0,106.30059814453125,1817,9943.0
2930,0.3381078243255615,-28.917076110839844,-445,7813.0,152.41184997558594,2461,9943.0
2940,0.3386105000972748,-17.127748489379883,-160,7813.0,173.8857421875,2848,9943.0
2950,0.3386968970298767,-0.36876335740089417,66,7813.0,170.03245544433594,2743,9943.0
2960,0.34005117416381836,13.034024238586426,198,7813.0,147.24655151367188,2325,9943.0
2970,0.33383142948150635,22.97509765625,436,7813.0,107.50614166259766,1393,9943.0
2980,0.3343168795108795,19.97567367553711,300,7813.0,56.910667419433594,807,9943.0
2990,0.3345195949077606,6.881919860839844,-1,7813.0,3.9361021518707275,-184,9943.0
3000,0.3359929919242859,-4.409248352050781,-48,7813.0,-54.86371612548828,-1294,9943.0
3010,0.3325401246547699,-9.777812957763672,-225,7813.0,-113.66510772705078,-1969,9943.0
3020,0.33349859714508057,-18.283193588256836,-330,7813.0,-145.0326385498047,-2423,9943.0
3030,0.33391934633255005,-28.34097671508789,-537,7813.0,-148.8811492919922,-2289,9943.0
3040,0.3355920612812042,-18.304943084716797,-226,7813.0,-133.91336059570312,-2112,9943.0
3050,0.3356979489326477,-4.628101825714111,-61,7813.0,-109.48416137695312,-1608,9943.0
3060,0.3331504166126251,9.970592498779297,164,7813.0,-64.00299072265625,-682,9943.0
3070,0.333691269159317,14.9841947555542,320,7813.0,-14.030137062072754,135,9943.0
3080,0.33431267738342285,18.54219627380371,334,7813.0,39.955020904541016,947,9943.0
3090,0.33566901087760925,17.47179412841797,251,7813.0,91.4773178100586,1824,9943.0
3100,0.33584579825401306,11.120405197143555,72,7813.0,133.5749053955078,2487,9943.0
3110,0.33570173382759094,-4.827143669128418,-182,7813.0,155.0817108154297,2693,9943.0
3120,0.3363560438156128,-22.124679565429688,-503,7813.0,153.66372680664062,2366,9943.0
3130,0.3362314999103546,-21.09957504272461,-301,7813.0,125.93566131591797,1851,9943.0
3140,0.33036407828330994,-14.463933944702148,-142,7813.0,85.54814147949219,1269,9943.0
3150,0.3301778733730316,1.6705242395401,112,7813.0,39.2275505065918,427,9943.0
3160,0.3306322395801544,17.355894088745117,352,7813.0,-5.055130958557129,-285,9943.0
3170,0.3309168219566345,26.033843994140625,497,7813.0,-51.85095977783203,-1130,9943.0
3180,0.3322906494140625,26.631065368652344,310,7813.0,-103.08201599121094,-1727,9943.0
3190,0.328408807516098,19.84855079650879,208,7813.0,-142.3849334716797,-2407,9943.0
3200,0.32884180545806885,11.004255294799805,134,7813.0,-154.14849853515625,-2439,9943.0
3210,0.3287568986415863,3.165992021560669,53,7813.0,-132.32635498046875,-2055,9943.0
3220,0.32819291949272156,-5.962240695953369,-201,7813.0,-98.2927474975586,-1510,9943.0
3230,0.32956692576408386,-10.403409004211426,-247,7813.0,-54.282569885253906,-563,9943.0
3240,0.33015796542167664,-10.77857780456543,-263,7813.0,9.081697463989258,579,9943.0
3250,0.3310903012752533,-20.484235763549805,-395,7813.0,66.57154846191406,1443,9943.0
3260,0.33133506774902344,-23.386615753173828,-412,7813.0,111.67245483398438,2073,9943.0
3270,0.33119937777519226,-22.656700134277344,-437,7813.0,137.24412536621094,2321,9943.0
3280,0.33089643716812134,-11.798111915588379,-222,7813.0,138.7220916748047,2332,9943.0
3290,0.33226722478866577,1.944624423980713,151,7813.0,122.27754211425781,1710,9943.0
3300,0.3313511610031128,12.004376411437988,212,7813.0,89.02880859375,1422,9943.0
3310,0.3295862376689911,18.058866500854492,288,7813.0,49.505889892578125,526,9943.0
3320,0.3258153200149536,21.04759407043457,411,7813.0,-0.41682276129722595,-253,9943.0
3330,0.3257172703742981,15.252860069274902,157,7813.0,-47.35280990600586,-854,9943.0
3340,0.3262866735458374,3.2164735794067383,15,7813.0,-86.16311645507812,-1597,9943.0
3350,0.32665717601776123,-8.02430248260498,-194,7813.0,-119.95333862304688,-2242,9943.0
3360,0.3241494297981262,-14.730419158935547,-172,7813.0,-149.48072814941406,-2477,9943.0
3370,0.3251078724861145,-18.374387741088867,-270,7813.0,-147.17703247070312,-2366,9943.0
3380,0.32513079047203064,-16.383058547973633,-312,7813.0,-124.4009017944336,-1901,9943.0
3390,0.3261236548423767,-5.194134712219238,61,7813.0,-89.92522430419922,-1223,9943.0
3400,0.3271515965461731,10.547816276550293,242,7813.0,-45.15768051147461,-496,9943.0
3410,0.33137083053588867,9.075685501098633,81,7813.0,6.916187286376953,263,9943.0
3420,0.3328755795955658,2.363754987716675,-28,7813.0,52.1258659362793,943,9943.0
3430,0.3344731330871582,-2.5978777408599854,-109,7813.0,99.89424133300781,1739,9943.0
3440,0.335711270570755,-5.503658771514893,-73,7813.0,133.3944854736328,2344,9943.0
3450,0.3351910412311554,-3.617673635482788,78,7813.0,150.23468017578125,2347,9943.0
3460,0.33554553985595703,2.222597599029541,28,7813.0,150.28622436523438,2424,9943.0
3470,0.33520036935806274,6.402307510375977,154,7813.0,131.35845947265625,1950,9943.0
3480,0.33418789505958557,16.154157638549805,182,7813.0,89.36061096191406,1266,9943.0
3490,0.3382014334201813,17.574901580810547,281,7813.0,37.413414001464844,189,9943.0
3500,0.3312484323978424,8.448592185974121,151,7813.0,-14.367465019226074,-568,9943.0
3510,0.33208125829696655,-0.9696517586708069,-132,7813.0,-65.52835845947266,-1251,9943.0
3520,0.33295488357543945,-4.395578384399414,-81,7813.0,-113.06781768798828,-2177,9943.0
3530,0.33301469683647156,-3.4688913822174072,-43,7813.0,-154.29270935058594,-2791,9943.0
3540,0.32720306515693665,-1.3446985483169556,-91,7813.0,-186.49343872070312,-3205,9943.0
3550,0.3277917504310608,-9.716793060302734,-217,7813.0,-188.36465454101562,-3124,9943.0
3560,0.32728061079978943,-18.408037185668945,-282,7813.0,-161.77854919433594,-2416,9943.0
3570,0.3306455612182617,-16.156339645385742,-219,7813.0,-121.24330139160156,-1798,9943.0
3580,0.3330650329589844,-4.383050918579102,-87,7813.0,-73.98214721679688,-847,9943.0
3590,0.3344965875148773,-2.9504311084747314,-44,7813.0,-11.268506050109863,256,9943.0
3600,0.3366084098815918,-0.06755203008651733,51,7813.0,52.716060638427734,1156,9943.0
3610,0.3379294276237488,0.9622201323509216,130,7813.0,116.70870971679688,2052,9943.0
3620,0.3388010859489441,1.9699456691741943,89,7813.0,164.4446563720703,2670,9943.0
3630,0.34010353684425354,0.7001053094863892,-31,7813.0,185.8638458251953,2986,9943.0
3640,0.3403679430484772,-7.20615291595459,-73,7813.0,187.8191680908203,3049,9943.0
3650,0.3404214382171631,-19.614038467407227,-349,7813.0,174.4298858642578,2769,9943.0
3660,0.34230363368988037,-25.045005798339844,-418,7813.0,149.05868530273438,2323,9943.0
3670,0.33432894945144653,-15.248534202575684,-183,7813.0,103.64751434326172,1428,9943.0
3680,0.33399537205696106,7.735260963439941,285,7813.0,42.04484939575195,396,9943.0
3690,0.334676057100296,26.8199462890625,556,7813.0,-21.059762954711914,-789,9943.0
3700,0.3359396457672119,40.14140319824219,690,7813.0,-86.8974838256836,-1750,9943.0
3710,0.33687523007392883,42.37117004394531,711,7813.0,-147.87689208984375,-2573,9943.0
3720,0.3303031623363495,40.8642692565918,600,7813.0,-184.22764587402344,-2959,9943.0
3730,0.3303340971469879,30.742612838745117,403,7813.0,-180.04989624023438,-2840,9943.0
3740,0.3343515694141388,14.490199089050293,78,7813.0,-151.80245971679688,-2319,9943.0
3750,0.3344952166080475,-2.254708766937256,-195,7813.0,-110.4898452758789,-1479,9943.0
3760,0.3319348990917206,-20.499555587768555,-435,7813.0,-55.47941589355469,-483,9943.0
3770,0.3331514000892639,-36.61121368408203,-595,7813.0,-0.6752142310142517,318,9943.0
3780,0.3341212868690491,-40.84062576293945,-640,7813.0,55.66252136230469,1030,9943.0
3790,0.33491602540016174,-34.6295051574707,-552,7813.0,103.45342254638672,1712,9943.0
3800,0.33708906173706055,-22.514326095581055,-324,7813.0,135.2798614501953,2269,9943.0
3810,0.33691686391830444,-10.149758338928223,31,7813.0,148.23464965820312,2488,9943.0
3820,0.3379833400249481,4.051085472106934,20,7813.0,141.39474487304688,2337,9943.0
3830,0.33723846077919006,12.21435260772705,203,7813.0,116.36672973632812,1716,9943.0
3840,0.33698225021362305,17.490530014038086,243,7813.0,77.09231567382812,1071,9943.0
3850,0.33021044731140137,20.50942611694336,420,7813.0,29.95897102355957,342,9943.0
3860,0.3309539556503296,15.49064826965332,200,7813.0,-22.634824752807617,-567,9943.0
3870,0.33111363649368286,7.006511211395264,169,7813.0,-75.64583587646484,-1649,9943.0
3880,0.3319907486438751,8.255407333374023,206,7813.0,-124.23049926757812,-2081,9943.0
3890,0.3272213041782379,2.090285539627075,-109,7813.0,-142.1451873779297,-2249,9943.0
3900,0.32816317677497864,-23.674236297607422,-485,7813.0,-132.58595275878906,-1932,9943.0
3910,0.32839712500572205,-42.080013275146484,-761,7813.0,-108.23808288574219,-1557,9943.0
3920,0.3288002610206604,-46.89096450805664,-762,7813.0,-76.67183685302734,-1118,9943.0
3930,0.3287370800971985,-40.03406524658203,-637,7813.0,-32.79831314086914,-265,9943.0
3940,0.33099547028541565,-23.972543716430664,-278,7813.0,22.380857467651367,647,9943.0
3950,0.3321652412414551,0.01012488454580307,146,7813.0,67.17481994628906,1253,9943.0
3960,0.33294597268104553,24.254268646240234,441,7813.0,98.85559844970703,1742,9943.0
3970,0.3333631157875061,35.674076080322266,574,7813.0,115.91893005371094,2058,9943.0
3980,0.3325933814048767,37.21919250488281,580,7813.0,113.5524673461914,1837,9943.0
3990,0.33246222138404846,27.440202713012695,257,7813.0,101.12113952636719,1467,9943.0
4000,0.3320387899875641,14.376774787902832,191,7813.0,71.37422180175781,938,9943.0
4010,0.33191046118736267,2.1920125484466553,47,7813.0,33.63103103637695,403,9943.0
4020,0.3285562992095947,-1.839097499847412,-51,7813.0,-8.74673843383789,-278,9943.0
4030,0.3286241292953491,-2.2585947513580322,-154,7813.0,-44.303688049316406,-739,9943.0
4040,0.3292056918144226,-2.1945040225982666,-15,7813.0,-72.85968780517578,-1446,9943.0
4050,0.32995015382766724,0.6671459674835205,5,7813.0,-104.77168273925781,-1873,9943.0
4060,0.330570787191391,0.6155622601509094,56,7813.0,-122.25122833251953,-2144,9943.0
4070,0.3269749581813812,-6.559859275817871,-204,7813.0,-118.18195343017578,-1985,9943.0
4080,0.3273269236087799,-17.321317672729492,-235,7813.0,-97.68617248535156,-1383,9943.0
4090,0.32721447944641113,-12.090660095214844,-175,7813.0,-62.51467514038086,-755,9943.0
4100,0.32959312200546265,-11.884243965148926,-209,7813.0,-15.149045944213867,184,9943.0
4110,0.33185309171676636,-8.67185115814209,-103,7813.0,39.89192581176758,1041,9943.0
4120,0.33295518159866333,0.48303404450416565,92,7813.0,85.4105453491211,1743,9943.0
4130,0.3341515362262726,9.43022632598877,206,7813.0,126.78612518310547,2255,9943.0
4140,0.3343528211116791,14.925692558288574,210,7813.0,151.9962158203125,2561,9943.0
4150,0.3358769714832306,16.49947166442871,326,7813.0,149.79541015625,2371,9943.0
4160,0.3312641382217407,17.917530059814453,169,7813.0,125.4835433959961,1991,9943.0
4170,0.33135223388671875,14.297656059265137,157,7813.0,97.2376937866211,1326,9943.0
4180,0.33081355690956116,11.149345397949219,231,7813.0,63.07231521606445,727,9943.0
4190,0.3339553773403168,3.901472330093384,-44,7813.0,10.435229301452637,-31,9943.0
4200,0.328033447265625,-3.473747730255127,-64,7813.0,-39.2092399597168,-772,9943.0
4210,0.3291662335395813,-11.970930099487305,-213,7813.0,-80.73042297363281,-1567,9943.0
4220,0.33066919445991516,-15.878433227539062,-327,7813.0,-120.11774444580078,-2245,9943.0
4230,0.33190295100212097,-12.285775184631348,-111,7813.0,-155.84283447265625,-2731,9943.0
4240,0.32853052020072937,-9.00037956237793,-146,7813.0,-164.0674591064453,-2636,9943.0
4250,0.32901665568351746,-8.935505867004395,-45,7813.0,-146.0452880859375,-2319,9943.0
4260,0.33093082904815674,-5.6707444190979,-63,7813.0,-117.04023742675781,-1900,9943.0
4270,0.33351364731788635,3.910813093185425,23,7813.0,-77.55289459228516,-1036,9943.0
4280,0.3350439965724945,-3.783663749694824,-37,7813.0,-26.142852783203125,-113,9943.0
4290,0.3359518349170685,-4.879356861114502,-50,7813.0,33.411930084228516,818,9943.0
4300,0.3376084268093109,-7.866232872009277,-199,7813.0,75.35466003417969,1503,9943.0
4310,0.33809420466423035,-10.560072898864746,-175,7813.0,109.57115936279297,2074,9943.0
4320,0.33890464901924133,-3.872957706451416,-12,7813.0,138.81097412109375,2323,9943.0
4330,0.33595311641693115,5.817565441131592,45,7813.0,148.32867431640625,2492,9943.0
4340,0.3354235291481018,10.090208053588867,137,7813.0,139.59324645996094,2233,9943.0
4350,0.3341245949268341,6.812565803527832,20,7813.0,114.14921569824219,1762,9943.0
4360,0.33752676844596863,3.0379812717437744,81,7813.0,81.52999877929688,959,9943.0
4370,0.3299672305583954,2.3330867290496826,115,7813.0,28.770761489868164,186,9943.0
4380,0.3301076889038086,2.3778252601623535,-38,7813.0,-33.14790344238281,-619,9943.0
4390,0.33198118209838867,0.2877293825149536,-21,7813.0,-88.99254608154297,-1788,9943.0
4400,0.33279335498809814,1.3400399684906006,107,7813.0,-141.1612548828125,-2686,9943.0
4410,0.3340597152709961,2.331738233566284,-35,7813.0,-181.39559936523438,-3104,9943.0
4420,0.32804158329963684,-9.974296569824219,-129,7813.0,-187.16856384277344,-2961,9943.0
4430,0.3280264437198639,-13.896793365478516,-143,7813.0,-168.8281707763672,-2768,9943.0
4440,0.33039432764053345,3.2745916843414307,107,7813.0,-144.44288635253906,-2180,9943.0
4450,0.3309965431690216,11.551078796386719,320,7813.0,-104.34869384765625,-1615,9943.0
4460,0.33259817957878113,23.338014602661133,405,7813.0,-59.662960052490234,-831,9943.0
4470,0.33424824476242065,24.0759334564209,334,7813.0,-4.513410568237305,296,9943.0
4480,0.33668583631515503,18.04015350341797,242,7813.0,64.5014419555664,1443,9943.0
4490,0.33662497997283936,8.298449516296387,59,7813.0,128.92333984375,2320,9943.0
4500,0.33976083993911743,-2.432225465774536,-36,7813.0,168.26712036132812,2806,9943.0
4510,0.341675728559494,-8.798298835754395,-62,7813.0,188.41653442382812,2925,9943.0
4520,0.3437328636646271,-8.94172477722168,-153,7813.0,183.87725830078125,2891,9943.0
4530,0.3440558910369873,-5.980288505554199,53,7813.0,157.69180297851562,2505,9943.0
4540,0.3436865210533142,-4.576985836029053,-108,7813.0,129.46469116210938,2058,9943.0
4550,0.3335396349430084,-5.162242412567139,-175,7813.0,88.73235321044922,1155,9943.0
4560,0.33476969599723816,-10.952956199645996,-107,7813.0,38.72999954223633,427,9943.0
4570,0.33542153239250183,-16.938289642333984,-339,7813.0,-18.793079376220703,-351,9943.0
4580,0.33716946840286255,-14.02170181274414,-193,7813.0,-75.42717742919922,-1516,9943.0
4590,0.33158552646636963,-7.894256114959717,-92,7813.0,-131.6055908203125,-2383,9943.0
4600,0.33245736360549927,0.7404056191444397,40,7813.0,-151.24949645996094,-2594,9943.0
4610,0.3338504135608673,5.748831272125244,170,7813.0,-145.17649841308594,-2476,9943.0
4620,0.33493655920028687,9.35312557220459,185,7813.0,-123.8709487915039,-1951,9943.0
4630,0.3357474207878113,15.12399959564209,293,7813.0,-85.90913391113281,-1269,9943.0
4640,0.33597931265830994,15.456236839294434,273,7813.0,-38.73785400390625,-449,9943.0
4650,0.33686891198158264,13.869064331054688,169,7813.0,5.359204292297363,349,9943.0
4660,0.3380756676197052,11.32806396484375,79,7813.0,48.928306579589844,1208,9943.0
4670,0.33923840522766113,-0.6385309100151062,-5,7813.0,95.55538940429688,1830,9943.0
4680,0.33577853441238403,-7.049488544464111,-205,7813.0,125.72837829589844,2062,9943.0
4690,0.3356627821922302,-10.24276065826416,-196,7813.0,136.26100158691406,2305,9943.0
4700,0.33514532446861267,-10.31605339050293,-188,7813.0,133.33006286621094,2032,9943.0
4710,0.3345017731189728,-14.07400131225586,-280,7813.0,109.49856567382812,1770,9943.0
4720,0.3338884115219116,-12.88176155090332,-219,7813.0,77.96528625488281,920,9943.0
4730,0.3300025761127472,-4.076842308044434,120,7813.0,35.01541519165039,238,9943.0
4740,0.33067622780799866,10.124473571777344,165,7813.0,-16.754352569580078,-446,9943.0
4750,0.3327392339706421,14.221650123596191,172,7813.0,-69.61904907226562,-1578,9943.0
4760,0.33478978276252747,10.89538860321045,219,7813.0,-121.10078430175781,-2343,9943.0
4770,0.32843953371047974,0.2426704615354538,-63,7813.0,-150.1417694091797,-2566,9943.0
4780,0.3295651078224182,-8.594318389892578,-196,7813.0,-147.4922332763672,-2569,9943.0
4790,0.3302654027938843,-12.892633438110352,-167,7813.0,-131.87550354003906,-2015,9943.0
4800,0.33032187819480896,-12.161246299743652,-171,7813.0,-100.27860260009766,-1413,9943.0
4810,0.33246877789497375,-8.880977630615234,14,7813.0,-60.155738830566406,-683,9943.0
4820,0.3332444727420807,-0.5312915444374084,-24,7813.0,-6.504080295562744,86,9943.0
4830,0.3345969617366791,1.2882720232009888,-77,7813.0,39.70372009277344,1061,9943.0
4840,0.3358526825904846,2.298736333847046,68,7813.0,77.78317260742188,1632,9943.0
4850,0.33614516258239746,1.2879407405853271,13,7813.0,109.03692626953125,2007,9943.0
4860,0.3356609642505646,-1.2193684577941895,142,7813.0,126.72697448730469,2071,9943.0
4870,0.3353798985481262,8.68502140045166,123,7813.0,124.51771545410156,1954,9943.0
4880,0.33449894189834595,13.429671287536621,260,7813.0,106.06705474853516,1709,9943.0
4890,0.3368021845817566,12.786487579345703,143,7813.0,71.90909576416016,1195,9943.0
4900,0.32934144139289856,6.5586090087890625,104,7813.0,33.441123962402344,346,9943.0
4910,0.3293703496456146,0.23234499990940094,89,7813.0,-7.398303508758545,-406,9943.0
4920,0.33000415563583374,-10.397290229797363,-223,7813.0,-47.01418685913086,-1092,9943.0
4930,0.33042430877685547,-18.27595329284668,-173,7813.0,-86.59944915771484,-1760,9943.0
4940,0.33133912086486816,-14.235634803771973,-203,7813.0,-125.55270385742188,-2152,9943.0
4950,0.3248628079891205,-12.784126281738281,-104,7813.0,-128.76950073242188,-2211,9943.0
4960,0.3250012695789337,-9.201043128967285,-143,7813.0,-108.6165771484375,-1653,9943.0
4970,0.3272359073162079,-15.50554084777832,-229,7813.0,-79.27442169189453,-1174,9943.0
4980,0.32753828167915344,-11.300836563110352,-154,7813.0,-39.11344528198242,-450,9943.0
4990,0.3270464539527893,-0.5969989895820618,-19,7813.0,9.1809720993042,539,9943.0
5000,0.327757865190506,6.6754069328308105,156,7813.0,56.35512161254883,1241,9943.0
5010,0.32747045159339905,8.67672061920166,103,7813.0,93.44108581542969,1666,9943.0
5020,0.32805338501930237,6.708699703216553,104,7813.0,115.18158721923828,2016,9943.0
5030,0.3282361328601837,5.954700469970703,117,7813.0,123.24818420410156,2032,9943.0
5040,0.3273562490940094,6.539496421813965,12,7813.0,118.57001495361328,1961,9943.0
5050,0.3271375894546509,5.564428329467773,144,7813.0,99.24407196044922,1486,9943.0
5060,0.3275609612464905,9.460455894470215,141,7813.0,67.4509048461914,879,9943.0
5070,0.32738998532295227,10.529050827026367,227,7813.0,26.074186325073242,196,9943.0
5080,0.32398131489753723,6.89847469329834,27,7813.0,-14.926292419433594,-322,9943.0
5090,0.3243556618690491,-6.023556709289551,-240,7813.0,-47.62547302246094,-939,9943.0
5100,0.3243768811225891,-18.02178955078125,-238,7813.0,-80.5869369506836,-1595,9943.0
5110,0.3248721659183502,-21.961782455444336,-356,7813.0,-113.14395141601562,-1990,9943.0
5120,0.3241211771965027,-21.014368057250977,-246,7813.0,-126.67155456542969,-2128,9943.0
5130,0.32411590218544006,-13.019378662109375,-216,7813.0,-115.58134460449219,-1863,9943.0
5140,0.32617196440696716,-8.38780689239502,-27,7813.0,-91.333740234375,-1357,9943.0
5150,0.32652440667152405,1.825896978378296,83,7813.0,-54.613101959228516,-901,9943.0
5160,0.32746371626853943,1.9556204080581665,-7,7813.0,-5.792785167694092,42,9943.0
5170,0.32946935296058655,7.330913066864014,171,7813.0,53.099639892578125,1127,9943.0
5180,0.3299471437931061,17.801620483398438,353,7813.0,107.2779769897461,1851,9943.0
5190,0.330451101064682,22.757190704345703,406,7813.0,140.43821716308594,2343,9943.0
5200,0.3300457298755646,24.387306213378906,434,7813.0,157.64947509765625,2567,9943.0
5210,0.32791608572006226,17.344850540161133,300,7813.0,152.14707946777344,2310,9943.0
5220,0.329776793718338,1.1900403499603271,-9,7813.0,121.2054443359375,1861,9943.0
5230,0.3292015492916107,-11.028698921203613,-274,7813.0,70.10096740722656,1011,9943.0
5240,0.3296104073524475,-17.772632598876953,-313,7813.0,12.315747261047363,-215,9943.0
5250,0.32574155926704407,-20.83488655090332,-310,7813.0,-44.85862350463867,-957,9943.0
5260,0.3263302147388458,-15.978245735168457,-257,7813.0,-110.37098693847656,-2011,9943.0
5270,0.3272707462310791,-1.118935227394104,125,7813.0,-167.9014434814453,-2993,9943.0
5280,0.3279408812522888,14.181406021118164,236,7813.0,-184.87814331054688,-3173,9943.0
5290,0.3283781111240387,19.797317504882812,427,7813.0,-184.282470703125,-3045,9943.0
5300,0.32707706093788147,16.24972152709961,271,7813.0,-154.38917541503906,-2568,9943.0
5310,0.3272823691368103,9.257455825805664,117,7813.0,-109.50399780273438,-1636,9943.0
5320,0.3277711570262909,-0.013375207781791687,-9,7813.0,-51.81132125854492,-636,9943.0
5330,0.3287769854068756,-7.085892677307129,-133,7813.0,0.10528364032506943,302,9943.0
5340,0.3311885595321655,-14.170641899108887,-266,7813.0,49.91947555541992,1093,9943.0
5350,0.33313044905662537,-18.24650001525879,-371,7813.0,95.19745635986328,1876,9943.0
5360,0.334377646446228,-19.346176147460938,-320,7813.0,129.86985778808594,2441,9943.0
5370,0.3348901867866516,-16.450437545776367,-225,7813.0,151.0247039794922,2635,9943.0
5380,0.3343973159790039,-6.831086158752441,-141,7813.0,148.0763397216797,2421,9943.0
5390,0.33423134684562683,7.904355525970459,205,7813.0,127.42005157470703,1734,9943.0
5400,0.3340749740600586,21.367351531982422,365,7813.0,91.52828979492188,1182,9943.0
5410,0.33394935727119446,23.97723388671875,313,7813.0,47.61077117919922,475,9943.0
5420,0.3358045518398285,12.322480201721191,141,7813.0,-1.53264582157135,-129,9943.0
5430,0.3299063742160797,-0.9990281462669373,-154,7813.0,-51.746192932128906,-1115,9943.0
5440,0.3312174379825592,-9.408305168151855,-177,7813.0,-103.940185546875,-2195,9943.0
5450,0.3328986167907715,-12.121133804321289,-155,7813.0,-148.0557098388672,-2636,9943.0
5460,0.33382511138916016,-12.358471870422363,-117,7813.0,-157.40298461914062,-2656,9943.0
5470,0.33013707399368286,-1.5878610610961914,50,7813.0,-137.2166290283203,-2152,9943.0
5480,0.33090314269065857,9.931925773620605,251,7813.0,-110.93186950683594,-1677,9943.0
5490,0.3316771984100342,17.48841094970703,193,7813.0,-70.02513122558594,-815,9943.0
5500,0.33301207423210144,12.441534042358398,143,7813.0,-21.22991180419922,-146,9943.0
5510,0.3347524106502533,-2.214050769805908,-90,7813.0,27.886512756347656,500,9943.0
5520,0.3361161947250366,-25.4432315826416,-575,7813.0,68.87659454345703,1221,9943.0
5530,0.33689188957214355,-48.986324310302734,-891,7813.0,104.75074768066406,2006,9943.0
5540,0.3377947211265564,-55.783409118652344,-844,7813.0,126.44091796875,2146,9943.0
5550,0.3395001292228699,-38.7001953125,-601,7813.0,133.447998046875,2188,9943.0
5560,0.33232808113098145,-5.592319011688232,134,7813.0,123.22907257080078,1789,9943.0
5570,0.3322892487049103,33.10024642944336,743,7813.0,98.67949676513672,1463,9943.0
5580,0.33273908495903015,55.9764289855957,900,7813.0,66.51270294189453,873,9943.0
5590,0.334007203578949,57.78916549682617,857,7813.0,26.77867889404297,200,9943.0
5600,0.33477526903152466,41.16054153442383,439,7813.0,-8.572041511535645,-307,9943.0
5610,0.3294772803783417,14.731694221496582,134,7813.0,-45.621856689453125,-1079,9943.0
5620,0.3303847014904022,-5.615764141082764,-91,7813.0,-85.41999053955078,-1567,9943.0
5630,0.33087843656539917,-19.22333335876465,-335,7813.0,-106.35856628417969,-1881,9943.0
5640,0.3315217196941376,-25.643329620361328,-388,7813.0,-107.46530151367188,-1764,9943.0
5650,0.3284549415111542,-19.755409240722656,-294,7813.0,-91.51564025878906,-1396,9943.0
5660,0.3294508159160614,-2.337071657180786,47,7813.0,-60.40171813964844,-746,9943.0
5670,0.3300420343875885,9.563127517700195,174,7813.0,-17.102188110351562,17,9943.0
5680,0.3301923871040344,6.712256908416748,36,7813.0,37.789146423339844,916,9943.0
5690,0.3292105495929718,-0.1608765721321106,10,7813.0,80.99114227294922,1548,9943.0
5700,0.32871314883232117,-2.1228106021881104,-28,7813.0,108.90670776367188,1835,9943.0
5710,0.3275456726551056,-1.7648206949234009,-22,7813.0,118.63778686523438,2034,9943.0
5720,0.3280053436756134,9.934462547302246,180,7813.0,109.86978912353516,1708,9943.0
5730,0.32699301838874817,20.14396858215332,319,7813.0,81.6820297241211,1206,9943.0
5740,0.3229999244213104,18.157514572143555,287,7813.0,36.10273742675781,202,9943.0
5750,0.32174959778785706,2.140401601791382,12,7813.0,-9.504561424255371,-358,9943.0
5760,0.32172393798828125,-17.529767990112305,-452,7813.0,-44.1450080871582,-811,9943.0
5770,0.32199469208717346,-26.308650970458984,-458,7813.0,-68.1960220336914,-1224,9943.0
5780,0.320027619600296,-20.694490432739258,-352,7813.0,-91.60457611083984,-1600,9943.0
5790,0.31963998079299927,-5.517868518829346,22,7813.0,-113.40583038330078,-2034,9943.0
5800,0.3201861083507538,4.4477691650390625,56,7813.0,-119.49313354492188,-2029,9943.0
5810,0.32022157311439514,-3.294048547744751,-101,7813.0,-107.39083099365234,-1745,9943.0
5820,0.32058343291282654,-18.614503860473633,-225,7813.0,-81.78531646728516,-1313,9943.0
5830,0.3209739625453949,-24.131166458129883,-334,7813.0,-47.706695556640625,-791,9943.0
5840,0.3223938047885895,-12.350049018859863,-166,7813.0,-6.918637752532959,-103,9943.0
5850,0.3229306936264038,2.4930810928344727,112,7813.0,32.743736267089844,754,9943.0
5860,0.3241852819919586,19.608362197875977,379,7813.0,79.51421356201172,1464,9943.0
5870,0.3282489776611328,21.01955223083496,347,7813.0,113.5739517211914,1882,9943.0
5880,0.328643798828125,14.8209867477417,209,7813.0,124.46174621582031,1972,9943.0
5890,0.3283764719963074,9.539702415466309,227,7813.0,118.47579956054688,1896,9943.0
5900,0.32802215218544006,4.313691139221191,92,7813.0,100.263671875,1559,9943.0
5910,0.32574892044067383,5.296647071838379,124,7813.0,74.02855682373047,1196,9943.0
5920,0.32752129435539246,11.262833595275879,204,7813.0,33.65489959716797,336,9943.0
5930,0.32718005776405334,19.86081314086914,476,7813.0,0.9774143099784851,-137,9943.0
5940,0.32719698548316956,23.479421615600586,317,7813.0,-28.52283477783203,-590,9943.0
5950,0.3276855945587158,20.04598045349121,213,7813.0,-53.05179214477539,-967,9943.0
5960,0.32452496886253357,-0.6833682656288147,-122,7813.0,-71.22047424316406,-1322,9943.0
5970,0.3246295154094696,-18.37344741821289,-355,7813.0,-86.61664581298828,-1554,9943.0
5980,0.3246418535709381,-37.0253791809082,-572,7813.0,-98.84188079833984,-1771,9943.0
5990,0.3246934115886688,-36.448421478271484,-530,7813.0,-93.03026580810547,-1445,9943.0
6000,0.3246995806694031,-32.95532989501953,-483,7813.0,-69.90859985351562,-1064,9943.0
6010,0.3253629803657532,-24.805421829223633,-349,7813.0,-38.78843307495117,-538,9943.0
6020,0.32675111293792725,-17.05811309814453,-231,7813.0,-2.0473198890686035,190,9943.0
6030,0.32772737741470337,-6.425475597381592,103,7813.0,39.24464416503906,850,9943.0
6040,0.32887130975723267,13.649995803833008,225,7813.0,84.56566619873047,1394,9943.0
6050,0.32738640904426575,19.054969787597656,345,7813.0,107.14851379394531,1779,9943.0
6060,0.32758015394210815,19.026073455810547,343,7813.0,115.1504135131836,1803,9943.0
6070,0.32690250873565674,19.792322158813477,400,7813.0,112.20306396484375,1765,9943.0
6080,0.327088862657547,16.763309478759766,190,7813.0,95.45751190185547,1506,9943.0
6090,0.3253207504749298,10.635063171386719,4,7813.0,70.72301483154297,997,9943.0
6100,0.32536059617996216,5.5828142166137695,92,7813.0,29.992816925048828,118,9943.0
6110,0.325195848941803,10.791707992553711,286,7813.0,-20.27188491821289,-535,9943.0
6120,0.3251272439956665,23.226181030273438,433,7813.0,-58.634979248046875,-1015,9943.0
6130,0.3226318359375,33.87936782836914,425,7813.0,-90.3897476196289,-1678,9943.0
6140,0.321906715631485,24.432737350463867,327,7813.0,-108.22875213623047,-1961,9943.0
6150,0.32120388746261597,4.5230231285095215,-74,7813.0,-117.83233642578125,-1992,9943.0
6160,0.3203832805156708,-17.936073303222656,-320,7813.0,-115.85993957519531,-1922,9943.0
6170,0.3222638666629791,-32.51637649536133,-532,7813.0,-100.86123657226562,-1624,9943.0
6180,0.32162150740623474,-45.6821403503418,-828,7813.0,-68.26255798339844,-1037,9943.0
6190,0.321819931268692,-56.534603118896484,-1014,7813.0,-26.075397491455078,-206,9943.0
6200,0.32207977771759033,-65.04021453857422,-1011,7813.0,19.171127319335938,486,9943.0
6210,0.32325440645217896,-55.7388916015625,-752,7813.0,62.52281951904297,1036,9943.0
6220,0.32623791694641113,-18.633869171142578,-79,7813.0,86.16114807128906,1526,9943.0
6230,0.3266944885253906,22.46179962158203,580,7813.0,94.35543823242188,1582,9943.0
6240,0.32684823870658875,45.72804641723633,714,7813.0,87.69276428222656,1538,9943.0
6250,0.32735303044319153,49.73127365112305,854,7813.0,72.21998596191406,982,9943.0
6260,0.32433778047561646,46.836666107177734,740,7813.0,47.3077278137207,604,9943.0
6270,0.32357922196388245,41.96028518676758,705,7813.0,4.17093563079834,-23,9943.0
6280,0.3232070505619049,39.372955322265625,523,7813.0,-36.68745422363281,-746,9943.0
6290,0.32291361689567566,32.30083084106445,547,7813.0,-61.998497009277344,-1164,9943.0
6300,0.3223176598548889,25.67362403869629,464,7813.0,-70.5224609375,-1315,9943.0
6310,0.3216184675693512,22.709552764892578,313,7813.0,-66.5507583618164,-1073,9943.0
6320,0.32136252522468567,9.35632038116455,188,7813.0,-53.53868865966797,-651,9943.0
6330,0.32164132595062256,-15.707923889160156,-202,7813.0,-35.45735168457031,-575,9943.0
6340,0.32129213213920593,-39.95282745361328,-714,7813.0,-19.64387321472168,-389,9943.0
6350,0.3232119381427765,-54.21006393432617,-847,7813.0,7.09821081161499,202,9943.0
6360,0.3231528401374817,-57.062679290771484,-936,7813.0,34.24713897705078,663,9943.0
6370,0.32392746210098267,-58.35540008544922,-841,7813.0,58.68913269042969,1012,9943.0
6380,0.3240017294883728,-53.142845153808594,-855,7813.0,74.4320068359375,1262,9943.0
6390,0.32379698753356934,-40.05711364746094,-645,7813.0,82.20124816894531,1523,9943.0
6400,0.3241382837295532,-18.546905517578125,-173,7813.0,75.05691528320312,992,9943.0
6410,0.32412660121917725,16.48209571838379,461,7813.0,51.23350524902344,764,9943.0
6420,0.3252250552177429,50.73131561279297,951,7813.0,20.186416625976562,173,9943.0
6430,0.32552969455718994,77.42294311523438,1306,7813.0,-18.669843673706055,-515,9943.0
6440,0.32269299030303955,79.14776611328125,1299,7813.0,-54.918067932128906,-1063,9943.0
6450,0.32341110706329346,68.29717254638672,1001,7813.0,-78.87268829345703,-1171,9943.0
6460,0.3235357403755188,51.667694091796875,793,7813.0,-84.0312271118164,-1210,9943.0
6470,0.3238925635814667,30.876033782958984,351,7813.0,-73.35599517822266,-1016,9943.0
6480,0.3232095539569855,3.5701904296875,-109,7813.0,-47.40303421020508,-563,9943.0
6490,0.3231791853904724,-30.211881637573242,-580,7813.0,-21.840259552001953,-149,9943.0
6500,0.32337701320648193,-53.36289596557617,-957,7813.0,8.264958381652832,372,9943.0
6510,0.3235582113265991,-62.748497009277344,-1065,7813.0,31.08131980895996,678,9943.0
6520,0.32332026958465576,-62.44424819946289,-929,7813.0,43.25862121582031,911,9943.0
6530,0.32465383410453796,-49.684852600097656,-770,7813.0,59.01721954345703,1042,9943.0
6540,0.32475224137306213,-25.704639434814453,-444,7813.0,73.43677520751953,1179,9943.0
6550,0.3246065676212311,0.12347811460494995,184,7813.0,75.85954284667969,1093,9943.0
6560,0.32457268238067627,33.203548431396484,654,7813.0,56.976470947265625,878,9943.0
6570,0.3240448832511902,63.52935791015625,1050,7813.0,37.601619720458984,551,9943.0
6580,0.32413923740386963,68.13497161865234,1044,7813.0,5.862451076507568,-108,9943.0
6590,0.3251507878303528,53.97683334350586,840,7813.0,-23.3743839263916,-577,9943.0
6600,0.32596567273139954,27.15252113342285,355,7813.0,-56.040992736816406,-1004,9943.0
6610,0.32619646191596985,-7.362532138824463,-307,7813.0,-71.18085479736328,-1281,9943.0
6620,0.3245566189289093,-30.764596939086914,-654,7813.0,-79.99234771728516,-1211,9943.0
6630,0.3248116672039032,-40.243141174316406,-623,7813.0,-80.75651550292969,-1253,9943.0
6640,0.3247922360897064,-33.00787353515625,-486,7813.0,-75.71099090576172,-1177,9943.0
6650,0.32533082365989685,-18.679523468017578,-319,7813.0,-54.74842071533203,-744,9943.0
6660,0.3252858519554138,-11.06856918334961,-121,7813.0,-29.07508087158203,-407,9943.0
6670,0.3260846436023712,-8.276897430419922,-96,7813.0,-10.528680801391602,-177,9943.0
6680,0.32707253098487854,-9.79494571685791,-229,7813.0,19.29153823852539,386,9943.0
6690,0.3281271755695343,-19.126373291015625,-421,7813.0,54.666866302490234,1060,9943.0
6700,0.32829585671424866,-33.75203323364258,-538,7813.0,85.95867919921875,1490,9943.0
6710,0.32862839102745056,-40.082984924316406,-638,7813.0,103.9228286743164,1717,9943.0
6720,0.3285483121871948,-43.440731048583984,-577,7813.0,112.10858154296875,1904,9943.0
6730,0.32846012711524963,-24.861711502075195,-301,7813.0,101.0882797241211,1631,9943.0
6740,0.3286113440990448,4.118130683898926,320,7813.0,75.84671783447266,902,9943.0
6750,0.3269950747489929,29.865798950195312,613,7813.0,31.67128562927246,406,9943.0
6760,0.3272935748100281,42.72940444946289,658,7813.0,-18.048145294189453,-688,9943.0
6770,0.32828488945961,42.322513580322266,711,7813.0,-65.18756103515625,-1298,9943.0
6780,0.328996479511261,35.04827880859375,520,7813.0,-108.4862289428711,-1927,9943.0
6790,0.3257286846637726,26.686046600341797,395,7813.0,-137.08673095703125,-2428,9943.0
6800,0.3256240785121918,18.44613265991211,255,7813.0,-150.93991088867188,-2601,9943.0
6810,0.3245958685874939,14.702082633972168,306,7813.0,-151.6630859375,-2402,9943.0
6820,0.3252086937427521,17.035160064697266,369,7813.0,-125.89958190917969,-1867,9943.0
6830,0.32893574237823486,21.678434371948242,479,7813.0,-81.75543212890625,-1138,9943.0
6840,0.3293353021144867,18.573856353759766,326,7813.0,-21.845947265625,-216,9943.0
6850,0.33148011565208435,0.677142858505249,-61,7813.0,33.94503402709961,735,9943.0
6860,0.3333486020565033,-20.13452911376953,-432,7813.0,81.23389434814453,1548,9943.0
6870,0.33427509665489197,-38.66282272338867,-795,7813.0,106.91876983642578,1894,9943.0
6880,0.3361494243144989,-51.9905891418457,-943,7813.0,113.0028305053711,2024,9943.0
6890,0.33714553713798523,-56.062435150146484,-799,7813.0,121.93592071533203,2030,9943.0
6900,0.33752772212028503,-50.886192321777344,-769,7813.0,125.17070770263672,1999,9943.0
6910,0.3402453362941742,-31.29033660888672,-326,7813.0,122.0843734741211,1960,9943.0
6920,0.3326454758644104,-5.398193836212158,-94,7813.0,103.14051055908203,1590,9943.0
6930,0.3334176242351532,23.524267196655273,569,7813.0,69.14852142333984,908,9943.0
6940,0.333960622549057,54.82416534423828,1004,7813.0,24.026519775390625,145,9943.0
6950,0.3346271514892578,72.71597290039062,1266,7813.0,-26.65669059753418,-620,9943.0
6960,0.33552756905555725,73.91490173339844,1173,7813.0,-81.15946197509766,-1584,9943.0
6970,0.3304824233055115,57.025909423828125,776,7813.0,-129.54087829589844,-2242,9943.0
6980,0.3297003209590912,28.189430236816406,428,7813.0,-156.18763732910156,-2655,9943.0
6990,0.33138635754585266,-7.098246097564697,-196,7813.0,-160.33248901367188,-2662,9943.0
7000,0.33092135190963745,-28.64255714416504,-549,7813.0,-153.18460083007812,-2397,9943.0
7010,0.3279517889022827,-33.195404052734375,-585,7813.0,-128.23342895507812,-2011,9943.0
7020,0.3271450102329254,-28.897415161132812,-435,7813.0,-85.02325439453125,-1197,9943.0
7030,0.33183056116104126,-29.14004135131836,-466,7813.0,-31.477773666381836,-340,9943.0
7040,0.33326801657676697,-39.050743103027344,-591,7813.0,34.015113830566406,778,9943.0
7050,0.3365224003791809,-47.97812271118164,-676,7813.0,98.15248107910156,1666,9943.0
7060,0.3378027081489563,-35.10499572753906,-486,7813.0,145.52127075195312,2456,9943.0
7070,0.33859026432037354,-15.776650428771973,-156,7813.0,178.6217498779297,3087,9943.0
7080,0.3393397927284241,5.054296493530273,144,7813.0,194.16912841796875,3279,9943.0
7090,0.3388945460319519,28.01848602294922,551,7813.0,196.59112548828125,3114,9943.0
7100,0.33224374055862427,47.83775329589844,884,7813.0,168.767578125,2584,9943.0
7110,0.33080682158470154,60.95280456542969,992,7813.0,119.76091766357422,1752,9943.0
7120,0.3347184658050537,60.9549446105957,926,7813.0,50.71405029296875,403,9943.0
7130,0.3347773849964142,42.148799896240234,569,7813.0,-22.700525283813477,-651,9943.0
7140,0.33151155710220337,16.301895141601562,60,7813.0,-83.62800598144531,-1633,9943.0
7150,0.3320889174938202,-8.007108688354492,-116,7813.0,-131.69927978515625,-2336,9943.0
7160,0.33126962184906006,-24.762800216674805,-514,7813.0,-162.0198516845703,-2672,9943.0
7170,0.3313821852207184,-36.18181610107422,-657,7813.0,-181.5657958984375,-2968,9943.0
7180,0.33009177446365356,-36.951995849609375,-600,7813.0,-193.1127471923828,-3220,9943.0
7190,0.3259255290031433,-24.131484985351562,-320,7813.0,-193.10784912109375,-3249,9943.0
7200,0.330456405878067,-10.608782768249512,-121,7813.0,-176.16439819335938,-2888,9943.0
7210,0.32904109358787537,0.11983883380889893,28,7813.0,-139.9022674560547,-2191,9943.0
7220,0.32788121700286865,-5.955151081085205,-158,7813.0,-89.84905242919922,-1302,9943.0
7230,0.3316206932067871,-16.033170700073242,-288,7813.0,-27.178647994995117,-95,9943.0
7240,0.33622685074806213,-20.233028411865234,-334,7813.0,56.79461669921875,1371,9943.0
7250,0.33851417899131775,-16.607160568237305,-212,7813.0,138.2431182861328,2672,9943.0
7260,0.3389432430267334,-0.5444429516792297,116,7813.0,190.4915771484375,3364,9943.0
7270,0.3407198190689087,10.131879806518555,193,7813.0,224.82179260253906,3676,9943.0
7280,0.3434693515300751,19.737529754638672,351,7813.0,240.95086669921875,3825,9943.0
7290,0.3427618443965912,21.423627853393555,388,7813.0,231.0526123046875,3716,9943.0
7300,0.34270337224006653,15.315754890441895,137,7813.0,199.60597229003906,2981,9943.0
7310,0.3404380977153778,10.04370403289795,195,7813.0,149.81320190429688,2016,9943.0
7320,0.33212825655937195,3.691026449203491,-50,7813.0,82.583984375,1032,9943.0
7330,0.3351839482784271,4.7178850173950195,202,7813.0,16.40142250061035,-230,9943.0
7340,0.33564892411231995,17.223548889160156,327,7813.0,-44.65294647216797,-985,9943.0
7350,0.336561918258667,25.800912857055664,479,7813.0,-97.58499908447266,-1911,9943.0
7360,0.3333553075790405,23.810300827026367,352,7813.0,-134.11819458007812,-2182,9943.0
7370,0.3336726725101471,9.018896102905273,-24,7813.0,-150.23388671875,-2578,9943.0
7380,0.3340889513492584,-8.343732833862305,-310,7813.0,-161.85365295410156,-2788,9943.0
7390,0.33408185839653015,-26.368633270263672,-450,7813.0,-167.9484100341797,-2829,9943.0
7400,0.33594879508018494,-38.38381576538086,-564,7813.0,-161.76446533203125,-2698,9943.0
7410,0.3297642469406128,-39.07512283325195,-651,7813.0,-139.3284912109375,-2255,9943.0
7420,0.33143216371536255,-34.47954559326172,-527,7813.0,-100.52619171142578,-1463,9943.0
7430,0.3316231369972229,-22.527158737182617,-397,7813.0,-56.761756896972656,-741,9943.0
7440,0.3320685625076294,-20.620616912841797,-168,7813.0,1.6770957708358765,277,9943.0
7450,0.33568692207336426,-0.331393837928772,153,7813.0,68.10082244873047,1378,9943.0
7460,0.3366501033306122,17.614810943603516,421,7813.0,129.70013427734375,2254,9943.0
7470,0.33904537558555603,29.423599243164062,438,7813.0,178.8521270751953,2896,9943.0
7480,0.3394066393375397,32.46891403198242,448,7813.0,195.29934692382812,3329,9943.0
7490,0.3405388295650482,28.083763122558594,404,7813.0,193.70510864257812,3102,9943.0
7500,0.33559149503707886,13.187499046325684,164,7813.0,167.56471252441406,2423,9943.0
7510,0.33433234691619873,-6.592191696166992,-153,7813.0,129.4323272705078,2058,9943.0
7520,0.33353108167648315,-8.617358207702637,-102,7813.0,73.17842102050781,814,9943.0
7530,0.33731529116630554,0.8173474669456482,131,7813.0,2.834080219268799,-136,9943.0
7540,0.3319436311721802,9.87759780883789,81,7813.0,-58.526397705078125,-1306,9943.0
7550,0.33367815613746643,10.370302200317383,215,7813.0,-111.78226470947266,-1993,9943.0
7560,0.3351665437221527,0.8458723425865173,-140,7813.0,-145.30386352539062,-2373,9943.0
7570,0.33536890149116516,-10.896751403808594,-186,7813.0,-167.6986541748047,-2962,9943.0
7580,0.3321727216243744,-20.984888076782227,-364,7813.0,-184.93560791015625,-3199,9943.0
7590,0.3321915566921234,-26.452285766601562,-453,7813.0,-193.29061889648438,-3236,9943.0
7600,0.33122581243515015,-32.41740036010742,-465,7813.0,-175.56256103515625,-2744,9943.0
7610,0.33595311641693115,-23.650531768798828,-342,7813.0,-137.58831787109375,-2026,9943.0
7620,0.3348388671875,-1.436144232749939,41,7813.0,-90.47854614257812,-1223,9943.0
7630,0.3371317982673645,11.84235668182373,252,7813.0,-39.83843231201172,-350,9943.0
7640,0.3395182192325592,16.371746063232422,364,7813.0,23.113590240478516,685,9943.0
7650,0.3406347334384918,11.075337409973145,200,7813.0,81.36538696289062,1443,9943.0
7660,0.3431042432785034,2.3228747844696045,27,7813.0,130.81488037109375,2155,9943.0
7670,0.3463946282863617,4.068691730499268,65,7813.0,161.38343811035156,2580,9943.0
7680,0.3480578064918518,12.932694435119629,148,7813.0,173.14334106445312,2852,9943.0
7690,0.34904852509498596,15.685338020324707,339,7813.0,170.76559448242188,2827,9943.0
7700,0.34994471073150635,21.394834518432617,308,7813.0,155.77500915527344,2507,9943.0
7710,0.3500051498413086,26.34337043762207,447,7813.0,124.93327331542969,1738,9943.0
7720,0.3445087671279907,22.234434127807617,283,7813.0,77.97561645507812,1031,9943.0
7730,0.34642279148101807,8.867391586303711,59,7813.0,20.233142852783203,83,9943.0
7740,0.3471468985080719,-7.509848594665527,-247,7813.0,-43.924278259277344,-967,9943.0
7750,0.3496294915676117,-23.417585372924805,-404,7813.0,-106.61524963378906,-2127,9943.0
7760,0.34461700916290283,-33.49366760253906,-521,7813.0,-148.4674530029297,-2540,9943.0
7770,0.34477439522743225,-37.069969177246094,-642,7813.0,-163.1357879638672,-2607,9943.0
7780,0.34475278854370117,-33.205623626708984,-502,7813.0,-149.68206787109375,-2187,9943.0
7790,0.34377747774124146,-11.720879554748535,-87,7813.0,-123.8985824584961,-1935,9943.0
7800,0.34066852927207947,9.839899063110352,132,7813.0,-92.80516815185547,-1308,9943.0
7810,0.3395508825778961,15.885009765625,202,7813.0,-54.97711944580078,-533,9943.0
7820,0.3410358726978302,13.136388778686523,183,7813.0,-8.361468315124512,160,9943.0
7830,0.33995121717453003,0.5965561866760254,-31,7813.0,40.28404998779297,1006,9943.0
7840,0.3408585488796234,-2.837082862854004,-4,7813.0,85.91800689697266,1572,9943.0
7850,0.3376152813434601,5.376004695892334,52,7813.0,115.53768157958984,2039,9943.0
7860,0.33631783723831177,17.111785888671875,272,7813.0,135.15829467773438,2460,9943.0
7870,0.33523043990135193,25.833412170410156,468,7813.0,141.4462127685547,2320,9943.0
7880,0.3337844908237457,29.832061767578125,483,7813.0,127.16975402832031,1814,9943.0
7890,0.32627490162849426,19.568832397460938,310,7813.0,98.66211700439453,1467,9943.0
7900,0.3263149559497833,-5.415273666381836,-298,7813.0,60.44111633300781,770,9943.0
7910,0.32759663462638855,-37.37580108642578,-700,7813.0,6.304296493530273,-165,9943.0
7920,0.3284843862056732,-51.75381851196289,-779,7813.0,-54.222137451171875,-1135,9943.0
7930,0.32967063784599304,-50.20614242553711,-834,7813.0,-95.61984252929688,-1680,9943.0
7940,0.3241685628890991,-43.18886184692383,-558,7813.0,-111.40619659423828,-2014,9943.0
7950,0.3248273730278015,-25.92710304260254,-318,7813.0,-115.13155364990234,-1739,9943.0
7960,0.3250694274902344,-6.268805027008057,2,7813.0,-107.44507598876953,-1638,9943.0
7970,0.3250785171985626,10.599861145019531,271,7813.0,-82.68820190429688,-1340,9943.0
7980,0.32442641258239746,18.176025390625,381,7813.0,-53.4403076171875,-700,9943.0
7990,0.3242954611778259,23.048660278320312,341,7813.0,-15.828455924987793,14,9943.0
8000,0.3244737684726715,18.86690330505371,267,7813.0,23.86927604675293,698,9943.0
8010,0.32461026310920715,17.088748931884766,200,7813.0,54.87274169921875,1101,9943.0
8020,0.3244715631008148,15.11209487915039,286,7813.0,78.49832916259766,1344,9943.0
8030,0.324179083108902,14.446846008300781,262,7813.0,85.47765350341797,1248,9943.0
8040,0.3235451877117157,13.028229713439941,217,7813.0,78.68450927734375,1122,9943.0
8050,0.32295116782188416,12.211066246032715,139,7813.0,56.9338493347168,868,9943.0
8060,0.3236351013183594,9.729401588439941,184,7813.0,30.828235626220703,274,9943.0
8070,0.31981274485588074,0.23934823274612427,-90,7813.0,9.678842544555664,-1,9943.0
8080,0.3193994164466858,-10.05142593383789,-286,7813.0,-15.959319114685059,-381,9943.0
8090,0.31953155994415283,-10.225865364074707,-128,7813.0,-50.935302734375,-1024,9943.0
8100,0.31917813420295715,-4.899876594543457,-18,7813.0,-80.6874008178711,-1407,9943.0
8110,0.31794238090515137,-4.765063762664795,-30,7813.0,-92.1032485961914,-1534,9943.0
8120,0.31779488921165466,-7.1174845695495605,-138,7813.0,-82.09244537353516,-1229,9943.0
8130,0.3177131116390228,6.3071794509887695,76,7813.0,-56.98823547363281,-685,9943.0
8140,0.31785738468170166,8.612029075622559,109,7813.0,-22.68476676940918,-107,9943.0
8150,0.3183605670928955,7.045657634735107,150,7813.0,12.144791603088379,396,9943.0
8160,0.31902840733528137,3.827103853225708,24,7813.0,48.64579391479492,892,9943.0
8170,0.3191688656806946,-3.401069402694702,0,7813.0,83.61079406738281,1379,9943.0
8180,0.31901875138282776,-3.6960229873657227,-93,7813.0,105.9697036743164,1724,9943.0
8190,0.3191295564174652,5.840694904327393,88,7813.0,118.16471099853516,2006,9943.0
8200,0.3177327513694763,12.83841323852539,234,7813.0,103.0119857788086,1419,9943.0
8210,0.31702423095703125,16.570144653320312,269,7813.0,69.52720642089844,1037,9943.0
8220,0.31669187545776367,15.044414520263672,196,7813.0,28.414854049682617,184,9943.0
8230,0.3168756663799286,14.590302467346191,254,7813.0,-14.578912734985352,-403,9943.0
8240,0.31417861580848694,13.152356147766113,172,7813.0,-51.5040397644043,-861,9943.0
8250,0.3142838776111603,0.4752238392829895,26,7813.0,-74.98078918457031,-1410,9943.0
8260,0.313738614320755,-15.07076644897461,-330,7813.0,-90.00349426269531,-1438,9943.0
8270,0.3133414089679718,-25.88072967529297,-495,7813.0,-98.08899688720703,-1577,9943.0
8280,0.31266385316848755,-26.873291015625,-337,7813.0,-107.85503387451172,-1823,9943.0
8290,0.3107775151729584,-16.40873908996582,-152,7813.0,-112.37138366699219,-1815,9943.0
8300,0.3101304769515991,-4.588654518127441,-79,7813.0,-98.47042083740234,-1375,9943.0
8310,0.31096845865249634,-0.6569351553916931,-63,7813.0,-54.42271041870117,-640,9943.0
8320,0.31048384308815,-0.867561399936676,-50,7813.0,0.28773462772369385,327,9943.0
8330,0.31097638607025146,4.721748352050781,76,7813.0,52.43828582763672,1143,9943.0
8340,0.3112390637397766,6.128666877746582,134,7813.0,114.18358612060547,2060,9943.0
8350,0.31044134497642517,5.637866497039795,159,7813.0,163.6549835205078,2723,9943.0
8360,0.3103140592575073,12.611409187316895,268,7813.0,184.2866973876953,3102,9943.0
8370,0.3052757978439331,15.258501052856445,117,7813.0,184.8779754638672,2921,9943.0
8380,0.3034957945346832,14.061092376708984,234,7813.0,157.7952117919922,2441,9943.0
8390,0.3043432831764221,5.719982624053955,70,7813.0,100.11372375488281,1328,9943.0
8400,0.3032493591308594,-2.290565252304077,-54,7813.0,25.2806396484375,159,9943.0
8410,0.302030086517334,-9.853273391723633,-212,7813.0,-40.847999572753906,-1003,9943.0
8420,0.2989509105682373,-9.371893882751465,-144,7813.0,-97.2269515991211,-1670,9943.0
8430,0.2974855899810791,-6.609940052032471,-91,7813.0,-135.4442138671875,-2466,9943.0
8440,0.29633787274360657,-5.886552333831787,-124,7813.0,-152.3311309814453,-2452,9943.0
8450,0.2947779893875122,-10.89044189453125,-260,7813.0,-149.6687774658203,-2358,9943.0
8460,0.2897990643978119,-17.555009841918945,-276,7813.0,-139.4607391357422,-2310,9943.0
8470,0.2904328405857086,-16.178359985351562,-230,7813.0,-128.52542114257812,-1991,9943.0
8480,0.2886406481266022,-16.992050170898438,-326,7813.0,-107.18408966064453,-1599,9943.0
8490,0.28733500838279724,-19.671131134033203,-306,7813.0,-77.6456298828125,-1065,9943.0
8500,0.2878980338573456,-21.925189971923828,-341,7813.0,-36.246150970458984,-460,9943.0
8510,0.2835885286331177,-22.944896697998047,-349,7813.0,15.775360107421875,478,9943.0
8520,0.28527650237083435,-31.54566764831543,-540,7813.0,75.00930786132812,1505,9943.0
8530,0.2861208915710449,-31.904434204101562,-558,7813.0,132.05201721191406,2414,9943.0
8540,0.28748783469200134,-21.697153091430664,-294,7813.0,172.8157958984375,2831,9943.0
8550,0.28149741888046265,3.586609363555908,229,7813.0,187.2154541015625,3179,9943.0
8560,0.2845274806022644,27.66176986694336,559,7813.0,180.4291229248047,2801,9943.0
8570,0.28470608592033386,45.85356140136719,798,7813.0,150.41908264160156,2309,9943.0
8580,0.28354978561401367,50.08292007446289,894,7813.0,117.88407897949219,1660,9943.0
8590,0.2856927216053009,47.994483947753906,659,7813.0,71.33496856689453,748,9943.0
8600,0.28272679448127747,38.76582336425781,548,7813.0,19.856870651245117,133,9943.0
8610,0.2833367884159088,22.292455673217773,359,7813.0,-42.225677490234375,-975,9943.0
8620,0.28449034690856934,4.367564678192139,-60,7813.0,-86.05548095703125,-1666,9943.0
8630,0.28580963611602783,-7.03570032119751,-155,7813.0,-120.31871795654297,-2177,9943.0
8640,0.2800438106060028,-13.444928169250488,-261,7813.0,-134.93502807617188,-2151,9943.0
8650,0.28022530674934387,-17.621484756469727,-326,7813.0,-136.2018585205078,-2211,9943.0
8660,0.2796686589717865,-22.021574020385742,-397,7813.0,-134.43890380859375,-2209,9943.0
8670,0.27983757853507996,-26.81007194519043,-380,7813.0,-120.5006332397461,-1829,9943.0
8680,0.27833425998687744,-29.797550201416016,-472,7813.0,-90.27386474609375,-1123,9943.0
8690,0.27802371978759766,-25.916975021362305,-431,7813.0,-39.51350021362305,-246,9943.0
8700,0.27969348430633545,-22.173381805419922,-369,7813.0,21.308351516723633,670,9943.0
8710,0.28114116191864014,-23.426321029663086,-327,7813.0,77.60014343261719,1444,9943.0
8720,0.28131258487701416,-22.459611892700195,-200,7813.0,111.16578674316406,2035,9943.0
8730,0.27614232897758484,-5.222878932952881,-67,7813.0,128.4676971435547,2190,9943.0
8740,0.27629101276397705,11.859600067138672,276,7813.0,131.0955352783203,1976,9943.0
8750,0.27601882815361023,29.82144546508789,533,7813.0,120.64176940917969,1749,9943.0
8760,0.27659767866134644,44.76924133300781,762,7813.0,101.17406463623047,1528,9943.0
8770,0.2710922956466675,50.4672966003418,855,7813.0,72.26049041748047,1139,9943.0
8780,0.27018293738365173,44.2457160949707,729,7813.0,42.25596618652344,445,9943.0
8790,0.2693352699279785,36.59151077270508,476,7813.0,10.892008781433105,87,9943.0
8800,0.2683224678039551,26.774690628051758,381,7813.0,-16.965438842773438,-436,9943.0
8810,0.26773735880851746,18.343658447265625,287,7813.0,-37.58746337890625,-606,9943.0
8820,0.26313912868499756,13.32423210144043,105,7813.0,-49.896446228027344,-836,9943.0
8830,0.2613562345504761,3.7843921184539795,103,7813.0,-55.31742858886719,-960,9943.0
8840,0.2601924240589142,-2.223738431930542,-62,7813.0,-52.5624885559082,-773,9943.0
8850,0.2584276795387268,-8.495849609375,-276,7813.0,-44.93204116821289,-671,9943.0
8860,0.2551494538784027,-14.471763610839844,-230,7813.0,-34.34375,-562,9943.0
8870,0.2536308765411377,-15.7947998046875,-205,7813.0,-19.494478225708008,-195,9943.0
8880,0.25279879570007324,-12.149351119995117,-243,7813.0,8.491914749145508,378,9943.0
8890,0.2515081465244293,-12.232917785644531,-270,7813.0,44.21223068237305,848,9943.0
8900,0.24917106330394745,-18.66423225402832,-312,7813.0,83.65345764160156,1554,9943.0
8910,0.24824222922325134,-25.739686965942383,-433,7813.0,112.42401123046875,1952,9943.0
8920,0.24721620976924896,-20.228307723999023,-238,7813.0,123.07913970947266,2061,9943.0
8930,0.24792060256004333,-3.779536008834839,-69,7813.0,120.27348327636719,1824,9943.0
8940,0.24675168097019196,8.034077644348145,170,7813.0,91.992431640625,1383,9943.0
8950,0.24503563344478607,12.782647132873535,251,7813.0,47.782623291015625,623,9943.0
8960,0.2446724772453308,14.495182037353516,273,7813.0,-3.211207628250122,-213,9943.0
8970,0.24563676118850708,13.352962493896484,215,7813.0,-47.07231140136719,-945,9943.0
8980,0.2454814314842224,12.202814102172852,210,7813.0,-79.81945037841797,-1497,9943.0
8990,0.24474161863327026,8.861140251159668,20,7813.0,-99.2480239868164,-1665,9943.0
9000,0.24450524151325226,0.3889426589012146,49,7813.0,-108.09378814697266,-1629,9943.0
9010,0.2453610748052597,-2.638235092163086,-92,7813.0,-98.85018920898438,-1675,9943.0
9020,0.2453533262014389,-5.791672229766846,-79,7813.0,-78.37361907958984,-1116,9943.0
9030,0.24253682792186737,-10.994508743286133,-222,7813.0,-49.672142028808594,-766,9943.0
9040,0.24335165321826935,-10.064345359802246,-132,7813.0,-23.100927352905273,-149,9943.0
9050,0.24400049448013306,-9.52861499786377,-162,7813.0,11.589412689208984,253,9943.0
9060,0.24489249289035797,-6.6735053062438965,-53,7813.0,42.6445198059082,833,9943.0
9070,0.2457580268383026,-1.2433440685272217,-106,7813.0,68.04927825927734,1136,9943.0
9080,0.24422669410705566,-2.5602052211761475,-65,7813.0,77.64569854736328,1350,9943.0
9090,0.24605697393417358,-7.51634407043457,-150,7813.0,70.8154525756836,1033,9943.0
9100,0.24676160514354706,-11.682751655578613,-179,7813.0,57.08999252319336,716,9943.0
9110,0.2476131021976471,-10.307880401611328,-245,7813.0,38.73942565917969,564,9943.0
9120,0.246011883020401,-6.445539951324463,-8,7813.0,17.352384567260742,242,9943.0
9130,0.24671408534049988,-0.5711680054664612,37,7813.0,-2.9567959308624268,-213,9943.0
9140,0.24674005806446075,3.4802563190460205,-22,7813.0,-23.679777145385742,-572,9943.0
9150,0.24668677151203156,3.876643419265747,41,7813.0,-44.2705192565918,-774,9943.0
9160,0.24458889663219452,5.25880241394043,189,7813.0,-55.831871032714844,-966,9943.0
9170,0.2443905472755432,9.599309921264648,54,7813.0,-56.304813385009766,-1005,9943.0
9180,0.24367491900920868,8.00978946685791,196,7813.0,-56.91612243652344,-832,9943.0
9190,0.24289166927337646,5.7583699226379395,84,7813.0,-55.880699157714844,-971,9943.0
9200,0.24198637902736664,2.839341402053833,82,7813.0,-48.91416931152344,-689,9943.0
9210,0.24143673479557037,-0.9713603258132935,-119,7813.0,-34.43748092651367,-543,9943.0
9220,0.2410096377134323,-8.443317413330078,-127,7813.0,-12.362934112548828,-73,9943.0
9230,0.24105213582515717,-9.926766395568848,-217,7813.0,15.299556732177734,506,9943.0
9240,0.24124549329280853,-6.645652770996094,-71,7813.0,43.0274543762207,892,9943.0
9250,0.24001096189022064,-11.435302734375,-230,7813.0,61.39297103881836,1099,9943.0
9260,0.23996025323867798,-6.1860270500183105,19,7813.0,66.09490966796875,1103,9943.0
9270,0.23990343511104584,9.879937171936035,112,7813.0,60.713619232177734,825,9943.0
9280,0.23965813219547272,8.761079788208008,88,7813.0,41.04913330078125,613,9943.0
9290,0.23953860998153687,2.9075255393981934,28,7813.0,19.291301727294922,167,9943.0
9300,0.23846466839313507,-6.788480758666992,-161,7813.0,-4.6094794273376465,-275,9943.0
9310,0.23796799778938293,-10.286759376525879,-174,7813.0,-22.322904586791992,-434,9943.0
9320,0.2373211830854416,-10.021171569824219,-80,7813.0,-24.311851501464844,-360,9943.0
9330,0.23677673935890198,-5.868875026702881,-123,7813.0,-25.263057708740234,-491,9943.0
9340,0.23565827310085297,-2.1475794315338135,35,7813.0,-26.662324905395508,-349,9943.0
9350,0.23481900990009308,-0.44248199462890625,-59,7813.0,-25.61326789855957,-421,9943.0
9360,0.23396894335746765,-3.499781608581543,-50,7813.0,-18.447038650512695,-183,9943.0
9370,0.23324204981327057,-0.6462054252624512,-28,7813.0,-12.512761116027832,-224,9943.0
9380,0.23192934691905975,3.7189478874206543,73,7813.0,-6.550476551055908,18,9943.0
9390,0.23144729435443878,1.6788841485977173,94,7813.0,4.124047756195068,101,9943.0
9400,0.23092827200889587,4.010444641113281,61,7813.0,24.583221435546875,617,9943.0
9410,0.23145122826099396,4.018057823181152,142,7813.0,41.716041564941406,684,9943.0
9420,0.2302762269973755,3.9855780601501465,8,7813.0,51.18787384033203,748,9943.0
9430,0.23287111520767212,10.735833168029785,301,7813.0,52.19564437866211,962,9943.0
9440,0.23284097015857697,22.07065773010254,417,7813.0,47.88045883178711,667,9943.0
9450,0.23300237953662872,21.998546600341797,271,7813.0,38.24310302734375,506,9943.0
9460,0.232706218957901,17.284313201904297,277,7813.0,21.922733306884766,365,9943.0
9470,0.23092620074748993,6.5372819900512695,88,7813.0,8.90307331085205,89,9943.0
9480,0.23033420741558075,-1.8464913368225098,-69,7813.0,-5.334800720214844,-212,9943.0
9490,0.2301086187362671,-7.21981143951416,-104,7813.0,-10.538031578063965,-26,9943.0
9500,0.22929540276527405,-9.912911415100098,-214,7813.0,-11.960441589355469,-273,9943.0
9510,0.22930952906608582,-13.197669982910156,-243,7813.0,-12.532550811767578,-69,9943.0
9520,0.2290230393409729,-16.952817916870117,-226,7813.0,-8.139066696166992,-155,9943.0
9530,0.22870703041553497,-17.928434371948242,-355,7813.0,-6.27880859375,-104,9943.0
9540,0.22786356508731842,-14.353059768676758,-157,7813.0,-3.532496452331543,74,9943.0
9550,0.22848795354366302,-9.059985160827637,-135,7813.0,1.451084017753601,-111,9943.0
9560,0.22941312193870544,-6.3579487800598145,-68,7813.0,5.367649555206299,185,9943.0
9570,0.23000386357307434,-3.3237321376800537,20,7813.0,10.595203399658203,208,9943.0
9580,0.23085737228393555,1.198259711265564,-64,7813.0,22.516630172729492,333,9943.0
9590,0.23140816390514374,0.25788745284080505,29,7813.0,35.04800033569336,796,9943.0
9600,0.23282490670681,-4.4474029541015625,-55,7813.0,50.21223449707031,830,9943.0
9610,0.23374995589256287,-5.973011493682861,-149,7813.0,58.370845794677734,985,9943.0
9620,0.2348131686449051,-5.381208896636963,-16,7813.0,59.63198471069336,988,9943.0
9630,0.23581713438034058,-0.24114952981472015,24,7813.0,43.655372619628906,700,9943.0
9640,0.2407843917608261,2.8227767944335938,-9,7813.0,23.3458309173584,250,9943.0
9650,0.24185067415237427,2.1696391105651855,-25,7813.0,7.876974105834961,43,9943.0
9660,0.24277672171592712,-1.2160758972167969,-21,7813.0,-10.103198051452637,-221,9943.0
9670,0.24346870183944702,-0.8783953189849854,6,7813.0,-30.105806350708008,-549,9943.0
9680,0.24403195083141327,-1.7954919338226318,-11,7813.0,-46.75029754638672,-937,9943.0
9690,0.24594537913799286,3.121004343032837,85,7813.0,-57.57696533203125,-936,9943.0
9700,0.24651668965816498,7.023765563964844,224,7813.0,-59.50822067260742,-991,9943.0
9710,0.2470933198928833,7.637691020965576,57,7813.0,-53.64432907104492,-818,9943.0
9720,0.24749933183193207,0.3105747699737549,40,7813.0,-33.17466735839844,-491,9943.0
9730,0.24874718487262726,-6.06320858001709,-200,7813.0,-9.626787185668945,-117,9943.0
9740,0.24936236441135406,-8.978418350219727,-86,7813.0,10.267982482910156,312,9943.0
9750,0.24977585673332214,-9.004814147949219,-164,7813.0,22.61638069152832,292,9943.0
9760,0.25038790702819824,-9.744030952453613,-125,7813.0,23.43597412109375,438,9943.0
9770,0.2511868178844452,-6.639645576477051,-43,7813.0,23.763916015625,407,9943.0
9780,0.2510235607624054,3.2795212268829346,69,7813.0,30.655853271484375,503,9943.0
9790,0.252112478017807,12.877081871032715,274,7813.0,35.065120697021484,715,9943.0
9800,0.25299280881881714,18.104633331298828,362,7813.0,36.49825668334961,602,9943.0
9810,0.2537898123264313,17.550798416137695,199,7813.0,32.71350860595703,430,9943.0
9820,0.25364041328430176,10.741437911987305,200,7813.0,13.80529499053955,248,9943.0
9830,0.25444597005844116,11.031875610351562,239,7813.0,-10.071276664733887,-332,9943.0
9840,0.254702091217041,7.530177593231201,79,7813.0,-32.60367202758789,-709,9943.0
9850,0.2550447881221771,3.6327998638153076,90,7813.0,-47.267356872558594,-692,9943.0
9860,0.25281643867492676,3.7035329341888428,94,7813.0,-52.587284088134766,-839,9943.0
9870,0.2528502941131592,-2.1686365604400635,-124,7813.0,-50.615325927734375,-792,9943.0
9880,0.2523914575576782,-7.284590244293213,-121,7813.0,-46.296775817871094,-735,9943.0
9890,0.25194478034973145,-12.121545791625977,-314,7813.0,-36.045501708984375,-516,9943.0
9900,0.2515832781791687,-15.989968299865723,-198,7813.0,-22.94639015197754,-186,9943.0
9910,0.25096771121025085,-15.361577033996582,-252,7813.0,-8.699386596679688,-225,9943.0
9920,0.2511952817440033,-10.384688377380371,-201,7813.0,-1.0380889177322388,22,9943.0
9930,0.25117069482803345,-2.0369293689727783,73,7813.0,6.532882213592529,123,9943.0
9940,0.25138014554977417,13.52810001373291,226,7813.0,8.455748558044434,137,9943.0
9950,0.2509656548500061,20.873395919799805,346,7813.0,14.172223091125488,409,9943.0
9960,0.2511683702468872,19.5152587890625,315,7813.0,30.736082077026367,532,9943.0
9970,0.2514783442020416,17.123497009277344,296,7813.0,35.761680603027344,447,9943.0
9980,0.251750111579895,16.07151985168457,127,7813.0,27.425954818725586,488,9943.0
9990,0.25208890438079834,9.353644371032715,157,7813.0,21.945920944213867,396,9943.0
10000,0.25195446610450745,3.780942916870117,51,7813.0,16.97486114501953,152,9943.0
10010,0.25226184725761414,4.6645097732543945,92,7813.0,3.6145966053009033,-140,9943.0
10020,0.25261861085891724,6.935932159423828,127,7813.0,-17.60012435913086,-366,9943.0
10030,0.2527467608451843,3.2946252822875977,2,7813.0,-35.616519927978516,-686,9943.0
10040,0.25314757227897644,1.5576015710830688,-37,7813.0,-41.24406433105469,-745,9943.0
10050,0.25319671630859375,-3.898350954055786,-86,7813.0,-45.103736877441406,-630,9943.0
10060,0.2535563111305237,-9.001561164855957,-52,7813.0,-40.86577606201172,-621,9943.0
10070,0.2539549469947815,-4.420315265655518,-110,7813.0,-37.830265045166016,-708,9943.0
10080,0.25350114703178406,-2.8279945850372314,18,7813.0,-36.329620361328125,-479,9943.0
10090,0.2536538541316986,-2.6748716831207275,-52,7813.0,-25.284423828125,-378,9943.0
10100,0.25410720705986023,-0.9404258728027344,-84,7813.0,-7.487916469573975,5,9943.0
10110,0.25461262464523315,-1.8925058841705322,8,7813.0,10.739489555358887,445,9943.0
10120,0.2554148733615875,-0.9387447834014893,-23,7813.0,29.64406967163086,445,9943.0
10130,0.25525328516960144,12.53003215789795,256,7813.0,55.414466857910156,1030,9943.0
10140,0.2561296820640564,33.23451614379883,657,7813.0,78.26725006103516,1477,9943.0
10150,0.25690415501594543,39.87617874145508,691,7813.0,90.65703582763672,1529,9943.0
10160,0.2588018774986267,38.93199157714844,583,7813.0,78.79462432861328,1072,9943.0
10170,0.26026299595832825,31.333871841430664,460,7813.0,44.12839126586914,573,9943.0
10180,0.26132163405418396,18.082435607910156,214,7813.0,8.208378791809082,3,9943.0
10190,0.26257622241973877,1.8792985677719116,11,7813.0,-18.84552574157715,-313,9943.0
10200,0.2636558413505554,-13.599662780761719,-314,7813.0,-33.8292121887207,-616,9943.0
10210,0.2648138701915741,-28.726112365722656,-562,7813.0,-44.86717224121094,-893,9943.0
10220,0.2657957971096039,-41.666561126708984,-708,7813.0,-57.69156265258789,-925,9943.0
10230,0.2665795683860779,-47.47480773925781,-716,7813.0,-69.92405700683594,-1168,9943.0
10240,0.2680383324623108,-45.28103256225586,-781,7813.0,-73.8089599609375,-1337,9943.0
10250,0.2687681019306183,-34.73979568481445,-468,7813.0,-65.75948333740234,-1029,9943.0
10260,0.26788991689682007,-16.307466506958008,-105,7813.0,-51.13826370239258,-738,9943.0
10270,0.2691500186920166,0.6086605191230774,31,7813.0,-27.386077880859375,-338,9943.0
10280,0.2702471613883972,13.75718879699707,305,7813.0,0.5758493542671204,204,9943.0
10290,0.2715955674648285,25.50634765625,388,7813.0,27.07046127319336,443,9943.0
10300,0.27121105790138245,24.63435935974121,356,7813.0,49.140098571777344,923,9943.0
10310,0.27249348163604736,15.084619522094727,278,7813.0,66.22018432617188,1056,9943.0
10320,0.27375006675720215,16.254985809326172,269,7813.0,66.92745208740234,954,9943.0
10330,0.27577733993530273,24.183998107910156,456,7813.0,52.65604782104492,877,9943.0
10340,0.27696526050567627,25.500913619995117,456,7813.0,35.600311279296875,508,9943.0
10350,0.2788547873497009,20.184051513671875,228,7813.0,18.217378616333008,115,9943.0
10360,0.2802371084690094,5.858338832855225,16,7813.0,-12.462397575378418,-304,9943.0
10370,0.2816755473613739,-12.797579765319824,-196,7813.0,-41.873207092285156,-838,9943.0
10380,0.2829669415950775,-27.037744522094727,-545,7813.0,-63.32388687133789,-1127,9943.0
10390,0.28542760014533997,-40.21330261230469,-622,7813.0,-68.3927230834961,-1039,9943.0
10400,0.28658998012542725,-41.03092575073242,-744,7813.0,-55.44783401489258,-926,9943.0
10410,0.2878298759460449,-36.39471435546875,-530,7813.0,-40.4377326965332,-458,9943.0
10420,0.2888799011707306,-28.787353515625,-416,7813.0,-18.45836067199707,-251,9943.0
10430,0.2895036041736603,-14.927084922790527,-171,7813.0,8.36633586883545,312,9943.0
10440,0.290679931640625,0.832101583480835,40,7813.0,26.377273559570312,362,9943.0
10450,0.29174578189849854,7.425106048583984,121,7813.0,34.54283142089844,684,9943.0
10460,0.29315251111984253,11.333293914794922,233,7813.0,46.34043884277344,793,9943.0
10470,0.29448410868644714,7.62443733215332,96,7813.0,51.051910400390625,819,9943.0
10480,0.29539087414741516,13.075817108154297,368,7813.0,39.63301086425781,664,9943.0
10490,0.2968617379665375,29.466341018676758,620,7813.0,27.622926712036133,341,9943.0
10500,0.29800552129745483,40.80900573730469,625,7813.0,14.908565521240234,92,9943.0
10510,0.2990875840187073,37.059059143066406,641,7813.0,0.05232727527618408,2,9943.0
10520,0.3002209961414337,33.792240142822266,475,7813.0,-16.485397338867188,-408,9943.0
10530,0.3013118803501129,26.957643508911133,394,7813.0,-22.89208984375,-374,9943.0
10540,0.301952987909317,13.01998519897461,88,7813.0,-27.468271255493164,-554,9943.0
10550,0.3026024103164673,-5.1824774742126465,-107,7813.0,-31.368154525756836,-430,9943.0
10560,0.3029497563838959,-18.178749084472656,-414,7813.0,-30.72704315185547,-521,9943.0
10570,0.30231618881225586,-25.17191505432129,-384,7813.0,-22.338499069213867,-312,9943.0
10580,0.30248335003852844,-22.98946762084961,-385,7813.0,-10.716710090637207,-123,9943.0
10590,0.30254215002059937,-13.557652473449707,-100,7813.0,0.4089052975177765,86,9943.0
10600,0.30258411169052124,-5.945532321929932,-82,7813.0,1.3640626668930054,-26,9943.0
10610,0.30202731490135193,1.5879333019256592,57,7813.0,-0.4754392206668854,84,9943.0
10620,0.3019658923149109,2.0415351390838623,44,7813.0,-2.956624984741211,-168,9943.0
10630,0.3018670678138733,-2.2895100116729736,-142,7813.0,-3.27602219581604,44,9943.0
10640,0.3018310070037842,-10.586366653442383,-178,7813.0,9.818410873413086,185,9943.0
10650,0.3018083870410919,-7.362462997436523,-85,7813.0,28.215871810913086,619,9943.0
10660,0.3019672930240631,5.611708641052246,251,7813.0,32.8052864074707,451,9943.0
10670,0.30189353227615356,25.2825984954834,495,7813.0,25.874147415161133,427,9943.0
10680,0.30153971910476685,41.469181060791016,740,7813.0,25.644094467163086,526,9943.0
10690,0.3011965751647949,44.91962814331055,695,7813.0,21.430574417114258,291,9943.0
10700,0.3004862070083618,31.36655616760254,370,7813.0,12.26143741607666,207,9943.0
10710,0.29998767375946045,9.835114479064941,154,7813.0,4.059590816497803,85,9943.0
10720,0.299446165561676,-11.654977798461914,-305,7813.0,-8.131094932556152,-255,9943.0
10730,0.29898592829704285,-29.054859161376953,-556,7813.0,-25.66315269470215,-379,9943.0
10740,0.29923567175865173,-38.82777786254883,-618,7813.0,-32.07135009765625,-457,9943.0
10750,0.29848623275756836,-37.803688049316406,-614,7813.0,-33.07426452636719,-661,9943.0
10760,0.29762518405914307,-32.669376373291016,-546,7813.0,-34.8766975402832,-582,9943.0
10770,0.29714328050613403,-20.860549926757812,-265,7813.0,-32.467926025390625,-497,9943.0
10780,0.29668542742729187,-4.183975696563721,43,7813.0,-33.445674896240234,-548,9943.0
10790,0.2961392402648926,9.291340827941895,105,7813.0,-26.27886199951172,-392,9943.0
10800,0.2956317365169525,14.91132640838623,310,7813.0,-22.2445011138916,-317,9943.0
10810,0.29543641209602356,19.141477584838867,352,7813.0,-17.506420135498047,-362,9943.0
10820,0.29539576172828674,18.555248260498047,231,7813.0,-7.502970218658447,-12,9943.0
10830,0.2944560647010803,0.4238148629665375,-8,7813.0,5.914005756378174,186,9943.0
10840,0.29451680183410645,-11.302632331848145,-267,7813.0,17.792133331298828,250,9943.0
10850,0.294559121131897,-12.13008975982666,-209,7813.0,33.579402923583984,679,9943.0
10860,0.29466426372528076,1.0501809120178223,109,7813.0,41.4026985168457,736,9943.0
10870,0.2947389483451843,10.565902709960938,130,7813.0,43.89315414428711,621,9943.0
10880,0.29466962814331055,3.093740224838257,-89,7813.0,37.144813537597656,600,9943.0
10890,0.29469725489616394,-18.0401554107666,-391,7813.0,30.942861557006836,578,9943.0
10900,0.294899582862854,-44.48052978515625,-830,7813.0,24.04743766784668,340,9943.0
10910,0.2948545217514038,-61.52570724487305,-1065,7813.0,7.382255554199219,-18,9943.0
10920,0.29679054021835327,-64.3202133178711,-989,7813.0,-15.063151359558105,-436,9943.0
10930,0.29701539874076843,-38.775054931640625,-451,7813.0,-41.319114685058594,-834,9943.0
10940,0.29770874977111816,7.706245422363281,327,7813.0,-62.66121292114258,-1042,9943.0
10950,0.2984875440597534,46.9674072265625,923,7813.0,-63.90251922607422,-1066,9943.0
10960,0.29861074686050415,72.42115020751953,1257,7813.0,-61.834564208984375,-1010,9943.0
10970,0.29937711358070374,78.5204086303711,1271,7813.0,-58.750091552734375,-866,9943.0
10980,0.2999030351638794,63.026947021484375,890,7813.0,-39.70610046386719,-679,9943.0
10990,0.303228497505188,41.86351013183594,532,7813.0,-23.9136962890625,-268,9943.0
11000,0.3047787845134735,21.639083862304688,335,7813.0,-3.4891552925109863,102,9943.0
11010,0.30511772632598877,18.22047996520996,236,7813.0,25.631793975830078,684,9943.0
11020,0.30670180916786194,7.735755920410156,80,7813.0,55.22228240966797,968,9943.0
11030,0.3079124987125397,4.5368547439575195,75,7813.0,80.18938446044922,1391,9943.0
11040,0.3091943562030792,3.3392975330352783,81,7813.0,92.16949462890625,1496,9943.0
11050,0.31007620692253113,-0.3076200783252716,-78,7813.0,88.61744689941406,1403,9943.0
11060,0.3109371066093445,-3.193638563156128,-88,7813.0,77.59386444091797,1260,9943.0
11070,0.31336674094200134,-10.369100570678711,-173,7813.0,52.29156494140625,683,9943.0
11080,0.3140536844730377,-20.29383659362793,-384,7813.0,21.629629135131836,208,9943.0
11090,0.31504178047180176,-24.125341415405273,-431,7813.0,-8.582420349121094,-320,9943.0
11100,0.31574511528015137,-23.611845016479492,-320,7813.0,-34.777828216552734,-622,9943.0
11110,0.3162091374397278,-15.9742431640625,-146,7813.0,-54.97891616821289,-951,9943.0
11120,0.31673794984817505,-13.76826000213623,-310,7813.0,-62.15101623535156,-1024,9943.0
11130,0.3170396387577057,-16.740570068359375,-253,7813.0,-53.87944412231445,-771,9943.0
11140,0.31691670417785645,-18.272321701049805,-353,7813.0,-43.23725891113281,-768,9943.0
11150,0.3180563747882843,-15.79736328125,-248,7813.0,-30.905012130737305,-335,9943.0
11160,0.3184996545314789,-17.664262771606445,-347,7813.0,-10.82402515411377,-157,9943.0
11170,0.31921836733818054,-19.71819305419922,-392,7813.0,1.9308452606201172,237,9943.0
11180,0.3170594573020935,-19.699914932250977,-316,7813.0,20.500431060791016,421,9943.0
11190,0.3176426291465759,-14.086945533752441,-248,7813.0,39.31060791015625,881,9943.0
11200,0.3181045949459076,-1.210119366645813,204,7813.0,61.05171203613281,1146,9943.0
11210,0.3185097277164459,18.383798599243164,367,7813.0,71.61856842041016,1037,9943.0
11220,0.3186224699020386,36.55027770996094,646,7813.0,66.96575927734375,1052,9943.0
11230,0.31882238388061523,48.27680587768555,777,7813.0,48.60353088378906,753,9943.0
11240,0.31869783997535706,40.22396469116211,595,7813.0,26.081398010253906,209,9943.0
11250,0.3183623254299164,18.256244659423828,69,7813.0,6.936041831970215,-115,9943.0
11260,0.31818312406539917,-6.282644271850586,-198,7813.0,-12.462648391723633,-218,9943.0
11270,0.3192864954471588,-27.859445571899414,-539,7813.0,-23.080530166625977,-478,9943.0
11280,0.3189871907234192,-46.323551177978516,-879,7813.0,-32.064002990722656,-715,9943.0
11290,0.3186746835708618,-47.9743537902832,-771,7813.0,-42.28038787841797,-741,9943.0
11300,0.31826168298721313,-33.10563659667969,-302,7813.0,-53.44789505004883,-901,9943.0
11310,0.3181013762950897,-3.4291231632232666,35,7813.0,-61.10346603393555,-1069,9943.0
11320,0.3192557692527771,24.356143951416016,440,7813.0,-63.1883659362793,-1010,9943.0
11330,0.31954219937324524,40.03463363647461,770,7813.0,-49.43223571777344,-629,9943.0
11340,0.3196753263473511,55.43587112426758,895,7813.0,-26.293458938598633,-410,9943.0
11350,0.32007381319999695,56.616539001464844,825,7813.0,2.8897244930267334,296,9943.0
11360,0.31915929913520813,37.07285690307617,513,7813.0,28.09237289428711,529,9943.0
11370,0.3195130527019501,12.44054126739502,117,7813.0,53.338600158691406,988,9943.0
11380,0.31968235969543457,-5.241539478302002,-106,7813.0,70.30371856689453,1111,9943.0
11390,0.3195875287055969,-4.913090705871582,-84,7813.0,74.70459747314453,1220,9943.0
11400,0.322295218706131,5.080645561218262,137,7813.0,55.50002670288086,924,9943.0
11410,0.322490930557251,10.704022407531738,149,7813.0,25.440488815307617,236,9943.0
11420,0.3228042721748352,2.3262805938720703,-44,7813.0,-9.57435131072998,-384,9943.0
11430,0.32347628474235535,-15.173243522644043,-306,7813.0,-40.45787048339844,-693,9943.0
11440,0.32369929552078247,-27.12493896484375,-422,7813.0,-55.197776794433594,-893,9943.0
11450,0.32460594177246094,-33.04871368408203,-612,7813.0,-56.459739685058594,-1084,9943.0
11460,0.3248647451400757,-37.064327239990234,-613,7813.0,-52.22916793823242,-721,9943.0
11470,0.32496142387390137,-34.468360900878906,-448,7813.0,-45.08557891845703,-745,9943.0
11480,0.3254939317703247,-30.276737213134766,-587,7813.0,-41.024417877197266,-694,9943.0
11490,0.32455122470855713,-26.38709831237793,-358,7813.0,-32.68400192260742,-386,9943.0
11500,0.32502636313438416,-10.68179988861084,-106,7813.0,-17.619041442871094,-233,9943.0
11510,0.3260422945022583,5.201528549194336,125,7813.0,5.767821788787842,276,9943.0
11520,0.32703855633735657,18.42369842529297,394,7813.0,32.048858642578125,601,9943.0
11530,0.32826292514801025,22.443859100341797,319,7813.0,50.84389877319336,791,9943.0
11540,0.32907959818840027,24.57904815673828,453,7813.0,56.848506927490234,1078,9943.0
11550,0.3297160565853119,26.33722686767578,461,7813.0,54.04561233520508,807,9943.0
11560,0.33071836829185486,23.11715316772461,308,7813.0,36.911739349365234,442,9943.0
11570,0.3309623599052429,12.402485847473145,220,7813.0,14.463603019714355,181,9943.0
11580,0.33055612444877625,-7.607676982879639,-192,7813.0,-11.68379020690918,-136,9943.0
11590,0.33098816871643066,-33.602596282958984,-695,7813.0,-23.81217384338379,-542,9943.0
11600,0.33091458678245544,-42.58405685424805,-774,7813.0,-41.23199462890625,-761,9943.0
11610,0.33119863271713257,-43.813446044921875,-706,7813.0,-52.13437271118164,-754,9943.0
11620,0.3295561671257019,-46.270545959472656,-744,7813.0,-51.48463821411133,-890,9943.0
11630,0.32932648062705994,-40.6654052734375,-654,7813.0,-49.24020767211914,-894,9943.0
11640,0.32970207929611206,-27.61084747314453,-317,7813.0,-49.709686279296875,-749,9943.0
11650,0.33007577061653137,-6.890638828277588,24,7813.0,-43.56471633911133,-638,9943.0
11660,0.33029893040657043,14.578536033630371,271,7813.0,-31.15334701538086,-386,9943.0
11670,0.32785165309906006,29.006149291992188,562,7813.0,-23.880996704101562,-323,9943.0
11680,0.3285146951675415,39.27497100830078,663,7813.0,-1.9163591861724854,-37,9943.0
11690,0.32906872034072876,48.59638977050781,847,7813.0,24.513694763183594,521,9943.0
11700,0.32956644892692566,52.52880096435547,832,7813.0,48.37541961669922,759,9943.0
11710,0.3274460434913635,46.38297653198242,690,7813.0,63.43307876586914,1180,9943.0
11720,0.32704243063926697,22.916393280029297,328,7813.0,70.00813293457031,1071,9943.0
11730,0.3278673589229584,-0.7602564096450806,-156,7813.0,58.72122573852539,896,9943.0
11740,0.32793617248535156,-26.669960021972656,-469,7813.0,24.511144638061523,315,9943.0
11750,0.32720303535461426,-45.41547775268555,-812,7813.0,-15.205662727355957,-432,9943.0
11760,0.32702895998954773,-49.80598831176758,-845,7813.0,-45.9549560546875,-945,9943.0
11770,0.32680532336235046,-43.68943405151367,-716,7813.0,-59.62724304199219,-913,9943.0
11780,0.3267129361629486,-32.129310607910156,-380,7813.0,-53.38880157470703,-775,9943.0
11790,0.3263983130455017,-7.567275524139404,-15,7813.0,-41.374916076660156,-643,9943.0
11800,0.3255258798599243,14.011518478393555,194,7813.0,-20.98491859436035,-300,9943.0
11810,0.3261515498161316,24.689319610595703,418,7813.0,-0.8599839210510254,271,9943.0
11820,0.32663780450820923,20.841800689697266,328,7813.0,21.15181541442871,316,9943.0
11830,0.32723701000213623,16.040102005004883,149,7813.0,31.357961654663086,535,9943.0
11840,0.32631221413612366,6.740739822387695,81,7813.0,30.193185806274414,499,9943.0
11850,0.3269749879837036,-1.243730068206787,-64,7813.0,33.67101287841797,490,9943.0
11860,0.32769879698753357,2.470693588256836,128,7813.0,42.203765869140625,854,9943.0
11870,0.32838883996009827,15.0780029296875,323,7813.0,52.191219329833984,841,9943.0
11880,0.328755259513855,23.669750213623047,324,7813.0,43.803558349609375,513,9943.0
11890,0.33018338680267334,21.696395874023438,295,7813.0,33.49837875366211,454,9943.0
11900,0.330657958984375,12.123544692993164,162,7813.0,13.322260856628418,88,9943.0
11910,0.3311101496219635,-4.283040523529053,-296,7813.0,1.3919209241867065,-112,9943.0
11920,0.3315121531486511,-25.351055145263672,-480,7813.0,-4.52363395690918,16,9943.0
11930,0.33480870723724365,-36.06685256958008,-639,7813.0,-14.570329666137695,-409,9943.0
11940,0.3351021707057953,-43.44964599609375,-747,7813.0,-29.49094009399414,-567,9943.0
11950,0.33513179421424866,-36.38062286376953,-481,7813.0,-31.313426971435547,-396,9943.0
11960,0.33528491854667664,-18.709556579589844,-319,7813.0,-28.86154556274414,-556,9943.0
11970,0.3349883556365967,-5.5977396965026855,-47,7813.0,-21.085777282714844,-243,9943.0
11980,0.3361785113811493,2.417248249053955,56,7813.0,-4.618335723876953,-100,9943.0
11990,0.3361533582210541,12.673879623413086,257,7813.0,6.5228400230407715,237,9943.0
12000,0.33644863963127136,21.368328094482422,430,7813.0,12.090071678161621,278,9943.0
12010,0.3371870219707489,27.6214542388916,392,7813.0,14.238791465759277,173,9943.0
12020,0.338509202003479,27.837528228759766,490,7813.0,21.367704391479492,521,9943.0
12030,0.33913224935531616,30.8957462310791,586,7813.0,31.16838836669922,455,9943.0
12040,0.3397899866104126,37.19492721557617,580,7813.0,36.12510299682617,585,9943.0
12050,0.3402630686759949,37.260257720947266,664,7813.0,34.25019454956055,587,9943.0
12060,0.341888427734375,29.99827766418457,452,7813.0,43.06480407714844,703,9943.0
12070,0.3422820270061493,16.805015563964844,226,7813.0,44.257266998291016,737,9943.0
12080,0.3422788679599762,4.232580184936523,-68,7813.0,35.367794036865234,476,9943.0
12090,0.342215359210968,-8.239317893981934,-258,7813.0,25.557180404663086,365,9943.0
12100,0.3423852324485779,-23.224729537963867,-372,7813.0,12.763707160949707,157,9943.0
12110,0.34253188967704773,-27.416337966918945,-482,7813.0,-11.194347381591797,-414,9943.0
12120,0.34226348996162415,-25.664979934692383,-520,7813.0,-27.177623748779297,-404,9943.0
12130,0.3418203592300415,-29.91441535949707,-413,7813.0,-26.254194259643555,-340,9943.0
12140,0.34114688634872437,-26.12212562561035,-277,7813.0,-24.32669448852539,-443,9943.0
12150,0.3419049382209778,-17.91435432434082,-317,7813.0,-26.49083137512207,-524,9943.0
12160,0.3412553369998932,-8.65041446685791,-60,7813.0,-27.71881103515625,-399,9943.0
12170,0.3405003547668457,0.8440757989883423,71,7813.0,-25.86789321899414,-446,9943.0
12180,0.3405206799507141,0.7972860336303711,-35,7813.0,-29.629039764404297,-583,9943.0
12190,0.34115123748779297,1.4926567077636719,-7,7813.0,-27.68000030517578,-362,9943.0
12200,0.34073975682258606,-2.5330889225006104,-5,7813.0,-10.932799339294434,-136,9943.0
12210,0.340302973985672,-5.407850742340088,-127,7813.0,-3.7725493907928467,-163,9943.0
12220,0.34033071994781494,-1.016417384147644,-15,7813.0,3.005889415740967,160,9943.0
12230,0.3401253819465637,2.8658254146575928,113,7813.0,11.90054702758789,280,9943.0
12240,0.3393474221229553,8.993568420410156,206,7813.0,19.034244537353516,314,9943.0
12250,0.33889850974082947,16.0795955657959,266,7813.0,20.504634857177734,209,9943.0
12260,0.33857327699661255,25.726863861083984,448,7813.0,15.30604076385498,196,9943.0
12270,0.3379490077495575,24.374109268188477,411,7813.0,12.694597244262695,234,9943.0
12280,0.33790290355682373,24.17005157470703,383,7813.0,10.224126815795898,291,9943.0
12290,0.3371677100658417,19.10055160522461,313,7813.0,3.1234261989593506,-20,9943.0
12300,0.33661186695098877,14.05073356628418,145,7813.0,-5.884920597076416,-204,9943.0
12310,0.33591392636299133,8.272198677062988,92,7813.0,-13.74338436126709,-303,9943.0
12320,0.3352973461151123,7.618360996246338,50,7813.0,-17.622112274169922,-337,9943.0
12330,0.3353886008262634,-5.467309951782227,-89,7813.0,-30.088607788085938,-469,9943.0
12340,0.3349938988685608,-20.976654052734375,-409,7813.0,-42.89504623413086,-943,9943.0
12350,0.33458617329597473,-33.45536804199219,-591,7813.0,-56.17433547973633,-875,9943.0
12360,0.334221750497818,-44.15462875366211,-809,7813.0,-47.34746551513672,-563,9943.0
12370,0.33340150117874146,-56.4378547668457,-957,7813.0,-32.59416580200195,-522,9943.0
12380,0.33293452858924866,-46.01156997680664,-564,7813.0,-15.499650955200195,-207,9943.0
12390,0.3337407410144806,-3.782285451889038,123,7813.0,-0.6717506647109985,90,9943.0
12400,0.3340858817100525,32.85615921020508,769,7813.0,15.751028060913086,419,9943.0
12410,0.3331034481525421,62.124568939208984,1060,7813.0,27.754159927368164,468,9943.0
12420,0.33320674300193787,63.14022445678711,1032,7813.0,39.8943977355957,695,9943.0
12430,0.3333601951599121,53.02692413330078,805,7813.0,54.5081901550293,761,9943.0
12440,0.33368831872940063,34.30949020385742,400,7813.0,51.21577835083008,844,9943.0
12450,0.33373957872390747,17.238208770751953,312,7813.0,41.03720474243164,652,9943.0
12460,0.3355468213558197,7.225735187530518,34,7813.0,26.145442962646484,331,9943.0
12470,0.33606040477752686,-4.755585193634033,-98,7813.0,3.334153652191162,-134,9943.0
12480,0.3365703523159027,-12.267239570617676,-266,7813.0,-16.40163230895996,-404,9943.0
12490,0.3371866047382355,-17.552982330322266,-329,7813.0,-36.564510345458984,-693,9943.0
12500,0.338925302028656,-18.64229393005371,-344,7813.0,-52.026947021484375,-852,9943.0
12510,0.3394480049610138,-24.236589431762695,-468,7813.0,-62.097721099853516,-1035,9943.0
12520,0.34015390276908875,-29.949724197387695,-453,7813.0,-76.36515045166016,-1244,9943.0
12530,0.3408184051513672,-31.730443954467773,-596,7813.0,-67.52294921875,-1120,9943.0
12540,0.3416007161140442,-24.99800682067871,-281,7813.0,-47.62232208251953,-518,9943.0
12550,0.34185558557510376,-6.312969207763672,71,7813.0,-14.535097122192383,-22,9943.0
12560,0.3429131805896759,12.467126846313477,264,7813.0,21.786001205444336,562,9943.0
12570,0.34419238567352295,23.631803512573242,451,7813.0,56.03631591796875,1192,9943.0
12580,0.3452543318271637,26.578340530395508,465,7813.0,85.4984359741211,1442,9943.0
12590,0.34537968039512634,30.93359375,512,7813.0,93.53678131103516,1395,9943.0
12600,0.3461534380912781,37.43311309814453,650,7813.0,75.46603393554688,1118,9943.0
12610,0.3467872738838196,34.975440979003906,490,7813.0,50.9310417175293,661,9943.0
12620,0.34751594066619873,22.071622848510742,236,7813.0,21.700435638427734,142,9943.0
12630,0.3503941297531128,3.732091188430786,43,7813.0,-5.139220237731934,-135,9943.0
12640,0.35127872228622437,-21.012540817260742,-316,7813.0,-29.157381057739258,-454,9943.0
12650,0.3520148694515228,-31.837697982788086,-651,7813.0,-39.3772087097168,-770,9943.0
12660,0.3527839481830597,-43.98430252075195,-792,7813.0,-39.80974197387695,-541,9943.0
12670,0.353363037109375,-49.3632926940918,-734,7813.0,-37.461585998535156,-553,9943.0
12680,0.3547215759754181,-43.94538879394531,-729,7813.0,-41.06909942626953,-892,9943.0
12690,0.3554871380329132,-39.15882873535156,-562,7813.0,-51.883907318115234,-764,9943.0
12700,0.356905460357666,-26.111894607543945,-241,7813.0,-56.39896774291992,-945,9943.0
12710,0.3579096794128418,-4.436239719390869,-86,7813.0,-46.52177810668945,-658,9943.0
12720,0.35689353942871094,12.558797836303711,326,7813.0,-9.433835983276367,71,9943.0
12730,0.35810041427612305,28.453821182250977,470,7813.0,18.906410217285156,409,9943.0
12740,0.35913828015327454,37.027984619140625,656,7813.0,39.73758316040039,727,9943.0
12750,0.35996973514556885,34.346317291259766,459,7813.0,56.71812438964844,914,9943.0
12760,0.36138230562210083,28.261638641357422,486,7813.0,58.248233795166016,1132,9943.0
12770,0.3604719936847687,16.573238372802734,225,7813.0,58.38801574707031,797,9943.0
12780,0.3607475459575653,3.0265846252441406,-36,7813.0,47.61069107055664,767,9943.0
12790,0.36091148853302,-7.596649169921875,-34,7813.0,26.71173667907715,347,9943.0
12800,0.36127349734306335,-7.430155277252197,-194,7813.0,0.7569364309310913,-170,9943.0
12810,0.3615334630012512,-10.971317291259766,-283,7813.0,-19.201656341552734,-338,9943.0
12820,0.3613486588001251,-14.433884620666504,-231,7813.0,-36.36851119995117,-706,9943.0
12830,0.3612622022628784,-23.778120040893555,-455,7813.0,-52.099143981933594,-968,9943.0
12840,0.36105069518089294,-26.32292366027832,-408,7813.0,-60.543243408203125,-945,9943.0
12850,0.3609168231487274,-23.59298324584961,-355,7813.0,-67.48889923095703,-1158,9943.0
12860,0.3608012795448303,-20.486202239990234,-328,7813.0,-68.73070526123047,-1066,9943.0
12870,0.36074912548065186,-6.185314655303955,72,7813.0,-54.7433967590332,-842,9943.0
12880,0.36138883233070374,19.130109786987305,295,7813.0,-29.428359985351562,-294,9943.0
12890,0.3613967001438141,32.63462829589844,646,7813.0,-4.89738130569458,31,9943.0
12900,0.3589830994606018,32.90421676635742,396,7813.0,28.84065055847168,653,9943.0
12910,0.35879361629486084,16.06586456298828,205,7813.0,54.41737747192383,907,9943.0
12920,0.3584451973438263,-0.01475277729332447,-53,7813.0,75.95074462890625,1404,9943.0
12930,0.3578432500362396,-9.194772720336914,-116,7813.0,80.59181213378906,1141,9943.0
12940,0.3576616048812866,-8.281418800354004,-166,7813.0,65.10826873779297,942,9943.0
12950,0.3572468161582947,-0.4931577444076538,118,7813.0,30.3745174407959,431,9943.0
12960,0.35669079422950745,8.690216064453125,212,7813.0,-2.0730879306793213,-301,9943.0
12970,0.3559577763080597,6.631995677947998,8,7813.0,-34.389286041259766,-747,9943.0
12980,0.355327844619751,-8.970396995544434,-177,7813.0,-54.3944206237793,-834,9943.0
12990,0.3566282093524933,-26.820037841796875,-516,7813.0,-61.892642974853516,-1050,9943.0
13000,0.3559912443161011,-39.67529296875,-676,7813.0,-54.908485412597656,-792,9943.0
13010,0.355952650308609,-37.62839126586914,-542,7813.0,-38.363895416259766,-577,9943.0
13020,0.35576242208480835,-26.484201431274414,-448,7813.0,-23.67074966430664,-220,9943.0
13030,0.3542814552783966,-20.73735809326172,-285,7813.0,0.39723047614097595,143,9943.0
13040,0.3541315793991089,-19.995342254638672,-308,7813.0,17.76774024963379,361,9943.0
13050,0.35403838753700256,-14.62045955657959,-183,7813.0,35.70417404174805,679,9943.0
13060,0.35375308990478516,-10.906972885131836,-125,7813.0,44.22916030883789,836,9943.0
13070,0.3536737561225891,3.161160945892334,177,7813.0,40.772457122802734,617,9943.0
13080,0.35347411036491394,26.02948570251465,482,7813.0,42.661556243896484,677,9943.0
13090,0.35330483317375183,40.658287048339844,730,7813.0,45.027366638183594,815,9943.0
13100,0.35291263461112976,48.45316696166992,837,7813.0,45.07176971435547,685,9943.0
13110,0.3522852659225464,52.17513656616211,907,7813.0,27.90283203125,339,9943.0
13120,0.3539082407951355,55.828487396240234,834,7813.0,-1.356312870979309,-257,9943.0
13130,0.35383352637290955,52.01650619506836,742,7813.0,-26.114830017089844,-536,9943.0
13140,0.35352376103401184,36.720909118652344,470,7813.0,-29.7749080657959,-366,9943.0
13150,0.3529735207557678,10.960494041442871,107,7813.0,-22.4949951171875,-338,9943.0
13160,0.3545006811618805,-16.47846031188965,-431,7813.0,-3.3215816020965576,70,9943.0
13170,0.35439831018447876,-34.91004180908203,-609,7813.0,9.14109992980957,224,9943.0
13180,0.35449784994125366,-41.41780090332031,-690,7813.0,11.139486312866211,172,9943.0
13190,0.3544781804084778,-35.825862884521484,-594,7813.0,5.782663345336914,41,9943.0
13200,0.3545996844768524,-31.024293899536133,-450,7813.0,-6.074799537658691,-19,9943.0
13210,0.35590860247612,-29.208097457885742,-441,7813.0,-8.780036926269531,-160,9943.0
13220,0.356205552816391,-29.463958740234375,-545,7813.0,-8.789283752441406,-255,9943.0
13230,0.3564521074295044,-21.900733947753906,-226,7813.0,-17.316268920898438,-306,9943.0
13240,0.3571152985095978,0.06772042065858841,136,7813.0,-12.281929016113281,-216,9943.0
13250,0.35854554176330566,17.4400577545166,276,7813.0,-7.367149829864502,-75,9943.0
13260,0.358950138092041,30.55084800720215,469,7813.0,1.9380947351455688,76,9943.0
13270,0.3593234419822693,38.278629302978516,678,7813.0,7.5926899909973145,209,9943.0
13280,0.3595397472381592,40.22025680541992,650,7813.0,9.375550270080566,128,9943.0
13290,0.36103376746177673,40.61326599121094,569,7813.0,12.537483215332031,197,9943.0
13300,0.36110159754753113,39.644229888916016,653,7813.0,9.178237915039062,281,9943.0
13310,0.3611955940723419,28.279199600219727,409,7813.0,15.541666030883789,188,9943.0
13320,0.3614515960216522,6.2351603507995605,-16,7813.0,22.925613403320312,410,9943.0
13330,0.36188140511512756,-23.0401554107666,-439,7813.0,29.07078742980957,538,9943.0
13340,0.3634975850582123,-48.52139663696289,-948,7813.0,25.488731384277344,296,9943.0
13350,0.3637753129005432,-62.930599212646484,-1000,7813.0,12.31700611114502,217,9943.0
13360,0.36438488960266113,-64.54965209960938,-1003,7813.0,-8.209124565124512,-266,9943.0
13370,0.36498570442199707,-64.06360626220703,-1010,7813.0,-20.71490478515625,-468,9943.0
13380,0.36547037959098816,-53.75218963623047,-810,7813.0,-30.041690826416016,-553,9943.0
13390,0.36610233783721924,-34.057491302490234,-418,7813.0,-38.59644317626953,-652,9943.0
13400,0.36658528447151184,-9.496932029724121,8,7813.0,-43.43528366088867,-667,9943.0
13410,0.3673376441001892,17.284849166870117,431,7813.0,-39.887752532958984,-648,9943.0
13420,0.367319792509079,44.5434684753418,718,7813.0,-24.76542091369629,-323,9943.0
13430,0.3677688241004944,52.01448440551758,885,7813.0,-3.902592420578003,74,9943.0
13440,0.3680661618709564,45.229488372802734,632,7813.0,18.32079315185547,313,9943.0
13450,0.36827778816223145,35.62117004394531,573,7813.0,41.59140396118164,882,9943.0
13460,0.3684895634651184,34.611915588378906,622,7813.0,46.472232818603516,610,9943.0
13470,0.3670760989189148,40.70970916748047,597,7813.0,30.795167922973633,449,9943.0
13480,0.366714209318161,37.249664306640625,648,7813.0,11.670821189880371,168,9943.0
13490,0.3665531575679779,26.93259620666504,277,7813.0,-0.8596910238265991,-171,9943.0
13500,0.3664213716983795,3.815404176712036,-46,7813.0,-14.458003044128418,-63,9943.0
13510,0.36451801657676697,-32.489524841308594,-712,7813.0,-14.053223609924316,-410,9943.0
13520,0.3644196689128876,-60.666954040527344,-1078,7813.0,-26.460351943969727,-409,9943.0
13530,0.3640504479408264,-67.7938232421875,-1016,7813.0,-49.47787857055664,-987,9943.0
13540,0.36412885785102844,-58.72199630737305,-948,7813.0,-60.93903350830078,-886,9943.0
13550,0.36418038606643677,-34.11781692504883,-285,7813.0,-35.17183303833008,-315,9943.0
13560,0.3615263104438782,15.309826850891113,449,7813.0,-9.767297744750977,-191,9943.0
13570,0.3621033728122711,51.59597396850586,888,7813.0,-3.0931739807128906,-38,9943.0
13580,0.36189278960227966,73.32564544677734,1348,7813.0,4.85173225402832,173,9943.0
13590,0.3616117537021637,75.19337463378906,1059,7813.0,26.869979858398438,523,9943.0
13600,0.36051827669143677,46.09634017944336,674,7813.0,50.88985061645508,887,9943.0
13610,0.36032119393348694,14.788888931274414,44,7813.0,53.52554702758789,755,9943.0
13620,0.3603666424751282,-7.230210781097412,-126,7813.0,38.46797561645508,661,9943.0
13630,0.3602356016635895,-19.094066619873047,-323,7813.0,18.667837142944336,107,9943.0
13640,0.358259379863739,-25.121583938598633,-543,7813.0,0.26857277750968933,6,9943.0
13650,0.3578529953956604,-25.322240829467773,-381,7813.0,-9.486584663391113,-91,9943.0
13660,0.35737693309783936,-18.24494743347168,-263,7813.0,-22.174022674560547,-476,9943.0
13670,0.35696351528167725,-10.614852905273438,-238,7813.0,-23.483121871948242,-386,9943.0
13680,0.3566025197505951,-13.682138442993164,-252,7813.0,-22.26549530029297,-313,9943.0
13690,0.3548837900161743,-26.553302764892578,-500,7813.0,-23.00676727294922,-359,9943.0
13700,0.35444244742393494,-44.715824127197266,-836,7813.0,-8.279911041259766,-196,9943.0
13710,0.3548372983932495,-51.64458465576172,-824,7813.0,3.7750747203826904,149,9943.0
13720,0.35478368401527405,-31.252277374267578,-370,7813.0,7.244147777557373,214,9943.0
13730,0.3535486161708832,7.530727386474609,452,7813.0,7.197856903076172,3,9943.0
13740,0.3533061444759369,61.06175994873047,1148,7813.0,-6.893892288208008,-167,9943.0
13750,0.35333383083343506,91.41736602783203,1590,7813.0,-12.224099159240723,-272,9943.0
13760,0.3529416620731354,96.06680297851562,1464,7813.0,-12.791521072387695,-197,9943.0
13770,0.3524671196937561,74.31592559814453,1049,7813.0,-4.804702281951904,83,9943.0
13780,0.3501840829849243,37.481483459472656,363,7813.0,9.631564140319824,215,9943.0
13790,0.35056135058403015,-0.8951946496963501,-180,7813.0,28.393959045410156,607,9943.0
13800,0.3498036563396454,-26.995630264282227,-479,7813.0,37.5178108215332,585,9943.0
13810,0.34908121824264526,-39.491004943847656,-746,7813.0,37.615726470947266,524,9943.0
13820,0.34991854429244995,-40.88029098510742,-596,7813.0,28.915029525756836,426,9943.0
13830,0.3493580222129822,-28.90850067138672,-371,7813.0,14.745670318603516,124,9943.0
13840,0.3487686812877655,-14.870503425598145,-200,7813.0,0.3376512825489044,79,9943.0
13850,0.34835460782051086,-16.037425994873047,-237,7813.0,-0.6845348477363586,-94,9943.0
13860,0.34807687997817993,-21.847925186157227,-394,7813.0,-2.645494222640991,-82,9943.0
13870,0.3483264148235321,-27.338590621948242,-432,7813.0,-6.072947978973389,-112,9943.0
13880,0.3483644127845764,-27.437028884887695,-570,7813.0,-16.004207611083984,-169,9943.0
13890,0.34851640462875366,-37.685028076171875,-610,7813.0,-2.44732928276062,78,9943.0
13900,0.34875085949897766,-32.38150405883789,-424,7813.0,1.6570873260498047,34,9943.0
13910,0.34856241941452026,-13.341824531555176,-110,7813.0,-4.20104455947876,-187,9943.0
13920,0.34903886914253235,16.751384735107422,436,7813.0,-6.0728254318237305,-94,9943.0
13930,0.34967041015625,53.127647399902344,975,7813.0,-1.977944254875183,-110,9943.0
13940,0.3499995172023773,60.22504806518555,871,7813.0,-6.954780101776123,-55,9943.0
13950,0.35155341029167175,43.29863357543945,634,7813.0,-5.364860534667969,66,9943.0
13960,0.35172438621520996,18.234399795532227,135,7813.0,1.6443692445755005,-17,9943.0
13970,0.35201820731163025,-13.071877479553223,-346,7813.0,8.678323745727539,179,9943.0
13980,0.35208362340927124,-31.84734535217285,-524,7813.0,19.124126434326172,389,9943.0
13990,0.3521489202976227,-38.471031188964844,-529,7813.0,27.098390579223633,365,9943.0
