timestamp,kalman.stateZ,gyro.x,gyro.xRaw,gyro.xVariance,gyro.y,gyro.yRaw,gyro.yVariance
0,0.30523815751075745,-1.5227466821670532,-31,7813.0,0.2916562259197235,3,9943.0
10,0.3053383529186249,-3.3958261013031006,-63,7813.0,-1.02994704246521,-14,9943.0
20,0.30423590540885925,-4.023015022277832,-67,7813.0,-1.2508965730667114,-18,9943.0
30,0.3042018413543701,-2.9020001888275146,-34,7813.0,-1.1933690309524536,-18,9943.0
40,0.3041290044784546,0.18994197249412537,15,7813.0,-1.1569483280181885,-24,9943.0
50,0.3040650486946106,2.545062303543091,49,7813.0,-0.16260825097560883,4,9943.0
60,0.3040485978126526,3.927346706390381,79,7813.0,1.593321681022644,43,9943.0
70,0.30493220686912537,3.5751001834869385,39,7813.0,6.349660873413086,136,9943.0
80,0.30489158630371094,0.6111540794372559,-3,7813.0,13.453700065612793,249,9943.0
90,0.30485838651657104,-1.89405357837677,-30,7813.0,19.86332130432129,345,9943.0
100,0.30479204654693604,-2.8726541996002197,-53,7813.0,23.687034606933594,394,9943.0
110,0.3039955496788025,-4.60968542098999,-72,7813.0,23.222055435180664,368,9943.0
120,0.3039112687110901,-3.190784215927124,-45,7813.0,21.29585838317871,338,9943.0
130,0.30368512868881226,-3.1384546756744385,-45,7813.0,18.943483352661133,294,9943.0
140,0.30381378531455994,-3.096947193145752,-48,7813.0,16.63904571533203,263,9943.0
150,0.30332043766975403,-0.3249835968017578,16,7813.0,13.937206268310547,209,9943.0
160,0.30346959829330444,4.227651119232178,80,7813.0,9.315316200256348,138,9943.0
170,0.30361923575401306,5.804409980773926,113,7813.0,4.542791366577148,42,9943.0
180,0.3038264214992523,7.426585674285889,113,7813.0,-2.4217329025268555,-67,9943.0
190,0.3039400577545166,6.52064323425293,104,7813.0,-11.087087631225586,-228,9943.0
200,0.30384770035743713,2.890444040298462,53,7813.0,-23.38740348815918,-451,9943.0
210,0.30392026901245117,3.15402889251709,43,7813.0,-40.25495147705078,-730,9943.0
220,0.30406299233436584,0.5743722319602966,8,7813.0,-59.11798095703125,-1047,9943.0
230,0.30405837297439575,0.7216516733169556,52,7813.0,-77.3131103515625,-1336,9943.0
240,0.3039064109325409,1.3917001485824585,-70,7813.0,-91.64459228515625,-1512,9943.0
250,0.3037102520465851,-0.8715211749076843,-38,7813.0,-90.23522186279297,-1349,9943.0
260,0.30317771434783936,-1.5006052255630493,-58,7813.0,-70.38954162597656,-1058,9943.0
270,0.3040115535259247,-2.765393018722534,-31,7813.0,-52.2990837097168,-735,9943.0
280,0.3032434284687042,1.368699550628662,-13,7813.0,-38.37413787841797,-497,9943.0
290,0.30422142148017883,0.9382154941558838,-13,7813.0,-25.236446380615234,-304,9943.0
300,0.3034168779850006,4.686653137207031,74,7813.0,-15.589302062988281,-273,9943.0
310,0.30383649468421936,2.023961067199707,31,7813.0,-13.255473136901855,-184,9943.0
320,0.303861141204834,0.5186201930046082,-25,7813.0,-10.979044914245605,-216,9943.0
330,0.3038635849952698,-0.3615057170391083,29,7813.0,-11.824360847473145,-207,9943.0
340,0.3038739860057831,0.1471213698387146,-43,7813.0,-15.411857604980469,-270,9943.0
350,0.3038283884525299,0.3415663540363312,57,7813.0,-19.79962158203125,-325,9943.0
360,0.30373629927635193,6.732322692871094,162,7813.0,-21.95530128479004,-404,9943.0
370,0.3051285147666931,12.556719779968262,183,7813.0,-24.19774627685547,-459,9943.0
380,0.30531442165374756,14.357707023620605,268,7813.0,-30.634723663330078,-454,9943.0
390,0.30539900064468384,9.184980392456055,137,7813.0,-32.287044525146484,-558,9943.0
400,0.30581995844841003,5.266053199768066,107,7813.0,-27.34939956665039,-512,9943.0
410,0.3056522011756897,3.5852224826812744,14,7813.0,-18.161293029785156,-226,9943.0
420,0.3090355098247528,-1.1148039102554321,-63,7813.0,-6.678986072540283,-52,9943.0
430,0.3092503249645233,-5.9190850257873535,-171,7813.0,8.865477561950684,355,9943.0
440,0.30942079424858093,-9.194083213806152,-222,7813.0,27.140527725219727,602,9943.0
450,0.3094502389431,-6.973182678222656,-137,7813.0,37.98240661621094,869,9943.0
460,0.312076598405838,-0.962967038154602,-33,7813.0,57.902923583984375,1085,9943.0
470,0.31228724122047424,4.303011417388916,44,7813.0,68.51959228515625,1317,9943.0
480,0.3125978410243988,5.023879051208496,55,7813.0,71.7442626953125,1355,9943.0
490,0.3123246431350708,7.4291181564331055,63,7813.0,63.58464431762695,1009,9943.0
500,0.3125284016132355,4.092130184173584,-6,7813.0,40.02599334716797,405,9943.0
510,0.31028664112091064,-5.19435977935791,-78,7813.0,7.021615028381348,-265,9943.0
520,0.3108670711517334,-10.908537864685059,-129,7813.0,-31.393604278564453,-827,9943.0
530,0.3113851547241211,-13.899279594421387,-159,7813.0,-60.57522201538086,-1134,9943.0
540,0.31206589937210083,-8.915882110595703,-115,7813.0,-80.6629867553711,-1389,9943.0
550,0.3096245527267456,-0.95503830909729,74,7813.0,-92.09823608398438,-1654,9943.0
560,0.3104049265384674,10.69318962097168,286,7813.0,-99.00255584716797,-1768,9943.0
570,0.31044894456863403,19.558895111083984,308,7813.0,-102.47711944580078,-1642,9943.0
580,0.3104948103427887,17.419816970825195,221,7813.0,-102.50777435302734,-1535,9943.0
590,0.3118200898170471,5.5335259437561035,110,7813.0,-74.3295669555664,-1067,9943.0
600,0.3138098120689392,-2.7104716300964355,-159,7813.0,-23.24297523498535,-73,9943.0
610,0.31495288014411926,-15.21396541595459,-221,7813.0,37.34192657470703,824,9943.0
620,0.3160195052623749,-18.894968032836914,-356,7813.0,86.60670471191406,1672,9943.0
630,0.3171595335006714,-14.266111373901367,-243,7813.0,126.46929931640625,2155,9943.0
640,0.3178948163986206,-11.565716743469238,-146,7813.0,146.15260314941406,2554,9943.0
650,0.31821194291114807,-3.3527824878692627,-47,7813.0,155.78439331054688,2607,9943.0
660,0.31857022643089294,2.286532163619995,87,7813.0,148.73672485351562,2376,9943.0
670,0.3177303671836853,12.423056602478027,114,7813.0,120.66709899902344,1874,9943.0
680,0.3148408532142639,11.696392059326172,8,7813.0,83.55152130126953,1154,9943.0
690,0.3149248957633972,0.7837061882019043,-130,7813.0,35.678131103515625,292,9943.0
700,0.31506961584091187,-6.586760520935059,-92,7813.0,-16.512187957763672,-671,9943.0
710,0.31658244132995605,-11.701948165893555,-179,7813.0,-71.0903549194336,-1492,9943.0
720,0.3145870566368103,-7.246318817138672,-101,7813.0,-117.9665298461914,-2281,9943.0
730,0.31586307287216187,-2.8081135749816895,83,7813.0,-152.46438598632812,-2791,9943.0
740,0.31672918796539307,7.060722827911377,190,7813.0,-171.8060760498047,-2939,9943.0
750,0.31669583916664124,16.706064224243164,309,7813.0,-187.52972412109375,-3109,9943.0
760,0.3180793821811676,18.600831985473633,344,7813.0,-196.36509704589844,-3251,9943.0
770,0.3193489909172058,19.216312408447266,243,7813.0,-196.34869384765625,-2878,9943.0
780,0.32005080580711365,20.813077926635742,339,7813.0,-173.54196166992188,-2730,9943.0
790,0.3196444809436798,13.795775413513184,135,7813.0,-119.80992126464844,-1659,9943.0
800,0.3210154175758362,-3.1909682750701904,-67,7813.0,-45.49451446533203,-325,9943.0
810,0.33407843112945557,-17.009302139282227,-352,7813.0,35.727027893066406,798,9943.0
820,0.33671829104423523,-20.107561111450195,-340,7813.0,99.87964630126953,1943,9943.0
830,0.3402332067489624,-17.799623489379883,-250,7813.0,154.9112548828125,2829,9943.0
840,0.3425924777984619,-14.633837699890137,-241,7813.0,197.11383056640625,3385,9943.0
850,0.3436116576194763,-12.033522605895996,-221,7813.0,214.6303253173828,3466,9943.0
860,0.3401600420475006,-6.083704948425293,-97,7813.0,210.04067993164062,3388,9943.0
870,0.34072962403297424,0.8091599941253662,2,7813.0,185.21783447265625,2939,9943.0
880,0.3413543701171875,2.8014438152313232,123,7813.0,149.81861877441406,2224,9943.0
890,0.34443390369415283,7.641996383666992,94,7813.0,98.5404281616211,1363,9943.0
900,0.3304443657398224,5.506312370300293,170,7813.0,36.60761642456055,245,9943.0
910,0.331966757774353,5.363506317138672,113,7813.0,-30.05158233642578,-857,9943.0
920,0.33401724696159363,0.6911816596984863,7,7813.0,-96.09151458740234,-1824,9943.0
930,0.3359978199005127,-0.5621499419212341,-64,7813.0,-153.619140625,-2541,9943.0
940,0.32921284437179565,-1.6588134765625,-35,7813.0,-184.4644317626953,-3068,9943.0
950,0.3300907611846924,2.8437113761901855,128,7813.0,-193.5155029296875,-3241,9943.0
960,0.3311057984828949,11.746204376220703,278,7813.0,-176.6477813720703,-2775,9943.0
970,0.3333626389503479,20.990182876586914,332,7813.0,-150.04769897460938,-2256,9943.0
980,0.33287912607192993,23.478979110717773,305,7813.0,-106.57189178466797,-1201,9943.0
990,0.32855936884880066,15.353172302246094,222,7813.0,-47.33502197265625,-428,9943.0
1000,0.33074674010276794,1.7680248022079468,-108,7813.0,17.313261032104492,669,9943.0
1010,0.3325541615486145,-15.763235092163086,-303,7813.0,82.95177459716797,1888,9943.0
1020,0.3330926299095154,-24.449800491333008,-411,7813.0,137.0469512939453,2493,9943.0
1030,0.33097803592681885,-25.448848724365234,-403,7813.0,172.21865844726562,2947,9943.0
1040,0.33051446080207825,-23.1496639251709,-262,7813.0,186.44679260253906,2847,9943.0
1050,0.3309386968612671,-15.32945728302002,-207,7813.0,170.097900390625,2695,9943.0
1060,0.32986223697662354,-14.46377944946289,-255,7813.0,138.66551208496094,2141,9943.0
1070,0.3286025822162628,-10.741846084594727,-126,7813.0,91.96853637695312,1223,9943.0
1080,0.3198710083961487,-1.245203971862793,111,7813.0,37.49319076538086,60,9943.0
1090,0.32110345363616943,7.698885917663574,235,7813.0,-27.674551010131836,-792,9943.0
1100,0.3223773241043091,14.639277458190918,195,7813.0,-97.86549377441406,-1829,9943.0
1110,0.3245621919631958,18.897769927978516,298,7813.0,-147.6923828125,-2389,9943.0
1120,0.3205665647983551,23.739139556884766,500,7813.0,-159.87693786621094,-2696,9943.0
1130,0.32161834836006165,34.89778137207031,593,7813.0,-152.8288116455078,-2379,9943.0
1140,0.32190006971359253,38.35805892944336,548,7813.0,-128.24337768554688,-1853,9943.0
1150,0.3218390941619873,23.734708786010742,328,7813.0,-89.03606414794922,-1250,9943.0
1160,0.3213748335838318,7.093071460723877,8,7813.0,-52.876182556152344,-620,9943.0
1170,0.3221508264541626,-11.1951265335083,-325,7813.0,-8.679705619812012,-18,9943.0
1180,0.3229241371154785,-28.62467384338379,-492,7813.0,39.89702606201172,776,9943.0
1190,0.32336097955703735,-33.32512664794922,-474,7813.0,79.731201171875,1386,9943.0
1200,0.3237842321395874,-32.63374710083008,-601,7813.0,110.02957153320312,1998,9943.0
1210,0.3220168352127075,-30.726789474487305,-478,7813.0,126.9593505859375,2184,9943.0
1220,0.3223111927509308,-26.759389877319336,-255,7813.0,125.44133758544922,1865,9943.0
1230,0.3220791816711426,-14.174073219299316,-57,7813.0,103.24176025390625,1540,9943.0
1240,0.3213724195957184,2.614516019821167,64,7813.0,67.22557067871094,991,9943.0
1250,0.31593069434165955,12.739822387695312,294,7813.0,21.242229461669922,-18,9943.0
1260,0.316908597946167,18.349781036376953,323,7813.0,-34.629878997802734,-757,9943.0
1270,0.3178711533546448,20.461191177368164,309,7813.0,-85.34791564941406,-1521,9943.0
1280,0.31876513361930847,13.496549606323242,111,7813.0,-116.18164825439453,-2125,9943.0
1290,0.31967124342918396,2.426323413848877,79,7813.0,-122.37281799316406,-1943,9943.0
1300,0.3189830780029297,-2.316600799560547,59,7813.0,-113.50833129882812,-1724,9943.0
1310,0.31956416368484497,-1.1537632942199707,-45,7813.0,-83.83279418945312,-1161,9943.0
1320,0.3197655975818634,-2.69530987739563,-93,7813.0,-31.290542602539062,-236,9943.0
1330,0.32157066464424133,1.6225861310958862,29,7813.0,28.737863540649414,684,9943.0
1340,0.32348376512527466,7.45559024810791,142,7813.0,77.32202911376953,1586,9943.0
1350,0.3243945837020874,12.89887809753418,203,7813.0,118.24320220947266,2188,9943.0
1360,0.32507815957069397,14.765718460083008,197,7813.0,142.06857299804688,2370,9943.0
1370,0.32526469230651855,4.6884379386901855,-50,7813.0,140.56430053710938,2050,9943.0
1380,0.3247697651386261,-12.933191299438477,-216,7813.0,106.91504669189453,1597,9943.0
1390,0.32469111680984497,-19.89663314819336,-313,7813.0,69.74858093261719,995,9943.0
1400,0.32489994168281555,-15.157408714294434,-189,7813.0,30.924531936645508,299,9943.0
1410,0.3251919746398926,0.2337634265422821,97,7813.0,-9.75664234161377,-288,9943.0
1420,0.32611340284347534,9.988219261169434,128,7813.0,-44.31616973876953,-956,9943.0
1430,0.32253023982048035,11.146203994750977,256,7813.0,-79.22148895263672,-1354,9943.0
1440,0.3231004774570465,7.311238765716553,0,7813.0,-107.17390441894531,-1885,9943.0
1450,0.3234633505344391,2.8524439334869385,29,7813.0,-129.63204956054688,-2185,9943.0
1460,0.3244793117046356,-5.906622409820557,-96,7813.0,-136.00177001953125,-2216,9943.0
1470,0.3215615749359131,-19.453094482421875,-318,7813.0,-118.29035186767578,-1935,9943.0
1480,0.322616845369339,-21.628807067871094,-362,7813.0,-83.69883728027344,-1277,9943.0
1490,0.32318776845932007,-16.191890716552734,-187,7813.0,-42.024383544921875,-493,9943.0
1500,0.3254992663860321,-10.931917190551758,-33,7813.0,17.049850463867188,442,9943.0
1510,0.32674315571784973,5.41342830657959,275,7813.0,80.2159652709961,1654,9943.0
1520,0.32791826128959656,18.584793090820312,396,7813.0,131.2018585205078,2140,9943.0
1530,0.3287564516067505,24.434682846069336,327,7813.0,158.52330017089844,2709,9943.0
1540,0.3305017352104187,22.816017150878906,305,7813.0,169.33245849609375,2941,9943.0
1550,0.3305005729198456,7.669819355010986,3,7813.0,161.0711669921875,2581,9943.0
1560,0.32542428374290466,-11.689676284790039,-330,7813.0,118.23746490478516,1648,9943.0
1570,0.32466527819633484,-21.089113235473633,-261,7813.0,69.1822280883789,909,9943.0
1580,0.3263958692550659,-16.358736038208008,-275,7813.0,16.16545867919922,51,9943.0
1590,0.32589516043663025,1.1789458990097046,160,7813.0,-38.37697219848633,-929,9943.0
1600,0.3230229318141937,14.051356315612793,255,7813.0,-86.1817855834961,-1485,9943.0
1610,0.32433098554611206,17.486650466918945,220,7813.0,-113.37469482421875,-2073,9943.0
1620,0.32467857003211975,10.751102447509766,205,7813.0,-130.35928344726562,-2232,9943.0
1630,0.32538408041000366,-0.9069477915763855,-37,7813.0,-137.49472045898438,-2256,9943.0
1640,0.3258894681930542,-23.839752197265625,-526,7813.0,-133.45811462402344,-2017,9943.0
1650,0.3228549063205719,-42.995872497558594,-716,7813.0,-101.03398895263672,-1401,9943.0
1660,0.3236033618450165,-35.20942306518555,-496,7813.0,-58.92192459106445,-507,9943.0
1670,0.32565373182296753,-14.051628112792969,-154,7813.0,-5.727115631103516,254,9943.0
1680,0.3262428641319275,0.3105888068675995,-21,7813.0,37.36709976196289,869,9943.0
1690,0.3273586630821228,10.519553184509277,173,7813.0,70.31106567382812,1326,9943.0
1700,0.32788681983947754,23.743144989013672,347,7813.0,98.3051986694336,1837,9943.0
1710,0.327976256608963,33.41511535644531,576,7813.0,112.2664794921875,1876,9943.0
1720,0.32798701524734497,38.45732116699219,658,7813.0,104.43399047851562,1469,9943.0
1730,0.32739612460136414,34.34203338623047,556,7813.0,84.51697540283203,1211,9943.0
1740,0.3225153982639313,26.813919067382812,340,7813.0,59.00675582885742,911,9943.0
1750,0.32281991839408875,12.372171401977539,34,7813.0,24.902515411376953,411,9943.0
1760,0.3226928114891052,-4.280664920806885,-77,7813.0,-10.439860343933105,-482,9943.0
1770,0.3226458430290222,-17.189788818359375,-310,7813.0,-42.5267448425293,-786,9943.0
1780,0.32032445073127747,-27.399124145507812,-584,7813.0,-67.7034912109375,-1117,9943.0
1790,0.3200235664844513,-33.378047943115234,-509,7813.0,-83.97447967529297,-1389,9943.0
1800,0.32005131244659424,-29.727163314819336,-415,7813.0,-91.74020385742188,-1505,9943.0
1810,0.32076939940452576,-18.991397857666016,-207,7813.0,-90.58386993408203,-1588,9943.0
1820,0.32074040174484253,-18.192514419555664,-294,7813.0,-66.34436798095703,-1041,9943.0
1830,0.32086288928985596,-21.07202911376953,-276,7813.0,-29.248065948486328,-332,9943.0
1840,0.3217236399650574,-15.303948402404785,-120,7813.0,1.0072964429855347,74,9943.0
1850,0.32237184047698975,-1.8769845962524414,25,7813.0,18.145450592041016,402,9943.0
1860,0.3229871094226837,15.235456466674805,338,7813.0,44.65520095825195,999,9943.0
1870,0.3232326805591583,31.634851455688477,560,7813.0,72.16017150878906,1231,9943.0
1880,0.3235640227794647,42.61545181274414,601,7813.0,71.07521057128906,1201,9943.0
1890,0.3237685561180115,35.31016540527344,501,7813.0,65.05339813232422,1111,9943.0
1900,0.3239806294441223,18.382261276245117,218,7813.0,51.03583526611328,635,9943.0
1910,0.321231871843338,3.269678831100464,1,7813.0,26.29142189025879,303,9943.0
1920,0.32152673602104187,-6.799472332000732,-90,7813.0,-4.931798934936523,-234,9943.0
1930,0.3215314745903015,-7.320258140563965,-127,7813.0,-25.947792053222656,-382,9943.0
1940,0.3216724693775177,1.3385933637619019,93,7813.0,-36.5626335144043,-578,9943.0
1950,0.32178154587745667,10.78542709350586,156,7813.0,-36.604061126708984,-726,9943.0
1960,0.3195837736129761,11.43394947052002,140,7813.0,-34.9586296081543,-544,9943.0
1970,0.32002416253089905,5.109615802764893,126,7813.0,-29.391468048095703,-555,9943.0
1980,0.32067039608955383,-9.116695404052734,-137,7813.0,-24.60007095336914,-483,9943.0
1990,0.32127976417541504,-18.898805618286133,-357,7813.0,-21.62335777282715,-433,9943.0
2000,0.32009339332580566,-26.09925079345703,-333,7813.0,-20.812509536743164,-349,9943.0
2010,0.3207709789276123,-25.795631408691406,-405,7813.0,-8.571928977966309,-127,9943.0
2020,0.32143232226371765,-24.849889755249023,-370,7813.0,8.589848518371582,222,9943.0
2030,0.32233044505119324,-22.219255447387695,-299,7813.0,22.220108032226562,260,9943.0
2040,0.3212558925151825,-23.924650192260742,-423,7813.0,28.824932098388672,516,9943.0
2050,0.3218013644218445,-24.108999252319336,-332,7813.0,38.302223205566406,728,9943.0
2060,0.3220812976360321,-12.097733497619629,-188,7813.0,42.54131317138672,781,9943.0
2070,0.32271525263786316,7.799754619598389,253,7813.0,41.50975799560547,623,9943.0
2080,0.3231385052204132,31.981040954589844,559,7813.0,33.23884201049805,377,9943.0
2090,0.3215038776397705,38.89118576049805,757,7813.0,24.562135696411133,421,9943.0
2100,0.3214026093482971,39.253562927246094,547,7813.0,17.27083969116211,313,9943.0
2110,0.32118549942970276,31.52827262878418,406,7813.0,2.609043836593628,62,9943.0
2120,0.3214600682258606,23.814002990722656,354,7813.0,-19.595083236694336,-540,9943.0
2130,0.32015496492385864,15.836372375488281,239,7813.0,-29.065631866455078,-502,9943.0
2140,0.32019755244255066,13.378015518188477,283,7813.0,-34.66206359863281,-548,9943.0
2150,0.3202211260795593,7.755793571472168,2,7813.0,-43.67043685913086,-721,9943.0
2160,0.3206161856651306,-6.4076151847839355,-162,7813.0,-43.660396575927734,-601,9943.0
2170,0.3211016058921814,-16.75811004638672,-362,7813.0,-47.66677474975586,-770,9943.0
2180,0.31952324509620667,-33.41699981689453,-655,7813.0,-41.1239128112793,-567,9943.0
2190,0.32017332315444946,-44.71498107910156,-800,7813.0,-26.209089279174805,-185,9943.0
2200,0.32088756561279297,-44.2679443359375,-674,7813.0,-8.936666488647461,57,9943.0
2210,0.3216041028499603,-31.431852340698242,-522,7813.0,12.857098579406738,387,9943.0
2220,0.3219004273414612,-10.438996315002441,-110,7813.0,35.48915481567383,899,9943.0
2230,0.3229246139526367,7.135663032531738,210,7813.0,52.595645904541016,990,9943.0
2240,0.32411256432533264,13.418540954589844,167,7813.0,65.5135726928711,1084,9943.0
2250,0.32491335272789,16.942480087280273,357,7813.0,67.6259536743164,1108,9943.0
2260,0.3216448128223419,19.869338989257812,346,7813.0,65.59200286865234,1028,9943.0
2270,0.32175931334495544,17.59511947631836,316,7813.0,60.82475662231445,1060,9943.0
2280,0.32242628931999207,24.7450008392334,335,7813.0,48.263179779052734,652,9943.0
2290,0.32197895646095276,32.74267578125,625,7813.0,20.60660743713379,91,9943.0
2300,0.3220991790294647,35.19684600830078,551,7813.0,-3.497051477432251,-162,9943.0
2310,0.31928762793540955,28.97555923461914,453,7813.0,-28.32746696472168,-555,9943.0
2320,0.31962552666664124,17.316701889038086,79,7813.0,-50.81541442871094,-909,9943.0
2330,0.3192931115627289,-6.3325653076171875,-171,7813.0,-69.4074478149414,-1292,9943.0
2340,0.31953302025794983,-25.515857696533203,-456,7813.0,-87.79496765136719,-1803,9943.0
2350,0.31891387701034546,-38.112178802490234,-629,7813.0,-103.89097595214844,-1722,9943.0
2360,0.318610817193985,-42.18171310424805,-621,7813.0,-101.65689086914062,-1612,9943.0
2370,0.3205545246601105,-43.391258239746094,-686,7813.0,-83.59788513183594,-1343,9943.0
2380,0.32023733854293823,-39.4892463684082,-652,7813.0,-57.996307373046875,-768,9943.0
2390,0.32161247730255127,-27.2208309173584,-318,7813.0,-20.392658233642578,-200,9943.0
2400,0.3236938416957855,-9.971545219421387,36,7813.0,23.554214477539062,447,9943.0
2410,0.325480580329895,10.510197639465332,368,7813.0,57.6847038269043,1095,9943.0
2420,0.32712051272392273,30.48076057434082,604,7813.0,88.62323760986328,1560,9943.0
2430,0.32826465368270874,48.711002349853516,824,7813.0,115.96385955810547,2029,9943.0
2440,0.32706472277641296,59.278316497802734,932,7813.0,130.74717712402344,2211,9943.0
2450,0.3287866413593292,54.09430694580078,724,7813.0,128.15658569335938,2143,9943.0
2460,0.32892417907714844,36.06053161621094,451,7813.0,107.24408721923828,1565,9943.0
2470,0.3287012279033661,-1.1980265378952026,-172,7813.0,72.3771743774414,937,9943.0
2480,0.32275402545928955,-27.18722152709961,-497,7813.0,27.818716049194336,306,9943.0
2490,0.32347074151039124,-32.7167854309082,-586,7813.0,-20.44516372680664,-554,9943.0
2500,0.32357358932495117,-30.625728607177734,-495,7813.0,-67.5113754272461,-1317,9943.0
2510,0.3241555392742157,-17.775379180908203,-154,7813.0,-101.36031341552734,-1645,9943.0
2520,0.32449397444725037,2.244102716445923,-29,7813.0,-117.35913848876953,-2112,9943.0
2530,0.3212440013885498,10.614516258239746,202,7813.0,-123.02135467529297,-2032,9943.0
2540,0.3212879002094269,7.62499475479126,172,7813.0,-114.53506469726562,-1973,9943.0
2550,0.3215263783931732,-4.8501505851745605,-153,7813.0,-101.78148651123047,-1586,9943.0
2560,0.3216250240802765,-18.272912979125977,-292,7813.0,-71.37293243408203,-1016,9943.0
2570,0.3234061598777771,-16.38195037841797,-250,7813.0,-26.0097599029541,-278,9943.0
2580,0.32380402088165283,-23.069639205932617,-332,7813.0,19.580480575561523,418,9943.0
2590,0.3248123228549957,-26.401670455932617,-364,7813.0,58.40376281738281,969,9943.0
2600,0.3264157772064209,-18.899442672729492,-296,7813.0,86.54493713378906,1512,9943.0
2610,0.32579392194747925,-2.120117664337158,-17,7813.0,104.84920501708984,1909,9943.0
2620,0.3264344334602356,16.10905647277832,242,7813.0,112.00272369384766,1884,9943.0
2630,0.3269129693508148,22.37588119506836,395,7813.0,98.39691925048828,1368,9943.0
2640,0.3269125521183014,28.780193328857422,607,7813.0,63.9911003112793,826,9943.0
2650,0.32811155915260315,35.3088264465332,504,7813.0,18.356626510620117,207,9943.0
2660,0.32358890771865845,35.5545768737793,557,7813.0,-16.435684204101562,-400,9943.0
2670,0.3237958550453186,32.85219192504883,575,7813.0,-42.23978805541992,-871,9943.0
2680,0.32411688566207886,24.84922981262207,278,7813.0,-64.59842681884766,-1072,9943.0
2690,0.3241952657699585,3.9683175086975098,5,7813.0,-89.68768310546875,-1435,9943.0
2700,0.32166963815689087,-13.545536041259766,-306,7813.0,-107.0654067993164,-1858,9943.0
2710,0.3215128183364868,-26.54909324645996,-590,7813.0,-108.4437484741211,-1737,9943.0
2720,0.32105761766433716,-33.69328308105469,-611,7813.0,-100.43860626220703,-1477,9943.0
2730,0.32279470562934875,-26.440614700317383,-412,7813.0,-75.66134643554688,-1015,9943.0
2740,0.3231058716773987,-18.262798309326172,-233,7813.0,-39.149078369140625,-380,9943.0
2750,0.32276949286460876,-10.861289024353027,-170,7813.0,7.8030595779418945,430,9943.0
2760,0.32465165853500366,-4.901100158691406,-54,7813.0,62.95228576660156,1312,9943.0
2770,0.3259500563144684,8.228594779968262,110,7813.0,121.20738983154297,2235,9943.0
2780,0.326845645904541,14.59589958190918,154,7813.0,161.65155029296875,2874,9943.0
2790,0.324359267950058,16.017635345458984,267,7813.0,175.6609649658203,2913,9943.0
2800,0.3240125775337219,12.288936614990234,198,7813.0,171.8684539794922,2559,9943.0
2810,0.32335761189460754,12.076207160949707,251,7813.0,141.38427734375,2162,9943.0
2820,0.3273980915546417,17.452720642089844,292,7813.0,94.14688110351562,1331,9943.0
2830,0.3268386125564575,19.12911605834961,310,7813.0,37.87486267089844,336,9943.0
2840,0.32263413071632385,11.979119300842285,149,7813.0,-15.901876449584961,-380,9943.0
2850,0.32354745268821716,-1.4641083478927612,-118,7813.0,-61.00841522216797,-1264,9943.0
2860,0.3238171637058258,-15.048556327819824,-253,7813.0,-103.58241271972656,-1903,9943.0
2870,0.32524409890174866,-20.22762680053711,-338,7813.0,-140.80078125,-2331,9943.0
2880,0.3229209780693054,-16.881166458129883,-168,7813.0,-170.6645050048828,-2829,9943.0
2890,0.323244571685791,-7.589630126953125,-127,7813.0,-179.73605346679688,-2984,9943.0
2900,0.32479360699653625,-7.48487663269043,-113,7813.0,-163.5259246826172,-2623,9943.0
2910,0.3249308168888092,-13.441145896911621,-141,7813.0,-136.1250457763672,-2006,9943.0
2920,0.32376888394355774,-12.105451583862305,-180,7813.0,-82.57642364501953,-1068,9943.0
2930,0.3239448666572571,-15.887002944946289,-133,7813.0,-19.16901969909668,36,9943.0
2940,0.3261738419532776,-8.52191162109375,-40,7813.0,49.30180358886719,1035,9943.0
2950,0.32846060395240784,-3.454835891723633,-38,7813.0,103.6222152709961,1856,9943.0
2960,0.33002156019210815,-4.327987194061279,-151,7813.0,144.48812866210938,2464,9943.0
2970,0.32913336157798767,-7.563758373260498,-206,7813.0,161.14549255371094,2759,9943.0
2980,0.3291308879852295,-6.40213680267334,-89,7813.0,152.66326904296875,2405,9943.0
2990,0.3291093707084656,-0.4040113389492035,-43,7813.0,118.9737777709961,1610,9943.0
3000,0.3286316394805908,0.28473928570747375,-26,7813.0,74.35345458984375,1094,9943.0
3010,0.3227175176143646,1.7415581941604614,-17,7813.0,34.53032684326172,224,9943.0
3020,0.3227962851524353,2.0810725688934326,120,7813.0,-7.087762355804443,-405,9943.0
3030,0.3225451111793518,4.517030239105225,-12,7813.0,-58.4790153503418,-1166,9943.0
3040,0.32310885190963745,7.0376811027526855,174,7813.0,-109.67782592773438,-2273,9943.0
3050,0.3235664963722229,11.487507820129395,235,7813.0,-148.37547302246094,-2489,9943.0
3060,0.3208499550819397,12.105480194091797,147,7813.0,-151.96092224121094,-2283,9943.0
3070,0.3209945857524872,2.0011422634124756,-83,7813.0,-137.3822479248047,-2139,9943.0
3080,0.3211296796798706,-6.500888347625732,-174,7813.0,-103.09700775146484,-1477,9943.0
3090,0.32175570726394653,-2.2118773460388184,-114,7813.0,-52.41251754760742,-529,9943.0
3100,0.3237163722515106,2.6946446895599365,54,7813.0,12.256905555725098,456,9943.0
3110,0.32452112436294556,6.045114040374756,67,7813.0,67.9601058959961,1398,9943.0
3120,0.32620346546173096,3.2392449378967285,-22,7813.0,117.65879821777344,2068,9943.0
3130,0.3271001875400543,-0.6220438480377197,-33,7813.0,147.29405212402344,2518,9943.0
3140,0.32600608468055725,-4.961538791656494,-207,7813.0,154.22634887695312,2692,9943.0
3150,0.32632431387901306,-5.494932174682617,-148,7813.0,142.60064697265625,2048,9943.0
3160,0.3258243501186371,-9.90502643585205,-173,7813.0,114.6133041381836,1846,9943.0
3170,0.3250245451927185,-10.46325397491455,-183,7813.0,78.56194305419922,1006,9943.0
3180,0.3252365291118622,-8.528800010681152,-198,7813.0,30.90696907043457,230,9943.0
3190,0.32411056756973267,-0.9788151979446411,170,7813.0,-19.007614135742188,-686,9943.0
3200,0.3244086503982544,7.598944187164307,170,7813.0,-73.71553802490234,-1268,9943.0
3210,0.3259168863296509,14.703268051147461,281,7813.0,-124.26074981689453,-2440,9943.0
3220,0.3270069658756256,20.8604679107666,374,7813.0,-159.90858459472656,-2628,9943.0
3230,0.32380181550979614,27.82695960998535,479,7813.0,-164.2706756591797,-2510,9943.0
3240,0.32440996170043945,22.51120948791504,330,7813.0,-147.7074737548828,-2236,9943.0
3250,0.32444891333580017,17.289134979248047,237,7813.0,-111.27812957763672,-1671,9943.0
3260,0.32446545362472534,3.834627151489258,1,7813.0,-54.45299530029297,-728,9943.0
3270,0.3264411985874176,-10.161042213439941,-206,7813.0,6.178421497344971,253,9943.0
3280,0.32795044779777527,-23.562240600585938,-506,7813.0,63.7627067565918,1263,9943.0
3290,0.32876667380332947,-30.051267623901367,-514,7813.0,114.7752685546875,1947,9943.0
3300,0.3299013674259186,-28.601102828979492,-370,7813.0,141.09202575683594,2393,9943.0
3310,0.3299715518951416,-22.060216903686523,-212,7813.0,144.61175537109375,2403,9943.0
3320,0.3265238106250763,-9.40657901763916,-228,7813.0,129.89337158203125,2082,9943.0
3330,0.3263775706291199,1.3326956033706665,175,7813.0,99.26117706298828,1403,9943.0
3340,0.32587429881095886,17.228713989257812,246,7813.0,56.62550735473633,778,9943.0
3350,0.32724544405937195,21.138973236083984,394,7813.0,13.7632474899292,-52,9943.0
3360,0.3221067786216736,15.867405891418457,209,7813.0,-31.902246475219727,-611,9943.0
3370,0.32277101278305054,8.182952880859375,92,7813.0,-77.61170959472656,-1523,9943.0
3380,0.32373103499412537,7.368688583374023,143,7813.0,-122.54452514648438,-2215,9943.0
3390,0.32446134090423584,14.832327842712402,374,7813.0,-149.9465789794922,-2403,9943.0
3400,0.32533523440361023,15.291163444519043,167,7813.0,-143.22071838378906,-2265,9943.0
3410,0.32353881001472473,5.767566680908203,-36,7813.0,-122.16170501708984,-1844,9943.0
3420,0.32431885600090027,-6.5248003005981445,-200,7813.0,-83.59101104736328,-1005,9943.0
3430,0.3265274167060852,-12.58224105834961,-283,7813.0,-27.848936080932617,-25,9943.0
3440,0.3273870050907135,-14.1220064163208,-340,7813.0,29.667844772338867,855,9943.0
3450,0.3293439745903015,-21.423221588134766,-403,7813.0,83.66643524169922,1713,9943.0
3460,0.33067086338996887,-26.07500648498535,-471,7813.0,132.44625854492188,2423,9943.0
3470,0.3307766020298004,-26.8996524810791,-552,7813.0,163.1053924560547,2663,9943.0
3480,0.3308427333831787,-24.1875057220459,-321,7813.0,161.889892578125,2547,9943.0
3490,0.32581427693367004,-11.556732177734375,-92,7813.0,128.47019958496094,1992,9943.0
3500,0.3261534571647644,2.2650222778320312,112,7813.0,82.85134887695312,1104,9943.0
3510,0.3258248567581177,17.28064727783203,376,7813.0,35.730770111083984,348,9943.0
3520,0.32801395654678345,29.424564361572266,520,7813.0,-10.079174995422363,-331,9943.0
3530,0.32876133918762207,34.35023498535156,618,7813.0,-50.595855712890625,-1000,9943.0
3540,0.32388928532600403,24.897306442260742,290,7813.0,-84.61699676513672,-1645,9943.0
3550,0.32437047362327576,10.91856575012207,253,7813.0,-117.2121810913086,-2037,9943.0
3560,0.324788898229599,7.411779880523682,93,7813.0,-122.01212310791016,-1981,9943.0
3570,0.32520991563796997,9.427329063415527,71,7813.0,-109.2809829711914,-1477,9943.0
3580,0.32247284054756165,11.172643661499023,177,7813.0,-75.00801086425781,-884,9943.0
3590,0.32253533601760864,17.721576690673828,241,7813.0,-34.26700210571289,-114,9943.0
3600,0.3239695429801941,12.111479759216309,202,7813.0,21.91838836669922,788,9943.0
3610,0.3241833746433258,-1.0463953018188477,-128,7813.0,73.31241607666016,1477,9943.0
3620,0.32424530386924744,-14.086761474609375,-291,7813.0,106.80506134033203,1796,9943.0
3630,0.32331207394599915,-24.056503295898438,-420,7813.0,120.854248046875,1884,9943.0
3640,0.3233131170272827,-24.022279739379883,-367,7813.0,115.66458892822266,1762,9943.0
3650,0.3228020966053009,-22.412263870239258,-277,7813.0,91.21951293945312,1416,9943.0
3660,0.32189303636550903,-13.600727081298828,-212,7813.0,56.760684967041016,526,9943.0
3670,0.31844639778137207,-4.831686973571777,-17,7813.0,8.203558921813965,-9,9943.0
3680,0.31846025586128235,-1.2585196495056152,-60,7813.0,-38.50809097290039,-1012,9943.0
3690,0.31910574436187744,-5.6575493812561035,-83,7813.0,-75.82334899902344,-1309,9943.0
3700,0.31964942812919617,-11.101312637329102,-270,7813.0,-111.09393310546875,-1813,9943.0
3710,0.3199990689754486,-15.057668685913086,-224,7813.0,-143.0145721435547,-2517,9943.0
3720,0.31948384642601013,-11.922842979431152,-137,7813.0,-145.0926513671875,-2355,9943.0
3730,0.3197689950466156,-10.331779479980469,-165,7813.0,-108.45514678955078,-1610,9943.0
3740,0.31957679986953735,-7.587077617645264,-150,7813.0,-70.37666320800781,-857,9943.0
3750,0.32099565863609314,-1.8483585119247437,-36,7813.0,-25.83831024169922,-98,9943.0
3760,0.3228745758533478,8.811156272888184,111,7813.0,18.16404151916504,626,9943.0
3770,0.32341453433036804,22.775447845458984,483,7813.0,59.240699768066406,1170,9943.0
3780,0.3239416778087616,31.177677154541016,626,7813.0,91.02510070800781,1589,9943.0
3790,0.32424622774124146,31.509042739868164,522,7813.0,110.33861541748047,1675,9943.0
3800,0.3228777050971985,19.40742301940918,261,7813.0,114.91939544677734,1842,9943.0
3810,0.32259005308151245,7.942388534545898,-40,7813.0,109.628173828125,1938,9943.0
3820,0.3223528563976288,-10.296582221984863,-216,7813.0,92.03076934814453,1361,9943.0
3830,0.32189422845840454,-18.85514259338379,-330,7813.0,59.05812072753906,757,9943.0
3840,0.322671115398407,-18.854082107543945,-363,7813.0,12.369025230407715,-197,9943.0
3850,0.3196490406990051,-17.154399871826172,-224,7813.0,-34.88292694091797,-893,9943.0
3860,0.3204420208930969,-11.932143211364746,-231,7813.0,-79.83833312988281,-1333,9943.0
3870,0.32136058807373047,-6.718020439147949,-55,7813.0,-110.99049377441406,-2059,9943.0
3880,0.3224119246006012,-3.5439822673797607,-56,7813.0,-129.72030639648438,-2243,9943.0
3890,0.3206411600112915,-4.825687885284424,-155,7813.0,-136.82351684570312,-2087,9943.0
3900,0.32154223322868347,-5.962279796600342,-151,7813.0,-127.2140121459961,-1854,9943.0
3910,0.3222094476222992,-5.991827487945557,-45,7813.0,-95.18710327148438,-1326,9943.0
3920,0.32345861196517944,-3.683821678161621,-39,7813.0,-53.829864501953125,-713,9943.0
3930,0.3259311020374298,3.2705392837524414,114,7813.0,-10.783227920532227,96,9943.0
3940,0.32681214809417725,14.511763572692871,220,7813.0,44.70947265625,1008,9943.0
3950,0.328717440366745,24.09149932861328,392,7813.0,89.93861389160156,1720,9943.0
3960,0.33024391531944275,26.748777389526367,417,7813.0,123.08644104003906,2190,9943.0
3970,0.3307935893535614,19.283248901367188,326,7813.0,134.54287719726562,2239,9943.0
3980,0.3280283212661743,0.7996401190757751,-12,7813.0,134.36439514160156,1927,9943.0
3990,0.3284798562526703,-12.2598295211792,-229,7813.0,120.30374145507812,1951,9943.0
4000,0.3279578685760498,-18.890993118286133,-334,7813.0,104.22418212890625,1701,9943.0
4010,0.33022287487983704,-19.56060028076172,-340,7813.0,75.26101684570312,996,9943.0
4020,0.3236536681652069,-15.928567886352539,-152,7813.0,32.144596099853516,383,9943.0
4030,0.32406678795814514,-6.636495590209961,-28,7813.0,-12.497961044311523,-472,9943.0
4040,0.3245305120944977,2.5421955585479736,133,7813.0,-51.32539367675781,-934,9943.0
4050,0.3251277804374695,6.105224132537842,38,7813.0,-84.50364685058594,-1472,9943.0
4060,0.32601863145828247,6.248630046844482,173,7813.0,-106.68163299560547,-1964,9943.0
4070,0.323621541261673,5.055539131164551,30,7813.0,-122.88074493408203,-2033,9943.0
4080,0.3242628872394562,4.9777116775512695,46,7813.0,-128.20387268066406,-1872,9943.0
4090,0.32569482922554016,-4.488856315612793,-104,7813.0,-108.17469787597656,-1543,9943.0
4100,0.32584652304649353,-14.465542793273926,-297,7813.0,-70.33271789550781,-960,9943.0
4110,0.32440975308418274,-11.826045036315918,-260,7813.0,-33.08723831176758,-194,9943.0
4120,0.32520344853401184,-8.190010070800781,-137,7813.0,19.624900817871094,858,9943.0
4130,0.32645177841186523,9.350025177001953,243,7813.0,81.71437072753906,1794,9943.0
4140,0.327356219291687,20.192707061767578,324,7813.0,130.9585723876953,2324,9943.0
4150,0.3261792063713074,22.146583557128906,336,7813.0,157.84335327148438,2627,9943.0
4160,0.32604706287384033,16.998920440673828,288,7813.0,164.20091247558594,2617,9943.0
4170,0.3273575007915497,10.092870712280273,112,7813.0,146.11761474609375,2291,9943.0
4180,0.32610559463500977,0.13982036709785461,-98,7813.0,108.78339385986328,1598,9943.0
4190,0.32601556181907654,-2.8809895515441895,29,7813.0,50.491302490234375,470,9943.0
4200,0.3219060003757477,-0.7983225584030151,-26,7813.0,-13.81821060180664,-472,9943.0
4210,0.32224196195602417,8.790447235107422,213,7813.0,-67.35575103759766,-1483,9943.0
4220,0.32292670011520386,12.809321403503418,168,7813.0,-116.59117889404297,-2051,9943.0
4230,0.32367029786109924,10.420207977294922,149,7813.0,-149.15415954589844,-2702,9943.0
4240,0.3203967213630676,-3.1252329349517822,-73,7813.0,-164.1992950439453,-2766,9943.0
4250,0.3203468322753906,-10.04127311706543,-223,7813.0,-179.73898315429688,-2845,9943.0
4260,0.3221699297428131,-15.451940536499023,-264,7813.0,-182.15806579589844,-2816,9943.0
4270,0.32134464383125305,-3.9838459491729736,-55,7813.0,-156.02320861816406,-2351,9943.0
4280,0.318386435508728,-1.913927435874939,5,7813.0,-114.64763641357422,-1546,9943.0
4290,0.3217231333255768,-5.23228645324707,-119,7813.0,-54.9462890625,-565,9943.0
4300,0.3251439929008484,-5.899240493774414,-140,7813.0,5.695271015167236,552,9943.0
4310,0.32652193307876587,-5.243143558502197,-96,7813.0,70.9322738647461,1502,9943.0
4320,0.3293965458869934,0.7280756235122681,35,7813.0,126.33329010009766,2321,9943.0
4330,0.3321516513824463,2.5661401748657227,32,7813.0,173.09033203125,3005,9943.0
4340,0.33195292949676514,-2.1255030632019043,-198,7813.0,189.908447265625,3320,9943.0
4350,0.3323543965816498,-14.673044204711914,-348,7813.0,190.4617462158203,3014,9943.0
4360,0.33243095874786377,-31.56011962890625,-492,7813.0,164.67666625976562,2343,9943.0
4370,0.33139967918395996,-35.40937042236328,-609,7813.0,121.12237548828125,1743,9943.0
4380,0.3267599940299988,-18.87529182434082,-110,7813.0,65.15435028076172,728,9943.0
4390,0.32674360275268555,4.261776447296143,178,7813.0,7.21307373046875,-188,9943.0
4400,0.327732115983963,26.625133514404297,542,7813.0,-42.96345901489258,-1017,9943.0
4410,0.32993564009666443,36.62733459472656,643,7813.0,-90.23062896728516,-1650,9943.0
4420,0.3241775333881378,35.67009353637695,553,7813.0,-129.8296356201172,-2316,9943.0
4430,0.3258817195892334,25.412548065185547,440,7813.0,-162.14939880371094,-2810,9943.0
4440,0.3269538879394531,22.00653648376465,280,7813.0,-173.98687744140625,-2930,9943.0
4450,0.3277897834777832,10.21922779083252,-48,7813.0,-163.69308471679688,-2396,9943.0
4460,0.3279106914997101,-13.177984237670898,-329,7813.0,-133.3008270263672,-1979,9943.0
4470,0.3284674882888794,-20.556005477905273,-424,7813.0,-88.68635559082031,-1163,9943.0
4480,0.32867175340652466,-29.603086471557617,-566,7813.0,-33.79652786254883,-334,9943.0
4490,0.33047783374786377,-37.262725830078125,-593,7813.0,31.984487533569336,914,9943.0
4500,0.3324589133262634,-35.91228485107422,-528,7813.0,96.19854736328125,1727,9943.0
4510,0.33296385407447815,-22.678062438964844,-220,7813.0,148.35513305664062,2660,9943.0
4520,0.33381974697113037,-4.91091251373291,7,7813.0,185.6094970703125,3399,9943.0
4530,0.33434948325157166,13.889192581176758,190,7813.0,198.71963500976562,3132,9943.0
4540,0.3343307077884674,25.482542037963867,510,7813.0,186.49990844726562,2955,9943.0
4550,0.328961044549942,25.402088165283203,360,7813.0,152.84494018554688,2276,9943.0
4560,0.32807832956314087,15.986798286437988,217,7813.0,108.77042388916016,1504,9943.0
4570,0.32712775468826294,6.609710693359375,139,7813.0,50.13438034057617,635,9943.0
4580,0.3275025486946106,2.6493964195251465,49,7813.0,1.8596134185791016,-262,9943.0
4590,0.3249175548553467,-3.050194501876831,-145,7813.0,-53.9062614440918,-1300,9943.0
4600,0.3264700174331665,-8.493539810180664,-119,7813.0,-112.65003204345703,-2138,9943.0
4610,0.32875856757164,-8.800209045410156,-124,7813.0,-161.30517578125,-2805,9943.0
4620,0.33118683099746704,-7.87868595123291,-146,7813.0,-176.86541748046875,-2721,9943.0
4630,0.3334670960903168,-9.151633262634277,-186,7813.0,-161.55120849609375,-2573,9943.0
4640,0.32993146777153015,0.7528809905052185,64,7813.0,-129.37339782714844,-1900,9943.0
4650,0.3311822712421417,4.506524085998535,129,7813.0,-90.65672302246094,-1233,9943.0
4660,0.33196893334388733,9.899322509765625,192,7813.0,-42.42072296142578,-611,9943.0
4670,0.33604735136032104,3.32413649559021,40,7813.0,11.542571067810059,425,9943.0
4680,0.3335988521575928,-8.161561012268066,-136,7813.0,65.28136444091797,1247,9943.0
4690,0.3347384035587311,-10.333252906799316,-71,7813.0,102.82244873046875,1808,9943.0
4700,0.3355126678943634,-7.871602535247803,-2,7813.0,121.99876403808594,1897,9943.0
4710,0.336025595664978,3.7278077602386475,134,7813.0,120.84648132324219,2004,9943.0
4720,0.3360678553581238,6.003217697143555,109,7813.0,109.83617401123047,1706,9943.0
4730,0.3274253010749817,6.331398963928223,139,7813.0,86.91312408447266,1173,9943.0
4740,0.32712581753730774,10.56353759765625,234,7813.0,37.76287841796875,254,9943.0
4750,0.3281877040863037,14.38944149017334,201,7813.0,-8.810415267944336,-400,9943.0
4760,0.32935091853141785,8.287453651428223,120,7813.0,-56.86395263671875,-1153,9943.0
4770,0.32424765825271606,-0.015267941169440746,22,7813.0,-91.49298095703125,-1602,9943.0
4780,0.3251602053642273,-4.419734954833984,-174,7813.0,-112.00967407226562,-1785,9943.0
4790,0.326325386762619,-6.2577080726623535,-117,7813.0,-106.69049072265625,-1670,9943.0
4800,0.3275066912174225,-2.3111472129821777,43,7813.0,-87.33070373535156,-1421,9943.0
4810,0.32416021823883057,-0.5697673559188843,17,7813.0,-61.861549377441406,-918,9943.0
4820,0.3248431980609894,1.6987920999526978,16,7813.0,-12.366880416870117,-85,9943.0
4830,0.3260585069656372,-8.94701862335205,-136,7813.0,22.725637435913086,540,9943.0
4840,0.32691383361816406,-14.672402381896973,-216,7813.0,57.43132781982422,987,9943.0
4850,0.3279360234737396,-13.572978019714355,-156,7813.0,81.78575134277344,1382,9943.0
4860,0.32553690671920776,-8.201983451843262,4,7813.0,101.73593139648438,1566,9943.0
4870,0.32597634196281433,1.3541220426559448,31,7813.0,100.66644287109375,1552,9943.0
4880,0.32605472207069397,7.024521827697754,29,7813.0,82.83357238769531,1385,9943.0
4890,0.3258916437625885,4.87497615814209,169,7813.0,59.72419357299805,727,9943.0
4900,0.3211847245693207,4.990757465362549,42,7813.0,19.661638259887695,53,9943.0
4910,0.3227669596672058,0.972599446773529,-114,7813.0,-25.98137092590332,-562,9943.0
4920,0.32325437664985657,-2.8323252201080322,-17,7813.0,-58.966793060302734,-1292,9943.0
4930,0.32438430190086365,-7.206139087677002,-122,7813.0,-86.0032730102539,-1558,9943.0
4940,0.3255063593387604,-5.3209099769592285,-19,7813.0,-114.7557144165039,-1951,9943.0
4950,0.32258617877960205,-3.1207971572875977,-192,7813.0,-118.14689636230469,-1806,9943.0
4960,0.3233082592487335,-8.07974910736084,-111,7813.0,-98.32567596435547,-1447,9943.0
4970,0.3235686123371124,-7.408222198486328,-88,7813.0,-70.7280044555664,-978,9943.0
4980,0.3238452970981598,-3.6306354999542236,16,7813.0,-27.8822021484375,-391,9943.0
4990,0.32406333088874817,4.916758060455322,144,7813.0,20.84663200378418,512,9943.0
5000,0.32521337270736694,13.691697120666504,240,7813.0,68.82209777832031,1221,9943.0
5010,0.3261220157146454,19.32793617248535,424,7813.0,106.94794464111328,1712,9943.0
5020,0.32683059573173523,17.28528594970703,303,7813.0,125.81298828125,2095,9943.0
5030,0.32496699690818787,13.835365295410156,108,7813.0,131.9759063720703,2181,9943.0
5040,0.32572612166404724,2.564983606338501,-35,7813.0,114.98846435546875,1769,9943.0
5050,0.32522380352020264,-7.919576644897461,-231,7813.0,78.71131134033203,1113,9943.0
5060,0.32551470398902893,-13.052908897399902,-142,7813.0,34.083946228027344,287,9943.0
5070,0.3258680999279022,-8.30010986328125,-117,7813.0,-10.38066291809082,-201,9943.0
5080,0.32155609130859375,-1.4153844118118286,86,7813.0,-50.76658630371094,-1190,9943.0
5090,0.3218859136104584,3.415409564971924,83,7813.0,-84.48303985595703,-1361,9943.0
5100,0.3221615254878998,2.9827358722686768,6,7813.0,-103.19738006591797,-1692,9943.0
5110,0.32221198081970215,1.4710017442703247,-32,7813.0,-108.0243148803711,-1756,9943.0
5120,0.3202681541442871,2.566417694091797,123,7813.0,-105.81137084960938,-1745,9943.0
5130,0.32054418325424194,5.288546562194824,153,7813.0,-95.95436096191406,-1558,9943.0
5140,0.32115960121154785,3.221742868423462,117,7813.0,-66.64241027832031,-1001,9943.0
5150,0.32165592908859253,-2.4211740493774414,-95,7813.0,-24.399526596069336,-246,9943.0
5160,0.3233396112918854,-6.794848442077637,-100,7813.0,19.795307159423828,427,9943.0
5170,0.32409822940826416,1.7723150253295898,106,7813.0,64.2685317993164,1190,9943.0
5180,0.32463157176971436,16.83584976196289,271,7813.0,103.48981475830078,1940,9943.0
5190,0.3252597153186798,19.89414405822754,306,7813.0,129.31236267089844,2294,9943.0
5200,0.3254348039627075,13.00838851928711,185,7813.0,140.22840881347656,2406,9943.0
5210,0.3220251202583313,0.5191079378128052,-59,7813.0,145.05291748046875,2217,9943.0
5220,0.32087522745132446,-3.399369478225708,-99,7813.0,126.06523895263672,1990,9943.0
5230,0.31950852274894714,-7.322936058044434,-108,7813.0,86.70379638671875,1140,9943.0
5240,0.32235661149024963,-3.3735477924346924,-39,7813.0,25.177146911621094,115,9943.0
5250,0.3181726634502411,-1.1047263145446777,11,7813.0,-35.71354675292969,-829,9943.0
5260,0.31870725750923157,-2.3597259521484375,41,7813.0,-82.50422668457031,-1644,9943.0
5270,0.3196744918823242,-2.5258219242095947,-120,7813.0,-120.47179412841797,-1922,9943.0
5280,0.3193857967853546,-3.8567185401916504,-13,7813.0,-136.6576690673828,-2407,9943.0
5290,0.31973642110824585,-3.933074712753296,-45,7813.0,-143.5191650390625,-2456,9943.0
5300,0.3179263174533844,0.20783810317516327,-6,7813.0,-149.52099609375,-2383,9943.0
5310,0.3173086941242218,2.882399320602417,5,7813.0,-135.18150329589844,-1966,9943.0
5320,0.3208528161048889,0.75270676612854,8,7813.0,-100.34833526611328,-1289,9943.0
5330,0.321271687746048,1.6343190670013428,25,7813.0,-45.264339447021484,-362,9943.0
5340,0.32284438610076904,7.797516822814941,43,7813.0,15.09938907623291,611,9943.0
5350,0.32373541593551636,4.304564952850342,19,7813.0,77.87249755859375,1631,9943.0
5360,0.3255881369113922,1.844772219657898,-24,7813.0,126.12944030761719,2280,9943.0
5370,0.3262549936771393,2.195010185241699,-56,7813.0,152.47389221191406,2613,9943.0
5380,0.32647690176963806,-0.8230212926864624,-96,7813.0,169.01251220703125,2736,9943.0
5390,0.324910968542099,-2.855034351348877,6,7813.0,164.95703125,2485,9943.0
5400,0.3241150975227356,-3.243171453475952,8,7813.0,131.77011108398438,2025,9943.0
5410,0.3257879316806793,1.022124171257019,7,7813.0,81.42906951904297,985,9943.0
5420,0.3263005018234253,0.9134132266044617,-33,7813.0,17.332822799682617,116,9943.0
5430,0.32184720039367676,-5.244009494781494,-117,7813.0,-39.232810974121094,-895,9943.0
5440,0.32231101393699646,-10.071931838989258,-208,7813.0,-88.86214447021484,-1631,9943.0
5450,0.3225002884864807,-14.87903881072998,-292,7813.0,-123.81710815429688,-2056,9943.0
5460,0.3227475583553314,-21.59646987915039,-304,7813.0,-146.39068603515625,-2645,9943.0
5470,0.31991496682167053,-20.618417739868164,-345,7813.0,-162.79177856445312,-2708,9943.0
5480,0.31910908222198486,-14.6478853225708,-316,7813.0,-167.89614868164062,-2467,9943.0
5490,0.32129713892936707,-10.011765480041504,-133,7813.0,-141.49977111816406,-1995,9943.0
5500,0.32068970799446106,-5.014002799987793,-77,7813.0,-102.96537017822266,-1520,9943.0
5510,0.3195348381996155,2.5891101360321045,164,7813.0,-62.95707702636719,-895,9943.0
5520,0.3213232159614563,9.425468444824219,173,7813.0,-13.598661422729492,163,9943.0
5530,0.3235235810279846,6.7076096534729,150,7813.0,59.09520721435547,1314,9943.0
5540,0.32509854435920715,-3.423847198486328,25,7813.0,119.33485412597656,2207,9943.0
5550,0.32723483443260193,-5.888503074645996,-90,7813.0,164.21018981933594,2883,9943.0
5560,0.32673561573028564,-6.0096330642700195,-113,7813.0,187.96641540527344,3110,9943.0
5570,0.32753169536590576,-1.149969220161438,-2,7813.0,190.3791046142578,2953,9943.0
5580,0.3271524906158447,8.336995124816895,209,7813.0,172.4711151123047,2669,9943.0
5590,0.32590100169181824,15.457121849060059,238,7813.0,133.4224090576172,1797,9943.0
5600,0.324264794588089,14.975383758544922,226,7813.0,69.38641357421875,812,9943.0
5610,0.323877215385437,12.005936622619629,162,7813.0,4.0269012451171875,-434,9943.0
5620,0.3241312503814697,6.550288200378418,62,7813.0,-59.20560836791992,-1217,9943.0
5630,0.3266361951828003,-1.1327457427978516,-78,7813.0,-112.9988021850586,-2134,9943.0
5640,0.3288334012031555,-6.438243865966797,-80,7813.0,-158.71530151367188,-2776,9943.0
5650,0.32441815733909607,-6.087296962738037,-196,7813.0,-190.46536254882812,-3079,9943.0
5660,0.3253762722015381,-10.061506271362305,-183,7813.0,-193.2508544921875,-3097,9943.0
5670,0.3253835439682007,-20.116424560546875,-283,7813.0,-166.13148498535156,-2606,9943.0
5680,0.32422730326652527,-15.27769660949707,-177,7813.0,-120.30855560302734,-1789,9943.0
5690,0.32828715443611145,-9.719198226928711,-149,7813.0,-62.597660064697266,-764,9943.0
5700,0.32875338196754456,-2.8663063049316406,-4,7813.0,-3.739583730697632,165,9943.0
5710,0.3291303515434265,4.666013717651367,148,7813.0,52.98591232299805,1125,9943.0
5720,0.3311465382575989,9.486331939697266,147,7813.0,109.92740631103516,2010,9943.0
5730,0.3325748145580292,13.529510498046875,181,7813.0,149.26292419433594,2789,9943.0
5740,0.3314710557460785,11.116720199584961,51,7813.0,167.6508026123047,2834,9943.0
5750,0.3314608931541443,3.899388551712036,45,7813.0,167.5489501953125,2673,9943.0
5760,0.3307146430015564,-1.79194176197052,29,7813.0,138.6906280517578,1936,9943.0
5770,0.3296624422073364,-5.134003639221191,-164,7813.0,87.12523651123047,1276,9943.0
5780,0.32656851410865784,-6.863056659698486,11,7813.0,30.32038688659668,146,9943.0
5790,0.32672205567359924,-4.238343715667725,-134,7813.0,-23.151077270507812,-509,9943.0
5800,0.3272256553173065,-0.49016866087913513,91,7813.0,-71.68057250976562,-1455,9943.0
5810,0.3285345137119293,3.706512212753296,58,7813.0,-112.62983703613281,-1900,9943.0
5820,0.3234938383102417,8.14788818359375,133,7813.0,-145.71681213378906,-2483,9943.0
5830,0.32390984892845154,12.13425350189209,183,7813.0,-162.80140686035156,-2786,9943.0
5840,0.3241879343986511,17.17839241027832,289,7813.0,-153.842529296875,-2461,9943.0
5850,0.3246472179889679,13.14423656463623,245,7813.0,-124.35962677001953,-1915,9943.0
5860,0.3278889060020447,5.534294128417969,123,7813.0,-83.9079818725586,-1304,9943.0
5870,0.32599931955337524,0.41506144404411316,49,7813.0,-43.5814323425293,-541,9943.0
5880,0.3266572654247284,-2.165480136871338,46,7813.0,24.33381462097168,587,9943.0
5890,0.3279075622558594,-4.217471599578857,-9,7813.0,86.40601348876953,1509,9943.0
5900,0.3295731544494629,-9.374850273132324,-138,7813.0,128.4119873046875,2158,9943.0
5910,0.3297874927520752,-14.255205154418945,-98,7813.0,159.69342041015625,2575,9943.0
5920,0.3296654224395752,-6.631483554840088,-174,7813.0,172.04757690429688,2750,9943.0
5930,0.3289751708507538,-0.7371220588684082,14,7813.0,158.24073791503906,2621,9943.0
5940,0.3313441574573517,6.851532936096191,190,7813.0,124.00310516357422,1645,9943.0
5950,0.3302164375782013,13.785633087158203,197,7813.0,75.05644226074219,1137,9943.0
5960,0.32348909974098206,8.454684257507324,109,7813.0,24.359149932861328,81,9943.0
5970,0.32333478331565857,0.24976634979248047,-58,7813.0,-20.649484634399414,-472,9943.0
5980,0.3241386115550995,-12.330962181091309,-282,7813.0,-68.20377349853516,-1347,9943.0
5990,0.3261188864707947,-23.40177345275879,-384,7813.0,-116.2082290649414,-2121,9943.0
6000,0.32422301173210144,-27.089900970458984,-433,7813.0,-150.19476318359375,-2386,9943.0
6010,0.32513856887817383,-25.606346130371094,-459,7813.0,-152.49505615234375,-2502,9943.0
6020,0.3270866870880127,-18.426532745361328,-288,7813.0,-134.60699462890625,-2065,9943.0
6030,0.3280000388622284,-3.7784340381622314,53,7813.0,-100.07161712646484,-1469,9943.0
6040,0.3247310221195221,6.608883380889893,219,7813.0,-49.20075988769531,-641,9943.0
6050,0.3268536925315857,10.656591415405273,214,7813.0,10.992690086364746,369,9943.0
6060,0.327970415353775,13.032449722290039,237,7813.0,65.50886535644531,1140,9943.0
6070,0.3292366862297058,15.713359832763672,190,7813.0,100.42523956298828,1776,9943.0
6080,0.330257385969162,12.637202262878418,281,7813.0,123.73969268798828,2291,9943.0
6090,0.32873040437698364,7.766146183013916,87,7813.0,131.2073516845703,2213,9943.0
6100,0.3287777006626129,2.2559919357299805,-57,7813.0,120.17884826660156,1752,9943.0
6110,0.33165454864501953,0.27557116746902466,21,7813.0,95.73194122314453,1339,9943.0
6120,0.3316807448863983,2.673708438873291,-10,7813.0,51.71672439575195,707,9943.0
6130,0.3261750042438507,6.4770188331604,185,7813.0,6.904909133911133,-119,9943.0
6140,0.3276342451572418,6.1939215660095215,38,7813.0,-40.27772903442383,-826,9943.0
6150,0.3295746445655823,4.7759108543396,82,7813.0,-84.13970947265625,-1678,9943.0
6160,0.33179187774658203,4.899781227111816,108,7813.0,-135.7182159423828,-2548,9943.0
6170,0.33358314633369446,7.451259613037109,60,7813.0,-165.93936157226562,-2738,9943.0
6180,0.32948037981987,13.46474552154541,240,7813.0,-161.52590942382812,-2586,9943.0
6190,0.3327409625053406,12.223917961120605,98,7813.0,-146.47763061523438,-2195,9943.0
6200,0.33313101530075073,11.555219650268555,95,7813.0,-104.39714050292969,-1172,9943.0
6210,0.33381789922714233,7.819361686706543,9,7813.0,-45.33000946044922,-292,9943.0
6220,0.33706212043762207,1.9410046339035034,26,7813.0,12.256584167480469,534,9943.0
6230,0.33869293332099915,-9.856749534606934,-126,7813.0,65.71426391601562,1216,9943.0
6240,0.33988475799560547,-22.930965423583984,-409,7813.0,111.67202758789062,1812,9943.0
6250,0.34108078479766846,-28.993602752685547,-493,7813.0,136.5205078125,2207,9943.0
6260,0.34099966287612915,-24.28369903564453,-359,7813.0,144.27845764160156,2380,9943.0
6270,0.3381519913673401,-21.691469192504883,-317,7813.0,135.42080688476562,2005,9943.0
6280,0.3373010754585266,-17.85013771057129,-255,7813.0,113.38587188720703,1676,9943.0
6290,0.33681032061576843,-10.678848266601562,-114,7813.0,71.61968231201172,884,9943.0
6300,0.33597245812416077,-13.268211364746094,-227,7813.0,20.379356384277344,179,9943.0
6310,0.3282850682735443,-7.645923137664795,-108,7813.0,-33.41923522949219,-849,9943.0
6320,0.3278714716434479,-1.4782955646514893,78,7813.0,-91.18059539794922,-1654,9943.0
6330,0.32793503999710083,5.842315673828125,28,7813.0,-128.59695434570312,-2010,9943.0
6340,0.32783544063568115,8.193460464477539,214,7813.0,-130.5873565673828,-2051,9943.0
6350,0.32380184531211853,11.707064628601074,282,7813.0,-111.69379425048828,-1796,9943.0
6360,0.3238797187805176,18.456623077392578,330,7813.0,-77.11817169189453,-1047,9943.0
6370,0.32405024766921997,13.614078521728516,169,7813.0,-23.715452194213867,-125,9943.0
6380,0.3259879946708679,2.8784992694854736,122,7813.0,34.67557907104492,748,9943.0
6390,0.3267483115196228,-3.0993568897247314,131,7813.0,80.0518798828125,1576,9943.0
6400,0.32385846972465515,-3.3540115356445312,-31,7813.0,106.26813507080078,1868,9943.0
6410,0.3247511386871338,-0.39759621024131775,-99,7813.0,121.10491180419922,2042,9943.0
6420,0.32506000995635986,-4.001540660858154,-148,7813.0,125.14360046386719,2069,9943.0
6430,0.32543474435806274,0.03743560239672661,80,7813.0,116.3815689086914,1738,9943.0
6440,0.32137832045555115,8.273073196411133,109,7813.0,89.09599304199219,1337,9943.0
6450,0.32130590081214905,15.338878631591797,345,7813.0,48.05155944824219,541,9943.0
6460,0.3215508460998535,19.018314361572266,311,7813.0,3.1518967151641846,-78,9943.0
6470,0.3224698007106781,22.196231842041016,382,7813.0,-41.20816421508789,-992,9943.0
6480,0.32400596141815186,18.420654296875,282,7813.0,-84.3011245727539,-1554,9943.0
6490,0.3204093873500824,12.837163925170898,146,7813.0,-123.63229370117188,-1967,9943.0
6500,0.32071077823638916,1.6107006072998047,-5,7813.0,-149.48597717285156,-2521,9943.0
6510,0.32075244188308716,-13.216225624084473,-251,7813.0,-153.6871337890625,-2577,9943.0
6520,0.32257968187332153,-29.561424255371094,-470,7813.0,-139.13641357421875,-2263,9943.0
6530,0.32014310359954834,-38.62370681762695,-625,7813.0,-111.2625732421875,-1623,9943.0
6540,0.31894850730895996,-35.92922592163086,-601,7813.0,-61.21914291381836,-727,9943.0
6550,0.32028821110725403,-32.85197067260742,-530,7813.0,7.919030666351318,438,9943.0
6560,0.3211623728275299,-20.251567840576172,-276,7813.0,67.8251953125,1498,9943.0
6570,0.3225466012954712,-13.019037246704102,-199,7813.0,115.49150085449219,2051,9943.0
6580,0.3224737048149109,-3.8155698776245117,60,7813.0,140.74742126464844,2351,9943.0
6590,0.32181429862976074,9.843360900878906,296,7813.0,152.25241088867188,2664,9943.0
6600,0.3216524124145508,25.097854614257812,419,7813.0,140.58680725097656,2093,9943.0
6610,0.32041579484939575,32.61648941040039,547,7813.0,107.39228820800781,1540,9943.0
6620,0.31610187888145447,33.349205017089844,459,7813.0,60.35356521606445,806,9943.0
6630,0.31517478823661804,18.373493194580078,316,7813.0,12.020332336425781,-101,9943.0
6640,0.3160637617111206,10.958088874816895,79,7813.0,-37.492332458496094,-752,9943.0
6650,0.31597739458084106,5.432693004608154,171,7813.0,-79.55608367919922,-1560,9943.0
6660,0.3134283125400543,-0.03196609765291214,-43,7813.0,-112.93004608154297,-1881,9943.0
6670,0.3133508265018463,-3.4966485500335693,-154,7813.0,-133.45523071289062,-2270,9943.0
6680,0.3134613633155823,-9.145330429077148,-136,7813.0,-147.2360076904297,-2518,9943.0
6690,0.31254875659942627,-12.08747386932373,-147,7813.0,-152.03152465820312,-2483,9943.0
6700,0.31002020835876465,-16.434045791625977,-182,7813.0,-132.9866943359375,-1997,9943.0
6710,0.3104395866394043,-16.011573791503906,-298,7813.0,-86.37664794921875,-1134,9943.0
6720,0.3143519461154938,-14.147648811340332,-254,7813.0,-33.55315399169922,-234,9943.0
6730,0.3142189681529999,-9.922287940979004,-171,7813.0,32.46714401245117,865,9943.0
6740,0.3160400986671448,-10.57536792755127,-196,7813.0,95.93036651611328,1936,9943.0
6750,0.31692665815353394,-7.363466262817383,-164,7813.0,145.40945434570312,2600,9943.0
6760,0.31731316447257996,-5.135108947753906,-61,7813.0,174.38153076171875,2918,9943.0
6770,0.3177231252193451,-1.098327398300171,39,7813.0,193.25827026367188,3257,9943.0
6780,0.31897586584091187,7.52459716796875,125,7813.0,185.7539520263672,2935,9943.0
6790,0.31318965554237366,10.81490707397461,207,7813.0,150.46209716796875,2232,9943.0
6800,0.3152701258659363,10.243821144104004,86,7813.0,97.30760192871094,1107,9943.0
6810,0.3156365156173706,8.723682403564453,185,7813.0,34.31123733520508,315,9943.0
6820,0.31605443358421326,8.118322372436523,174,7813.0,-24.264097213745117,-820,9943.0
6830,0.31725043058395386,14.493879318237305,195,7813.0,-72.58021545410156,-1312,9943.0
6840,0.315335214138031,14.908377647399902,344,7813.0,-108.39891052246094,-1985,9943.0
6850,0.31515511870384216,8.205760955810547,32,7813.0,-132.68789672851562,-2282,9943.0
6860,0.31489378213882446,0.4893278479576111,60,7813.0,-147.7779998779297,-2540,9943.0
6870,0.3140162527561188,1.6849169731140137,151,7813.0,-157.57298278808594,-2641,9943.0
6880,0.31098610162734985,11.018146514892578,169,7813.0,-147.8817901611328,-2219,9943.0
6890,0.3122723698616028,13.197511672973633,208,7813.0,-117.94046783447266,-1643,9943.0
6900,0.31138288974761963,12.26426887512207,204,7813.0,-71.19456481933594,-732,9943.0
6910,0.31012487411499023,11.862166404724121,106,7813.0,-12.672808647155762,260,9943.0
6920,0.3102375566959381,-7.492554664611816,-249,7813.0,56.40744400024414,1458,9943.0
6930,0.31069833040237427,-31.170185089111328,-646,7813.0,117.80670166015625,2326,9943.0
6940,0.3096848428249359,-46.647098541259766,-882,7813.0,155.6330108642578,2747,9943.0
6950,0.308885395526886,-48.29500198364258,-739,7813.0,175.888671875,2823,9943.0
6960,0.3073693811893463,-46.996681213378906,-763,7813.0,173.3520050048828,2867,9943.0
6970,0.3046671152114868,-37.17316818237305,-406,7813.0,153.63267517089844,2201,9943.0
6980,0.30205124616622925,-19.682415008544922,-257,7813.0,111.4185791015625,1596,9943.0
6990,0.29907113313674927,-2.5802500247955322,-31,7813.0,57.79851150512695,812,9943.0
7000,0.2974877953529358,12.310291290283203,287,7813.0,-2.316915988922119,-307,9943.0
7010,0.2951255142688751,20.945281982421875,376,7813.0,-53.19052505493164,-1186,9943.0
7020,0.29335567355155945,21.89760398864746,290,7813.0,-93.51009368896484,-1559,9943.0
7030,0.29164791107177734,16.485137939453125,197,7813.0,-120.83081817626953,-2139,9943.0
7040,0.28932374715805054,12.430069923400879,108,7813.0,-138.34153747558594,-2203,9943.0
7050,0.28784796595573425,10.247604370117188,127,7813.0,-139.96612548828125,-2270,9943.0
7060,0.28592270612716675,13.685382843017578,294,7813.0,-116.56314086914062,-1787,9943.0
7070,0.28364434838294983,13.370955467224121,191,7813.0,-77.74945068359375,-980,9943.0
7080,0.28205370903015137,9.114588737487793,-8,7813.0,-22.423376083374023,29,9943.0
7090,0.2825510501861572,-9.308245658874512,-216,7813.0,45.97196578979492,1040,9943.0
7100,0.2810198962688446,-22.8501033782959,-344,7813.0,113.01905059814453,2040,9943.0
7110,0.2815071642398834,-26.185462951660156,-406,7813.0,159.02609252929688,2792,9943.0
7120,0.2812260389328003,-26.706443786621094,-379,7813.0,176.6809539794922,2836,9943.0
7130,0.28207194805145264,-20.596837997436523,-304,7813.0,169.10113525390625,2703,9943.0
7140,0.2782589793205261,-9.037515640258789,-28,7813.0,140.87449645996094,2189,9943.0
7150,0.27762100100517273,2.316237449645996,127,7813.0,96.58053588867188,1295,9943.0
7160,0.2769826650619507,12.158455848693848,131,7813.0,39.21096420288086,238,9943.0
7170,0.2782631814479828,20.33778953552246,254,7813.0,-25.14788246154785,-725,9943.0
7180,0.27782896161079407,17.8346004486084,344,7813.0,-82.51171112060547,-1350,9943.0
7190,0.2752470076084137,10.377995491027832,201,7813.0,-113.63618469238281,-1996,9943.0
7200,0.27443623542785645,3.991063117980957,4,7813.0,-132.72410583496094,-2131,9943.0
7210,0.2735329866409302,-1.8364989757537842,-59,7813.0,-136.94627380371094,-2265,9943.0
7220,0.2751148045063019,-7.789648056030273,-156,7813.0,-125.79835510253906,-1882,9943.0
7230,0.27193188667297363,-12.451884269714355,-251,7813.0,-101.68477630615234,-1622,9943.0
7240,0.27126675844192505,-17.213045120239258,-250,7813.0,-67.47691345214844,-909,9943.0
7250,0.27115389704704285,-17.67835807800293,-231,7813.0,-22.84358024597168,-99,9943.0
7260,0.27218395471572876,-12.248072624206543,-215,7813.0,24.20658302307129,599,9943.0
7270,0.2734720706939697,-7.461569786071777,-42,7813.0,75.57737731933594,1435,9943.0
7280,0.2722555994987488,0.3818989396095276,56,7813.0,127.33265686035156,2328,9943.0
7290,0.2729291021823883,4.803491592407227,92,7813.0,162.10543823242188,2686,9943.0
7300,0.2731158137321472,5.643401145935059,117,7813.0,176.70799255371094,2933,9943.0
7310,0.27345213294029236,9.909201622009277,231,7813.0,165.58419799804688,2493,9943.0
7320,0.2705816626548767,10.928908348083496,57,7813.0,126.56541442871094,1841,9943.0
7330,0.2694845199584961,-0.5197996497154236,-82,7813.0,72.47639465332031,985,9943.0
7340,0.27293503284454346,-22.318130493164062,-389,7813.0,9.657859802246094,-256,9943.0
7350,0.27289703488349915,-32.94992446899414,-584,7813.0,-55.791255950927734,-1093,9943.0
7360,0.26952993869781494,-29.048587799072266,-438,7813.0,-100.1085205078125,-1653,9943.0
7370,0.26868635416030884,-22.769664764404297,-293,7813.0,-133.63265991210938,-2372,9943.0
7380,0.26862332224845886,-11.624778747558594,-167,7813.0,-147.92822265625,-2346,9943.0
7390,0.26617351174354553,0.7556790709495544,72,7813.0,-145.97857666015625,-2329,9943.0
7400,0.26482948660850525,17.73044776916504,394,7813.0,-121.71197509765625,-1713,9943.0
7410,0.2628368139266968,34.511016845703125,651,7813.0,-88.00887298583984,-1261,9943.0
7420,0.2646979093551636,42.8968505859375,716,7813.0,-47.57161331176758,-635,9943.0
7430,0.26510709524154663,39.7037467956543,709,7813.0,4.840997695922852,285,9943.0
7440,0.26690781116485596,33.438865661621094,376,7813.0,61.524452209472656,1333,9943.0
7450,0.2643876373767853,8.015533447265625,-52,7813.0,108.71175384521484,2062,9943.0
7460,0.2636969983577728,-17.862442016601562,-336,7813.0,150.44656372070312,2532,9943.0
7470,0.26499995589256287,-32.24769973754883,-704,7813.0,163.40798950195312,2650,9943.0
7480,0.26546332240104675,-45.19502639770508,-735,7813.0,157.3528594970703,2579,9943.0
7490,0.2652154266834259,-43.24995040893555,-670,7813.0,119.48466491699219,1761,9943.0
7500,0.2654803395271301,-30.405460357666016,-500,7813.0,74.0923843383789,827,9943.0
7510,0.26570621132850647,-18.316497802734375,-242,7813.0,17.190330505371094,-146,9943.0
7520,0.26623374223709106,-5.450878143310547,-79,7813.0,-29.79847526550293,-716,9943.0
7530,0.2668423056602478,4.891226768493652,187,7813.0,-70.30624389648438,-1305,9943.0
7540,0.26471054553985596,20.00278663635254,437,7813.0,-100.78280639648438,-1750,9943.0
7550,0.2645915746688843,25.481420516967773,398,7813.0,-107.6243667602539,-1787,9943.0
7560,0.2643992006778717,28.773847579956055,559,7813.0,-91.58959197998047,-1258,9943.0
7570,0.2648824453353882,34.34652328491211,563,7813.0,-62.003990173339844,-972,9943.0
7580,0.26456770300865173,38.23460388183594,594,7813.0,-28.644350051879883,-156,9943.0
7590,0.2653490900993347,34.049259185791016,497,7813.0,5.221552848815918,269,9943.0
7600,0.2660551369190216,27.33718490600586,420,7813.0,37.48863983154297,652,9943.0
7610,0.2669810354709625,14.230072021484375,147,7813.0,63.459903717041016,1190,9943.0
7620,0.26756706833839417,0.578797459602356,-81,7813.0,82.7132568359375,1417,9943.0
7630,0.2665511965751648,-18.443588256835938,-379,7813.0,87.67247772216797,1438,9943.0
7640,0.2673816382884979,-35.28494644165039,-632,7813.0,75.69994354248047,1128,9943.0
7650,0.26776817440986633,-39.75493240356445,-675,7813.0,57.191341400146484,942,9943.0
7660,0.26807910203933716,-24.67282485961914,-175,7813.0,38.69949722290039,462,9943.0
7670,0.2683558464050293,0.5323835015296936,104,7813.0,10.870755195617676,93,9943.0
7680,0.2685110569000244,13.861162185668945,364,7813.0,-14.988840103149414,-281,9943.0
7690,0.26871562004089355,22.69950294494629,412,7813.0,-32.683834075927734,-718,9943.0
7700,0.26865440607070923,26.956167221069336,409,7813.0,-46.06973648071289,-731,9943.0
7710,0.2685950696468353,23.44754409790039,372,7813.0,-59.128868103027344,-1114,9943.0
7720,0.26815277338027954,21.648439407348633,189,7813.0,-67.33118438720703,-1015,9943.0
7730,0.26762154698371887,8.877373695373535,71,7813.0,-57.29642105102539,-920,9943.0
7740,0.2674688398838043,-1.220093846321106,24,7813.0,-26.68174171447754,-235,9943.0
7750,0.267426997423172,-4.661477565765381,-82,7813.0,12.74788761138916,420,9943.0
7760,0.26617664098739624,1.4630318880081177,63,7813.0,43.829349517822266,706,9943.0
7770,0.2658892571926117,5.904114723205566,118,7813.0,59.007469177246094,1117,9943.0
7780,0.2655683755874634,10.039549827575684,153,7813.0,57.514678955078125,796,9943.0
7790,0.26588010787963867,12.388751029968262,151,7813.0,40.05047607421875,617,9943.0
7800,0.2658597230911255,3.0357978343963623,34,7813.0,18.816110610961914,168,9943.0
7810,0.26555997133255005,-14.65164566040039,-400,7813.0,-2.417459726333618,-97,9943.0
7820,0.26588907837867737,-33.13123321533203,-541,7813.0,-19.976240158081055,-376,9943.0
7830,0.26580414175987244,-45.91544723510742,-832,7813.0,-30.958070755004883,-638,9943.0
7840,0.2657151222229004,-54.440242767333984,-854,7813.0,-41.28355026245117,-566,9943.0
7850,0.2698979675769806,-52.69341278076172,-850,7813.0,-35.41328048706055,-595,9943.0
7860,0.26985639333724976,-41.94709396362305,-615,7813.0,-21.933000564575195,-269,9943.0
7870,0.2703644037246704,-22.692279815673828,-235,7813.0,-9.199292182922363,-111,9943.0
7880,0.27029281854629517,-3.1311798095703125,-60,7813.0,-2.6686086654663086,-157,9943.0
7890,0.2724728584289551,6.697871685028076,134,7813.0,1.8227713108062744,156,9943.0
7900,0.2730967104434967,20.658647537231445,450,7813.0,4.0837860107421875,205,9943.0
7910,0.2731119394302368,35.125118255615234,596,7813.0,8.541373252868652,58,9943.0
7920,0.2734569013118744,44.61753463745117,689,7813.0,14.329193115234375,301,9943.0
7930,0.27556711435317993,49.29204559326172,855,7813.0,19.52954864501953,329,9943.0
7940,0.2758229970932007,50.60939407348633,747,7813.0,23.8569393157959,287,9943.0
7950,0.27728453278541565,45.598876953125,773,7813.0,19.67622184753418,384,9943.0
7960,0.2777703106403351,36.38692855834961,493,7813.0,7.772299766540527,-46,9943.0
7970,0.2784511148929596,20.88425636291504,175,7813.0,-7.149723052978516,-130,9943.0
7980,0.2788099944591522,-5.437554836273193,-144,7813.0,-15.456811904907227,-300,9943.0
7990,0.2796112895011902,-33.32674026489258,-783,7813.0,-10.007184982299805,-87,9943.0
8000,0.2802305221557617,-51.37675476074219,-759,7813.0,-1.8071753978729248,-77,9943.0
8010,0.2808372378349304,-50.16138458251953,-879,7813.0,3.4662716388702393,51,9943.0
8020,0.28299275040626526,-43.005733489990234,-571,7813.0,5.256044864654541,183,9943.0
8030,0.2834903597831726,-33.752098083496094,-447,7813.0,5.86994743347168,17,9943.0
8040,0.28389522433280945,-15.7042236328125,-192,7813.0,-1.5247735977172852,31,9943.0
8050,0.28389182686805725,3.500035047531128,246,7813.0,-4.373152256011963,-9,9943.0
8060,0.28421297669410706,24.881214141845703,464,7813.0,-0.14338485896587372,-5,9943.0
8070,0.2862602472305298,40.62477493286133,728,7813.0,2.6755220890045166,130,9943.0
8080,0.2863803505897522,48.46213150024414,783,7813.0,2.4613990783691406,-15,9943.0
8090,0.2863192558288574,41.32683181762695,597,7813.0,0.2498386800289154,64,9943.0
8100,0.2863171100616455,28.794336318969727,500,7813.0,-1.3321913480758667,-79,9943.0
8110,0.2861352264881134,25.34156608581543,402,7813.0,-8.74061393737793,-167,9943.0
8120,0.28600457310676575,22.614912033081055,329,7813.0,-19.726974487304688,-436,9943.0
8130,0.2856941819190979,15.432528495788574,207,7813.0,-29.7437744140625,-400,9943.0
8140,0.28541985154151917,8.095037460327148,67,7813.0,-36.80388259887695,-649,9943.0
8150,0.2852476239204407,1.7458508014678955,34,7813.0,-33.10060501098633,-539,9943.0
8160,0.2866785228252411,-8.598713874816895,-237,7813.0,-16.001705169677734,63,9943.0
8170,0.2868170142173767,-22.929174423217773,-442,7813.0,24.5046443939209,556,9943.0
8180,0.28733396530151367,-35.205989837646484,-555,7813.0,59.00907897949219,1157,9943.0
8190,0.2873694598674774,-35.71608352661133,-570,7813.0,73.23241424560547,1111,9943.0
8200,0.28681468963623047,-26.657386779785156,-399,7813.0,68.16120910644531,1169,9943.0
8210,0.28648820519447327,-17.044151306152344,-199,7813.0,50.79393768310547,674,9943.0
8220,0.286405473947525,-8.008877754211426,-142,7813.0,26.106006622314453,243,9943.0
8230,0.28623977303504944,-5.217451095581055,-29,7813.0,-1.4777575731277466,-184,9943.0
8240,0.2850048840045929,1.4193414449691772,91,7813.0,-25.55789566040039,-608,9943.0
8250,0.2845158576965332,8.274613380432129,101,7813.0,-43.21271896362305,-769,9943.0
8260,0.28383591771125793,12.072596549987793,275,7813.0,-50.41708755493164,-888,9943.0
8270,0.28310421109199524,12.87682056427002,180,7813.0,-53.19636535644531,-772,9943.0
8280,0.28261542320251465,8.460497856140137,173,7813.0,-49.73772430419922,-866,9943.0
8290,0.2798804044723511,4.589393138885498,-41,7813.0,-42.747676849365234,-552,9943.0
8300,0.2792049050331116,-1.7594832181930542,19,7813.0,-30.575002670288086,-450,9943.0
8310,0.2786284387111664,-6.866113662719727,-193,7813.0,-17.76054573059082,-142,9943.0
8320,0.2780173122882843,-12.708874702453613,-199,7813.0,-1.9742906093597412,-22,9943.0
8330,0.27427923679351807,-12.514806747436523,-205,7813.0,15.96142578125,379,9943.0
8340,0.27378538250923157,-14.380714416503906,-203,7813.0,24.7249698638916,378,9943.0
8350,0.27321138978004456,-22.1890811920166,-435,7813.0,24.86571502685547,314,9943.0
8360,0.2727055549621582,-19.26358413696289,-239,7813.0,17.049137115478516,357,9943.0
8370,0.26947078108787537,-5.7534894943237305,-15,7813.0,5.932088851928711,-73,9943.0
8380,0.26925116777420044,12.481438636779785,248,7813.0,-2.587675094604492,-66,9943.0
8390,0.26876285672187805,25.003049850463867,334,7813.0,-2.9838225841522217,92,9943.0
8400,0.26826533675193787,28.2125301361084,455,7813.0,6.806835651397705,68,9943.0
8410,0.2681383490562439,33.54960250854492,518,7813.0,15.24059009552002,346,9943.0
8420,0.2669685184955597,31.26192855834961,545,7813.0,18.019821166992188,266,9943.0
8430,0.26660075783729553,26.272994995117188,307,7813.0,10.285273551940918,74,9943.0
8440,0.26681870222091675,14.016425132751465,179,7813.0,-0.5439713001251221,91,9943.0
8450,0.2661353647708893,-5.424084186553955,-183,7813.0,-9.727862358093262,-374,9943.0
8460,0.2654021978378296,-25.398900985717773,-489,7813.0,-21.912202835083008,-349,9943.0
8470,0.26551541686058044,-38.32667922973633,-674,7813.0,-35.0343132019043,-759,9943.0
8480,0.26552271842956543,-45.34681701660156,-720,7813.0,-42.75575637817383,-616,9943.0
8490,0.26558971405029297,-48.81521224975586,-795,7813.0,-43.58875274658203,-765,9943.0
8500,0.26544561982154846,-46.08263397216797,-748,7813.0,-34.13725662231445,-384,9943.0
8510,0.26539576053619385,-40.83895492553711,-610,7813.0,-18.718271255493164,-315,9943.0
8520,0.2657439112663269,-35.56511306762695,-594,7813.0,4.08773136138916,216,9943.0
8530,0.2667091190814972,-22.260900497436523,-184,7813.0,25.42084312438965,533,9943.0
8540,0.26776358485221863,1.9234071969985962,38,7813.0,40.60818099975586,576,9943.0
8550,0.26788824796676636,27.1694278717041,609,7813.0,39.34749984741211,719,9943.0
8560,0.2688310742378235,48.96134567260742,946,7813.0,38.808372497558594,591,9943.0
8570,0.26974231004714966,60.10308837890625,920,7813.0,34.68876266479492,513,9943.0
8580,0.2705272138118744,56.9487419128418,913,7813.0,33.00772476196289,659,9943.0
8590,0.27124568819999695,39.14936828613281,508,7813.0,28.98465347290039,370,9943.0
8600,0.2717951834201813,14.294900894165039,88,7813.0,13.715201377868652,238,9943.0
8610,0.2738264203071594,-7.013991832733154,-111,7813.0,-4.728135585784912,-170,9943.0
8620,0.2747710943222046,-18.28168296813965,-409,7813.0,-18.668256759643555,-361,9943.0
8630,0.2755995988845825,-24.765737533569336,-338,7813.0,-25.84498405456543,-391,9943.0
8640,0.2754906117916107,-23.491233825683594,-415,7813.0,-21.798978805541992,-378,9943.0
8650,0.2762797772884369,-14.75756549835205,-157,7813.0,-13.245502471923828,-86,9943.0
8660,0.27716684341430664,-1.972160816192627,-77,7813.0,-4.911780834197998,-127,9943.0
8670,0.2783578634262085,2.717556953430176,95,7813.0,-2.6617941856384277,73,9943.0
8680,0.27822351455688477,6.031152248382568,99,7813.0,6.973514080047607,131,9943.0
8690,0.27939629554748535,5.670682907104492,-39,7813.0,19.251083374023438,457,9943.0
8700,0.28084883093833923,-2.716125965118408,-39,7813.0,36.385948181152344,647,9943.0
8710,0.28216317296028137,-6.931308746337891,-147,7813.0,53.01131820678711,976,9943.0
8720,0.2833748757839203,1.2334270477294922,50,7813.0,59.37055969238281,1023,9943.0
8730,0.28635695576667786,13.921773910522461,249,7813.0,53.161922454833984,657,9943.0
8740,0.28733736276626587,36.789764404296875,732,7813.0,30.9503231048584,383,9943.0
8750,0.28819119930267334,44.436973571777344,799,7813.0,7.437314510345459,-9,9943.0
8760,0.28864797949790955,40.41523361206055,563,7813.0,-6.5687575340271,-81,9943.0
8770,0.2898092269897461,26.888776779174805,423,7813.0,-3.8822381496429443,8,9943.0
8780,0.29032236337661743,12.477795600891113,80,7813.0,-9.55180835723877,-393,9943.0
8790,0.29077887535095215,-8.095243453979492,-209,7813.0,-24.328765869140625,-277,9943.0
8800,0.29111263155937195,-28.51438331604004,-511,7813.0,-32.03531265258789,-738,9943.0
8810,0.2913583517074585,-33.33061599731445,-612,7813.0,-47.33563995361328,-775,9943.0
8820,0.29163092374801636,-31.32831573486328,-452,7813.0,-53.04719161987305,-863,9943.0
8830,0.2916003465652466,-20.15210723876953,-184,7813.0,-48.8309326171875,-729,9943.0
8840,0.2915349304676056,2.744645118713379,170,7813.0,-39.082881927490234,-634,9943.0
8850,0.29216161370277405,10.523017883300781,193,7813.0,-31.624189376831055,-420,9943.0
8860,0.29313433170318604,9.789589881896973,170,7813.0,-22.366558074951172,-419,9943.0
8870,0.2933477759361267,-0.8912537097930908,-38,7813.0,-19.4007625579834,-204,9943.0
8880,0.2934734523296356,-4.871635913848877,-29,7813.0,-3.6751115322113037,-98,9943.0
8890,0.29445508122444153,-1.9238582849502563,-36,7813.0,18.666339874267578,578,9943.0
8900,0.2952084541320801,1.2947827577590942,175,7813.0,49.67314529418945,823,9943.0
8910,0.29580608010292053,6.291365146636963,55,7813.0,62.445838928222656,1123,9943.0
8920,0.29606303572654724,-2.3175535202026367,-40,7813.0,62.45857620239258,988,9943.0
8930,0.2962019741535187,-8.737229347229004,-178,7813.0,53.17839050292969,807,9943.0
8940,0.2963511049747467,-13.792428970336914,-315,7813.0,35.744224548339844,465,9943.0
8950,0.2970494329929352,-13.399930953979492,-150,7813.0,18.309368133544922,171,9943.0
8960,0.29708144068717957,-7.990113735198975,-47,7813.0,1.3643687963485718,-174,9943.0
8970,0.2970410883426666,3.0611953735351562,54,7813.0,-26.837127685546875,-567,9943.0
8980,0.29718562960624695,11.062438011169434,296,7813.0,-49.736942291259766,-761,9943.0
8990,0.2977246344089508,17.97768211364746,338,7813.0,-62.83136749267578,-1103,9943.0
9000,0.29779496788978577,17.38493537902832,196,7813.0,-57.90085983276367,-899,9943.0
9010,0.2977781593799591,19.178661346435547,401,7813.0,-52.200008392333984,-767,9943.0
9020,0.29811111092567444,21.355628967285156,313,7813.0,-48.342281341552734,-814,9943.0
9030,0.2982620298862457,26.086271286010742,488,7813.0,-39.424278259277344,-551,9943.0
9040,0.29955145716667175,31.07990074157715,484,7813.0,-19.369354248046875,-155,9943.0
9050,0.30005180835723877,29.376449584960938,523,7813.0,2.8718812465667725,144,9943.0
9060,0.3008497357368469,16.635648727416992,109,7813.0,24.529415130615234,513,9943.0
9070,0.30138319730758667,1.60761296749115,-59,7813.0,45.02322769165039,822,9943.0
9080,0.3010915517807007,-17.37714958190918,-417,7813.0,64.48408508300781,1207,9943.0
9090,0.3015407919883728,-38.75530242919922,-622,7813.0,69.05732727050781,1034,9943.0
9100,0.302181601524353,-44.11148452758789,-763,7813.0,52.45948028564453,699,9943.0
9110,0.30281779170036316,-37.74970626831055,-512,7813.0,18.43766975402832,256,9943.0
9120,0.3050403892993927,-24.655513763427734,-270,7813.0,-13.382623672485352,-336,9943.0
9130,0.305340051651001,-16.170713424682617,-303,7813.0,-38.877891540527344,-877,9943.0
9140,0.30520209670066833,-9.667259216308594,-162,7813.0,-62.85254669189453,-1037,9943.0
9150,0.30584076046943665,0.9818118214607239,108,7813.0,-73.80888366699219,-1224,9943.0
9160,0.3060019612312317,6.851941108703613,37,7813.0,-65.74681854248047,-1055,9943.0
9170,0.3066408634185791,11.114180564880371,251,7813.0,-45.852142333984375,-590,9943.0
9180,0.30697572231292725,15.732353210449219,192,7813.0,-20.30633544921875,-278,9943.0
9190,0.3078456521034241,13.22288703918457,254,7813.0,-5.283448696136475,5,9943.0
9200,0.3082674443721771,8.684759140014648,55,7813.0,6.472977161407471,238,9943.0
9210,0.3094773590564728,6.4221086502075195,204,7813.0,14.104398727416992,214,9943.0
9220,0.3101142346858978,11.82322883605957,90,7813.0,22.357833862304688,487,9943.0
9230,0.3107708692550659,9.9456787109375,272,7813.0,31.579402923583984,550,9943.0
9240,0.3114093244075775,10.56088638305664,81,7813.0,40.26715087890625,670,9943.0
9250,0.31015104055404663,11.839045524597168,282,7813.0,40.856605529785156,656,9943.0
9260,0.3108130693435669,12.863903999328613,164,7813.0,33.543704986572266,447,9943.0
9270,0.3112710416316986,11.223625183105469,178,7813.0,20.89296531677246,329,9943.0
9280,0.31164368987083435,3.7725112438201904,-76,7813.0,3.8132259845733643,-104,9943.0
9290,0.3125764727592468,-9.15887451171875,-136,7813.0,-10.256010055541992,-150,9943.0
9300,0.31298354268074036,-17.163436889648438,-329,7813.0,-23.811073303222656,-601,9943.0
9310,0.3129928410053253,-24.560306549072266,-388,7813.0,-36.97100067138672,-541,9943.0
9320,0.313202828168869,-24.66129493713379,-454,7813.0,-38.36688995361328,-651,9943.0
9330,0.31308478116989136,-23.620338439941406,-333,7813.0,-32.80770492553711,-467,9943.0
9340,0.3132798373699188,-19.648193359375,-409,7813.0,-19.68941879272461,-248,9943.0
9350,0.31348785758018494,-20.28118896484375,-238,7813.0,-14.349377632141113,-287,9943.0
9360,0.3136211335659027,-17.41770362854004,-294,7813.0,-15.894634246826172,-285,9943.0
9370,0.31377413868904114,-4.105114459991455,75,7813.0,-20.057832717895508,-295,9943.0
9380,0.3149901330471039,16.384567260742188,360,7813.0,-13.369586944580078,-227,9943.0
9390,0.31638243794441223,29.62794303894043,557,7813.0,1.7810423374176025,165,9943.0
9400,0.31719771027565,30.56485366821289,431,7813.0,20.989608764648438,581,9943.0
9410,0.31787434220314026,24.14947509765625,402,7813.0,51.44750213623047,862,9943.0
9420,0.31825220584869385,17.421836853027344,101,7813.0,60.644752502441406,1083,9943.0
9430,0.3193076550960541,-0.3657063841819763,37,7813.0,55.22632598876953,769,9943.0
9440,0.31955686211586,-7.659908294677734,-215,7813.0,41.565467834472656,569,9943.0
9450,0.3196740448474884,-16.19591522216797,-222,7813.0,21.543489456176758,297,9943.0
9460,0.31991124153137207,-17.29781150817871,-259,7813.0,-0.30956071615219116,-182,9943.0
9470,0.3200345039367676,-12.620800971984863,-198,7813.0,-19.10137367248535,-426,9943.0
9480,0.3206852376461029,-4.906551361083984,45,7813.0,-37.73357391357422,-644,9943.0
9490,0.3206039369106293,6.469844341278076,86,7813.0,-46.25923538208008,-822,9943.0
9500,0.32050105929374695,7.23522424697876,117,7813.0,-46.0414924621582,-637,9943.0
9510,0.3204379975795746,0.9248611927032471,-21,7813.0,-43.70671844482422,-732,9943.0
9520,0.3197697699069977,-3.5499448776245117,-71,7813.0,-33.259151458740234,-449,9943.0
9530,0.3196456730365753,-9.825580596923828,-259,7813.0,-20.529850006103516,-155,9943.0
9540,0.3195893168449402,-17.171680450439453,-234,7813.0,-6.748363494873047,-102,9943.0
9550,0.31961461901664734,-16.501798629760742,-288,7813.0,11.671045303344727,367,9943.0
9560,0.32056528329849243,0.017295027151703835,218,7813.0,29.5390682220459,506,9943.0
9570,0.32079967856407166,26.720218658447266,484,7813.0,39.32861328125,673,9943.0
9580,0.3210485577583313,43.411373138427734,708,7813.0,28.618539810180664,378,9943.0
9590,0.32121706008911133,39.74190139770508,659,7813.0,19.21391487121582,207,9943.0
9600,0.3213251531124115,23.429256439208984,165,7813.0,20.19357681274414,344,9943.0
9610,0.32052984833717346,-0.8688706755638123,-26,7813.0,23.97020721435547,333,9943.0
9620,0.3203011453151703,-9.314013481140137,-220,7813.0,15.782678604125977,233,9943.0
9630,0.3200024962425232,-12.184613227844238,-101,7813.0,4.631381988525391,11,9943.0
9640,0.31977617740631104,-10.973764419555664,-193,7813.0,-6.468250274658203,-284,9943.0
9650,0.3192248046398163,-8.629854202270508,-96,7813.0,-22.409765243530273,-300,9943.0
9660,0.3188726007938385,-7.262861251831055,-30,7813.0,-27.03455924987793,-446,9943.0
9670,0.3183712363243103,-3.305685043334961,-161,7813.0,-17.76140022277832,-191,9943.0
9680,0.31800341606140137,-5.859318733215332,-21,7813.0,-6.008769989013672,30,9943.0
9690,0.31725171208381653,-9.156189918518066,-179,7813.0,5.579245567321777,-63,9943.0
9700,0.3173096477985382,-4.443563938140869,-10,7813.0,4.522444248199463,153,9943.0
9710,0.3172098696231842,2.2539899349212646,139,7813.0,-2.631185293197632,-81,9943.0
9720,0.31726962327957153,1.926629900932312,-61,7813.0,5.443062782287598,100,9943.0
9730,0.3175389766693115,-7.794676780700684,-92,7813.0,15.042447090148926,378,9943.0
9740,0.31680622696876526,-9.520940780639648,-100,7813.0,22.183483123779297,322,9943.0
9750,0.31710541248321533,1.0866981744766235,34,7813.0,30.724594116210938,458,9943.0
9760,0.3173484206199646,21.40456771850586,468,7813.0,24.925514221191406,441,9943.0
9770,0.31756192445755005,37.53474807739258,724,7813.0,9.53943157196045,52,9943.0
9780,0.3161822557449341,41.889888763427734,600,7813.0,-6.628564357757568,-261,9943.0
9790,0.315940260887146,30.33477783203125,427,7813.0,-11.049714088439941,-159,9943.0
9800,0.31653040647506714,8.785775184631348,107,7813.0,-9.46707534790039,-139,9943.0
9810,0.31624147295951843,-10.59119701385498,-244,7813.0,-3.9619815349578857,-108,9943.0
9820,0.315961629152298,-15.664362907409668,-190,7813.0,-1.8117245435714722,78,9943.0
9830,0.3159477114677429,-11.341395378112793,-106,7813.0,-5.580334663391113,-167,9943.0
9840,0.31556883454322815,-7.868976593017578,-236,7813.0,-4.856808185577393,-78,9943.0
9850,0.31527039408683777,-10.011802673339844,-110,7813.0,-6.359668731689453,-37,9943.0
9860,0.31515830755233765,-15.207623481750488,-278,7813.0,-8.261494636535645,-305,9943.0
9870,0.31624916195869446,-18.47899055480957,-343,7813.0,-10.037534713745117,-28,9943.0
9880,0.31633439660072327,-22.211626052856445,-348,7813.0,-11.384743690490723,-90,9943.0
9890,0.3166598677635193,-24.120691299438477,-410,7813.0,-8.267498970031738,-242,9943.0
9900,0.316952645778656,-15.228727340698242,-270,7813.0,-0.8207919001579285,39,9943.0
9910,0.3171599507331848,-12.560851097106934,-159,7813.0,-1.0909855365753174,42,9943.0
9920,0.3174663186073303,5.120843410491943,110,7813.0,-1.9222122430801392,-91,9943.0
9930,0.31795141100883484,15.37455940246582,199,7813.0,-1.8268969058990479,101,9943.0
9940,0.318502813577652,14.818541526794434,349,7813.0,7.477558612823486,171,9943.0
9950,0.3190772235393524,18.7578182220459,194,7813.0,12.745779991149902,231,9943.0
9960,0.3202381730079651,12.20706844329834,293,7813.0,14.44188404083252,325,9943.0
9970,0.3207557499408722,10.177619934082031,196,7813.0,13.027005195617676,125,9943.0
9980,0.3211778402328491,9.578010559082031,48,7813.0,9.303634643554688,199,9943.0
9990,0.3215726315975189,4.888300895690918,183,7813.0,9.0110502243042,154,9943.0
10000,0.3241092264652252,3.187072992324829,-21,7813.0,8.809412956237793,27,9943.0
10010,0.32460591197013855,-0.7707506418228149,9,7813.0,1.102444052696228,73,9943.0
10020,0.3251137137413025,-4.309841632843018,-60,7813.0,-3.2707393169403076,-195,9943.0
10030,0.3256998062133789,-13.822525024414062,-265,7813.0,-2.702720880508423,62,9943.0
10040,0.3263850808143616,-25.07232093811035,-391,7813.0,1.737654209136963,-1,9943.0
10050,0.32942187786102295,-36.39564895629883,-730,7813.0,6.16256046295166,151,9943.0
10060,0.33030182123184204,-49.662479400634766,-817,7813.0,15.59678840637207,307,9943.0
10070,0.3310835659503937,-56.81563186645508,-943,7813.0,17.4587345123291,189,9943.0
10080,0.33194243907928467,-41.376548767089844,-508,7813.0,12.271088600158691,171,9943.0
10090,0.3355945348739624,-4.688597679138184,155,7813.0,-3.4379281997680664,-44,9943.0
10100,0.3368123769760132,34.524349212646484,703,7813.0,-8.59664249420166,-187,9943.0
10110,0.3380919098854065,64.90360260009766,1151,7813.0,-16.33126449584961,-383,9943.0
10120,0.33901116251945496,87.64766693115234,1376,7813.0,-26.764148712158203,-344,9943.0
10130,0.33987465500831604,83.08464813232422,1374,7813.0,-26.004972457885742,-573,9943.0
10140,0.34054839611053467,60.19755172729492,720,7813.0,-27.126115798950195,-438,9943.0
10150,0.34095174074172974,22.80338478088379,309,7813.0,-19.088054656982422,-199,9943.0
10160,0.3416399359703064,-5.276426315307617,-337,7813.0,-5.217369079589844,57,9943.0
10170,0.34225714206695557,-26.635122299194336,-451,7813.0,5.64759635925293,76,9943.0
10180,0.34238025546073914,-29.51011848449707,-565,7813.0,14.012784004211426,371,9943.0
10190,0.3425106704235077,-26.846210479736328,-283,7813.0,19.040794372558594,165,9943.0
10200,0.34258192777633667,-12.744149208068848,-223,7813.0,19.799203872680664,409,9943.0
10210,0.34267327189445496,-10.221882820129395,-192,7813.0,20.031465530395508,393,9943.0
10220,0.34245190024375916,-24.141698837280273,-507,7813.0,24.59504508972168,318,9943.0
10230,0.34262189269065857,-39.32156753540039,-753,7813.0,19.88926887512207,325,9943.0
10240,0.34281161427497864,-44.623504638671875,-666,7813.0,13.63945198059082,111,9943.0
10250,0.3431493043899536,-33.16636276245117,-378,7813.0,2.7220354080200195,-100,9943.0
10260,0.3434443771839142,-13.8316068649292,-149,7813.0,-12.912352561950684,-217,9943.0
10270,0.3442927598953247,4.500299453735352,158,7813.0,-25.245206832885742,-270,9943.0
10280,0.3445431888103485,14.094979286193848,272,7813.0,-27.44921112060547,-478,9943.0
10290,0.3445126712322235,17.32699966430664,215,7813.0,-24.418031692504883,-414,9943.0
10300,0.3445589244365692,9.61560344696045,129,7813.0,-23.19437026977539,-266,9943.0
10310,0.34428223967552185,0.13525840640068054,-59,7813.0,-19.66183853149414,-463,9943.0
10320,0.3440738916397095,-0.6717914938926697,-49,7813.0,-22.97699546813965,-307,9943.0
10330,0.3437679708003998,5.166641712188721,235,7813.0,-27.49660873413086,-454,9943.0
10340,0.3432653844356537,26.205615997314453,530,7813.0,-20.752376556396484,-234,9943.0
10350,0.3439120948314667,50.65827941894531,953,7813.0,-11.542523384094238,-95,9943.0
10360,0.343574196100235,57.50104522705078,797,7813.0,7.356756210327148,152,9943.0
10370,0.3433208763599396,38.53738784790039,580,7813.0,23.917644500732422,430,9943.0
10380,0.3434111475944519,17.79924964904785,23,7813.0,34.11448669433594,626,9943.0
10390,0.3431251347064972,-9.494210243225098,-173,7813.0,28.000802993774414,409,9943.0
10400,0.3417201042175293,-20.438230514526367,-415,7813.0,11.503064155578613,119,9943.0
10410,0.34140950441360474,-17.130098342895508,-158,7813.0,-3.2506983280181885,-98,9943.0
10420,0.3410755693912506,-8.644990921020508,-180,7813.0,-8.606053352355957,-237,9943.0
10430,0.3407829999923706,-9.936827659606934,-163,7813.0,-9.10013484954834,-69,9943.0
10440,0.34261077642440796,-13.805159568786621,-235,7813.0,-5.814942836761475,-161,9943.0
10450,0.3422432839870453,-15.072436332702637,-232,7813.0,-8.912312507629395,-181,9943.0
10460,0.34181076288223267,-22.101058959960938,-369,7813.0,-16.433504104614258,-338,9943.0
10470,0.3413139283657074,-29.190914154052734,-465,7813.0,-17.614648818969727,-189,9943.0
10480,0.34075742959976196,-25.139833450317383,-353,7813.0,-11.730116844177246,-244,9943.0
10490,0.34054505825042725,-9.625713348388672,-81,7813.0,-4.8493242263793945,31,9943.0
10500,0.3404715359210968,13.410728454589844,388,7813.0,-1.0310039520263672,-15,9943.0
10510,0.34032219648361206,30.688405990600586,523,7813.0,-1.9852381944656372,-90,9943.0
10520,0.34025466442108154,50.0306396484375,950,7813.0,3.7613019943237305,194,9943.0
10530,0.34019169211387634,64.97258758544922,1017,7813.0,6.540246963500977,53,9943.0
10540,0.3404817283153534,60.964080810546875,925,7813.0,17.294462203979492,433,9943.0
10550,0.3406398892402649,32.59207534790039,349,7813.0,39.962337493896484,778,9943.0
10560,0.34113389253616333,0.7240467667579651,-103,7813.0,47.69303512573242,689,9943.0
10570,0.3415899872779846,-23.872230529785156,-477,7813.0,41.57380294799805,714,9943.0
10580,0.34248214960098267,-43.10292434692383,-770,7813.0,38.43547058105469,518,9943.0
10590,0.34290018677711487,-50.060523986816406,-773,7813.0,32.56087112426758,574,9943.0
10600,0.3430175185203552,-43.3715934753418,-673,7813.0,22.638500213623047,295,9943.0
10610,0.34294766187667847,-31.203386306762695,-451,7813.0,10.097732543945312,38,9943.0
10620,0.34258833527565,-19.202836990356445,-251,7813.0,-5.096182346343994,-132,9943.0
10630,0.3424324095249176,-10.447653770446777,-139,7813.0,-20.752920150756836,-323,9943.0
10640,0.34223711490631104,-9.332256317138672,-104,7813.0,-38.59123992919922,-864,9943.0
10650,0.34204739332199097,-3.6178369522094727,-28,7813.0,-56.189605712890625,-872,9943.0
10660,0.342378169298172,3.7262229919433594,210,7813.0,-46.229698181152344,-676,9943.0
10670,0.3422248065471649,17.451372146606445,221,7813.0,-23.962785720825195,-275,9943.0
10680,0.3421611487865448,23.918960571289062,496,7813.0,-10.629405975341797,-239,9943.0
10690,0.3422243893146515,24.266984939575195,313,7813.0,-1.6385505199432373,122,9943.0
10700,0.34232795238494873,17.774274826049805,284,7813.0,6.2834577560424805,42,9943.0
10710,0.3425065875053406,11.404536247253418,154,7813.0,11.145529747009277,324,9943.0
10720,0.34252089262008667,1.9223098754882812,-137,7813.0,23.781574249267578,424,9943.0
10730,0.3425566554069519,-20.413414001464844,-406,7813.0,38.920963287353516,759,9943.0
10740,0.34268906712532043,-41.92649841308594,-878,7813.0,50.31175231933594,798,9943.0
10750,0.34402450919151306,-62.65938949584961,-1075,7813.0,46.613834381103516,784,9943.0
10760,0.3438880145549774,-65.47906494140625,-992,7813.0,32.33514404296875,419,9943.0
10770,0.34370556473731995,-54.9134635925293,-854,7813.0,24.48282241821289,273,9943.0
10780,0.34327369928359985,-33.93389129638672,-383,7813.0,19.170635223388672,302,9943.0
10790,0.34373873472213745,-3.3314177989959717,135,7813.0,14.119575500488281,247,9943.0
10800,0.3434006869792938,19.34916877746582,416,7813.0,-0.594481348991394,-116,9943.0
10810,0.3429968059062958,33.710391998291016,548,7813.0,-10.284259796142578,-322,9943.0
10820,0.3425649106502533,41.60225296020508,738,7813.0,-23.27495765686035,-378,9943.0
10830,0.3416348993778229,43.67466735839844,736,7813.0,-34.38567352294922,-694,9943.0
10840,0.34276795387268066,35.386329650878906,414,7813.0,-40.378665924072266,-715,9943.0
10850,0.342099130153656,25.60968017578125,456,7813.0,-43.24787139892578,-840,9943.0
10860,0.3414783775806427,13.797592163085938,111,7813.0,-40.259708404541016,-606,9943.0
10870,0.34125620126724243,1.812249779701233,25,7813.0,-33.001441955566406,-611,9943.0
10880,0.34091490507125854,-11.920149803161621,-285,7813.0,-30.17212677001953,-469,9943.0
10890,0.3405535817146301,-13.41222095489502,-137,7813.0,-28.05202293395996,-479,9943.0
10900,0.34043094515800476,-10.086623191833496,-167,7813.0,-17.11835289001465,-53,9943.0
10910,0.34041640162467957,-6.112496852874756,-40,7813.0,8.247694969177246,189,9943.0
10920,0.3404015898704529,6.328989028930664,204,7813.0,20.34964370727539,429,9943.0
10930,0.3411182463169098,4.464805603027344,3,7813.0,30.507671356201172,468,9943.0
10940,0.34114569425582886,-5.291430473327637,-103,7813.0,34.9298210144043,631,9943.0
10950,0.3413502871990204,-18.15562629699707,-414,7813.0,41.27081298828125,594,9943.0
10960,0.34123384952545166,-23.799779891967773,-413,7813.0,37.39921188354492,447,9943.0
10970,0.34282049536705017,-16.682043075561523,-136,7813.0,24.101207733154297,380,9943.0
10980,0.3428473174571991,4.642538070678711,85,7813.0,7.546899318695068,95,9943.0
10990,0.34279942512512207,22.683252334594727,384,7813.0,-6.913654327392578,-174,9943.0
11000,0.34296301007270813,29.925626754760742,458,7813.0,-23.424406051635742,-350,9943.0
11010,0.3432570695877075,21.96485710144043,235,7813.0,-41.47404479980469,-912,9943.0
11020,0.3436048924922943,1.1298340559005737,-106,7813.0,-61.428382873535156,-1083,9943.0
11030,0.3437086343765259,-18.920631408691406,-463,7813.0,-73.21060943603516,-1318,9943.0
11040,0.34375736117362976,-31.3221492767334,-500,7813.0,-81.6468734741211,-1378,9943.0
11050,0.343888521194458,-34.536128997802734,-615,7813.0,-86.756103515625,-1425,9943.0
11060,0.3422824740409851,-21.498397827148438,-209,7813.0,-64.77998352050781,-800,9943.0
11070,0.3430745005607605,-12.054805755615234,-224,7813.0,-26.28837013244629,-143,9943.0
11080,0.3431198298931122,-8.818620681762695,-169,7813.0,18.012447357177734,516,9943.0
11090,0.34341558814048767,-4.859818458557129,33,7813.0,60.32081985473633,1134,9943.0
11100,0.3423755168914795,4.830714225769043,66,7813.0,82.08567810058594,1395,9943.0
11110,0.34244999289512634,17.54092025756836,399,7813.0,94.3226547241211,1643,9943.0
11120,0.34276095032691956,25.425050735473633,456,7813.0,92.7593765258789,1490,9943.0
11130,0.34272846579551697,26.549837112426758,380,7813.0,70.74762725830078,946,9943.0
11140,0.342629075050354,26.219867706298828,468,7813.0,34.5911865234375,219,9943.0
11150,0.34416013956069946,19.749296188354492,320,7813.0,-8.293647766113281,-215,9943.0
11160,0.3444725573062897,9.056111335754395,49,7813.0,-40.65846633911133,-702,9943.0
11170,0.3447991609573364,-6.168652534484863,-194,7813.0,-58.41815948486328,-1050,9943.0
11180,0.3448798954486847,-16.25954818725586,-256,7813.0,-65.7337875366211,-951,9943.0
11190,0.34546875953674316,-20.153244018554688,-321,7813.0,-58.9007453918457,-1073,9943.0
11200,0.3460158705711365,-17.790939331054688,-295,7813.0,-50.456031799316406,-679,9943.0
11210,0.3465726971626282,-14.937705993652344,-192,7813.0,-38.03353500366211,-634,9943.0
11220,0.3472706377506256,-5.710970878601074,-101,7813.0,-30.370418548583984,-306,9943.0
11230,0.34626397490501404,2.603013038635254,194,7813.0,-2.958897113800049,68,9943.0
11240,0.3471740186214447,21.703401565551758,316,7813.0,27.046241760253906,703,9943.0
11250,0.34806379675865173,26.157405853271484,499,7813.0,59.10868835449219,1081,9943.0
11260,0.3488202393054962,19.22150993347168,166,7813.0,76.29542541503906,1278,9943.0
11270,0.3492756485939026,10.60210132598877,189,7813.0,82.33699798583984,1383,9943.0
11280,0.3508372902870178,6.4737548828125,119,7813.0,75.43931579589844,1016,9943.0
11290,0.3511495888233185,2.9793405532836914,2,7813.0,48.39212417602539,598,9943.0
11300,0.3516562879085541,-0.478200227022171,-142,7813.0,18.879098892211914,79,9943.0
11310,0.3517735004425049,-12.192476272583008,-223,7813.0,-24.341136932373047,-569,9943.0
11320,0.35433343052864075,-21.951904296875,-459,7813.0,-62.41964340209961,-1251,9943.0
11330,0.35473617911338806,-36.79877853393555,-700,7813.0,-80.8347396850586,-1396,9943.0
11340,0.3549906611442566,-39.75925827026367,-589,7813.0,-78.50902557373047,-1078,9943.0
11350,0.3550393283367157,-27.517745971679688,-379,7813.0,-68.11920928955078,-1081,9943.0
11360,0.3561505973339081,-9.044219970703125,-20,7813.0,-50.044742584228516,-691,9943.0
11370,0.35684430599212646,15.034462928771973,408,7813.0,-30.933155059814453,-446,9943.0
11380,0.3574405908584595,38.6912841796875,692,7813.0,-11.204925537109375,-53,9943.0
11390,0.3583407402038574,44.630252838134766,719,7813.0,10.851183891296387,368,9943.0
11400,0.35909605026245117,43.20818328857422,568,7813.0,29.783119201660156,607,9943.0
11410,0.3569093942642212,34.99176788330078,586,7813.0,49.87031936645508,904,9943.0
11420,0.35728737711906433,29.201236724853516,370,7813.0,63.149749755859375,1035,9943.0
11430,0.35733482241630554,20.419416427612305,308,7813.0,65.7212142944336,1079,9943.0
11440,0.35748225450515747,9.74802017211914,67,7813.0,54.797637939453125,681,9943.0
11450,0.3583935499191284,2.9046244621276855,47,7813.0,35.25032043457031,629,9943.0
11460,0.3581604063510895,-6.2310662269592285,-82,7813.0,26.941736221313477,366,9943.0
11470,0.357757568359375,-14.793299674987793,-327,7813.0,9.74962329864502,157,9943.0
11480,0.35724300146102905,-15.779095649719238,-192,7813.0,-12.17748737335205,-393,9943.0
11490,0.35686489939689636,-7.677502632141113,90,7813.0,-34.41807556152344,-667,9943.0
11500,0.35883641242980957,-0.5001394748687744,-147,7813.0,-42.86553192138672,-612,9943.0
11510,0.3584478795528412,-11.752500534057617,-210,7813.0,-36.60361099243164,-561,9943.0
11520,0.35810530185699463,-27.683263778686523,-603,7813.0,-22.72895050048828,-261,9943.0
11530,0.3578931987285614,-39.58212661743164,-650,7813.0,-16.211116790771484,-225,9943.0
11540,0.3590060770511627,-40.424503326416016,-685,7813.0,-8.302536010742188,-79,9943.0
11550,0.35894912481307983,-33.085060119628906,-491,7813.0,4.698685169219971,246,9943.0
11560,0.3589619994163513,-15.846741676330566,-189,7813.0,25.316665649414062,372,9943.0
11570,0.3592486083507538,12.500722885131836,351,7813.0,33.66963195800781,572,9943.0
11580,0.35938790440559387,34.38347244262695,609,7813.0,29.653278350830078,442,9943.0
11590,0.35882705450057983,39.69340896606445,639,7813.0,19.867029190063477,226,9943.0
11600,0.3587920665740967,36.34740447998047,433,7813.0,14.519211769104004,245,9943.0
11610,0.35870447754859924,24.225051879882812,411,7813.0,4.999362468719482,50,9943.0
11620,0.3583473861217499,16.846538543701172,153,7813.0,-3.630556106567383,-244,9943.0
11630,0.35893306136131287,5.012484073638916,51,7813.0,-12.212176322937012,-115,9943.0
11640,0.3585570454597473,-8.416365623474121,-122,7813.0,-6.269576072692871,-119,9943.0
11650,0.3578975796699524,-16.11014175415039,-257,7813.0,-3.2919368743896484,-114,9943.0
11660,0.3573133647441864,-12.893431663513184,-147,7813.0,-16.308393478393555,-272,9943.0
11670,0.35650795698165894,-6.120712757110596,-58,7813.0,-25.38361167907715,-478,9943.0
11680,0.35603320598602295,-2.1496975421905518,-27,7813.0,-21.969013214111328,-284,9943.0
11690,0.35557320713996887,1.671841025352478,143,7813.0,-24.37527847290039,-433,9943.0
11700,0.3551473617553711,1.104210615158081,-40,7813.0,-30.051054000854492,-499,9943.0
11710,0.35477542877197266,-0.8299282193183899,37,7813.0,-32.72624206542969,-396,9943.0
11720,0.35375428199768066,-6.327456474304199,-252,7813.0,-21.8493709564209,-349,9943.0
11730,0.3535967767238617,-21.576736450195312,-352,7813.0,-4.059652805328369,97,9943.0
11740,0.3534001111984253,-23.125202178955078,-420,7813.0,15.921022415161133,277,9943.0
11750,0.35320404171943665,-18.758731842041016,-222,7813.0,27.02980613708496,544,9943.0
11760,0.3519958257675171,-1.6529091596603394,39,7813.0,26.327651977539062,377,9943.0
11770,0.3516113758087158,11.530659675598145,186,7813.0,25.01064109802246,434,9943.0
11780,0.3511817157268524,14.41339111328125,292,7813.0,24.446317672729492,456,9943.0
11790,0.3507974445819855,14.197305679321289,218,7813.0,19.34345245361328,146,9943.0
11800,0.35028475522994995,13.243746757507324,175,7813.0,10.192791938781738,116,9943.0
11810,0.3496692180633545,14.348063468933105,275,7813.0,-6.279386043548584,-83,9943.0
11820,0.3491782248020172,16.916275024414062,288,7813.0,-22.231674194335938,-520,9943.0
11830,0.34869515895843506,18.032873153686523,204,7813.0,-27.842632293701172,-367,9943.0
11840,0.34821581840515137,12.622685432434082,227,7813.0,-19.271352767944336,-272,9943.0
11850,0.3480808138847351,-3.185346841812134,-202,7813.0,-8.365701675415039,-99,9943.0
11860,0.3478565812110901,-20.317058563232422,-371,7813.0,2.6520304679870605,165,9943.0
11870,0.3477131426334381,-31.203170776367188,-523,7813.0,8.041839599609375,18,9943.0
11880,0.3476731777191162,-30.15058708190918,-527,7813.0,1.4833617210388184,30,9943.0
11890,0.34666985273361206,-27.625198364257812,-401,7813.0,-5.371184349060059,-139,9943.0
11900,0.3467632234096527,-20.86053466796875,-390,7813.0,-6.835890293121338,-205,9943.0
11910,0.3468369245529175,-16.510404586791992,-268,7813.0,-7.1239800453186035,-117,9943.0
11920,0.3468590974807739,-12.648576736450195,-116,7813.0,-6.9520039558410645,-51,9943.0
11930,0.34712615609169006,1.3811579942703247,43,7813.0,-6.113938331604004,-223,9943.0
11940,0.34670332074165344,16.86722755432129,337,7813.0,-1.6551191806793213,124,9943.0
11950,0.3467230796813965,30.862018585205078,586,7813.0,10.304644584655762,257,9943.0
11960,0.34661149978637695,31.254798889160156,466,7813.0,22.920324325561523,385,9943.0
11970,0.3463433086872101,27.741804122924805,397,7813.0,33.397708892822266,605,9943.0
11980,0.3455847501754761,17.754636764526367,265,7813.0,35.44432067871094,549,9943.0
11990,0.345247358083725,11.42464542388916,124,7813.0,27.314950942993164,316,9943.0
12000,0.34486475586891174,6.623910903930664,63,7813.0,11.267919540405273,24,9943.0
12010,0.3447638154029846,2.8002023696899414,137,7813.0,-6.98765754699707,-160,9943.0
12020,0.3444983959197998,0.7716670036315918,-34,7813.0,-24.271665573120117,-480,9943.0
12030,0.3440221846103668,-8.779104232788086,-185,7813.0,-29.840795516967773,-684,9943.0
12040,0.3438887298107147,-10.720662117004395,-131,7813.0,-45.04439926147461,-727,9943.0
12050,0.34392598271369934,-10.120283126831055,-140,7813.0,-62.55650329589844,-1068,9943.0
12060,0.3443247973918915,-17.314653396606445,-426,7813.0,-52.20360565185547,-745,9943.0
12070,0.3439253866672516,-26.897254943847656,-396,7813.0,-30.91942024230957,-287,9943.0
12080,0.34399768710136414,-15.70108413696289,-229,7813.0,0.5766709446907043,80,9943.0
12090,0.34449347853660583,-3.0913608074188232,15,7813.0,20.478195190429688,515,9943.0
12100,0.3448483347892761,10.04136848449707,287,7813.0,39.755916595458984,652,9943.0
12110,0.3446436822414398,19.140003204345703,292,7813.0,50.201629638671875,892,9943.0
12120,0.3448307514190674,22.40151596069336,377,7813.0,50.37835693359375,978,9943.0
12130,0.3448898196220398,26.15033531188965,472,7813.0,49.293697357177734,706,9943.0
12140,0.3454764783382416,23.33359718322754,423,7813.0,33.8930778503418,437,9943.0
12150,0.3455783426761627,20.516321182250977,276,7813.0,12.45035457611084,-54,9943.0
12160,0.34622639417648315,14.577460289001465,194,7813.0,-13.108415603637695,-227,9943.0
12170,0.34632739424705505,4.073887348175049,45,7813.0,-29.269683837890625,-459,9943.0
12180,0.34679025411605835,-5.29644250869751,-112,7813.0,-28.506669998168945,-546,9943.0
12190,0.3470584452152252,-17.57354736328125,-413,7813.0,-17.870357513427734,-193,9943.0
12200,0.3482249677181244,-30.25718116760254,-501,7813.0,-10.460653305053711,-183,9943.0
12210,0.34882235527038574,-33.78859329223633,-586,7813.0,-19.572908401489258,-488,9943.0
12220,0.34960484504699707,-33.270904541015625,-590,7813.0,-31.572296142578125,-513,9943.0
12230,0.3504365086555481,-26.392520904541016,-320,7813.0,-22.118240356445312,-141,9943.0
12240,0.3518371284008026,-9.338937759399414,-49,7813.0,-10.899038314819336,-203,9943.0
12250,0.3527790307998657,5.786910533905029,57,7813.0,-6.394023895263672,-94,9943.0
12260,0.3542375862598419,14.193216323852539,309,7813.0,7.627661228179932,356,9943.0
12270,0.3551020324230194,21.326501846313477,323,7813.0,28.6999568939209,411,9943.0
12280,0.3558698892593384,24.137649536132812,303,7813.0,38.51372146606445,712,9943.0
12290,0.3565080165863037,21.41139793395996,416,7813.0,46.737327575683594,847,9943.0
12300,0.3570235073566437,17.17469596862793,223,7813.0,47.94329071044922,658,9943.0
12310,0.35732850432395935,16.942975997924805,260,7813.0,35.83380126953125,601,9943.0
12320,0.3576575219631195,16.576702117919922,328,7813.0,19.835988998413086,338,9943.0
12330,0.3587956428527832,11.746337890625,137,7813.0,10.712813377380371,45,9943.0
12340,0.3590618669986725,-2.0264623165130615,-140,7813.0,4.681560039520264,93,9943.0
12350,0.3594669699668884,-23.497211456298828,-400,7813.0,-5.03736686706543,-99,9943.0
12360,0.35998573899269104,-44.47342300415039,-877,7813.0,-16.838680267333984,-397,9943.0
12370,0.36046621203422546,-56.38591384887695,-943,7813.0,-25.44792938232422,-367,9943.0
12380,0.3602130711078644,-54.267295837402344,-800,7813.0,-38.10673141479492,-695,9943.0
12390,0.3607388138771057,-42.0968132019043,-671,7813.0,-52.215763092041016,-986,9943.0
12400,0.3611762225627899,-24.851360321044922,-305,7813.0,-55.37428283691406,-787,9943.0
12410,0.3615309000015259,-3.7959070205688477,109,7813.0,-37.53969192504883,-528,9943.0
12420,0.361746221780777,17.57984733581543,276,7813.0,-13.579323768615723,-46,9943.0
12430,0.3627200424671173,29.750564575195312,659,7813.0,10.265006065368652,278,9943.0
12440,0.3632659912109375,40.953914642333984,621,7813.0,39.027015686035156,660,9943.0
12450,0.3637905418872833,44.31984329223633,750,7813.0,51.70642852783203,1001,9943.0
12460,0.3631552755832672,34.21720886230469,451,7813.0,61.52287292480469,915,9943.0
12470,0.36328813433647156,21.56583023071289,372,7813.0,60.188743591308594,1025,9943.0
12480,0.3630644381046295,13.641279220581055,177,7813.0,41.1756477355957,449,9943.0
12490,0.3631473779678345,6.047432899475098,35,7813.0,13.987914085388184,148,9943.0
12500,0.36301276087760925,-3.345926523208618,-89,7813.0,-9.131999969482422,-71,9943.0
12510,0.3628697097301483,-8.580667495727539,-192,7813.0,-8.956001281738281,-217,9943.0
12520,0.36284950375556946,-14.158698081970215,-309,7813.0,-9.45999526977539,-149,9943.0
12530,0.3629159927368164,-17.121826171875,-264,7813.0,-16.019514083862305,-226,9943.0
12540,0.3629961907863617,-30.968849182128906,-553,7813.0,-38.10749435424805,-792,9943.0
12550,0.3627581298351288,-35.09810256958008,-622,7813.0,-55.628116607666016,-929,9943.0
12560,0.36283597350120544,-26.290369033813477,-310,7813.0,-39.97863006591797,-412,9943.0
12570,0.3631659746170044,-8.212564468383789,-51,7813.0,-11.015253067016602,-169,9943.0
12580,0.3633914589881897,20.386070251464844,425,7813.0,8.340096473693848,204,9943.0
12590,0.36355796456336975,53.520606994628906,967,7813.0,19.393747329711914,375,9943.0
12600,0.3632647693157196,63.265872955322266,996,7813.0,28.028963088989258,385,9943.0
12610,0.36295443773269653,52.032405853271484,781,7813.0,33.360755920410156,656,9943.0
12620,0.3626338839530945,31.313215255737305,472,7813.0,36.8886833190918,519,9943.0
12630,0.362587034702301,12.183999061584473,74,7813.0,27.628244400024414,397,9943.0
12640,0.3624120056629181,-3.4295713901519775,-68,7813.0,13.121162414550781,179,9943.0
12650,0.3619261085987091,-16.647825241088867,-326,7813.0,-6.9308671951293945,-261,9943.0
12660,0.3612731993198395,-22.71901512145996,-461,7813.0,-29.55402374267578,-560,9943.0
12670,0.3605744242668152,-19.836807250976562,-227,7813.0,-44.38264846801758,-681,9943.0
12680,0.35981789231300354,-18.797016143798828,-284,7813.0,-49.830047607421875,-870,9943.0
12690,0.3586886525154114,-17.74062156677246,-343,7813.0,-46.08897399902344,-702,9943.0
12700,0.3578939139842987,-23.434934616088867,-409,7813.0,-29.036781311035156,-258,9943.0
12710,0.3578118681907654,-28.469575881958008,-467,7813.0,-11.996942520141602,-188,9943.0
12720,0.35728782415390015,-28.264665603637695,-495,7813.0,-3.9640705585479736,-110,9943.0
12730,0.35551539063453674,-26.055185317993164,-316,7813.0,-6.979076862335205,10,9943.0
12740,0.3555947542190552,-13.47726058959961,-54,7813.0,-6.205093860626221,-139,9943.0
12750,0.35564205050468445,0.6152910590171814,12,7813.0,-5.263193130493164,-134,9943.0
12760,0.3558982312679291,14.608590126037598,406,7813.0,-4.154150009155273,-13,9943.0
12770,0.3560698926448822,33.484283447265625,645,7813.0,-5.0663371086120605,-36,9943.0
12780,0.35625648498535156,39.36774826049805,663,7813.0,11.152711868286133,149,9943.0
12790,0.3564448058605194,39.84741973876953,568,7813.0,24.241300582885742,515,9943.0
12800,0.35648593306541443,31.934993743896484,520,7813.0,43.84523010253906,720,9943.0
12810,0.35637882351875305,20.633100509643555,243,7813.0,54.51305389404297,854,9943.0
12820,0.35788586735725403,7.9870381355285645,-8,7813.0,54.086212158203125,905,9943.0
12830,0.35774102807044983,-8.653584480285645,-86,7813.0,45.8095703125,668,9943.0
12840,0.357746422290802,-14.496252059936523,-228,7813.0,17.898897171020508,117,9943.0
12850,0.35779523849487305,-16.45270538330078,-289,7813.0,-13.14804458618164,-425,9943.0
12860,0.35866913199424744,-18.245817184448242,-348,7813.0,-42.155147552490234,-754,9943.0
12870,0.3586427867412567,-19.53005599975586,-365,7813.0,-54.485687255859375,-794,9943.0
12880,0.3586948812007904,-14.213899612426758,-183,7813.0,-55.52518844604492,-1015,9943.0
12890,0.3586635887622833,-2.136340379714966,-69,7813.0,-59.09298324584961,-974,9943.0
12900,0.35851335525512695,1.5990742444992065,70,7813.0,-59.943992614746094,-856,9943.0
12910,0.35798773169517517,-1.5749773979187012,-14,7813.0,-45.9349365234375,-764,9943.0
12920,0.35886088013648987,-2.085829973220825,-72,7813.0,-26.747278213500977,-263,9943.0
12930,0.35923436284065247,-0.15102919936180115,92,7813.0,-8.880159378051758,-101,9943.0
12940,0.35969942808151245,10.00140380859375,208,7813.0,15.962409019470215,357,9943.0
12950,0.3594282269477844,25.03885269165039,491,7813.0,41.98653793334961,849,9943.0
12960,0.3597308099269867,33.965179443359375,530,7813.0,74.15507507324219,1298,9943.0
12970,0.3600974678993225,32.68523406982422,568,7813.0,97.60900115966797,1738,9943.0
12980,0.36013680696487427,25.74432945251465,363,7813.0,107.22052764892578,1787,9943.0
12990,0.36012977361679077,12.583539962768555,95,7813.0,94.25376892089844,1319,9943.0
13000,0.36080047488212585,-2.0349104404449463,-76,7813.0,49.48645782470703,629,9943.0
13010,0.36075758934020996,-16.641494750976562,-296,7813.0,-2.927225351333618,-181,9943.0
13020,0.3609161376953125,-26.440505981445312,-344,7813.0,-34.64753723144531,-629,9943.0
13030,0.36123377084732056,-24.708311080932617,-485,7813.0,-44.30415344238281,-791,9943.0
13040,0.3639809489250183,-26.09111785888672,-508,7813.0,-42.658260345458984,-614,9943.0
13050,0.36433136463165283,-29.507766723632812,-457,7813.0,-35.44255447387695,-480,9943.0
13060,0.36481496691703796,-26.540855407714844,-463,7813.0,-32.837955474853516,-641,9943.0
13070,0.3654661774635315,-20.567577362060547,-333,7813.0,-32.971519470214844,-482,9943.0
13080,0.36671000719070435,-12.92957878112793,-105,7813.0,-25.011384963989258,-344,9943.0
13090,0.3674851953983307,-7.919315814971924,-217,7813.0,-13.367347717285156,-179,9943.0
13100,0.3683125972747803,-5.176185131072998,-20,7813.0,-0.3239538371562958,121,9943.0
13110,0.3691389858722687,-0.1900138109922409,-47,7813.0,9.780762672424316,151,9943.0
13120,0.36980658769607544,0.9432539343833923,-14,7813.0,26.1905574798584,573,9943.0
13130,0.3688405156135559,3.4846150875091553,112,7813.0,35.86134338378906,559,9943.0
13140,0.3691878020763397,12.39280891418457,192,7813.0,34.33543014526367,671,9943.0
13150,0.36945268511772156,18.886613845825195,403,7813.0,38.00190353393555,655,9943.0
13160,0.36957868933677673,17.35049819946289,187,7813.0,36.292510986328125,462,9943.0
13170,0.37009620666503906,8.586942672729492,-4,7813.0,25.405254364013672,381,9943.0
13180,0.36997660994529724,-4.3498945236206055,-42,7813.0,-4.039255142211914,-237,9943.0
13190,0.3699837625026703,-8.813976287841797,-256,7813.0,-30.218666076660156,-573,9943.0
13200,0.36977118253707886,-16.273595809936523,-243,7813.0,-38.59294128417969,-543,9943.0
13210,0.3696068823337555,-18.834590911865234,-386,7813.0,-34.275596618652344,-565,9943.0
13220,0.369273841381073,-15.64445972442627,-293,7813.0,-26.84227180480957,-264,9943.0
13230,0.36927318572998047,-7.494289398193359,20,7813.0,-16.09522819519043,-396,9943.0
13240,0.3691352307796478,1.0496653318405151,41,7813.0,-14.524197578430176,-135,9943.0
13250,0.3688971698284149,5.9826979637146,135,7813.0,-13.235894203186035,-300,9943.0
13260,0.366782009601593,8.607254028320312,154,7813.0,-9.65960693359375,-107,9943.0
13270,0.36675894260406494,13.455259323120117,257,7813.0,-10.321816444396973,-216,9943.0
13280,0.3666127324104309,10.078571319580078,29,7813.0,-4.992653846740723,-15,9943.0
13290,0.36662977933883667,7.169435501098633,155,7813.0,-3.5055978298187256,-107,9943.0
13300,0.36516255140304565,3.091334819793701,3,7813.0,5.260890960693359,289,9943.0
13310,0.3648158013820648,-2.9677159786224365,-59,7813.0,23.38662338256836,360,9943.0
13320,0.3643134534358978,-5.411298751831055,-110,7813.0,42.60426330566406,841,9943.0
13330,0.3636240065097809,-7.840939044952393,-71,7813.0,53.42348861694336,817,9943.0
13340,0.3627779185771942,-9.475725173950195,-254,7813.0,50.183372497558594,677,9943.0
13350,0.3634704351425171,-15.45973014831543,-218,7813.0,31.838302612304688,459,9943.0
13360,0.36246931552886963,-17.192712783813477,-280,7813.0,10.83519458770752,121,9943.0
13370,0.3615425229072571,-18.127988815307617,-309,7813.0,-1.5895017385482788,-174,9943.0
13380,0.36060306429862976,-15.752042770385742,-309,7813.0,-14.17505168914795,-402,9943.0
13390,0.3605837821960449,-12.867854118347168,-164,7813.0,-26.581878662109375,-410,9943.0
13400,0.3598949611186981,-5.2365851402282715,17,7813.0,-43.58154296875,-885,9943.0
13410,0.35917967557907104,3.180513858795166,134,7813.0,-61.39000701904297,-1152,9943.0
13420,0.3586283028125763,15.203859329223633,272,7813.0,-75.14727783203125,-1154,9943.0
13430,0.3561495542526245,23.950929641723633,449,7813.0,-65.00279235839844,-1076,9943.0
13440,0.35570409893989563,20.586532592773438,218,7813.0,-42.797760009765625,-566,9943.0
13450,0.3558078706264496,8.604355812072754,104,7813.0,-27.820240020751953,-440,9943.0
13460,0.35553136467933655,0.2380533218383789,-42,7813.0,-9.33977222442627,-2,9943.0
13470,0.35538768768310547,-6.027361869812012,-153,7813.0,16.90517234802246,559,9943.0
13480,0.3522926867008209,-18.855316162109375,-339,7813.0,47.54264831542969,783,9943.0
13490,0.3517324924468994,-24.2907657623291,-346,7813.0,62.32124710083008,1192,9943.0
13500,0.35113829374313354,-13.105072975158691,-48,7813.0,70.00359344482422,1089,9943.0
13510,0.3503890335559845,6.069549560546875,211,7813.0,64.20843505859375,952,9943.0
13520,0.34904202818870544,17.364337921142578,315,7813.0,43.48445129394531,581,9943.0
13530,0.348514586687088,18.82451057434082,315,7813.0,12.338289260864258,78,9943.0
13540,0.3477758467197418,19.21413230895996,305,7813.0,-19.461578369140625,-391,9943.0
13550,0.3473012447357178,15.624238967895508,258,7813.0,-35.67218780517578,-634,9943.0
13560,0.34692633152008057,11.808741569519043,143,7813.0,-41.65271759033203,-830,9943.0
13570,0.34752872586250305,10.529632568359375,144,7813.0,-45.61566925048828,-712,9943.0
13580,0.34732815623283386,5.332035541534424,142,7813.0,-49.0315055847168,-723,9943.0
13590,0.3472011685371399,8.402864456176758,136,7813.0,-33.71344757080078,-494,9943.0
13600,0.3472937047481537,13.182730674743652,294,7813.0,-10.848358154296875,-28,9943.0
13610,0.3478424847126007,13.847349166870117,209,7813.0,5.704319000244141,101,9943.0
13620,0.3481556475162506,4.720032691955566,-10,7813.0,26.17121124267578,642,9943.0
13630,0.3485882580280304,-17.508060455322266,-332,7813.0,41.65329360961914,684,9943.0
13640,0.3488173484802246,-31.357589721679688,-649,7813.0,49.07814025878906,859,9943.0
13650,0.34718960523605347,-34.97472381591797,-511,7813.0,58.351051330566406,1030,9943.0
13660,0.34702128171920776,-25.64063835144043,-315,7813.0,56.70132827758789,924,9943.0
13670,0.3468225300312042,-2.6634371280670166,63,7813.0,33.31074523925781,331,9943.0
13680,0.346862256526947,20.958669662475586,458,7813.0,-7.131170272827148,-350,9943.0
13690,0.3468678593635559,38.17211151123047,634,7813.0,-39.636112213134766,-821,9943.0
13700,0.34915244579315186,36.00038528442383,571,7813.0,-50.01947021484375,-773,9943.0
13710,0.34909000992774963,23.83392333984375,357,7813.0,-40.73909378051758,-528,9943.0
13720,0.34913402795791626,8.840055465698242,132,7813.0,-19.259363174438477,-304,9943.0
13730,0.3494800925254822,1.4235358238220215,-36,7813.0,2.932586193084717,64,9943.0
13740,0.34986183047294617,-0.10320038348436356,59,7813.0,15.382926940917969,372,9943.0
13750,0.3503108024597168,-2.2201812267303467,-111,7813.0,19.601369857788086,201,9943.0
13760,0.3508766293525696,-9.790891647338867,-272,7813.0,16.8442440032959,284,9943.0
13770,0.3514918386936188,-25.48428726196289,-418,7813.0,5.5125603675842285,69,9943.0
13780,0.3528447151184082,-40.0789794921875,-705,7813.0,-7.235132694244385,-147,9943.0
13790,0.3534974753856659,-38.91130828857422,-654,7813.0,-18.132993698120117,-411,9943.0
13800,0.3541839122772217,-27.443565368652344,-329,7813.0,-22.95261001586914,-260,9943.0
13810,0.3547770380973816,-6.730781078338623,29,7813.0,-20.688522338867188,-232,9943.0
13820,0.3556140065193176,14.105619430541992,262,7813.0,-13.846555709838867,-240,9943.0
13830,0.35601988434791565,22.862045288085938,362,7813.0,-3.384860038757324,38,9943.0
13840,0.35628578066825867,26.37150001525879,479,7813.0,4.577053070068359,282,9943.0
13850,0.3565443456172943,26.40301513671875,409,7813.0,9.806852340698242,67,9943.0
13860,0.3567406237125397,25.245512008666992,345,7813.0,1.5642157793045044,-72,9943.0
13870,0.35649552941322327,17.277667999267578,288,7813.0,-16.258970260620117,-214,9943.0
13880,0.3565664291381836,9.340987205505371,46,7813.0,-8.809833526611328,-142,9943.0
13890,0.3566686809062958,4.501457214355469,-48,7813.0,-2.7103896141052246,32,9943.0
13900,0.3568018674850464,-4.485141277313232,-84,7813.0,-6.780289173126221,-244,9943.0
13910,0.356985479593277,-19.533042907714844,-379,7813.0,-16.56514549255371,-336,9943.0
13920,0.3558763861656189,-30.928396224975586,-592,7813.0,-24.58985137939453,-367,9943.0
13930,0.3559861481189728,-31.936790466308594,-542,7813.0,-18.83173370361328,-270,9943.0
13940,0.35634109377861023,-24.255762100219727,-304,7813.0,-8.071603775024414,-40,9943.0
13950,0.35655418038368225,-13.715095520019531,-65,7813.0,-3.4580206871032715,-70,9943.0
13960,0.35652148723602295,8.014351844787598,149,7813.0,8.079561233520508,121,9943.0
13970,0.35677438974380493,14.581029891967773,229,7813.0,22.13040542602539,519,9943.0
13980,0.3568248450756073,19.954130172729492,394,7813.0,28.54631233215332,420,9943.0
13990,0.356830894947052,21.47469711303711,286,7813.0,32.65507507324219,482,9943.0
14000,0.3566824495792389,20.264015197753906,422,7813.0,34.259769439697266,637,9943.0
14010,0.3565308749675751,20.71368408203125,395,7813.0,25.372730255126953,195,9943.0
