timestamp,kalman.stateZ,gyro.x,gyro.xRaw,gyro.xVariance,gyro.y,gyro.yRaw,gyro.yVariance
0,0.2976536154747009,-1.9953687191009521,-27,9524.0,12.102975845336914,194,9984.0
10,0.29740890860557556,-1.2797389030456543,-16,9524.0,9.981538772583008,153,9984.0
20,0.29734379053115845,-0.3331828713417053,-9,9524.0,7.331680774688721,105,9984.0
30,0.2972714602947235,0.03026171773672104,12,9524.0,4.851968288421631,70,9984.0
40,0.2974061965942383,0.8416481614112854,13,9524.0,1.6071006059646606,9,9984.0
50,0.2975321412086487,0.5293927788734436,9,9524.0,-1.2384172677993774,-36,9984.0
60,0.297523558139801,0.0631457045674324,4,9524.0,-3.9898362159729004,-77,9984.0
70,0.29749470949172974,-0.4327814280986786,-11,9524.0,-6.665642261505127,-125,9984.0
80,0.297539621591568,-1.2710185050964355,-20,9524.0,-8.574883460998535,-152,9984.0
90,0.2975904047489166,-0.7279948592185974,-6,9524.0,-10.126127243041992,-171,9984.0
100,0.29781612753868103,-0.11981474608182907,-1,9524.0,-10.596561431884766,-173,9984.0
110,0.2978690266609192,1.4637006521224976,29,9524.0,-10.54611587524414,-167,9984.0
120,0.297909677028656,2.0977606773376465,40,9524.0,-9.054898262023926,-149,9984.0
130,0.29791954159736633,2.4716649055480957,45,9524.0,-7.024810791015625,-100,9984.0
140,0.29998403787612915,1.6672515869140625,27,9524.0,-3.165355920791626,-32,9984.0
150,0.3001594543457031,1.0446127653121948,16,9524.0,1.0626304149627686,23,9984.0
160,0.3003205955028534,0.027478691190481186,-4,9524.0,4.503268241882324,81,9984.0
170,0.30043843388557434,-1.422135829925537,-23,9524.0,6.482688903808594,112,9984.0
180,0.30059194564819336,-1.6675900220870972,-26,9524.0,7.228066921234131,114,9984.0
190,0.30017414689064026,-1.1967532634735107,-12,9524.0,6.452114582061768,95,9984.0
200,0.3002453148365021,0.7394536733627319,31,9524.0,3.8662309646606445,45,9984.0
210,0.3003461956977844,5.744905948638916,113,9524.0,-3.9646987915039062,-142,9984.0
220,0.30059701204299927,8.8668851852417,153,9524.0,-19.4010066986084,-399,9984.0
230,0.2993791699409485,10.813251495361328,233,9524.0,-38.75911331176758,-816,9984.0
240,0.2994881868362427,15.637221336364746,292,9524.0,-68.45433044433594,-1245,9984.0
250,0.2998657524585724,17.14629554748535,292,9524.0,-96.01175689697266,-1777,9984.0
260,0.2998884916305542,14.086082458496094,275,9524.0,-123.63665008544922,-2122,9984.0
270,0.2988518476486206,5.2459611892700195,49,9524.0,-133.41392517089844,-2170,9984.0
280,0.30001041293144226,2.330977439880371,8,9524.0,-128.2629852294922,-1922,9984.0
290,0.2995849549770355,-3.0702080726623535,-61,9524.0,-110.51235961914062,-1692,9984.0
300,0.2989676594734192,-10.092504501342773,-210,9524.0,-87.7488021850586,-1110,9984.0
310,0.2991160750389099,-11.904790878295898,-248,9524.0,-53.05266571044922,-640,9984.0
320,0.3023013770580292,-14.446013450622559,-127,9524.0,-15.42577838897705,-296,9984.0
330,0.30239981412887573,-6.595137596130371,-68,9524.0,10.634201049804688,383,9984.0
340,0.303142249584198,0.6301236152648926,-27,9524.0,27.096519470214844,606,9984.0
350,0.3041331171989441,1.322883129119873,25,9524.0,38.954917907714844,775,9984.0
360,0.3063710927963257,-2.0658233165740967,-122,9524.0,45.27824783325195,803,9984.0
370,0.3069040775299072,-5.401968955993652,-93,9524.0,39.91835021972656,492,9984.0
380,0.3074796795845032,1.686793565750122,162,9524.0,28.54665756225586,409,9984.0
390,0.3080265522003174,13.487479209899902,232,9524.0,19.687379837036133,347,9984.0
400,0.30866682529449463,21.65397071838379,386,9524.0,7.279465198516846,-24,9984.0
410,0.3090643882751465,30.70625114440918,532,9524.0,-11.658315658569336,-230,9984.0
420,0.3092695474624634,31.29191780090332,534,9524.0,-20.56352424621582,-347,9984.0
430,0.30916914343833923,32.38380432128906,467,9524.0,-28.086933135986328,-473,9984.0
440,0.3086950182914734,26.62278938293457,390,9524.0,-29.63128089904785,-492,9984.0
450,0.3096063733100891,12.569583892822266,143,9524.0,-22.05668830871582,-283,9984.0
460,0.30916497111320496,-8.346453666687012,-358,9524.0,-14.649370193481445,-161,9984.0
470,0.30908429622650146,-30.215728759765625,-663,9524.0,-6.648675441741943,-27,9984.0
480,0.3087555468082428,-46.9007568359375,-763,9524.0,0.14637814462184906,-21,9984.0
490,0.30852195620536804,-49.74267578125,-720,9524.0,3.272716522216797,23,9984.0
500,0.3080204427242279,-39.23448181152344,-631,9524.0,0.18914024531841278,46,9984.0
510,0.3081148564815521,-16.37873077392578,9,9524.0,-0.6006415486335754,-23,9984.0
520,0.3080134093761444,11.41976547241211,313,9524.0,1.6365938186645508,96,9984.0
530,0.30799004435539246,31.8946533203125,561,9524.0,4.855339050292969,7,9984.0
540,0.309243768453598,41.16871643066406,717,9524.0,4.358763694763184,98,9984.0
550,0.30945485830307007,34.79885482788086,462,9524.0,-2.1184616088867188,15,9984.0
560,0.3096088171005249,19.893613815307617,120,9524.0,-1.042238712310791,-136,9984.0
570,0.30995357036590576,1.9869301319122314,13,9524.0,-1.6727632284164429,-93,9984.0
580,0.3104032278060913,-9.007237434387207,-245,9524.0,-4.9789934158325195,22,9984.0
590,0.31074967980384827,-19.439346313476562,-385,9524.0,0.6621790528297424,100,9984.0
600,0.3110453486442566,-32.90031433105469,-574,9524.0,15.108566284179688,140,9984.0
610,0.3113647401332855,-38.168601989746094,-617,9524.0,23.149694442749023,372,9984.0
620,0.3122307062149048,-42.20722961425781,-701,9524.0,22.310630798339844,511,9984.0
630,0.31273508071899414,-37.621498107910156,-557,9524.0,9.661011695861816,-55,9984.0
640,0.31316065788269043,-24.9897403717041,-347,9524.0,-1.9365078210830688,-10,9984.0
650,0.31345734000205994,-11.347686767578125,-114,9524.0,-2.3453967571258545,-49,9984.0
660,0.31384068727493286,3.6938507556915283,216,9524.0,1.0892889499664307,87,9984.0
670,0.31616678833961487,25.21033477783203,404,9524.0,3.17819881439209,-3,9984.0
680,0.31655821204185486,46.684425354003906,920,9524.0,8.962379455566406,243,9984.0
690,0.3168710172176361,65.1337661743164,1076,9524.0,15.185603141784668,310,9984.0
700,0.3171398341655731,66.78234100341797,1108,9524.0,21.65802001953125,245,9984.0
710,0.3181923031806946,58.483341217041016,890,9524.0,22.403858184814453,362,9984.0
720,0.3191293776035309,34.982086181640625,389,9524.0,19.6120662689209,332,9984.0
730,0.31939902901649475,2.7615394592285156,-109,9524.0,5.237445831298828,14,9984.0
740,0.31975260376930237,-28.926435470581055,-502,9524.0,-7.073700428009033,-139,9984.0
750,0.32015460729599,-52.715476989746094,-965,9524.0,-20.006689071655273,-237,9984.0
760,0.3209342360496521,-68.16889190673828,-1168,9524.0,-28.268245697021484,-699,9984.0
770,0.32121190428733826,-65.7303237915039,-980,9524.0,-36.19900894165039,-608,9984.0
780,0.32210689783096313,-47.788978576660156,-703,9524.0,-33.807315826416016,-391,9984.0
790,0.3224233388900757,-26.14141082763672,-306,9524.0,-23.84463119506836,-421,9984.0
800,0.32160472869873047,-2.2131686210632324,78,9524.0,-15.186319351196289,-229,9984.0
810,0.322265625,21.219696044921875,350,9524.0,-8.546845436096191,-100,9984.0
820,0.32274869084358215,37.68670654296875,787,9524.0,1.0723960399627686,27,9984.0
830,0.32307568192481995,45.32973861694336,794,9524.0,11.132563591003418,269,9984.0
840,0.3235175311565399,42.98923873901367,644,9524.0,21.458293914794922,325,9984.0
850,0.3236354887485504,33.48454666137695,492,9524.0,25.96050262451172,358,9984.0
860,0.3239603042602539,16.93572998046875,134,9524.0,24.834243774414062,494,9984.0
870,0.32409125566482544,-5.556613445281982,-183,9524.0,13.593193054199219,165,9984.0
880,0.3246365189552307,-25.110841751098633,-363,9524.0,-5.4725494384765625,-207,9984.0
890,0.32458141446113586,-34.0574836730957,-585,9524.0,-21.04216766357422,-427,9984.0
900,0.32483959197998047,-34.691104888916016,-578,9524.0,-25.49695587158203,-475,9984.0
910,0.32503581047058105,-27.010244369506836,-370,9524.0,-23.579450607299805,-208,9984.0
920,0.3251538872718811,-6.21945858001709,-33,9524.0,-16.019628524780273,-326,9984.0
930,0.32561758160591125,14.364091873168945,377,9524.0,-11.556913375854492,-202,9984.0
940,0.32570457458496094,34.56248474121094,535,9524.0,-10.810868263244629,-178,9984.0
950,0.3257758319377899,47.147159576416016,826,9524.0,-9.771601676940918,-183,9984.0
960,0.32572564482688904,43.985599517822266,655,9524.0,-8.882949829101562,-20,9984.0
970,0.32522186636924744,27.645795822143555,306,9524.0,-8.257866859436035,-97,9984.0
980,0.32462725043296814,-3.440208911895752,-115,9524.0,-8.826004981994629,-285,9984.0
990,0.32431459426879883,-30.433486938476562,-500,9524.0,-9.202357292175293,-86,9984.0
1000,0.3243255615234375,-38.14817810058594,-669,9524.0,-7.199674129486084,-62,9984.0
1010,0.3242749869823456,-29.70256996154785,-455,9524.0,-4.537205219268799,-164,9984.0
1020,0.3229706883430481,-14.638663291931152,-150,9524.0,-6.920038223266602,-142,9984.0
1030,0.3231172263622284,-2.972804546356201,25,9524.0,-3.1325125694274902,51,9984.0
1040,0.3232484459877014,3.1918718814849854,47,9524.0,3.97910737991333,-18,9984.0
1050,0.3234565258026123,1.0671319961547852,38,9524.0,11.923187255859375,215,9984.0
1060,0.3237783908843994,-0.6790444254875183,-102,9524.0,16.101064682006836,397,9984.0
1070,0.3218238353729248,-2.3706984519958496,-14,9524.0,13.529458045959473,110,9984.0
1080,0.3221834599971771,-3.0442562103271484,32,9524.0,3.4533331394195557,-89,9984.0
1090,0.3226442039012909,-4.109473705291748,-141,9524.0,-7.186584949493408,-32,9984.0
1100,0.32333266735076904,-10.553494453430176,-242,9524.0,-14.01132583618164,-265,9984.0
1110,0.32199960947036743,-23.77631187438965,-413,9524.0,-21.844173431396484,-555,9984.0
1120,0.32242926955223083,-27.50262451171875,-407,9524.0,-28.53990364074707,-356,9984.0
1130,0.32282885909080505,-16.93337631225586,-172,9524.0,-26.424558639526367,-375,9984.0
1140,0.3230138123035431,2.7187583446502686,194,9524.0,-11.530197143554688,-147,9984.0
1150,0.3227482736110687,16.671344757080078,332,9524.0,6.781662464141846,270,9984.0
1160,0.32279589772224426,31.17679786682129,502,9524.0,17.015625,330,9984.0
1170,0.3225689232349396,38.97863006591797,826,9524.0,21.195266723632812,298,9984.0
1180,0.3221362829208374,43.89507293701172,693,9524.0,21.132705688476562,360,9984.0
1190,0.32145893573760986,39.81902313232422,520,9524.0,18.699337005615234,202,9984.0
1200,0.32130399346351624,25.842498779296875,315,9524.0,18.10809898376465,255,9984.0
1210,0.3205256164073944,2.987520456314087,-109,9524.0,13.881460189819336,321,9984.0
1220,0.3200938105583191,-19.234140396118164,-444,9524.0,10.632707595825195,164,9984.0
1230,0.31957972049713135,-33.00236892700195,-504,9524.0,6.837156295776367,-74,9984.0
1240,0.31656742095947266,-32.1539306640625,-546,9524.0,-2.847703218460083,13,9984.0
1250,0.31625887751579285,-21.300048828125,-244,9524.0,-9.028482437133789,-204,9984.0
1260,0.3162239193916321,-0.46960580348968506,200,9524.0,-13.847647666931152,-209,9984.0
1270,0.3163212239742279,15.930497169494629,220,9524.0,-16.915084838867188,-289,9984.0
1280,0.31668180227279663,21.102006912231445,338,9524.0,-20.02879524230957,-426,9984.0
1290,0.31606751680374146,14.908615112304688,163,9524.0,-16.829143524169922,-129,9984.0
1300,0.31664350628852844,1.4093680381774902,-83,9524.0,-10.374496459960938,-120,9984.0
1310,0.31734567880630493,-12.35408878326416,-186,9524.0,-5.353322982788086,-149,9984.0
1320,0.31828635931015015,-21.477622985839844,-311,9524.0,-3.076002359390259,-4,9984.0
1330,0.3195546865463257,-21.332168579101562,-359,9524.0,0.7693911790847778,72,9984.0
1340,0.3204319179058075,-22.341510772705078,-444,9524.0,10.194326400756836,143,9984.0
1350,0.32117217779159546,-24.790725708007812,-347,9524.0,16.170686721801758,236,9984.0
1360,0.32231682538986206,-24.70043182373047,-377,9524.0,14.797024726867676,339,9984.0
1370,0.32146137952804565,-25.234163284301758,-412,9524.0,14.691506385803223,46,9984.0
1380,0.3222690224647522,-25.32911491394043,-414,9524.0,6.904548645019531,226,9984.0
1390,0.3226955235004425,-19.26996612548828,-228,9524.0,1.468734622001648,22,9984.0
1400,0.3230881690979004,-1.9021486043930054,62,9524.0,2.661635398864746,5,9984.0
1410,0.32337841391563416,18.40965461730957,353,9524.0,8.053698539733887,82,9984.0
1420,0.32183077931404114,37.676475524902344,769,9524.0,9.505794525146484,261,9984.0
1430,0.32171574234962463,48.55232620239258,767,9524.0,4.721934795379639,49,9984.0
1440,0.3215234875679016,48.112327575683594,823,9524.0,1.1567639112472534,-58,9984.0
1450,0.3210602104663849,40.68122100830078,519,9524.0,-2.566474676132202,45,9984.0
1460,0.32022082805633545,24.186870574951172,234,9524.0,2.0538413524627686,-31,9984.0
1470,0.32000288367271423,-2.338364839553833,-153,9524.0,8.128679275512695,198,9984.0
1480,0.319481760263443,-25.621620178222656,-530,9524.0,17.430131912231445,357,9984.0
1490,0.3190341591835022,-38.78074264526367,-590,9524.0,24.176645278930664,427,9984.0
1500,0.3179722726345062,-35.902427673339844,-558,9524.0,19.779216766357422,288,9984.0
1510,0.3174177408218384,-21.521814346313477,-164,9524.0,6.783027648925781,-59,9984.0
1520,0.31707772612571716,2.966367483139038,35,9524.0,-8.530190467834473,-130,9984.0
1530,0.3167700469493866,24.524961471557617,534,9524.0,-13.16294002532959,-182,9984.0
1540,0.3167272210121155,32.66733169555664,500,9524.0,-11.049088478088379,-37,9984.0
1550,0.31917843222618103,27.303070068359375,420,9524.0,-7.371715068817139,-227,9984.0
1560,0.3197218179702759,13.617717742919922,221,9524.0,-4.1493330001831055,-24,9984.0
1570,0.32027360796928406,1.4640458822250366,-119,9524.0,-2.4299557209014893,2,9984.0
1580,0.3208591043949127,-7.869607925415039,-194,9524.0,-6.483584403991699,-215,9984.0
1590,0.3205872178077698,-10.572417259216309,-167,9524.0,-12.956438064575195,-213,9984.0
1600,0.32132449746131897,-12.762256622314453,-188,9524.0,-10.772930145263672,-37,9984.0
1610,0.32215824723243713,-12.263261795043945,-224,9524.0,7.051117897033691,135,9984.0
1620,0.32300832867622375,-16.653461456298828,-194,9524.0,22.048559188842773,343,9984.0
1630,0.3237447440624237,-9.56291675567627,-200,9524.0,29.46014404296875,616,9984.0
1640,0.32409554719924927,1.0769875049591064,75,9524.0,24.48967742919922,298,9984.0
1650,0.32445982098579407,13.00766372680664,336,9524.0,10.85888957977295,231,9984.0
1660,0.32442325353622437,21.79241943359375,283,9524.0,4.3933820724487305,1,9984.0
1670,0.32415708899497986,24.167118072509766,404,9524.0,2.9884345531463623,-13,9984.0
1680,0.3235645592212677,18.898706436157227,265,9524.0,-2.3331732749938965,126,9984.0
1690,0.32297587394714355,9.075957298278809,114,9524.0,-6.202805042266846,-181,9984.0
1700,0.3228360712528229,-3.9086649417877197,-73,9524.0,-14.207168579101562,-278,9984.0
1710,0.3220389485359192,-18.425012588500977,-408,9524.0,-23.686120986938477,-398,9984.0
1720,0.32103341817855835,-24.083492279052734,-439,9524.0,-33.32924270629883,-649,9984.0
1730,0.3200783133506775,-21.760215759277344,-290,9524.0,-38.360313415527344,-593,9984.0
1740,0.31904807686805725,-10.573013305664062,-89,9524.0,-26.241960525512695,-296,9984.0
1750,0.31841301918029785,5.111751079559326,175,9524.0,-10.013509750366211,-164,9984.0
1760,0.31835153698921204,17.251691818237305,358,9524.0,5.816239833831787,150,9984.0
1770,0.31792202591896057,15.999710083007812,98,9524.0,12.121086120605469,321,9984.0
1780,0.3177022933959961,4.134030342102051,-67,9524.0,19.140907287597656,218,9984.0
1790,0.3177846372127533,-14.161664009094238,-325,9524.0,20.52808380126953,335,9984.0
1800,0.31797143816947937,-26.570295333862305,-481,9524.0,13.733499526977539,231,9984.0
1810,0.31897827982902527,-27.3834171295166,-343,9524.0,5.271481513977051,-88,9984.0
1820,0.31948116421699524,-22.301586151123047,-334,9524.0,-2.9360239505767822,-5,9984.0
1830,0.32010000944137573,-17.599445343017578,-316,9524.0,-11.121437072753906,-326,9984.0
1840,0.3206937909126282,-14.393208503723145,-133,9524.0,-19.328393936157227,-307,9984.0
1850,0.32168686389923096,-13.032698631286621,-261,9524.0,-28.534875869750977,-518,9984.0
1860,0.3224088251590729,-9.45536994934082,-158,9524.0,-26.826627731323242,-413,9984.0
1870,0.3229486346244812,-3.0851025581359863,132,9524.0,-12.184076309204102,5,9984.0
1880,0.3234984874725342,16.99955177307129,304,9524.0,0.7335280179977417,105,9984.0
1890,0.3241312801837921,37.44162368774414,618,9524.0,12.482587814331055,198,9984.0
1900,0.3232632875442505,43.19145965576172,709,9524.0,29.013378143310547,660,9984.0
1910,0.32333046197891235,40.29357147216797,626,9524.0,37.00661849975586,625,9984.0
1920,0.3230702877044678,32.6632194519043,563,9524.0,35.234832763671875,505,9984.0
1930,0.3241470456123352,19.13422393798828,244,9524.0,24.14348793029785,278,9984.0
1940,0.3217333257198334,2.1953985691070557,-90,9524.0,8.437438011169434,-19,9984.0
1950,0.321318119764328,-12.299456596374512,-203,9524.0,-13.016061782836914,-254,9984.0
1960,0.3208949565887451,-22.31814193725586,-332,9524.0,-30.3354549407959,-525,9984.0
1970,0.32033854722976685,-18.840412139892578,-228,9524.0,-40.12091064453125,-777,9984.0
1980,0.3184543550014496,-3.8642940521240234,18,9524.0,-38.85818862915039,-603,9984.0
1990,0.317802757024765,11.721694946289062,162,9524.0,-30.594581604003906,-361,9984.0
2000,0.3172549605369568,16.573869705200195,311,9524.0,-17.65987205505371,-280,9984.0
2010,0.316849023103714,10.55179214477539,163,9524.0,-1.3698933124542236,163,9984.0
2020,0.3167802691459656,-6.128503799438477,-199,9524.0,15.994508743286133,447,9984.0
2030,0.318100243806839,-17.807130813598633,-330,9524.0,21.752483367919922,273,9984.0
2040,0.3183201253414154,-21.834775924682617,-309,9524.0,17.21968650817871,184,9984.0
2050,0.3187222182750702,-16.908483505249023,-362,9524.0,10.59064769744873,221,9984.0
2060,0.3195168972015381,-15.241798400878906,-223,9524.0,8.14525032043457,136,9984.0
2070,0.31969544291496277,-12.670784950256348,-74,9524.0,9.777080535888672,154,9984.0
2080,0.32024627923965454,-6.482273578643799,-127,9524.0,6.899620532989502,108,9984.0
2090,0.3207032084465027,-0.13394999504089355,-4,9524.0,-1.4187809228897095,-153,9984.0
2100,0.3211374580860138,3.1753387451171875,107,9524.0,-11.716944694519043,-57,9984.0
2110,0.32122233510017395,8.459394454956055,152,9524.0,-14.625304222106934,-309,9984.0
2120,0.3202269375324249,13.100707054138184,276,9524.0,-7.858760356903076,-96,9984.0
2130,0.3199234902858734,14.2416353225708,125,9524.0,2.0186336040496826,158,9984.0
2140,0.3195335268974304,7.689303398132324,51,9524.0,10.950067520141602,189,9984.0
2150,0.31902405619621277,1.694298505783081,125,9524.0,16.908296585083008,264,9984.0
2160,0.3198454678058624,0.09402691572904587,-29,9524.0,20.432592391967773,456,9984.0
2170,0.31924960017204285,-0.3469603359699249,-35,9524.0,25.02630043029785,226,9984.0
2180,0.3186451196670532,-1.104681134223938,-36,9524.0,23.937427520751953,470,9984.0
2190,0.3180493712425232,3.2375881671905518,27,9524.0,21.55849266052246,315,9984.0
2200,0.3169124722480774,12.954292297363281,389,9524.0,10.155167579650879,162,9984.0
2210,0.316324383020401,20.700775146484375,268,9524.0,1.0068811178207397,-31,9984.0
2220,0.3158213794231415,20.91714096069336,313,9524.0,-12.876612663269043,-368,9984.0
2230,0.3153693675994873,13.38304328918457,181,9524.0,-22.6890926361084,-229,9984.0
2240,0.3151368200778961,3.5678720474243164,7,9524.0,-27.47268295288086,-432,9984.0
2250,0.3175455629825592,-5.120022296905518,-75,9524.0,-25.10436248779297,-455,9984.0
2260,0.3175079822540283,-13.628816604614258,-244,9524.0,-21.39187240600586,-277,9984.0
2270,0.31769365072250366,-16.5816593170166,-330,9524.0,-17.132108688354492,-384,9984.0
2280,0.31787005066871643,-15.184432983398438,-226,9524.0,-14.882431030273438,-261,9984.0
2290,0.31857097148895264,-15.137255668640137,-344,9524.0,-9.348652839660645,57,9984.0
2300,0.3190474212169647,-20.49004364013672,-378,9524.0,2.4640469551086426,96,9984.0
2310,0.31965458393096924,-19.884523391723633,-220,9524.0,14.64402961730957,189,9984.0
2320,0.32013556361198425,-14.695789337158203,-201,9524.0,21.79482650756836,394,9984.0
2330,0.3203910291194916,-2.5002760887145996,-56,9524.0,24.876379013061523,358,9984.0
2340,0.3222399950027466,10.384918212890625,293,9524.0,19.891969680786133,378,9984.0
2350,0.3224794864654541,23.344486236572266,381,9524.0,11.077224731445312,174,9984.0
2360,0.3223553001880646,31.168262481689453,626,9524.0,5.1608967781066895,-30,9984.0
2370,0.3220934271812439,35.72898483276367,501,9524.0,2.304731607437134,128,9984.0
2380,0.3229220509529114,32.295841217041016,475,9524.0,2.962172746658325,-69,9984.0
2390,0.322488009929657,21.393266677856445,310,9524.0,3.8164291381835938,121,9984.0
2400,0.3218574821949005,6.163294315338135,-80,9524.0,2.4794201850891113,171,9984.0
2410,0.3211047351360321,-11.64094066619873,-238,9524.0,2.610403537750244,-50,9984.0
2420,0.32096755504608154,-25.20366668701172,-410,9524.0,3.541381597518921,114,9984.0
2430,0.3200569152832031,-30.194639205932617,-603,9524.0,1.5690314769744873,3,9984.0
2440,0.3191024363040924,-30.461746215820312,-489,9524.0,-3.0902493000030518,-147,9984.0
2450,0.3182457983493805,-27.8801212310791,-467,9524.0,-13.14033317565918,-170,9984.0
2460,0.3172481954097748,-18.71750831604004,-104,9524.0,-19.515363693237305,-405,9984.0
2470,0.3168814778327942,-4.383223056793213,0,9524.0,-21.26891326904297,-330,9984.0
2480,0.3162943422794342,1.8532856702804565,-5,9524.0,-22.589597702026367,-467,9984.0
2490,0.3158166706562042,4.509223937988281,142,9524.0,-19.314712524414062,-255,9984.0
2500,0.31559571623802185,9.6779146194458,145,9524.0,-14.499414443969727,-66,9984.0
2510,0.31796663999557495,15.563210487365723,329,9524.0,-11.373140335083008,-208,9984.0
2520,0.31800469756126404,18.91910743713379,310,9524.0,-10.761068344116211,-301,9984.0
2530,0.3180672526359558,11.943236351013184,109,9524.0,-5.0280375480651855,31,9984.0
2540,0.31812596321105957,-9.48977279663086,-296,9524.0,6.6842193603515625,109,9984.0
2550,0.3182911276817322,-27.1208553314209,-400,9524.0,9.614291191101074,193,9984.0
2560,0.3197787404060364,-27.023536682128906,-334,9524.0,20.162200927734375,486,9984.0
2570,0.3198296129703522,-10.961488723754883,-121,9524.0,31.484920501708984,466,9984.0
2580,0.3197956085205078,7.262309551239014,219,9524.0,32.77631378173828,497,9984.0
2590,0.3196612298488617,21.460176467895508,360,9524.0,25.467716217041016,292,9984.0
2600,0.3213634192943573,34.71065139770508,654,9524.0,12.853497505187988,300,9984.0
2610,0.3211340010166168,40.199981689453125,635,9524.0,6.363245010375977,67,9984.0
2620,0.3209232985973358,32.92405319213867,534,9524.0,2.414518356323242,47,9984.0
2630,0.3202812373638153,20.671323776245117,224,9524.0,-1.314651608467102,-107,9984.0
2640,0.3206370770931244,6.673465728759766,61,9524.0,-11.080521583557129,-302,9984.0
2650,0.320006400346756,-2.807865619659424,-141,9524.0,-22.918989181518555,-329,9984.0
2660,0.3193572163581848,-10.329925537109375,-204,9524.0,-28.307804107666016,-533,9984.0
2670,0.31858551502227783,-11.383081436157227,-117,9524.0,-26.741971969604492,-380,9984.0
2680,0.3178521990776062,-9.229991912841797,-173,9524.0,-22.37047004699707,-254,9984.0
2690,0.3173629939556122,-9.282334327697754,-121,9524.0,-15.401751518249512,-284,9984.0
2700,0.3164407014846802,-9.720497131347656,-83,9524.0,-6.168652534484863,9,9984.0
2710,0.31582966446876526,-10.838722229003906,-184,9524.0,6.783836364746094,185,9984.0
2720,0.31524762511253357,-16.853391647338867,-299,9524.0,17.35413360595703,178,9984.0
2730,0.31680604815483093,-21.013402938842773,-331,9524.0,16.78396987915039,257,9984.0
2740,0.31652936339378357,-18.597442626953125,-349,9524.0,11.600235939025879,160,9984.0
2750,0.3163922131061554,-12.372550964355469,-121,9524.0,4.072056293487549,-20,9984.0
2760,0.31641989946365356,-8.75811767578125,-76,9524.0,-7.83899450302124,-139,9984.0
2770,0.3165210485458374,-8.578469276428223,-128,9524.0,-15.871957778930664,-413,9984.0
2780,0.31800660490989685,-10.569095611572266,-152,9524.0,-21.25550079345703,-316,9984.0
2790,0.3181447386741638,-7.069862365722656,-172,9524.0,-19.599903106689453,-322,9984.0
2800,0.31826916337013245,-5.443286418914795,-26,9524.0,-13.401156425476074,-134,9984.0
2810,0.31877443194389343,-5.413185119628906,-70,9524.0,5.796834468841553,299,9984.0
2820,0.3213067650794983,-2.6818151473999023,-22,9524.0,26.57192611694336,375,9984.0
2830,0.3214685916900635,-0.5012919902801514,17,9524.0,39.27314758300781,657,9984.0
2840,0.3218193054199219,3.449929714202881,52,9524.0,45.79011154174805,653,9984.0
2850,0.321977823972702,14.752731323242188,313,9524.0,36.944114685058594,687,9984.0
2860,0.32227715849876404,24.351388931274414,420,9524.0,23.20569610595703,275,9984.0
2870,0.3222544193267822,28.501811981201172,501,9524.0,4.942346096038818,37,9984.0
2880,0.32200631499290466,25.769723892211914,376,9524.0,-8.121485710144043,-276,9984.0
2890,0.32152968645095825,20.337705612182617,314,9524.0,-19.125347137451172,-300,9984.0
2900,0.32112830877304077,13.615104675292969,135,9524.0,-21.246198654174805,-293,9984.0
2910,0.3214798867702484,7.450913429260254,131,9524.0,-14.850468635559082,-198,9984.0
2920,0.320880264043808,-1.3864270448684692,-44,9524.0,-6.648967742919922,34,9984.0
2930,0.32033172249794006,-7.734731674194336,-223,9524.0,-5.6119561195373535,-26,9984.0
2940,0.31999900937080383,-13.114922523498535,-149,9524.0,-4.193052768707275,-177,9984.0
2950,0.3209250569343567,-19.16575813293457,-318,9524.0,-3.942368984222412,-2,9984.0
2960,0.3206430673599243,-20.38776397705078,-365,9524.0,-1.435754656791687,-99,9984.0
2970,0.32040444016456604,-16.97568130493164,-220,9524.0,1.3130109310150146,10,9984.0
2980,0.3201839327812195,-11.161754608154297,-221,9524.0,2.412890672683716,142,9984.0
2990,0.32002589106559753,-5.908924579620361,-42,9524.0,2.335888624191284,-14,9984.0
3000,0.32112380862236023,0.5539631843566895,88,9524.0,-4.555716037750244,-57,9984.0
3010,0.321137011051178,-0.21537643671035767,-93,9524.0,-8.359511375427246,-167,9984.0
3020,0.3211529850959778,-8.923212051391602,-252,9524.0,-9.341889381408691,-170,9984.0
3030,0.3212045729160309,-17.54820442199707,-322,9524.0,-5.763584136962891,131,9984.0
3040,0.32185521721839905,-20.595582962036133,-306,9524.0,3.6523704528808594,48,9984.0
3050,0.3218444883823395,-10.498991966247559,-10,9524.0,15.76758861541748,320,9984.0
3060,0.3216995894908905,6.001816272735596,84,9524.0,25.34613609313965,410,9984.0
3070,0.32132232189178467,27.151012420654297,680,9524.0,26.96830177307129,478,9984.0
3080,0.32252782583236694,48.1900749206543,833,9524.0,19.1488037109375,287,9984.0
3090,0.3218079209327698,55.49348068237305,1012,9524.0,3.801093339920044,-122,9984.0
3100,0.3211236596107483,51.10807418823242,677,9524.0,-18.548866271972656,-364,9984.0
3110,0.32041698694229126,36.93501281738281,536,9524.0,-31.402265548706055,-698,9984.0
3120,0.31934815645217896,21.78150177001953,325,9524.0,-36.3603630065918,-570,9984.0
3130,0.31957149505615234,7.848855972290039,-36,9524.0,-37.332759857177734,-545,9984.0
3140,0.318545401096344,-8.199251174926758,-246,9524.0,-29.773029327392578,-421,9984.0
3150,0.31711673736572266,-24.378358840942383,-501,9524.0,-7.944630146026611,30,9984.0
3160,0.31627413630485535,-41.708614349365234,-666,9524.0,15.094963073730469,357,9984.0
3170,0.31863507628440857,-51.13356018066406,-923,9524.0,30.76236915588379,552,9984.0
3180,0.317827045917511,-53.81650924682617,-846,9524.0,34.100830078125,488,9984.0
3190,0.3170423209667206,-43.93274688720703,-772,9524.0,27.449216842651367,457,9984.0
3200,0.31629320979118347,-24.790573120117188,-261,9524.0,19.387794494628906,272,9984.0
3210,0.3160979151725769,-1.1636604070663452,33,9524.0,6.442732334136963,25,9984.0
3220,0.31775951385498047,17.881425857543945,394,9524.0,-7.561450958251953,-139,9984.0
3230,0.3181319534778595,27.234386444091797,521,9524.0,-20.539640426635742,-522,9984.0
3240,0.318508118391037,29.603984832763672,410,9524.0,-27.477792739868164,-381,9984.0
3250,0.31899333000183105,18.007184982299805,199,9524.0,-21.07161521911621,-399,9984.0
3260,0.32055386900901794,-2.3138504028320312,-151,9524.0,-12.682257652282715,-47,9984.0
3270,0.321239173412323,-25.869842529296875,-607,9524.0,-4.0110883712768555,-40,9984.0
3280,0.32193994522094727,-47.92212677001953,-708,9524.0,2.190006971359253,22,9984.0
3290,0.3224169909954071,-49.1961784362793,-794,9524.0,4.589144706726074,25,9984.0
3300,0.3235514760017395,-38.153709411621094,-511,9524.0,4.210936546325684,32,9984.0
3310,0.3242616057395935,-19.401988983154297,-292,9524.0,4.8119893074035645,124,9984.0
3320,0.3246820867061615,0.9666510820388794,220,9524.0,10.420351028442383,292,9984.0
3330,0.3254408836364746,26.567031860351562,492,9524.0,21.201417922973633,252,9984.0
3340,0.3257998824119568,48.87117385864258,871,9524.0,21.344738006591797,346,9984.0
3350,0.3255468010902405,60.317020416259766,1002,9524.0,13.260480880737305,191,9984.0
3360,0.32540085911750793,62.73475646972656,1084,9524.0,1.1107115745544434,31,9984.0
3370,0.3250586986541748,60.14952087402344,893,9524.0,-11.936237335205078,-265,9984.0
3380,0.3248749375343323,53.2905387878418,880,9524.0,-24.921180725097656,-506,9984.0
3390,0.32575249671936035,41.27549743652344,583,9524.0,-27.641984939575195,-357,9984.0
3400,0.3254454731941223,20.915203094482422,194,9524.0,-20.811870574951172,-284,9984.0
3410,0.32501813769340515,1.8403180837631226,-73,9524.0,-10.82469654083252,-191,9984.0
3420,0.32519182562828064,-17.80729866027832,-340,9524.0,-0.24522438645362854,31,9984.0
3430,0.3252880275249481,-35.49394989013672,-654,9524.0,5.476073741912842,109,9984.0
3440,0.3249250650405884,-45.074954986572266,-785,9524.0,9.758152961730957,277,9984.0
3450,0.3248465061187744,-42.86973190307617,-757,9524.0,11.420975685119629,232,9984.0
3460,0.32478779554367065,-33.30877685546875,-388,9524.0,9.300103187561035,136,9984.0
3470,0.3250138759613037,-20.72091293334961,-239,9524.0,6.556667327880859,117,9984.0
3480,0.3230293393135071,-12.407093048095703,-208,9524.0,3.174842596054077,-126,9984.0
3490,0.32338592410087585,-14.447964668273926,-206,9524.0,5.441888332366943,141,9984.0
3500,0.32384127378463745,-22.53523063659668,-454,9524.0,20.211484909057617,496,9984.0
3510,0.3242431879043579,-35.96895217895508,-635,9524.0,26.416170120239258,372,9984.0
3520,0.32364413142204285,-41.11524963378906,-648,9524.0,25.296533584594727,385,9984.0
3530,0.32432737946510315,-34.09601974487305,-532,9524.0,19.002548217773438,261,9984.0
3540,0.32490652799606323,-15.106925964355469,-19,9524.0,5.874133586883545,38,9984.0
3550,0.32577604055404663,11.533947944641113,225,9524.0,-1.5222458839416504,-115,9984.0
3560,0.32656988501548767,25.866474151611328,601,9524.0,-11.10634708404541,-118,9984.0
3570,0.3246234059333801,41.27613067626953,690,9524.0,-19.797658920288086,-524,9984.0
3580,0.3251108229160309,43.521751403808594,715,9524.0,-26.843111038208008,-402,9984.0
3590,0.32539474964141846,36.377044677734375,443,9524.0,-31.004379272460938,-465,9984.0
3600,0.3253959119319916,19.254365921020508,320,9524.0,-35.0860710144043,-571,9984.0
3610,0.323648065328598,-0.44225743412971497,-55,9524.0,-28.402992248535156,-327,9984.0
3620,0.3235855996608734,-8.337810516357422,-170,9524.0,-11.869028091430664,-143,9984.0
3630,0.323343962430954,-7.761938571929932,-21,9524.0,3.3956785202026367,61,9984.0
3640,0.32297375798225403,2.796531915664673,91,9524.0,14.241360664367676,289,9984.0
3650,0.32246631383895874,16.778940200805664,331,9524.0,21.48737144470215,261,9984.0
3660,0.32103851437568665,24.22533416748047,412,9524.0,25.918659210205078,429,9984.0
3670,0.3204944133758545,24.567955017089844,319,9524.0,25.066434860229492,452,9984.0
3680,0.3200962245464325,18.809167861938477,269,9524.0,18.677322387695312,220,9984.0
3690,0.31986990571022034,5.141530513763428,39,9524.0,6.9085893630981445,102,9984.0
3700,0.31872478127479553,-11.342281341552734,-278,9524.0,-6.016758918762207,-148,9984.0
3710,0.3189564049243927,-22.79435157775879,-392,9524.0,-17.21746826171875,-450,9984.0
3720,0.31915879249572754,-27.95673942565918,-461,9524.0,-24.388057708740234,-394,9984.0
3730,0.31954461336135864,-22.820178985595703,-349,9524.0,-28.26953125,-415,9984.0
3740,0.3191918432712555,-13.479991912841797,-101,9524.0,-27.585840225219727,-559,9984.0
3750,0.3195910155773163,-7.513256072998047,-40,9524.0,-22.480741500854492,-367,9984.0
3760,0.3201226592063904,-5.192687034606934,-192,9524.0,-14.03355884552002,-10,9984.0
3770,0.32058805227279663,-8.79453182220459,-231,9524.0,2.727800130844116,134,9984.0
3780,0.3210392892360687,-16.539112091064453,-286,9524.0,10.516375541687012,148,9984.0
3790,0.3207283914089203,-26.350622177124023,-428,9524.0,17.07931137084961,324,9984.0
3800,0.3212209939956665,-34.745540618896484,-628,9524.0,23.66750717163086,248,9984.0
3810,0.32154712080955505,-32.43341827392578,-485,9524.0,12.92041015625,68,9984.0
3820,0.3225654363632202,-21.346460342407227,-313,9524.0,2.7406868934631348,105,9984.0
3830,0.3216041624546051,-8.866961479187012,-102,9524.0,2.6431241035461426,14,9984.0
3840,0.3222667872905731,6.105602264404297,223,9524.0,6.1285624504089355,153,9984.0
3850,0.3227057456970215,20.86086082458496,263,9524.0,11.148526191711426,125,9984.0
3860,0.32315513491630554,25.92856788635254,576,9524.0,7.285733699798584,169,9984.0
3870,0.3233846127986908,29.485015869140625,449,9524.0,2.059300184249878,-39,9984.0
3880,0.32298004627227783,31.817577362060547,519,9524.0,-9.690589904785156,-246,9984.0
3890,0.32306206226348877,33.97120666503906,565,9524.0,-23.265384674072266,-262,9984.0
3900,0.32299256324768066,30.553571701049805,457,9524.0,-32.134544372558594,-573,9984.0
3910,0.3233240246772766,24.923891067504883,415,9524.0,-31.089420318603516,-626,9984.0
3920,0.32218581438064575,17.0373592376709,267,9524.0,-27.136545181274414,-444,9984.0
3930,0.32237204909324646,8.516530990600586,26,9524.0,-16.051315307617188,-93,9984.0
3940,0.3226756155490875,-5.803796768188477,-220,9524.0,2.7479236125946045,171,9984.0
3950,0.3232099711894989,-18.436601638793945,-354,9524.0,23.590009689331055,430,9984.0
3960,0.3228070139884949,-26.070404052734375,-376,9524.0,37.665802001953125,653,9984.0
3970,0.32323017716407776,-26.932926177978516,-362,9524.0,41.717498779296875,698,9984.0
3980,0.323865681886673,-22.482961654663086,-411,9524.0,40.363460540771484,610,9984.0
3990,0.3245507776737213,-15.756017684936523,-215,9524.0,34.29255676269531,507,9984.0
4000,0.32527855038642883,-5.831780910491943,-70,9524.0,21.676807403564453,427,9984.0
4010,0.3228899836540222,2.5735490322113037,45,9524.0,9.880693435668945,-42,9984.0
4020,0.3238680958747864,4.864574909210205,92,9524.0,2.500518560409546,31,9984.0
4030,0.3245362639427185,1.282820463180542,12,9524.0,-4.790863513946533,-2,9984.0
4040,0.3251057267189026,-6.10139799118042,-130,9524.0,-2.0285565853118896,-192,9984.0
4050,0.32293424010276794,-14.976377487182617,-226,9524.0,-0.10655146092176437,168,9984.0
4060,0.3231462836265564,-15.505282402038574,-246,9524.0,0.2700747847557068,-58,9984.0
4070,0.32326358556747437,-6.233982086181641,-60,9524.0,0.3670981526374817,-4,9984.0
4080,0.3232795298099518,6.801473617553711,204,9524.0,2.090285301208496,149,9984.0
4090,0.3231199085712433,21.647729873657227,454,9524.0,4.927711009979248,-109,9984.0
4100,0.32289788126945496,33.888362884521484,575,9524.0,-3.3112363815307617,40,9984.0
4110,0.3224811851978302,40.779850006103516,673,9524.0,-11.247330665588379,-239,9984.0
4120,0.3218455910682678,45.776893615722656,822,9524.0,-23.7210750579834,-405,9984.0
4130,0.32123759388923645,45.47969055175781,703,9524.0,-29.919963836669922,-486,9984.0
4140,0.3196289837360382,42.50563430786133,626,9524.0,-30.455053329467773,-550,9984.0
4150,0.3186236321926117,24.175765991210938,315,9524.0,-16.35748863220215,-292,9984.0
4160,0.31769129633903503,3.5764598846435547,-24,9524.0,5.615687370300293,235,9984.0
4170,0.3169260621070862,-20.242815017700195,-441,9524.0,29.27737045288086,595,9984.0
4180,0.3198518753051758,-36.78907012939453,-726,9524.0,34.432350158691406,451,9984.0
4190,0.31938666105270386,-44.08289337158203,-670,9524.0,29.47096824645996,423,9984.0
4200,0.3191905915737152,-35.36018753051758,-555,9524.0,21.609342575073242,381,9984.0
4210,0.3190946578979492,-18.880626678466797,-156,9524.0,6.8221635818481445,13,9984.0
4220,0.31907597184181213,-1.9749847650527954,24,9524.0,-10.01331901550293,-162,9984.0
4230,0.31924641132354736,11.110429763793945,238,9524.0,-27.15472984313965,-710,9984.0
4240,0.3195320665836334,20.059030532836914,348,9524.0,-36.41189956665039,-605,9984.0
4250,0.3197627663612366,18.96504020690918,239,9524.0,-39.98185348510742,-608,9984.0
4260,0.32044413685798645,7.115192890167236,74,9524.0,-33.13629150390625,-456,9984.0
4270,0.32146114110946655,-9.606701850891113,-190,9524.0,-14.579072952270508,-87,9984.0
4280,0.32195281982421875,-24.373394012451172,-432,9524.0,4.554234504699707,253,9984.0
4290,0.322539746761322,-40.01637268066406,-724,9524.0,21.023193359375,339,9984.0
4300,0.32293233275413513,-53.65889358520508,-852,9524.0,33.47993087768555,588,9984.0
4310,0.32285770773887634,-54.63188171386719,-982,9524.0,36.707908630371094,630,9984.0
4320,0.32288607954978943,-43.56429672241211,-482,9524.0,34.833072662353516,536,9984.0
4330,0.32307904958724976,-21.40266227722168,-226,9524.0,24.706058502197266,274,9984.0
4340,0.3237149119377136,3.195725440979004,186,9524.0,13.516548156738281,210,9984.0
4350,0.32367759943008423,26.044492721557617,539,9524.0,0.7919837236404419,-77,9984.0
4360,0.3226461708545685,40.27218246459961,726,9524.0,-16.163318634033203,-387,9984.0
4370,0.32245948910713196,41.91473388671875,616,9524.0,-35.706199645996094,-730,9984.0
4380,0.3221376836299896,33.153194427490234,480,9524.0,-48.177188873291016,-679,9984.0
4390,0.32158687710762024,23.989309310913086,309,9524.0,-49.772701263427734,-868,9984.0
4400,0.3215561807155609,11.640506744384766,200,9524.0,-43.11559295654297,-538,9984.0
4410,0.3207553029060364,6.099091053009033,73,9524.0,-29.43453598022461,-307,9984.0
4420,0.3197813928127289,0.011297659948468208,19,9524.0,-6.701481819152832,-55,9984.0
4430,0.318878173828125,-5.706737041473389,-128,9524.0,18.012893676757812,385,9984.0
4440,0.3181247115135193,-12.089012145996094,-263,9524.0,38.795291900634766,799,9984.0
4450,0.31870344281196594,-17.398670196533203,-223,9524.0,49.55265426635742,619,9984.0
4460,0.31776100397109985,-16.553199768066406,-236,9524.0,42.92555236816406,749,9984.0
4470,0.31697890162467957,-1.4434788227081299,90,9524.0,37.06634521484375,473,9984.0
4480,0.31633543968200684,16.828758239746094,285,9524.0,25.941082000732422,425,9984.0
4490,0.3171970546245575,22.46389389038086,419,9524.0,10.639151573181152,109,9984.0
4500,0.3167306184768677,20.22924041748047,253,9524.0,-6.847115516662598,-134,9984.0
4510,0.3167622685432434,8.636893272399902,160,9524.0,-18.33793830871582,-422,9984.0
4520,0.3168574273586273,-1.5842324495315552,-121,9524.0,-26.164417266845703,-435,9984.0
4530,0.31893476843833923,-5.903666973114014,-166,9524.0,-29.647151947021484,-574,9984.0
4540,0.3190613090991974,-12.152917861938477,-233,9524.0,-33.207183837890625,-436,9984.0
4550,0.31924888491630554,-15.65245532989502,-298,9524.0,-23.94074058532715,-321,9984.0
4560,0.31936681270599365,-9.357301712036133,8,9524.0,-6.579809665679932,3,9984.0
4570,0.31940677762031555,0.8672699332237244,43,9524.0,15.510519981384277,429,9984.0
4580,0.32289010286331177,18.157011032104492,401,9524.0,31.861888885498047,501,9984.0
4590,0.32296231389045715,30.773540496826172,519,9524.0,40.31062316894531,649,9984.0
4600,0.32287919521331787,28.328725814819336,394,9524.0,38.36205291748047,491,9984.0
4610,0.3232508897781372,15.577495574951172,214,9524.0,29.505470275878906,474,9984.0
4620,0.32444503903388977,4.172653675079346,-33,9524.0,17.774051666259766,254,9984.0
4630,0.3245023787021637,-9.077065467834473,-79,9524.0,3.5819900035858154,-13,9984.0
4640,0.3241933286190033,-13.285454750061035,-247,9524.0,-13.604294776916504,-199,9984.0
4650,0.32383373379707336,-10.852499961853027,-126,9524.0,-21.879114151000977,-518,9984.0
4660,0.3234000504016876,-7.606357574462891,-126,9524.0,-27.170799255371094,-455,9984.0
4670,0.32351356744766235,-0.8583675026893616,-8,9524.0,-29.393033981323242,-490,9984.0
4680,0.3229767382144928,3.320089101791382,125,9524.0,-28.457876205444336,-401,9984.0
4690,0.322350412607193,8.213814735412598,157,9524.0,-21.214284896850586,-228,9984.0
4700,0.32205963134765625,7.358792304992676,136,9524.0,-4.0242509841918945,-136,9984.0
4710,0.32301390171051025,2.949108123779297,80,9524.0,12.522454261779785,307,9984.0
4720,0.32288116216659546,-2.9057445526123047,-134,9524.0,22.14450454711914,437,9984.0
4730,0.32283201813697815,-9.521782875061035,-189,9524.0,24.917327880859375,284,9984.0
4740,0.322847455739975,-12.34400463104248,-209,9524.0,19.93232536315918,288,9984.0
4750,0.32342883944511414,-11.241387367248535,-232,9524.0,8.02474308013916,114,9984.0
4760,0.32374247908592224,-15.735344886779785,-186,9524.0,-2.6156728267669678,-57,9984.0
4770,0.32416385412216187,-21.071096420288086,-415,9524.0,-7.323892116546631,-130,9984.0
4780,0.32458049058914185,-24.325807571411133,-406,9524.0,-11.652566909790039,-312,9984.0
4790,0.3250744342803955,-18.49288558959961,-212,9524.0,-19.635570526123047,-199,9984.0
4800,0.3266545236110687,-6.484687328338623,-73,9524.0,-14.397238731384277,-251,9984.0
4810,0.32704466581344604,6.708734035491943,207,9524.0,-3.793581962585449,-27,9984.0
4820,0.32729387283325195,24.33026885986328,355,9524.0,2.0285756587982178,94,9984.0
4830,0.32754379510879517,33.4041748046875,705,9524.0,4.238621234893799,31,9984.0
4840,0.33050453662872314,38.94523239135742,643,9524.0,4.362009048461914,128,9984.0
4850,0.33060768246650696,35.828636169433594,531,9524.0,-1.3041855096817017,-211,9984.0
4860,0.33058568835258484,24.957555770874023,320,9524.0,-8.489217758178711,-222,9984.0
4870,0.3307918906211853,6.466003894805908,-51,9524.0,-12.896895408630371,-148,9984.0
4880,0.330956369638443,-8.983321189880371,-222,9524.0,-17.584142684936523,-307,9984.0
4890,0.3309728503227234,-12.850041389465332,-84,9524.0,-21.4150447845459,-327,9984.0
4900,0.33100879192352295,-11.992445945739746,-219,9524.0,-20.52687644958496,-210,9984.0
4910,0.33104315400123596,-11.113030433654785,-198,9524.0,-11.111610412597656,-314,9984.0
4920,0.3312258720397949,-10.697879791259766,-186,9524.0,-5.899646282196045,-116,9984.0
4930,0.331619530916214,-11.62425422668457,-222,9524.0,-5.401401042938232,45,9984.0
4940,0.331694632768631,-13.021347045898438,-232,9524.0,-8.924701690673828,-141,9984.0
4950,0.3318055272102356,-5.101110458374023,23,9524.0,-15.263298988342285,-291,9984.0
4960,0.33193421363830566,-2.5025079250335693,-13,9524.0,-17.221019744873047,-370,9984.0
4970,0.3328626751899719,-0.2314184159040451,-121,9524.0,-16.74989128112793,-255,9984.0
4980,0.33302125334739685,-6.07686710357666,-124,9524.0,-10.484758377075195,-178,9984.0
4990,0.3331843614578247,-15.328993797302246,-279,9524.0,0.033168401569128036,245,9984.0
5000,0.3335851728916168,-22.609241485595703,-445,9524.0,11.627082824707031,206,9984.0
5010,0.334028959274292,-28.56613540649414,-493,9524.0,23.38152503967285,371,9984.0
5020,0.33609768748283386,-25.143192291259766,-377,9524.0,28.161523818969727,642,9984.0
5030,0.3367074131965637,-11.617682456970215,-39,9524.0,26.46011734008789,314,9984.0
5040,0.33781683444976807,2.102356195449829,24,9524.0,20.526514053344727,340,9984.0
5050,0.33897456526756287,10.363930702209473,199,9524.0,11.37100887298584,193,9984.0
5060,0.3368143141269684,10.592755317687988,169,9524.0,4.894896984100342,73,9984.0
5070,0.337642103433609,8.242158889770508,96,9524.0,-3.7793807983398438,-205,9984.0
5080,0.3384268283843994,4.688241481781006,82,9524.0,-9.959230422973633,-38,9984.0
5090,0.3390837013721466,2.6875033378601074,18,9524.0,-14.986345291137695,-400,9984.0
5100,0.33968305587768555,6.393761157989502,144,9524.0,-22.687026977539062,-390,9984.0
5110,0.33819064497947693,11.787699699401855,286,9524.0,-31.087120056152344,-384,9984.0
5120,0.33850765228271484,21.477310180664062,420,9524.0,-29.665311813354492,-536,9984.0
5130,0.3387294411659241,26.410099029541016,444,9524.0,-24.09650421142578,-490,9984.0
5140,0.33907946944236755,28.176958084106445,508,9524.0,-14.650322914123535,-101,9984.0
5150,0.339398592710495,20.00324058532715,321,9524.0,0.9455345869064331,159,9984.0
5160,0.3398295044898987,6.998085975646973,9,9524.0,18.13069725036621,369,9984.0
5170,0.34088054299354553,-11.410126686096191,-284,9524.0,38.18330764770508,658,9984.0
5180,0.34168726205825806,-25.216552734375,-449,9524.0,53.9174919128418,845,9984.0
5190,0.3407213091850281,-29.13792610168457,-420,9524.0,57.428489685058594,963,9984.0
5200,0.34149453043937683,-23.92897605895996,-332,9524.0,48.61197280883789,768,9984.0
5210,0.34254875779151917,-12.294373512268066,-165,9524.0,33.2516975402832,363,9984.0
5220,0.34379899501800537,1.1691575050354004,94,9524.0,14.758550643920898,280,9984.0
5230,0.3449277877807617,8.194043159484863,108,9524.0,-0.3483791649341583,-141,9984.0
5240,0.3415340185165405,5.6912713050842285,98,9524.0,-11.093889236450195,-211,9984.0
5250,0.34274381399154663,-3.1665804386138916,-106,9524.0,-14.641046524047852,-212,9984.0
5260,0.34404829144477844,-13.831793785095215,-301,9524.0,-13.30528736114502,-325,9984.0
5270,0.3454209566116333,-16.861228942871094,-173,9524.0,-17.31247329711914,-279,9984.0
5280,0.34393876791000366,-9.763145446777344,-164,9524.0,-18.453828811645508,-186,9984.0
5290,0.34532755613327026,-4.368093013763428,-62,9524.0,-9.933959007263184,-195,9984.0
5300,0.34664133191108704,-4.890583038330078,-4,9524.0,-1.6837058067321777,-83,9984.0
5310,0.3478357493877411,0.3905636668205261,-16,9524.0,3.6894779205322266,251,9984.0
5320,0.3489084839820862,10.34044361114502,220,9524.0,9.268913269042969,79,9984.0
5330,0.34693804383277893,24.418787002563477,463,9524.0,14.9800386428833,207,9984.0
5340,0.347406268119812,35.73991775512695,588,9524.0,17.073074340820312,445,9984.0
5350,0.3475630283355713,34.98118209838867,483,9524.0,18.63424301147461,264,9984.0
5360,0.3474198579788208,25.919057846069336,339,9524.0,17.489755630493164,213,9984.0
5370,0.34505560994148254,7.353207111358643,93,9524.0,9.588947296142578,187,9984.0
5380,0.34481653571128845,-12.578856468200684,-384,9524.0,2.681053876876831,82,9984.0
5390,0.3444609045982361,-23.89026641845703,-401,9524.0,-3.033923625946045,-130,9984.0
5400,0.34388718008995056,-22.672388076782227,-274,9524.0,-12.69089126586914,-244,9984.0
5410,0.34329745173454285,-8.997699737548828,-161,9524.0,-28.628694534301758,-572,9984.0
5420,0.3428955674171448,8.417338371276855,316,9524.0,-43.85052490234375,-775,9984.0
5430,0.3423062860965729,17.795595169067383,296,9524.0,-51.879783630371094,-813,9984.0
5440,0.34178927540779114,15.546287536621094,172,9524.0,-45.194366455078125,-862,9984.0
5450,0.34095498919487,2.9158432483673096,27,9524.0,-37.06516647338867,-535,9984.0
5460,0.3417777121067047,-14.710872650146484,-277,9524.0,-26.206571578979492,-195,9984.0
5470,0.3414364159107208,-22.483442306518555,-402,9524.0,-12.042984008789062,-148,9984.0
5480,0.340908408164978,-25.353273391723633,-318,9524.0,3.37117075920105,17,9984.0
5490,0.34064915776252747,-19.54766082763672,-267,9524.0,16.393085479736328,318,9984.0
5500,0.3414759933948517,-11.957269668579102,-209,9524.0,23.16683578491211,301,9984.0
5510,0.3415106236934662,-2.5974926948547363,77,9524.0,22.086164474487305,418,9984.0
5520,0.3416745662689209,6.068185329437256,154,9524.0,19.93960952758789,316,9984.0
5530,0.34208622574806213,16.604278564453125,287,9524.0,21.229646682739258,320,9984.0
5540,0.34282028675079346,23.762296676635742,357,9524.0,19.62310791015625,474,9984.0
5550,0.3431742787361145,23.37526512145996,376,9524.0,16.40263557434082,108,9984.0
5560,0.3438628911972046,12.134027481079102,192,9524.0,9.001340866088867,106,9984.0
5570,0.34469401836395264,2.538799524307251,-100,9524.0,-2.8580846786499023,-106,9984.0
5580,0.3454131782054901,-12.289422035217285,-108,9524.0,-13.80140495300293,-277,9984.0
5590,0.3438764214515686,-17.022315979003906,-261,9524.0,-18.738637924194336,-261,9984.0
5600,0.34430792927742004,-7.886786937713623,-110,9524.0,-13.839468955993652,-283,9984.0
5610,0.3446348309516907,7.084465503692627,329,9524.0,-11.19731330871582,-134,9984.0
5620,0.3448614478111267,24.56876564025879,474,9524.0,-8.889036178588867,-41,9984.0
5630,0.344990611076355,34.74126052856445,482,9524.0,-3.7916011810302734,-87,9984.0
5640,0.3433440923690796,31.151554107666016,524,9524.0,1.17365300655365,12,9984.0
5650,0.3432113826274872,22.513628005981445,389,9524.0,7.005434989929199,225,9984.0
5660,0.34284457564353943,13.940909385681152,153,9524.0,13.928254127502441,335,9984.0
5670,0.34254971146583557,-0.6755353808403015,-132,9524.0,18.80185317993164,314,9984.0
5680,0.3405507206916809,-10.205573081970215,-284,9524.0,18.57651710510254,191,9984.0
5690,0.33992499113082886,-18.066104888916016,-268,9524.0,14.906288146972656,228,9984.0
5700,0.3393280506134033,-24.391376495361328,-418,9524.0,6.812557220458984,158,9984.0
5710,0.3388146460056305,-32.16310501098633,-646,9524.0,-4.519218444824219,-202,9984.0
5720,0.3382778465747833,-42.86624526977539,-770,9524.0,-8.934588432312012,-150,9984.0
5730,0.3384722173213959,-52.26920700073242,-877,9524.0,-5.493724822998047,107,9984.0
5740,0.33868208527565,-44.57551574707031,-663,9524.0,3.6139657497406006,53,9984.0
5750,0.33894655108451843,-26.43836784362793,-296,9524.0,15.50001049041748,316,9984.0
5760,0.3388671576976776,-13.67894458770752,-199,9524.0,23.564762115478516,484,9984.0
5770,0.33865001797676086,-3.6033568382263184,54,9524.0,23.87510108947754,191,9984.0
5780,0.3386816680431366,20.544876098632812,398,9524.0,18.486330032348633,430,9984.0
5790,0.33848413825035095,36.33220291137695,739,9524.0,16.331878662109375,199,9984.0
5800,0.3384072780609131,48.470741271972656,790,9524.0,16.881189346313477,289,9984.0
5810,0.3368898928165436,48.597938537597656,778,9524.0,10.862353324890137,59,9984.0
5820,0.33627980947494507,47.72738265991211,757,9524.0,4.275434494018555,190,9984.0
5830,0.33591631054878235,39.68507385253906,580,9524.0,-2.8507344722747803,-75,9984.0
5840,0.33488211035728455,26.24770164489746,400,9524.0,-13.87723445892334,-312,9984.0
5850,0.33387884497642517,4.8912739753723145,-3,9524.0,-22.621910095214844,-412,9984.0
5860,0.3341427445411682,-19.940174102783203,-481,9524.0,-28.434032440185547,-474,9984.0
5870,0.3330404460430145,-39.41496658325195,-722,9524.0,-23.223665237426758,-455,9984.0
5880,0.33169910311698914,-48.0391845703125,-797,9524.0,-13.268681526184082,-101,9984.0
5890,0.3304239511489868,-40.453208923339844,-653,9524.0,5.071803092956543,73,9984.0
5900,0.3280417025089264,-25.60696792602539,-251,9524.0,16.843589782714844,356,9984.0
5910,0.32635703682899475,0.2844608426094055,129,9524.0,28.65233612060547,615,9984.0
5920,0.32520121335983276,27.076679229736328,596,9524.0,34.6607780456543,535,9984.0
5930,0.3236314654350281,41.89332580566406,708,9524.0,30.012113571166992,457,9984.0
5940,0.321406751871109,44.07954406738281,731,9524.0,16.829647064208984,66,9984.0
5950,0.31996771693229675,35.245479583740234,458,9524.0,-3.8803749084472656,-82,9984.0
5960,0.3190639317035675,17.459209442138672,157,9524.0,-21.65311622619629,-601,9984.0
5970,0.31756940484046936,-1.9730031490325928,-23,9524.0,-37.10310745239258,-700,9984.0
5980,0.31640490889549255,-14.778617858886719,-346,9524.0,-48.320091247558594,-712,9984.0
5990,0.3140813410282135,-22.265188217163086,-434,9524.0,-49.51603317260742,-878,9984.0
6000,0.3130837380886078,-33.71039581298828,-569,9524.0,-41.32578659057617,-634,9984.0
6010,0.31246766448020935,-46.305946350097656,-886,9524.0,-27.24481201171875,-297,9984.0
6020,0.31117305159568787,-59.010475158691406,-963,9524.0,-7.996049880981445,-209,9984.0
6030,0.3084167242050171,-63.18851852416992,-946,9524.0,6.7532548904418945,255,9984.0
6040,0.30917441844940186,-59.9694709777832,-991,9524.0,25.776824951171875,376,9984.0
6050,0.30756473541259766,-44.995975494384766,-613,9524.0,34.16451644897461,673,9984.0
6060,0.3069111704826355,-16.69700050354004,-155,9524.0,51.21318435668945,807,9984.0
6070,0.3047720789909363,22.714933395385742,474,9524.0,65.22928619384766,1118,9984.0
6080,0.30392295122146606,55.11027908325195,1106,9524.0,63.75383377075195,1160,9984.0
6090,0.30287855863571167,73.50682067871094,1154,9524.0,52.94255447387695,776,9984.0
6100,0.30156391859054565,69.19029235839844,1098,9524.0,40.1515998840332,632,9984.0
6110,0.30015507340431213,47.49967575073242,753,9524.0,22.990646362304688,228,9984.0
6120,0.3008541464805603,21.017667770385742,156,9524.0,2.415964365005493,36,9984.0
6130,0.29985421895980835,-6.864389896392822,-201,9524.0,-14.370407104492188,-333,9984.0
6140,0.3001118302345276,-28.281509399414062,-598,9524.0,-29.008089065551758,-503,9984.0
6150,0.2983156442642212,-37.85629653930664,-538,9524.0,-39.0114631652832,-658,9984.0
6160,0.29718461632728577,-36.43440246582031,-668,9524.0,-40.4057502746582,-570,9984.0
6170,0.29650259017944336,-29.4122314453125,-361,9524.0,-30.11252212524414,-450,9984.0
6180,0.2952464818954468,-16.893234252929688,-333,9524.0,-14.202024459838867,-28,9984.0
6190,0.29526036977767944,-4.676600933074951,16,9524.0,7.281903266906738,177,9984.0
6200,0.29335740208625793,6.590786457061768,54,9524.0,23.9105281829834,564,9984.0
6210,0.2931092083454132,8.689274787902832,182,9524.0,35.50362014770508,573,9984.0
6220,0.29328006505966187,8.8681001663208,68,9524.0,40.767417907714844,729,9984.0
6230,0.29284560680389404,8.239646911621094,221,9524.0,37.60892868041992,466,9984.0
6240,0.2924785017967224,13.400920867919922,188,9524.0,27.238065719604492,446,9984.0
6250,0.2921944856643677,20.005985260009766,356,9524.0,16.400774002075195,154,9984.0
6260,0.2921037971973419,23.59294319152832,379,9524.0,3.079263687133789,114,9984.0
6270,0.29203203320503235,19.230846405029297,232,9524.0,-3.8599278926849365,-75,9984.0
6280,0.29220861196517944,4.189876079559326,-30,9524.0,-4.805979251861572,9,9984.0
6290,0.2917702794075012,-16.914230346679688,-449,9524.0,-5.221748352050781,-75,9984.0
6300,0.29177504777908325,-35.34660720825195,-591,9524.0,-1.6055406332015991,-62,9984.0
6310,0.2917216122150421,-46.44315719604492,-824,9524.0,-0.3318265676498413,29,9984.0
6320,0.2914116084575653,-45.587406158447266,-687,9524.0,2.3112127780914307,-20,9984.0
6330,0.29169774055480957,-34.547786712646484,-554,9524.0,4.297679901123047,93,9984.0
6340,0.2920473515987396,-11.640755653381348,24,9524.0,7.887454509735107,219,9984.0
6350,0.2921665608882904,17.165111541748047,397,9524.0,6.6599884033203125,32,9984.0
6360,0.29182448983192444,39.067176818847656,742,9524.0,4.914505958557129,177,9984.0
6370,0.29121214151382446,44.88688278198242,767,9524.0,3.0859215259552,21,9984.0
6380,0.2908845543861389,39.41884231567383,564,9524.0,2.8949902057647705,150,9984.0
6390,0.29027485847473145,32.620948791503906,487,9524.0,5.726677894592285,61,9984.0
6400,0.28960880637168884,18.488296508789062,297,9524.0,6.810320854187012,193,9984.0
6410,0.28882524371147156,7.165157318115234,7,9524.0,11.28760051727295,103,9984.0
6420,0.2890593409538269,-2.344305992126465,19,9524.0,18.38949203491211,379,9984.0
6430,0.2882671654224396,-4.337989807128906,-58,9524.0,27.0047550201416,294,9984.0
6440,0.28743717074394226,0.25881335139274597,106,9524.0,24.431659698486328,452,9984.0
6450,0.2865853011608124,6.701075077056885,129,9524.0,11.849404335021973,-41,9984.0
6460,0.28559616208076477,8.832828521728516,85,9524.0,-8.842644691467285,-194,9984.0
6470,0.28501734137535095,3.4275126457214355,67,9524.0,-24.636072158813477,-523,9984.0
6480,0.28396081924438477,-7.218591213226318,-258,9524.0,-32.25905990600586,-495,9984.0
6490,0.2828170359134674,-12.094352722167969,-172,9524.0,-32.549713134765625,-546,9984.0
6500,0.2815895974636078,-12.223820686340332,-291,9524.0,-29.805585861206055,-402,9984.0
6510,0.27919211983680725,-7.888719081878662,-84,9524.0,-20.23530387878418,-412,9984.0
6520,0.27847883105278015,0.739932119846344,20,9524.0,-14.152655601501465,-148,9984.0
6530,0.2774444818496704,7.683910369873047,136,9524.0,-3.1081109046936035,-161,9984.0
6540,0.2765606641769409,8.49964427947998,185,9524.0,5.411017894744873,122,9984.0
6550,0.2757391929626465,9.085991859436035,103,9524.0,14.516545295715332,217,9984.0
6560,0.2754285931587219,9.669356346130371,209,9524.0,22.256591796875,333,9984.0
6570,0.2749166488647461,7.353886604309082,34,9524.0,29.927913665771484,564,9984.0
6580,0.27419450879096985,-1.4328244924545288,4,9524.0,34.71738815307617,429,9984.0
6590,0.27376237511634827,-7.129574775695801,-191,9524.0,27.615901947021484,460,9984.0
6600,0.27277007699012756,-17.67888832092285,-308,9524.0,17.545413970947266,169,9984.0
6610,0.2721380889415741,-26.982908248901367,-537,9524.0,7.360140800476074,62,9984.0
6620,0.27137401700019836,-29.089811325073242,-462,9524.0,-6.664231300354004,-217,9984.0
6630,0.27031993865966797,-24.503808975219727,-438,9524.0,-21.240488052368164,-389,9984.0
6640,0.2687944769859314,-15.65308952331543,-109,9524.0,-28.438533782958984,-490,9984.0
6650,0.2675793766975403,-3.4831717014312744,-83,9524.0,-22.75057029724121,-337,9984.0
6660,0.26629987359046936,4.271607875823975,224,9524.0,-9.638423919677734,-114,9984.0
6670,0.2649801969528198,14.601204872131348,239,9524.0,6.481250762939453,173,9984.0
6680,0.2639108896255493,18.11777114868164,347,9524.0,16.902629852294922,247,9984.0
6690,0.26215049624443054,19.70158576965332,299,9524.0,20.642534255981445,428,9984.0
6700,0.26062193512916565,17.35129737854004,301,9524.0,21.49142074584961,269,9984.0
6710,0.25918957591056824,18.247596740722656,287,9524.0,20.26354217529297,392,9984.0
6720,0.25812193751335144,16.4084529876709,260,9524.0,16.935916900634766,140,9984.0
6730,0.25542977452278137,13.553159713745117,219,9524.0,9.257033348083496,214,9984.0
6740,0.2538730204105377,5.141244888305664,30,9524.0,6.844628810882568,-114,9984.0
6750,0.25261029601097107,-6.819714546203613,-106,9524.0,-2.2452564239501953,-20,9984.0
6760,0.2513538897037506,-15.795327186584473,-329,9524.0,-6.660873889923096,-204,9984.0
6770,0.2501300871372223,-21.16779327392578,-314,9524.0,-13.25604248046875,-154,9984.0
6780,0.24839352071285248,-22.668275833129883,-474,9524.0,-13.605257034301758,-233,9984.0
6790,0.24720528721809387,-21.994815826416016,-291,9524.0,-12.201160430908203,-107,9984.0
6800,0.24579177796840668,-16.17619514465332,-283,9524.0,-5.508415699005127,-110,9984.0
6810,0.2454703003168106,-9.105799674987793,-71,9524.0,4.163934707641602,191,9984.0
6820,0.2433713972568512,-2.680382490158081,-30,9524.0,18.60898780822754,274,9984.0
6830,0.24259087443351746,3.2962958812713623,99,9524.0,30.701953887939453,591,9984.0
6840,0.24214282631874084,7.131557464599609,111,9524.0,37.12636947631836,595,9984.0
6850,0.24153368175029755,-1.3365991115570068,-98,9524.0,40.01839828491211,710,9984.0
6860,0.23935450613498688,-12.944084167480469,-160,9524.0,35.78690719604492,540,9984.0
6870,0.23878975212574005,-19.96656608581543,-429,9524.0,23.683534622192383,289,9984.0
6880,0.23808160424232483,-23.372976303100586,-359,9524.0,8.25616455078125,200,9984.0
6890,0.23736988008022308,-17.248247146606445,-265,9524.0,-7.810084342956543,-204,9984.0
6900,0.23677949607372284,-4.0151519775390625,-39,9524.0,-16.001012802124023,-278,9984.0
6910,0.23549729585647583,10.445724487304688,327,9524.0,-19.89276885986328,-290,9984.0
6920,0.23485355079174042,18.915544509887695,287,9524.0,-16.698450088500977,-279,9984.0
6930,0.23418830335140228,19.79214859008789,408,9524.0,-8.885354995727539,8,9984.0
6940,0.23363851010799408,19.713394165039062,240,9524.0,0.6297110915184021,14,9984.0
6950,0.23282663524150848,14.523069381713867,272,9524.0,10.292823791503906,227,9984.0
6960,0.23244409263134003,8.176803588867188,4,9524.0,13.794941902160645,254,9984.0
6970,0.2319115549325943,1.1751775741577148,47,9524.0,14.3124418258667,201,9984.0
6980,0.23180006444454193,-8.52556037902832,-249,9524.0,10.339239120483398,182,9984.0
6990,0.23084063827991486,-13.51037883758545,-155,9524.0,5.575723171234131,42,9984.0
7000,0.23046919703483582,-11.68942642211914,-229,9524.0,-0.8786443471908569,-32,9984.0
7010,0.2301911860704422,-8.9008207321167,-105,9524.0,-3.5115857124328613,-91,9984.0
7020,0.22959764301776886,-7.439204216003418,-170,9524.0,-4.049586296081543,-46,9984.0
7030,0.22891543805599213,-7.819606781005859,-121,9524.0,-3.0274457931518555,-85,9984.0
7040,0.2280586063861847,-6.084975719451904,-118,9524.0,-2.8593175411224365,80,9984.0
7050,0.2278539538383484,-5.737297058105469,-89,9524.0,0.8110296726226807,48,9984.0
7060,0.22767969965934753,-7.648569107055664,-182,9524.0,6.793540954589844,253,9984.0
7070,0.22726835310459137,-12.461851119995117,-234,9524.0,12.962597846984863,101,9984.0
7080,0.22866831719875336,-16.28200340270996,-304,9524.0,13.956223487854004,289,9984.0
7090,0.22855009138584137,-18.571455001831055,-291,9524.0,15.407794952392578,136,9984.0
7100,0.2286176085472107,-15.649333000183105,-324,9524.0,13.879390716552734,273,9984.0
7110,0.22839049994945526,-7.9528303146362305,-42,9524.0,14.426000595092773,196,9984.0
7120,0.22835063934326172,-1.9169842004776,-91,9524.0,11.405654907226562,91,9984.0
7130,0.23002523183822632,2.8422935009002686,136,9524.0,4.908340930938721,145,9984.0
7140,0.22999107837677002,6.3243513107299805,44,9524.0,-1.1726855039596558,-182,9984.0
7150,0.22959597408771515,1.5227032899856567,60,9524.0,-4.827635765075684,35,9984.0
7160,0.2298419326543808,0.11005952209234238,-8,9524.0,-2.445025682449341,-104,9984.0
7170,0.22935838997364044,2.6057932376861572,67,9524.0,0.7314031720161438,140,9984.0
7180,0.2290123999118805,7.651744842529297,187,9524.0,2.3783304691314697,-39,9984.0
7190,0.22870013117790222,14.518889427185059,208,9524.0,1.4951298236846924,114,9984.0
7200,0.22849643230438232,16.55980682373047,340,9524.0,-1.4856233596801758,-90,9984.0
7210,0.22970181703567505,19.27289581298828,246,9524.0,-0.16328707337379456,88,9984.0
7220,0.22957541048526764,20.141176223754883,347,9524.0,-0.20781710743904114,-60,9984.0
7230,0.22944416105747223,17.60486602783203,220,9524.0,-1.8469797372817993,97,9984.0
7240,0.2291697859764099,8.302326202392578,78,9524.0,-1.818494200706482,-137,9984.0
7250,0.2289930284023285,-1.4752702713012695,-39,9524.0,-2.6678848266601562,7,9984.0
7260,0.22972986102104187,-9.986518859863281,-277,9524.0,-0.9673041701316833,-36,9984.0
7270,0.2294275462627411,-14.31631851196289,-174,9524.0,-1.008297324180603,-8,9984.0
7280,0.22893476486206055,-16.763612747192383,-306,9524.0,0.14799170196056366,-17,9984.0
7290,0.22832642495632172,-17.89328384399414,-205,9524.0,-1.0548022985458374,-63,9984.0
7300,0.2292720526456833,-10.809303283691406,-221,9524.0,-2.8104453086853027,-7,9984.0
7310,0.2287396788597107,-7.437540054321289,-54,9524.0,-5.639523029327393,-139,9984.0
7320,0.22816161811351776,-1.8905428647994995,-107,9524.0,-7.201718330383301,-104,9984.0
7330,0.22788770496845245,-3.760770797729492,-35,9524.0,-9.3297119140625,-179,9984.0
7340,0.22871428728103638,-5.356570720672607,-115,9524.0,-12.696346282958984,-176,9984.0
7350,0.22867244482040405,-6.096831798553467,-32,9524.0,-12.786479949951172,-282,9984.0
7360,0.2287144809961319,-4.227899074554443,-94,9524.0,-10.29495620727539,-84,9984.0
7370,0.22882793843746185,-4.420860767364502,-55,9524.0,-4.4838948249816895,-119,9984.0
7380,0.22909344732761383,-6.151244640350342,-113,9524.0,5.667701244354248,281,9984.0
7390,0.22955051064491272,-8.850139617919922,-132,9524.0,14.835365295410156,142,9984.0
7400,0.2296227663755417,-8.181477546691895,-160,9524.0,16.152040481567383,386,9984.0
7410,0.22992993891239166,-12.733006477355957,-230,9524.0,14.524923324584961,169,9984.0
7420,0.2300674468278885,-13.5994873046875,-242,9524.0,14.294013977050781,348,9984.0
7430,0.2300134301185608,-10.376288414001465,-93,9524.0,13.689900398254395,125,9984.0
7440,0.23002414405345917,-3.128723621368408,-108,9524.0,5.198872089385986,54,9984.0
7450,0.23003995418548584,4.344427585601807,173,9524.0,-6.862706661224365,-153,9984.0
7460,0.22989162802696228,11.274029731750488,161,9524.0,-15.907764434814453,-390,9984.0
7470,0.23027107119560242,18.12078285217285,399,9524.0,-18.661197662353516,-212,9984.0
7480,0.23035123944282532,22.201339721679688,347,9524.0,-15.505922317504883,-357,9984.0
7490,0.23027436435222626,26.200157165527344,451,9524.0,-9.1277437210083,-32,9984.0
7500,0.23035204410552979,24.66134262084961,383,9524.0,0.5435588955879211,-3,9984.0
7510,0.2302916944026947,23.26542854309082,398,9524.0,9.911444664001465,200,9984.0
7520,0.23230494558811188,19.33085060119629,256,9524.0,17.334186553955078,402,9984.0
7530,0.2326756715774536,13.884998321533203,265,9524.0,22.639572143554688,265,9984.0
7540,0.2335537225008011,6.150831699371338,93,9524.0,19.908061981201172,421,9984.0
7550,0.23409177362918854,-0.6896112561225891,-66,9524.0,14.667625427246094,114,9984.0
7560,0.23447160422801971,-7.852520942687988,-135,9524.0,4.878873825073242,94,9984.0
7570,0.23515117168426514,-11.899381637573242,-252,9524.0,-6.402716159820557,-303,9984.0
7580,0.23596131801605225,-14.912577629089355,-249,9524.0,-18.110790252685547,-251,9984.0
7590,0.23665423691272736,-16.863428115844727,-343,9524.0,-24.599092483520508,-522,9984.0
7600,0.23719936609268188,-16.36617660522461,-184,9524.0,-27.854604721069336,-405,9984.0
7610,0.23484374582767487,-13.837440490722656,-251,9524.0,-26.696962356567383,-501,9984.0
7620,0.23515304923057556,-9.645639419555664,-79,9524.0,-22.562252044677734,-354,9984.0
7630,0.2354518324136734,-3.7363791465759277,-44,9524.0,-17.021015167236328,-129,9984.0
7640,0.2358025163412094,1.7029699087142944,97,9524.0,-7.631908893585205,-143,9984.0
7650,0.23401275277137756,5.018595218658447,115,9524.0,3.1120336055755615,152,9984.0
7660,0.23445044457912445,6.199660301208496,39,9524.0,14.71356201171875,223,9984.0
7670,0.2345937043428421,-0.8518970012664795,15,9524.0,23.2778263092041,402,9984.0
7680,0.23579910397529602,-5.021498680114746,-153,9524.0,32.806846618652344,654,9984.0
7690,0.23585008084774017,-3.2725558280944824,-73,9524.0,37.34368133544922,525,9984.0
7700,0.2400234043598175,-1.3007514476776123,-2,9524.0,31.044193267822266,555,9984.0
7710,0.24030952155590057,6.2503838539123535,156,9524.0,11.730639457702637,54,9984.0
7720,0.2404312640428543,14.125372886657715,223,9524.0,-6.74946928024292,-66,9984.0
7730,0.2405417561531067,15.75558853149414,302,9524.0,-18.835227966308594,-429,9984.0
7740,0.23711825907230377,15.191668510437012,181,9524.0,-23.872915267944336,-346,9984.0
7750,0.2368393838405609,11.904546737670898,249,9524.0,-21.11453628540039,-379,9984.0
7760,0.23662322759628296,8.58017635345459,113,9524.0,-11.21059799194336,-88,9984.0
7770,0.2364579141139984,3.2407357692718506,50,9524.0,0.528812825679779,-2,9984.0
7780,0.23914791643619537,0.7277336716651917,68,9524.0,10.231534957885742,250,9984.0
7790,0.23912310600280762,0.9810329079627991,-68,9524.0,18.301166534423828,218,9984.0
7800,0.23890896141529083,1.5733085870742798,120,9524.0,20.191762924194336,374,9984.0
7810,0.23864290118217468,4.270916938781738,18,9524.0,21.05229377746582,277,9984.0
7820,0.23848174512386322,5.227267265319824,138,9524.0,17.704801559448242,378,9984.0
7830,0.23518842458724976,6.143111228942871,113,9524.0,12.407288551330566,78,9984.0
7840,0.23468372225761414,5.529398441314697,109,9524.0,4.610845565795898,110,9984.0
7850,0.23419979214668274,3.3427603244781494,7,9524.0,-4.445593357086182,-154,9984.0
7860,0.2338496595621109,1.0290327072143555,-14,9524.0,-13.070281982421875,-108,9984.0
7870,0.23718979954719543,-3.1629443168640137,-53,9524.0,-18.07217025756836,-403,9984.0
7880,0.23717281222343445,-5.469439506530762,-130,9524.0,-19.309959411621094,-239,9984.0
7890,0.23720195889472961,-8.485380172729492,-182,9524.0,-17.564876556396484,-344,9984.0
7900,0.23723173141479492,-12.75663948059082,-210,9524.0,-13.853507995605469,-114,9984.0
7910,0.23527662456035614,-17.09220314025879,-313,9524.0,-5.709758758544922,-134,9984.0
7920,0.23535948991775513,-22.874893188476562,-404,9524.0,4.659078121185303,203,9984.0
7930,0.23543250560760498,-24.385732650756836,-406,9524.0,16.914112091064453,277,9984.0
7940,0.2355586737394333,-21.323217391967773,-378,9524.0,25.389984130859375,503,9984.0
7950,0.2354905903339386,-18.3980712890625,-240,9524.0,24.34247398376465,331,9984.0
7960,0.2388961911201477,-12.971855163574219,-216,9524.0,17.147478103637695,189,9984.0
7970,0.23961666226387024,-3.8257381916046143,-34,9524.0,11.206097602844238,182,9984.0
7980,0.24017268419265747,4.242116451263428,134,9524.0,6.502284049987793,150,9984.0
7990,0.2406618595123291,19.107561111450195,407,9524.0,-4.219254016876221,-160,9984.0
8000,0.24125637114048004,29.852703094482422,500,9524.0,-14.55689811706543,-338,9984.0
8010,0.2418840378522873,30.66259002685547,513,9524.0,-18.671886444091797,-133,9984.0
8020,0.24255067110061646,25.76930046081543,410,9524.0,-13.982047080993652,-206,9984.0
8030,0.2433270514011383,18.227170944213867,211,9524.0,-9.148346900939941,-133,9984.0
8040,0.24440167844295502,15.46763801574707,263,9524.0,-5.376315116882324,25,9984.0
8050,0.24509480595588684,15.719362258911133,217,9524.0,-5.0103583335876465,-240,9984.0
8060,0.2457892894744873,18.947795867919922,327,9524.0,-14.225275039672852,-229,9984.0
8070,0.2464069128036499,24.62872314453125,479,9524.0,-25.14695930480957,-380,9984.0
8080,0.24701836705207825,27.81475830078125,352,9524.0,-29.177650451660156,-596,9984.0
8090,0.250855028629303,23.58245086669922,373,9524.0,-28.926156997680664,-374,9984.0
8100,0.2516948878765106,14.468911170959473,189,9524.0,-17.5994873046875,-284,9984.0
8110,0.2531138062477112,2.223982572555542,15,9524.0,-2.8446717262268066,136,9984.0
8120,0.253906786441803,-9.044784545898438,-208,9524.0,17.38506507873535,351,9984.0
8130,0.2528998851776123,-17.157508850097656,-345,9524.0,37.503944396972656,739,9984.0
8140,0.2536158561706543,-18.783876419067383,-221,9524.0,44.927276611328125,736,9984.0
8150,0.2545780539512634,-14.345099449157715,-252,9524.0,41.60532760620117,573,9984.0
8160,0.25562793016433716,-9.565881729125977,-70,9524.0,30.171695709228516,515,9984.0
8170,0.2539946436882019,-1.0069811344146729,84,9524.0,12.210260391235352,97,9984.0
8180,0.25489872694015503,6.885987758636475,102,9524.0,-6.2739410400390625,-277,9984.0
8190,0.2555539608001709,10.000534057617188,82,9524.0,-19.584806442260742,-323,9984.0
8200,0.25613781809806824,10.007169723510742,211,9524.0,-28.195865631103516,-530,9984.0
8210,0.25668463110923767,6.244246959686279,52,9524.0,-28.94576072692871,-520,9984.0
8220,0.25662410259246826,4.033548831939697,99,9524.0,-25.673879623413086,-323,9984.0
8230,0.2570337653160095,4.396104335784912,40,9524.0,-15.0147123336792,-291,9984.0
8240,0.2573266923427582,6.508648872375488,180,9524.0,-4.2943925857543945,102,9984.0
8250,0.25756582617759705,7.689789772033691,129,9524.0,4.919658660888672,57,9984.0
8260,0.2565455734729767,2.99824857711792,-4,9524.0,10.486888885498047,214,9984.0
8270,0.2566470801830292,-9.184564590454102,-255,9524.0,5.521411418914795,43,9984.0
8280,0.25652363896369934,-19.538795471191406,-327,9524.0,-1.6540378332138062,-93,9984.0
8290,0.2564562261104584,-27.281173706054688,-492,9524.0,-13.410117149353027,-340,9984.0
8300,0.25617364048957825,-29.716480255126953,-451,9524.0,-20.507713317871094,-283,9984.0
8310,0.25666046142578125,-26.359548568725586,-374,9524.0,-21.56281089782715,-418,9984.0
8320,0.25680074095726013,-14.909502029418945,-181,9524.0,-22.99635887145996,-303,9984.0
8330,0.25681889057159424,1.8375989198684692,169,9524.0,-19.06702423095703,-352,9984.0
8340,0.256978839635849,12.645135879516602,189,9524.0,-16.593891143798828,-191,9984.0
8350,0.2562083303928375,16.383481979370117,318,9524.0,-10.411175727844238,-193,9984.0
8360,0.25633156299591064,20.004789352416992,220,9524.0,-4.226993083953857,24,9984.0
8370,0.2565373182296753,16.274805068969727,351,9524.0,2.2538857460021973,54,9984.0
8380,0.2568342685699463,11.968977928161621,123,9524.0,6.576172351837158,107,9984.0
8390,0.25787538290023804,5.556575298309326,117,9524.0,8.539642333984375,203,9984.0
8400,0.25828075408935547,-4.713409423828125,-174,9524.0,12.389076232910156,148,9984.0
8410,0.25876131653785706,-18.342304229736328,-276,9524.0,13.676905632019043,220,9984.0
8420,0.2592671513557434,-23.90005111694336,-488,9524.0,4.98138952255249,-5,9984.0
8430,0.25978466868400574,-28.756023406982422,-459,9524.0,-2.418853521347046,76,9984.0
8440,0.2597961127758026,-30.212867736816406,-439,9524.0,-1.8221224546432495,-146,9984.0
8450,0.2604624629020691,-17.359384536743164,-260,9524.0,3.8949549198150635,209,9984.0
8460,0.2610316574573517,-4.239414691925049,71,9524.0,12.051848411560059,238,9984.0
8470,0.2616095542907715,9.422636985778809,129,9524.0,14.71061897277832,183,9984.0
8480,0.2597925662994385,20.265945434570312,415,9524.0,11.443878173828125,247,9984.0
8490,0.2602859139442444,28.250343322753906,478,9524.0,8.296416282653809,56,9984.0
8500,0.26081424951553345,29.43202018737793,400,9524.0,3.7127370834350586,26,9984.0
8510,0.26112544536590576,27.479145050048828,544,9524.0,0.30888116359710693,-36,9984.0
8520,0.26139822602272034,28.712234497070312,427,9524.0,0.511893630027771,-59,9984.0
8530,0.2621672749519348,24.41036605834961,467,9524.0,-1.6100130081176758,-51,9984.0
8540,0.2623175084590912,19.861928939819336,214,9524.0,-8.00485610961914,-86,9984.0
8550,0.26246434450149536,7.739886283874512,105,9524.0,-10.800930976867676,-243,9984.0
8560,0.2628572881221771,-5.4536943435668945,-216,9524.0,-10.8561372756958,-98,9984.0
8570,0.26441749930381775,-16.577524185180664,-292,9524.0,-13.730466842651367,-288,9984.0
8580,0.2652556300163269,-28.01968002319336,-518,9524.0,-17.1138858795166,-189,9984.0
8590,0.2657632529735565,-37.01738357543945,-609,9524.0,-16.615936279296875,-384,9984.0
8600,0.2663865387439728,-36.97447967529297,-584,9524.0,-15.930116653442383,-224,9984.0
8610,0.2680850327014923,-32.04714584350586,-537,9524.0,-14.027724266052246,-282,9984.0
8620,0.268844336271286,-22.17903709411621,-277,9524.0,-12.320030212402344,-112,9984.0
8630,0.26954033970832825,-12.357609748840332,-200,9524.0,0.5615313649177551,-14,9984.0
8640,0.2706531584262848,-5.117550373077393,-72,9524.0,10.031144142150879,326,9984.0
8650,0.271864652633667,-1.936214566230774,-57,9524.0,20.420412063598633,294,9984.0
8660,0.27101969718933105,-3.350332260131836,-41,9524.0,26.08926773071289,511,9984.0
8670,0.2721887528896332,-2.110625982284546,-80,9524.0,27.076335906982422,355,9984.0
8680,0.2729790508747101,-6.210188388824463,-142,9524.0,18.732715606689453,361,9984.0
8690,0.27411380410194397,-5.333826065063477,-57,9524.0,12.883476257324219,166,9984.0
8700,0.27269163727760315,4.232158184051514,34,9524.0,7.240936279296875,143,9984.0
8710,0.2734713554382324,14.602422714233398,339,9524.0,-0.5939772129058838,14,9984.0
8720,0.2741759419441223,23.091445922851562,341,9524.0,-8.9009428024292,-211,9984.0
8730,0.27476754784584045,22.48650360107422,387,9524.0,-16.718578338623047,-173,9984.0
8740,0.27549612522125244,16.077640533447266,190,9524.0,-17.144018173217773,-367,9984.0
8750,0.2742939889431,6.626612186431885,118,9524.0,-14.91297721862793,-178,9984.0
8760,0.2747993767261505,6.355758190155029,41,9524.0,-6.051105499267578,-36,9984.0
8770,0.2754373252391815,8.135350227355957,181,9524.0,3.159414529800415,53,9984.0
8780,0.276220440864563,12.967766761779785,157,9524.0,8.287412643432617,236,9984.0
8790,0.27571842074394226,14.972615242004395,343,9524.0,13.67417049407959,181,9984.0
8800,0.27688416838645935,17.2266845703125,170,9524.0,14.228565216064453,282,9984.0
8810,0.27745380997657776,10.587482452392578,171,9524.0,13.017502784729004,104,9984.0
8820,0.27828794717788696,3.204861640930176,38,9524.0,11.069842338562012,174,9984.0
8830,0.27858129143714905,-1.7291555404663086,0,9524.0,9.019030570983887,80,9984.0
8840,0.27916058897972107,-4.465993404388428,-91,9524.0,3.0032074451446533,121,9984.0
8850,0.2797078490257263,-5.8739094734191895,-89,9524.0,-0.4448637366294861,-87,9984.0
8860,0.2802611291408539,-6.7092437744140625,-153,9524.0,-5.030746936798096,-8,9984.0
8870,0.2808626592159271,-4.677173137664795,-17,9524.0,-5.862205505371094,-145,9984.0
8880,0.28279244899749756,-6.223094940185547,-188,9524.0,-5.859285354614258,-104,9984.0
8890,0.2835844159126282,-7.4473466873168945,-88,9524.0,-6.9109320640563965,-120,9984.0
8900,0.2844015955924988,-10.312265396118164,-272,9524.0,-9.50398063659668,-147,9984.0
8910,0.2852637767791748,-14.539107322692871,-155,9524.0,-9.827861785888672,-83,9984.0
8920,0.2856214940547943,-11.42194938659668,-209,9524.0,-3.9131669998168945,-33,9984.0
8930,0.28653356432914734,-3.0934834480285645,-25,9524.0,15.7715482711792,476,9984.0
8940,0.2875266671180725,1.0372939109802246,45,9524.0,34.12835693359375,587,9984.0
8950,0.2883022129535675,9.414071083068848,216,9524.0,43.73672103881836,808,9984.0
8960,0.2896307408809662,15.285490036010742,306,9524.0,44.49197006225586,608,9984.0
8970,0.2918376624584198,17.005523681640625,233,9524.0,31.156526565551758,336,9984.0
8980,0.2928958237171173,14.45615291595459,298,9524.0,14.573806762695312,141,9984.0
8990,0.2936812937259674,8.316397666931152,16,9524.0,1.8993492126464844,-227,9984.0
9000,0.29443293809890747,-3.89363431930542,-49,9524.0,-13.204626083374023,-175,9984.0
9010,0.29552075266838074,-8.633251190185547,-196,9524.0,-21.551740646362305,-460,9984.0
9020,0.2962493300437927,-5.458733558654785,-55,9524.0,-29.218711853027344,-448,9984.0
9030,0.29692500829696655,3.98295259475708,210,9524.0,-31.80577850341797,-535,9984.0
9040,0.2976050078868866,20.101726531982422,371,9524.0,-26.984745025634766,-384,9984.0
9050,0.2966344952583313,28.676240921020508,532,9524.0,-16.582401275634766,-281,9984.0
9060,0.29752403497695923,26.559232711791992,359,9524.0,-3.8329577445983887,71,9984.0
9070,0.29835519194602966,17.10712242126465,289,9524.0,6.687746047973633,51,9984.0
9080,0.29933446645736694,7.705562114715576,38,9524.0,11.784515380859375,324,9984.0
9090,0.300277441740036,-1.5874106884002686,-84,9524.0,14.765055656433105,152,9984.0
9100,0.29919567704200745,-13.699104309082031,-319,9524.0,9.767743110656738,241,9984.0
9110,0.3001260757446289,-26.277528762817383,-526,9524.0,4.370258808135986,-95,9984.0
9120,0.3011035621166229,-35.705623626708984,-621,9524.0,2.001450300216675,103,9984.0
9130,0.3020049035549164,-37.91596984863281,-533,9524.0,4.136643409729004,-31,9984.0
9140,0.301465779542923,-25.996295928955078,-373,9524.0,1.9568350315093994,80,9984.0
9150,0.302068293094635,-7.846147060394287,24,9524.0,3.076756715774536,42,9984.0
9160,0.30284178256988525,6.96272611618042,132,9524.0,2.5046427249908447,-66,9984.0
9170,0.3034115433692932,17.1178035736084,348,9524.0,-2.356745719909668,-5,9984.0
9180,0.3037623465061188,21.509674072265625,346,9524.0,-8.263236045837402,-293,9984.0
9190,0.3018726110458374,20.423797607421875,305,9524.0,-13.29584789276123,-114,9984.0
9200,0.30193179845809937,15.144790649414062,225,9524.0,-11.255928993225098,-229,9984.0
9210,0.30180802941322327,7.360422611236572,100,9524.0,-4.400794982910156,33,9984.0
9220,0.3015774190425873,0.46148523688316345,-43,9524.0,6.191695690155029,89,9984.0
9230,0.3015125095844269,-3.5687673091888428,-46,9524.0,15.098519325256348,387,9984.0
9240,0.3013361096382141,-6.223452091217041,-119,9524.0,22.547775268554688,215,9984.0
9250,0.30099615454673767,-10.157367706298828,-183,9524.0,18.83237075805664,382,9984.0
9260,0.3006347715854645,-11.857677459716797,-200,9524.0,7.453181266784668,-38,9984.0
9270,0.301061749458313,-16.005943298339844,-328,9524.0,-9.240301132202148,-237,9984.0
9280,0.3008763790130615,-16.090866088867188,-225,9524.0,-26.007036209106445,-404,9984.0
9290,0.30061066150665283,-10.05565357208252,-104,9524.0,-42.09566116333008,-819,9984.0
9300,0.30032044649124146,3.197328805923462,41,9524.0,-50.98833465576172,-782,9984.0
9310,0.300282746553421,14.304011344909668,383,9524.0,-50.093994140625,-824,9984.0
9320,0.3004690110683441,25.668935775756836,394,9524.0,-42.588653564453125,-649,9984.0
9330,0.30052608251571655,29.611127853393555,535,9524.0,-29.570255279541016,-403,9984.0
9340,0.3005216717720032,23.798484802246094,265,9524.0,-7.503926753997803,27,9984.0
9350,0.3008630573749542,11.27951717376709,228,9524.0,15.213149070739746,350,9984.0
9360,0.30299830436706543,2.7012994289398193,-39,9524.0,29.688682556152344,491,9984.0
9370,0.30347850918769836,-6.460083961486816,-80,9524.0,35.4134635925293,642,9984.0
9380,0.30408841371536255,-14.814899444580078,-294,9524.0,40.492645263671875,606,9984.0
9390,0.30530717968940735,-18.569141387939453,-347,9524.0,37.6380729675293,614,9984.0
9400,0.3060845136642456,-18.602258682250977,-231,9524.0,27.47408676147461,400,9984.0
9410,0.30576092004776,-18.45037269592285,-311,9524.0,13.182602882385254,68,9984.0
9420,0.3064572215080261,-12.824934959411621,-235,9524.0,-1.2569552659988403,-139,9984.0
9430,0.30731654167175293,-8.004990577697754,-8,9524.0,-18.26587677001953,-249,9984.0
9440,0.3082006871700287,-2.411497116088867,53,9524.0,-28.006799697875977,-468,9984.0
9450,0.3106023967266083,2.316309928894043,-3,9524.0,-24.4114990234375,-483,9984.0
9460,0.31127139925956726,5.000224590301514,131,9524.0,-19.510143280029297,-189,9984.0
9470,0.31185781955718994,11.175271034240723,253,9524.0,-11.454679489135742,-249,9984.0
9480,0.3124016225337982,10.775983810424805,109,9524.0,-6.628293514251709,-37,9984.0
9490,0.31143617630004883,8.285804748535156,194,9524.0,-2.9500579833984375,-25,9984.0
9500,0.31192001700401306,7.366501331329346,51,9524.0,1.210315465927124,-19,9984.0
9510,0.3124193251132965,7.022213459014893,144,9524.0,6.946022033691406,236,9984.0
9520,0.31295621395111084,5.143424987792969,33,9524.0,15.438614845275879,150,9984.0
9530,0.31353577971458435,5.371703147888184,103,9524.0,17.312562942504883,343,9984.0
9540,0.3132312297821045,2.9711735248565674,153,9524.0,14.981626510620117,203,9984.0
9550,0.31410136818885803,0.1803254783153534,-64,9524.0,5.6911139488220215,-20,9984.0
9560,0.3149479031562805,-4.212026596069336,-45,9524.0,-6.252245903015137,-55,9984.0
9570,0.3159213662147522,-8.427329063415527,-154,9524.0,-17.49367332458496,-520,9984.0
9580,0.31654584407806396,-11.910820960998535,-221,9524.0,-26.003978729248047,-346,9984.0
9590,0.3174702525138855,-13.493653297424316,-202,9524.0,-26.288545608520508,-426,9984.0
9600,0.31847482919692993,-12.323345184326172,-253,9524.0,-16.036754608154297,-57,9984.0
9610,0.3194742798805237,-11.379775047302246,-94,9524.0,-1.8158791065216064,-14,9984.0
9620,0.3205603361129761,-9.337729454040527,-127,9524.0,14.754867553710938,390,9984.0
9630,0.3211304843425751,2.24216628074646,59,9524.0,29.011510848999023,443,9984.0
9640,0.32215794920921326,4.975728511810303,73,9524.0,29.329130172729492,542,9984.0
9650,0.3232717514038086,5.777501583099365,143,9524.0,22.20322608947754,285,9984.0
9660,0.3241880238056183,3.282790184020996,-19,9524.0,14.977527618408203,198,9984.0
9670,0.3245941996574402,0.4241824448108673,100,9524.0,6.88804292678833,94,9984.0
9680,0.32539618015289307,5.092731475830078,37,9524.0,0.5725116729736328,-84,9984.0
9690,0.3260273039340973,7.9462890625,173,9524.0,1.8979434967041016,85,9984.0
9700,0.32667210698127747,6.714622974395752,14,9524.0,4.3335981369018555,9,9984.0
9710,0.3274725377559662,0.40837597846984863,8,9524.0,5.317131996154785,107,9984.0
9720,0.32785242795944214,-6.905711650848389,-109,9524.0,5.702593803405762,-32,9984.0
9730,0.3282195031642914,-9.1849946975708,-170,9524.0,-0.985587477684021,21,9984.0
9740,0.3285744786262512,-10.251725196838379,-79,9524.0,-8.647785186767578,-227,9984.0
9750,0.3289574384689331,-12.274587631225586,-280,9524.0,-16.574684143066406,-283,9984.0
9760,0.33012256026268005,-11.64346981048584,-94,9524.0,-20.163366317749023,-308,9984.0
9770,0.3304942548274994,-4.191418170928955,-101,9524.0,-19.910303115844727,-370,9984.0
9780,0.3308850824832916,0.26372092962265015,67,9524.0,-17.76875114440918,-196,9984.0
9790,0.33131536841392517,5.976079940795898,150,9524.0,-12.937984466552734,-282,9984.0
9800,0.3322621285915375,15.291114807128906,323,9524.0,-11.181079864501953,-142,9984.0
9810,0.3328510522842407,22.227214813232422,409,9524.0,-8.979580879211426,-215,9984.0
9820,0.33351272344589233,22.16671371459961,294,9524.0,-9.242931365966797,-74,9984.0
9830,0.3343096971511841,14.859399795532227,305,9524.0,0.5917173027992249,26,9984.0
9840,0.33511340618133545,6.862934112548828,21,9524.0,16.0410213470459,388,9984.0
9850,0.3338724374771118,-4.266626834869385,-59,9524.0,33.00319290161133,559,9984.0
9860,0.33457472920417786,-11.60649585723877,-243,9524.0,44.973663330078125,756,9984.0
9870,0.33521804213523865,-12.182351112365723,-154,9524.0,45.51679992675781,797,9984.0
9880,0.33577170968055725,-13.93205738067627,-305,9524.0,32.2359504699707,410,9984.0
9890,0.3367212414741516,-17.867372512817383,-317,9524.0,11.952807426452637,136,9984.0
9900,0.3374006450176239,-12.556640625,-111,9524.0,-7.114713191986084,-60,9984.0
9910,0.3379659950733185,-2.9752416610717773,42,9524.0,-19.62885093688965,-439,9984.0
9920,0.3387467563152313,7.866845607757568,150,9524.0,-31.354999542236328,-654,9984.0
9930,0.3387099504470825,16.78151512145996,314,9524.0,-39.26653289794922,-544,9984.0
9940,0.3392332196235657,15.435257911682129,354,9524.0,-32.74262237548828,-526,9984.0
9950,0.3396551311016083,12.670149803161621,68,9524.0,-22.19182014465332,-298,9984.0
9960,0.340069442987442,4.989052772521973,149,9524.0,-14.037850379943848,-165,9984.0
9970,0.3402727246284485,-1.1158149242401123,-117,9524.0,-3.2250118255615234,-95,9984.0
9980,0.339969664812088,-4.977908611297607,-63,9524.0,3.579813003540039,188,9984.0
9990,0.3400769829750061,-5.344653606414795,-47,9524.0,6.939062118530273,55,9984.0
10000,0.3402252793312073,-0.29239872097969055,-55,9524.0,1.9702364206314087,47,9984.0
10010,0.340456485748291,2.2880876064300537,123,9524.0,-9.750824928283691,-134,9984.0
10020,0.34006157517433167,10.219532012939453,138,9524.0,-14.359649658203125,-328,9984.0
10030,0.34045058488845825,8.779165267944336,126,9524.0,-17.578771591186523,-168,9984.0
10040,0.3407789170742035,1.9812532663345337,-58,9524.0,-13.985867500305176,-268,9984.0
10050,0.34119901061058044,-4.484287738800049,-109,9524.0,-9.87264633178711,-99,9984.0
10060,0.34180572628974915,-9.114073753356934,-119,9524.0,-5.931033134460449,-81,9984.0
10070,0.34212368726730347,-13.032367706298828,-356,9524.0,-1.0189595222473145,16,9984.0
10080,0.34277787804603577,-16.486675262451172,-225,9524.0,-0.04848590865731239,79,9984.0
10090,0.34347468614578247,-19.601287841796875,-391,9524.0,5.64743709564209,-30,9984.0
10100,0.34431153535842896,-22.01726531982422,-413,9524.0,9.514883041381836,296,9984.0
10110,0.3436608612537384,-16.952598571777344,-181,9524.0,15.58103084564209,291,9984.0
10120,0.3443842828273773,-7.29404354095459,-111,9524.0,18.16058921813965,247,9984.0
10130,0.34510377049446106,2.2720603942871094,-49,9524.0,16.70524024963379,265,9984.0
10140,0.34575071930885315,5.435667037963867,168,9524.0,14.0697603225708,301,9984.0
10150,0.34625014662742615,5.388706684112549,168,9524.0,10.591553688049316,113,9984.0
10160,0.34693577885627747,10.687808990478516,182,9524.0,3.345207452774048,-43,9984.0
10170,0.34767383337020874,20.885236740112305,362,9524.0,-7.5214080810546875,-104,9984.0
10180,0.34822550415992737,28.888526916503906,510,9524.0,-12.482129096984863,-175,9984.0
10190,0.34883981943130493,25.299039840698242,307,9524.0,-12.255061149597168,-273,9984.0
10200,0.3489859402179718,16.561607360839844,235,9524.0,-7.867526054382324,-15,9984.0
10210,0.3494085371494293,6.100945949554443,-19,9524.0,-4.375025749206543,-155,9984.0
10220,0.34987586736679077,-3.722810983657837,-132,9524.0,-0.8187095522880554,76,9984.0
10230,0.3504105806350708,-11.217718124389648,-124,9524.0,10.186878204345703,180,9984.0
10240,0.34979337453842163,-14.616584777832031,-225,9524.0,18.08028221130371,345,9984.0
10250,0.35033902525901794,-12.697346687316895,-141,9524.0,23.830007553100586,505,9984.0
10260,0.3508785665035248,-7.812242031097412,-132,9524.0,20.756168365478516,181,9984.0
10270,0.3515549898147583,2.0967512130737305,26,9524.0,10.55225944519043,65,9984.0
10280,0.3522857427597046,4.166936874389648,139,9524.0,-3.6971068382263184,-187,9984.0
10290,0.35438522696495056,4.993029594421387,21,9524.0,-20.8050479888916,-434,9984.0
10300,0.3553470969200134,1.8364131450653076,36,9524.0,-32.67430114746094,-455,9984.0
10310,0.3563321530818939,-9.394222259521484,-240,9524.0,-34.03293228149414,-589,9984.0
10320,0.3573743999004364,-23.571229934692383,-484,9524.0,-23.49041748046875,-273,9984.0
10330,0.35659855604171753,-35.23189926147461,-546,9524.0,-11.335394859313965,-135,9984.0
10340,0.35766831040382385,-34.238807678222656,-584,9524.0,1.8935279846191406,98,9984.0
10350,0.3591279089450836,-23.94707679748535,-291,9524.0,13.11644172668457,382,9984.0
10360,0.36002522706985474,-2.400069236755371,94,9524.0,20.573930740356445,241,9984.0
10370,0.3602479100227356,24.293655395507812,407,9524.0,24.41187858581543,434,9984.0
10380,0.361344575881958,46.68312454223633,929,9524.0,24.08991050720215,467,9984.0
10390,0.36223578453063965,57.25041198730469,938,9524.0,22.33953285217285,270,9984.0
10400,0.363085001707077,51.870849609375,735,9524.0,18.589279174804688,340,9984.0
10410,0.36377018690109253,33.931068420410156,521,9524.0,19.458009719848633,396,9984.0
10420,0.3644941449165344,14.28256893157959,40,9524.0,15.87448501586914,120,9984.0
10430,0.36519551277160645,-2.336845636367798,-50,9524.0,5.163344383239746,158,9984.0
10440,0.3657194674015045,-11.295340538024902,-222,9524.0,-5.191833972930908,-267,9984.0
10450,0.3662552237510681,-18.668212890625,-374,9524.0,-23.20551872253418,-555,9984.0
10460,0.3676644563674927,-20.03690528869629,-266,9524.0,-39.88959884643555,-598,9984.0
10470,0.3682316541671753,-19.14723014831543,-350,9524.0,-43.37837219238281,-833,9984.0
10480,0.36870473623275757,-19.2181339263916,-308,9524.0,-31.163135528564453,-302,9984.0
10490,0.3691827654838562,-20.621639251708984,-299,9524.0,-5.680147171020508,-92,9984.0
10500,0.36984434723854065,-14.851419448852539,-232,9524.0,19.43165397644043,502,9984.0
10510,0.3686891794204712,-0.7528215050697327,156,9524.0,39.26517868041992,675,9984.0
10520,0.3694398105144501,19.93744659423828,384,9524.0,41.16106414794922,534,9984.0
10530,0.3702358603477478,36.55354309082031,622,9524.0,29.090591430664062,432,9984.0
10540,0.37100428342819214,43.29347229003906,760,9524.0,9.527298927307129,52,9984.0
10550,0.3711792230606079,38.11284255981445,476,9524.0,-7.7199225425720215,-284,9984.0
10560,0.3720811903476715,17.909996032714844,237,9524.0,-15.660728454589844,-213,9984.0
10570,0.3731985092163086,-6.025246620178223,-204,9524.0,-17.178049087524414,-345,9984.0
10580,0.37420129776000977,-26.34841537475586,-501,9524.0,-14.688279151916504,-187,9984.0
10590,0.37572965025901794,-42.322853088378906,-675,9524.0,-9.231842041015625,-131,9984.0
10600,0.3765186667442322,-45.79176330566406,-820,9524.0,-4.997189044952393,-68,9984.0
10610,0.37712374329566956,-38.03850555419922,-509,9524.0,2.4668538570404053,202,9984.0
10620,0.3777720332145691,-25.2249755859375,-341,9524.0,11.800056457519531,157,9984.0
10630,0.37847504019737244,-1.594743251800537,63,9524.0,9.379566192626953,104,9984.0
10640,0.37962955236434937,20.032094955444336,437,9524.0,3.4730453491210938,89,9984.0
10650,0.3800373077392578,32.365142822265625,621,9524.0,2.2378435134887695,3,9984.0
10660,0.38048696517944336,34.815574645996094,517,9524.0,0.2591005563735962,-109,9984.0
10670,0.3807777464389801,33.62724304199219,587,9524.0,-8.710101127624512,-105,9984.0
10680,0.3805704116821289,32.5265007019043,547,9524.0,-18.251853942871094,-349,9984.0
10690,0.38083264231681824,26.577259063720703,350,9524.0,-21.594236373901367,-388,9984.0
10700,0.3810026943683624,18.8872127532959,334,9524.0,-23.113399505615234,-387,9984.0
10710,0.3810506761074066,9.438220024108887,9,9524.0,-23.999380111694336,-291,9984.0
10720,0.3811179995536804,-2.523184061050415,-22,9524.0,-13.965096473693848,-224,9984.0
10730,0.37937527894973755,-14.571832656860352,-371,9524.0,-2.3527393341064453,159,9984.0
10740,0.3792981803417206,-33.18819808959961,-555,9524.0,9.854686737060547,181,9984.0
10750,0.3791845738887787,-39.812984466552734,-740,9524.0,17.172908782958984,317,9984.0
10760,0.37920594215393066,-32.81647872924805,-448,9524.0,17.147724151611328,298,9984.0
10770,0.37745657563209534,-24.93983268737793,-427,9524.0,9.81162166595459,-19,9984.0
10780,0.37739041447639465,-18.498682022094727,-215,9524.0,-5.557590961456299,-83,9984.0
10790,0.3774678409099579,-7.26491117477417,-24,9524.0,-11.89254379272461,-190,9984.0
10800,0.37756985425949097,1.3685184717178345,16,9524.0,-15.5131196975708,-376,9984.0
10810,0.3782542049884796,-1.4491348266601562,-100,9524.0,-13.290496826171875,-137,9984.0
10820,0.37854307889938354,-7.489034175872803,-68,9524.0,-5.503539085388184,10,9984.0
10830,0.37887126207351685,-7.3619303703308105,-134,9524.0,7.829013824462891,116,9984.0
10840,0.37919101119041443,-0.782473623752594,1,9524.0,18.547327041625977,375,9984.0
10850,0.3796703815460205,9.920190811157227,268,9524.0,22.41240882873535,512,9984.0
10860,0.3805067837238312,18.348350524902344,364,9524.0,22.912954330444336,264,9984.0
10870,0.38075774908065796,23.56085968017578,353,9524.0,14.449036598205566,74,9984.0
10880,0.38103964924812317,22.214433670043945,388,9524.0,2.4230144023895264,30,9984.0
10890,0.3813864588737488,14.227768898010254,186,9524.0,-8.982065200805664,-283,9984.0
10900,0.38297760486602783,3.7439510822296143,-56,9524.0,-16.785993576049805,-265,9984.0
10910,0.383160799741745,-3.8943986892700195,-71,9524.0,-20.23530387878418,-283,9984.0
10920,0.38332122564315796,-2.4247026443481445,10,9524.0,-21.908897399902344,-443,9984.0
10930,0.38349515199661255,7.776113510131836,235,9524.0,-22.506900787353516,-239,9984.0
10940,0.38362938165664673,25.84025764465332,495,9524.0,-20.62662696838379,-377,9984.0
10950,0.3839119076728821,38.37981414794922,620,9524.0,-7.4600324630737305,-14,9984.0
10960,0.3840607702732086,39.383384704589844,673,9524.0,9.493521690368652,222,9984.0
10970,0.38440871238708496,27.995956420898438,309,9524.0,19.446044921875,421,9984.0
10980,0.3847566246986389,0.48662030696868896,-119,9524.0,19.541837692260742,231,9984.0
10990,0.3866751492023468,-33.351810455322266,-716,9524.0,13.53565788269043,266,9984.0
11000,0.38722437620162964,-60.956329345703125,-1044,9524.0,7.6461052894592285,23,9984.0
11010,0.38776251673698425,-71.4870376586914,-1301,9524.0,-0.32614824175834656,12,9984.0
11020,0.3883684575557709,-70.8808822631836,-1075,9524.0,-10.278677940368652,-149,9984.0
11030,0.3881961703300476,-59.583656311035156,-897,9524.0,-15.854398727416992,-360,9984.0
11040,0.38877496123313904,-42.28042221069336,-682,9524.0,-21.39566421508789,-319,9984.0
11050,0.389758825302124,-26.65386962890625,-302,9524.0,-24.947481155395508,-292,9984.0
11060,0.3903709948062897,-8.680880546569824,-80,9524.0,-19.434123992919922,-307,9984.0
11070,0.39131397008895874,7.27902889251709,112,9524.0,-5.030903339385986,-31,9984.0
11080,0.39385929703712463,21.444576263427734,471,9524.0,12.864144325256348,376,9984.0
11090,0.3946676254272461,37.485172271728516,629,9524.0,31.2071590423584,446,9984.0
11100,0.3958049714565277,50.63750076293945,820,9524.0,39.46089553833008,758,9984.0
11110,0.39654168486595154,49.6009407043457,859,9524.0,42.4879035949707,679,9984.0
11120,0.3976873755455017,41.58378219604492,528,9524.0,42.2095832824707,651,9984.0
11130,0.398672491312027,23.069652557373047,367,9524.0,34.134735107421875,557,9984.0
11140,0.39928755164146423,7.9202423095703125,45,9524.0,15.438218116760254,79,9984.0
11150,0.39974239468574524,1.9857056140899658,12,9524.0,-8.534024238586426,-138,9984.0
11160,0.4002581238746643,-0.615917980670929,44,9524.0,-25.67673683166504,-522,9984.0
11170,0.4017358422279358,8.875472068786621,123,9524.0,-29.16887092590332,-426,9984.0
11180,0.40207934379577637,19.70704460144043,387,9524.0,-26.138988494873047,-377,9984.0
11190,0.40239056944847107,22.89691925048828,232,9524.0,-15.151973724365234,-218,9984.0
11200,0.40286144614219666,9.66398811340332,173,9524.0,-11.092411041259766,-135,9984.0
11210,0.4044733941555023,-4.7570085525512695,-215,9524.0,-6.893399715423584,-47,9984.0
11220,0.4049898386001587,-19.00257682800293,-347,9524.0,-4.599556922912598,-118,9984.0
11230,0.4055405259132385,-28.160493850708008,-492,9524.0,-1.6806209087371826,86,9984.0
11240,0.4060492515563965,-30.4912052154541,-562,9524.0,-0.26082977652549744,-60,9984.0
11250,0.4055388569831848,-32.738128662109375,-516,9524.0,-0.9454575181007385,50,9984.0
11260,0.40596359968185425,-32.362327575683594,-453,9524.0,-1.7379133701324463,-105,9984.0
11270,0.40637147426605225,-29.11527442932129,-493,9524.0,-1.6951534748077393,-35,9984.0
11280,0.4068858325481415,-24.315441131591797,-305,9524.0,-0.08002277463674545,12,9984.0
11290,0.40736067295074463,-22.145326614379883,-426,9524.0,-0.5493766069412231,-119,9984.0
11300,0.4072378873825073,-22.6149959564209,-299,9524.0,-0.7566556930541992,112,9984.0
11310,0.40769150853157043,-20.98017120361328,-279,9524.0,0.27559787034988403,-41,9984.0
11320,0.40806591510772705,-10.142260551452637,-130,9524.0,-0.08371037989854813,-24,9984.0
11330,0.4083743393421173,6.785957336425781,224,9524.0,3.945261240005493,195,9984.0
11340,0.4085087776184082,20.716419219970703,401,9524.0,12.82690143585205,184,9984.0
11350,0.4088709354400635,32.834312438964844,482,9524.0,20.96100616455078,379,9984.0
11360,0.40906527638435364,34.8587760925293,603,9524.0,24.1947078704834,527,9984.0
11370,0.4091280698776245,25.825891494750977,335,9524.0,25.37150001525879,290,9984.0
11380,0.4103066623210907,13.439905166625977,113,9524.0,13.35499095916748,178,9984.0
11390,0.4104824364185333,2.819988965988159,53,9524.0,-3.407317638397217,-71,9984.0
11400,0.4103858172893524,0.7433382272720337,11,9524.0,-19.60285758972168,-516,9984.0
11410,0.4102603793144226,8.431440353393555,222,9524.0,-31.232439041137695,-421,9984.0
11420,0.41006433963775635,19.796831130981445,465,9524.0,-31.821718215942383,-495,9984.0
11430,0.4106863737106323,25.961259841918945,325,9524.0,-22.140907287597656,-245,9984.0
11440,0.41055968403816223,21.409982681274414,391,9524.0,-9.308233261108398,-115,9984.0
11450,0.41038042306900024,17.16037940979004,237,9524.0,-2.500779867172241,-30,9984.0
11460,0.4103018343448639,10.823315620422363,154,9524.0,3.790728807449341,140,9984.0
11470,0.410070538520813,-2.8410863876342773,-161,9524.0,12.112054824829102,214,9984.0
11480,0.4099534749984741,-17.5794677734375,-314,9524.0,14.970057487487793,250,9984.0
11490,0.40989649295806885,-32.37489700317383,-620,9524.0,18.120563507080078,339,9984.0
11500,0.40991637110710144,-39.26716995239258,-642,9524.0,20.010093688964844,259,9984.0
11510,0.4100096821784973,-39.77497863769531,-607,9524.0,10.877631187438965,19,9984.0
11520,0.4100891649723053,-27.528804779052734,-393,9524.0,-0.6400529146194458,-7,9984.0
11530,0.4103155732154846,-15.235374450683594,-93,9524.0,-9.290999412536621,-211,9984.0
11540,0.4105208218097687,-8.933650970458984,-200,9524.0,-10.924580574035645,-228,9984.0
11550,0.4108048677444458,-8.76272964477539,-173,9524.0,-4.362713813781738,13,9984.0
11560,0.4098782539367676,-8.693513870239258,-87,9524.0,1.2140319347381592,96,9984.0
11570,0.410007506608963,-5.320769309997559,-120,9524.0,2.1479833126068115,101,9984.0
11580,0.41022247076034546,3.951683282852173,179,9524.0,4.6515374183654785,141,9984.0
11590,0.41048192977905273,16.013004302978516,238,9524.0,7.632126808166504,40,9984.0
11600,0.4106731712818146,23.78464126586914,317,9524.0,5.200794219970703,68,9984.0
11610,0.4105265736579895,26.61760902404785,514,9524.0,-1.5379767417907715,26,9984.0
11620,0.4105947017669678,24.5900821685791,317,9524.0,-3.1313745975494385,-106,9984.0
11630,0.4105648696422577,19.656171798706055,263,9524.0,-1.1415034532546997,55,9984.0
11640,0.41040563583374023,6.560132026672363,105,9524.0,7.166024684906006,142,9984.0
11650,0.4108320474624634,-1.7579268217086792,-70,9524.0,12.866915702819824,76,9984.0
11660,0.4105601906776428,-0.974510669708252,83,9524.0,6.593314170837402,242,9984.0
11670,0.41026872396469116,15.480573654174805,392,9524.0,-2.390357255935669,-140,9984.0
11680,0.4099990129470825,41.57271194458008,716,9524.0,-8.374641418457031,-117,9984.0
11690,0.4110143780708313,59.30620193481445,1039,9524.0,-7.572876453399658,-58,9984.0
11700,0.4106476306915283,60.46278762817383,895,9524.0,-5.555373191833496,-119,9984.0
11710,0.41007158160209656,48.00689697265625,710,9524.0,0.6012707948684692,131,9984.0
11720,0.4108533561229706,20.456130981445312,42,9524.0,7.869236469268799,84,9984.0
11730,0.4107721447944641,-14.642843246459961,-275,9524.0,10.733190536499023,207,9984.0
11740,0.409882515668869,-37.31056594848633,-740,9524.0,7.472760200500488,70,9984.0
11750,0.40986594557762146,-54.328128814697266,-909,9524.0,5.436548233032227,164,9984.0
11760,0.4098069667816162,-66.44157409667969,-1189,9524.0,2.9350013732910156,-77,9984.0
11770,0.40984129905700684,-72.4316177368164,-1172,9524.0,3.2325260639190674,149,9984.0
11780,0.4099384844303131,-70.76025390625,-1058,9524.0,4.838372707366943,28,9984.0
11790,0.4099627435207367,-62.594947814941406,-1008,9524.0,2.3823580741882324,-38,9984.0
11800,0.41037696599960327,-45.050193786621094,-699,9524.0,-0.2584918439388275,-7,9984.0
11810,0.4106813669204712,-28.538301467895508,-344,9524.0,-0.9831734895706177,87,9984.0
11820,0.4109722375869751,-11.411834716796875,-81,9524.0,-3.9436047077178955,-144,9984.0
11830,0.4099172055721283,4.790123462677002,108,9524.0,-14.08116340637207,-263,9984.0
11840,0.410374253988266,17.43802833557129,323,9524.0,-19.452617645263672,-429,9984.0
11850,0.4109950065612793,30.395126342773438,542,9524.0,-19.287397384643555,-166,9984.0
11860,0.4116199314594269,36.63138198852539,686,9524.0,-4.935166358947754,9,9984.0
11870,0.4105146527290344,38.33584976196289,528,9524.0,13.302248001098633,179,9984.0
11880,0.4107455611228943,31.009681701660156,500,9524.0,20.63271141052246,356,9984.0
11890,0.410958468914032,30.94154167175293,622,9524.0,18.42137336730957,336,9984.0
11900,0.41103595495224,34.6561279296875,517,9524.0,17.740901947021484,180,9984.0
11910,0.4098288416862488,38.42498016357422,714,9524.0,12.60819149017334,324,9984.0
11920,0.4099385738372803,47.190616607666016,801,9524.0,7.598680019378662,68,9984.0
11930,0.4099700152873993,55.40937423706055,837,9524.0,0.054849863052368164,-32,9984.0
11940,0.4099765121936798,53.85508346557617,925,9524.0,-11.990397453308105,-224,9984.0
11950,0.41007283329963684,45.199954986572266,585,9524.0,-14.384284019470215,-146,9984.0
11960,0.4109841287136078,27.641035079956055,350,9524.0,-16.178607940673828,-375,9984.0
11970,0.4111022353172302,4.234792709350586,-38,9524.0,-17.528501510620117,-213,9984.0
11980,0.41101017594337463,-16.853084564208984,-360,9524.0,-21.443857192993164,-477,9984.0
11990,0.4110126495361328,-27.057252883911133,-442,9524.0,-24.910051345825195,-377,9984.0
12000,0.41112759709358215,-32.01190948486328,-621,9524.0,-20.774911880493164,-320,9984.0
12010,0.4110340476036072,-39.96330642700195,-609,9524.0,-10.012622833251953,-106,9984.0
12020,0.4108160436153412,-40.23851013183594,-785,9524.0,-3.3860490322113037,15,9984.0
12030,0.4105873107910156,-45.39735794067383,-671,9524.0,7.402287483215332,184,9984.0
12040,0.41068100929260254,-47.14808654785156,-832,9524.0,24.02553939819336,411,9984.0
12050,0.41065824031829834,-39.57756805419922,-548,9524.0,26.392141342163086,497,9984.0
12060,0.41067054867744446,-27.065176010131836,-408,9524.0,21.37681007385254,206,9984.0
12070,0.4107070565223694,-9.929277420043945,-82,9524.0,10.159164428710938,110,9984.0
12080,0.41073745489120483,8.688305854797363,259,9524.0,-5.240788459777832,-131,9984.0
12090,0.41013050079345703,15.843649864196777,248,9524.0,-14.611730575561523,-333,9984.0
12100,0.4101918637752533,17.450313568115234,233,9524.0,-14.958467483520508,-173,9984.0
12110,0.41026270389556885,9.987228393554688,163,9524.0,-13.366560935974121,-239,9984.0
12120,0.4103238880634308,-0.3234102725982666,-165,9524.0,-11.043898582458496,-63,9984.0
12130,0.4110125005245209,-16.890674591064453,-272,9524.0,0.45909595489501953,14,9984.0
12140,0.4110964238643646,-26.042640686035156,-567,9524.0,9.2280855178833,208,9984.0
12150,0.4111565947532654,-27.501018524169922,-321,9524.0,9.1543550491333,201,9984.0
12160,0.41128191351890564,-20.123483657836914,-314,9524.0,8.980320930480957,38,9984.0
12170,0.41124728322029114,-14.304411888122559,-147,9524.0,6.6190185546875,163,9984.0
12180,0.4112522006034851,-7.5151047706604,-41,9524.0,-0.17309421300888062,-91,9984.0
12190,0.41121265292167664,0.5709816217422485,25,9524.0,0.07485729455947876,84,9984.0
12200,0.4111243188381195,12.765023231506348,348,9524.0,4.238828182220459,88,9984.0
12210,0.4111476242542267,22.900806427001953,379,9524.0,-3.2261009216308594,13,9984.0
12220,0.4106309711933136,28.179765701293945,607,9524.0,-7.220911979675293,-182,9984.0
12230,0.41054484248161316,34.7973518371582,488,9524.0,-8.398923873901367,-99,9984.0
12240,0.41043785214424133,36.66911697387695,664,9524.0,-1.1466774940490723,20,9984.0
12250,0.4103896915912628,26.922151565551758,292,9524.0,7.450554370880127,213,9984.0
12260,0.41069304943084717,12.39888858795166,208,9524.0,14.894880294799805,210,9984.0
12270,0.4111361503601074,-0.2032739818096161,-85,9524.0,25.825002670288086,561,9984.0
12280,0.41118764877319336,-17.234193801879883,-360,9524.0,31.870281219482422,407,9984.0
12290,0.41110673546791077,-32.19898223876953,-580,9524.0,32.135414123535156,596,9984.0
12300,0.41097724437713623,-42.03923034667969,-680,9524.0,26.170146942138672,278,9984.0
12310,0.4107469320297241,-41.462684631347656,-696,9524.0,14.904520988464355,228,9984.0
12320,0.4106799364089966,-34.78569412231445,-486,9524.0,4.7151288986206055,133,9984.0
12330,0.4103337228298187,-28.944683074951172,-433,9524.0,3.851318359375,-52,9984.0
12340,0.4103665351867676,-21.266983032226562,-390,9524.0,-1.5789340734481812,-8,9984.0
12350,0.412522554397583,-12.622188568115234,-103,9524.0,-8.068497657775879,-95,9984.0
12360,0.4125351011753082,-2.7834830284118652,-54,9524.0,-12.084857940673828,-305,9984.0
12370,0.4124178886413574,3.607982635498047,41,9524.0,-13.8385648727417,-182,9984.0
12380,0.41219156980514526,8.105429649353027,251,9524.0,-9.73944091796875,-80,9984.0
12390,0.4120713770389557,22.740177154541016,401,9524.0,1.060083270072937,3,9984.0
12400,0.41324731707572937,39.4680061340332,687,9524.0,8.96690845489502,234,9984.0
12410,0.4132048785686493,49.34505844116211,853,9524.0,12.933023452758789,204,9984.0
12420,0.41302335262298584,47.749603271484375,724,9524.0,13.382736206054688,226,9984.0
12430,0.41269633173942566,35.90108871459961,573,9524.0,10.898189544677734,252,9984.0
12440,0.41200295090675354,25.310447692871094,292,9524.0,10.95438003540039,78,9984.0
12450,0.4116668403148651,17.678783416748047,275,9524.0,15.045186996459961,417,9984.0
12460,0.4112589359283447,19.737802505493164,365,9524.0,15.14572811126709,75,9984.0
12470,0.41111403703689575,26.448598861694336,461,9524.0,9.583489418029785,249,9984.0
12480,0.412133127450943,32.155818939208984,605,9524.0,7.941026210784912,40,9984.0
12490,0.41194409132003784,32.646934509277344,521,9524.0,6.652215957641602,113,9984.0
12500,0.4116048216819763,28.520811080932617,447,9524.0,2.982168436050415,-6,9984.0
12510,0.41155552864074707,14.062260627746582,194,9524.0,-3.701601505279541,-33,9984.0
12520,0.41112658381462097,-0.9505075216293335,-38,9524.0,-3.9383761882781982,-107,9984.0
12530,0.4123277962207794,-19.332096099853516,-397,9524.0,-8.125414848327637,-130,9984.0
12540,0.41225579380989075,-34.55365753173828,-577,9524.0,-9.26894474029541,-236,9984.0
12550,0.41204655170440674,-45.455020904541016,-815,9524.0,-11.16966724395752,-115,9984.0
12560,0.41197577118873596,-52.16499710083008,-822,9524.0,-12.535606384277344,-291,9984.0
12570,0.412160724401474,-49.624778747558594,-837,9524.0,-12.76494026184082,-148,9984.0
12580,0.41213127970695496,-46.645347595214844,-705,9524.0,-11.863168716430664,-141,9984.0
12590,0.4118763506412506,-40.7520866394043,-639,9524.0,-9.822179794311523,-219,9984.0
12600,0.4117743670940399,-30.574121475219727,-529,9524.0,-3.532261610031128,6,9984.0
12610,0.41160765290260315,-19.091262817382812,-217,9524.0,2.2851762771606445,166,9984.0
12620,0.4125452935695648,-6.433272838592529,-53,9524.0,5.475610256195068,-12,9984.0
12630,0.4126913547515869,7.803192615509033,127,9524.0,-2.517127275466919,-129,9984.0
12640,0.412740021944046,17.554794311523438,396,9524.0,-10.687516212463379,-59,9984.0
12650,0.4127023220062256,26.05828857421875,517,9524.0,-12.904194831848145,-270,9984.0
12660,0.41177669167518616,28.379161834716797,378,9524.0,-8.61867618560791,-121,9984.0
12670,0.41157159209251404,24.45254898071289,416,9524.0,6.98940372467041,248,9984.0
12680,0.41162344813346863,24.26814842224121,457,9524.0,16.94170379638672,241,9984.0
12690,0.41137605905532837,32.731353759765625,537,9524.0,16.954246520996094,216,9984.0
12700,0.4098501205444336,41.808101654052734,746,9524.0,7.314661979675293,218,9984.0
12710,0.40950533747673035,43.91481018066406,667,9524.0,-2.3432395458221436,-213,9984.0
12720,0.40913745760917664,37.57958221435547,510,9524.0,-14.319478034973145,-259,9984.0
12730,0.4088118374347687,25.066558837890625,312,9524.0,-21.612150192260742,-377,9984.0
12740,0.40868043899536133,0.7635424733161926,-205,9524.0,-16.765703201293945,-160,9984.0
12750,0.4085802435874939,-24.36138916015625,-521,9524.0,-3.753131151199341,-35,9984.0
12760,0.40830710530281067,-44.69231033325195,-805,9524.0,7.747888088226318,163,9984.0
12770,0.40810832381248474,-49.013919830322266,-736,9524.0,4.81586217880249,15,9984.0
12780,0.4078179895877838,-44.456539154052734,-702,9524.0,0.6972723007202148,-12,9984.0
12790,0.4067192077636719,-26.98326301574707,-274,9524.0,-0.21270662546157837,98,9984.0
12800,0.4064798653125763,-4.3573150634765625,15,9524.0,-0.08359523862600327,-59,9984.0
12810,0.4063621759414673,6.491453170776367,68,9524.0,-3.31615948677063,-63,9984.0
12820,0.40627211332321167,8.743651390075684,184,9524.0,-6.53669548034668,-45,9984.0
12830,0.40620970726013184,9.687910079956055,117,9524.0,-5.408952713012695,-214,9984.0
12840,0.4069090485572815,8.80770206451416,120,9524.0,-4.075588226318359,-14,9984.0
12850,0.4070093631744385,13.702631950378418,321,9524.0,-3.311630964279175,-83,9984.0
12860,0.4071632921695709,14.976170539855957,152,9524.0,-4.219033718109131,8,9984.0
12870,0.407272607088089,8.034605979919434,148,9524.0,-2.00559663772583,-37,9984.0
12880,0.40759721398353577,-3.8244731426239014,-266,9524.0,1.864762544631958,100,9984.0
12890,0.40775299072265625,-20.296676635742188,-308,9524.0,10.585505485534668,265,9984.0
12900,0.407887727022171,-30.50600814819336,-522,9524.0,22.108142852783203,256,9984.0
12910,0.40793946385383606,-34.506736755371094,-592,9524.0,23.84160041809082,409,9984.0
12920,0.40861213207244873,-29.79971694946289,-420,9524.0,15.195775985717773,283,9984.0
12930,0.408660888671875,-21.843969345092773,-284,9524.0,1.8152024745941162,-184,9984.0
12940,0.40865588188171387,-2.818145513534546,21,9524.0,-18.748401641845703,-442,9984.0
12950,0.4086029827594757,23.385360717773438,462,9524.0,-26.104846954345703,-360,9984.0
12960,0.40849483013153076,38.49987030029297,713,9524.0,-21.943161010742188,-294,9984.0
12970,0.4077819883823395,41.12431335449219,631,9524.0,-15.810128211975098,-392,9984.0
12980,0.40760233998298645,33.99777603149414,506,9524.0,-11.515121459960938,-14,9984.0
12990,0.4072592854499817,18.346908569335938,246,9524.0,-4.629398345947266,-182,9984.0
13000,0.40723034739494324,0.046748969703912735,-70,9524.0,2.0725996494293213,151,9984.0
13010,0.4070809483528137,-19.079193115234375,-391,9524.0,13.23895263671875,144,9984.0
13020,0.4069465398788452,-34.32372283935547,-548,9524.0,18.164541244506836,344,9984.0
13030,0.4069305956363678,-36.46883773803711,-546,9524.0,13.011868476867676,118,9984.0
13040,0.40694886445999146,-31.353120803833008,-555,9524.0,3.281134843826294,-30,9984.0
13050,0.40716877579689026,-22.271230697631836,-298,9524.0,-3.6538143157958984,8,9984.0
13060,0.40707167983055115,-12.713680267333984,-105,9524.0,-8.271483421325684,-180,9984.0
13070,0.4072543978691101,-5.21515417098999,-113,9524.0,-11.011298179626465,-243,9984.0
13080,0.4074234068393707,3.174520969390869,189,9524.0,-13.215309143066406,-129,9984.0
13090,0.40755119919776917,8.133383750915527,172,9524.0,-15.069924354553223,-269,9984.0
13100,0.40702876448631287,4.559054374694824,-4,9524.0,-16.03266143798828,-294,9984.0
13110,0.4071422219276428,-0.7200663685798645,29,9524.0,-17.43733787536621,-203,9984.0
13120,0.40723124146461487,-1.1630070209503174,-70,9524.0,-11.313807487487793,-148,9984.0
13130,0.4072655141353607,-6.795177936553955,-154,9524.0,4.377486228942871,214,9984.0
13140,0.4075128138065338,-11.424871444702148,-115,9524.0,16.861141204833984,283,9984.0
13150,0.40741056203842163,-11.41871166229248,-237,9524.0,22.549083709716797,250,9984.0
13160,0.40729326009750366,-11.788809776306152,-187,9524.0,21.749252319335938,410,9984.0
13170,0.40717917680740356,-10.737367630004883,-89,9524.0,12.860530853271484,98,9984.0
13180,0.4068719446659088,2.3476953506469727,77,9524.0,-5.700589656829834,-262,9984.0
13190,0.4071889817714691,22.283714294433594,440,9524.0,-27.52499771118164,-474,9984.0
13200,0.40700024366378784,40.11820602416992,799,9524.0,-36.384090423583984,-569,9984.0
13210,0.4067131280899048,49.94288635253906,760,9524.0,-33.82932662963867,-609,9984.0
13220,0.40631529688835144,50.49851608276367,807,9524.0,-22.363161087036133,-141,9984.0
13230,0.4060721695423126,32.355323791503906,361,9524.0,-1.5249971151351929,20,9984.0
13240,0.4060031473636627,-2.073683500289917,-152,9524.0,19.280948638916016,357,9984.0
13250,0.4060460329055786,-38.17732620239258,-782,9524.0,31.26647186279297,546,9984.0
13260,0.40609583258628845,-59.47367858886719,-965,9524.0,32.591880798339844,535,9984.0
13270,0.4063115119934082,-63.815547943115234,-1100,9524.0,17.664928436279297,171,9984.0
13280,0.40677186846733093,-51.47248840332031,-703,9524.0,-2.034648895263672,-14,9984.0
13290,0.407183438539505,-32.15422821044922,-398,9524.0,-20.53593635559082,-434,9984.0
13300,0.40777793526649475,-11.526495933532715,-172,9524.0,-30.527530670166016,-573,9984.0
13310,0.40846115350723267,9.823956489562988,286,9524.0,-24.889352798461914,-211,9984.0
13320,0.4074473977088928,23.15641212463379,419,9524.0,-12.840394020080566,-285,9984.0
13330,0.40796804428100586,25.031679153442383,377,9524.0,-9.254053115844727,-16,9984.0
13340,0.4084286093711853,18.66823387145996,318,9524.0,-1.6638904809951782,-79,9984.0
13350,0.4088761806488037,12.138197898864746,135,9524.0,8.238500595092773,216,9984.0
13360,0.4068671464920044,11.065337181091309,237,9524.0,16.203227996826172,305,9984.0
13370,0.40714600682258606,12.405430793762207,146,9524.0,22.084617614746094,453,9984.0
13380,0.40742620825767517,10.235357284545898,229,9524.0,26.01956558227539,461,9984.0
13390,0.40766188502311707,9.13836669921875,119,9524.0,22.380456924438477,248,9984.0
13400,0.40783700346946716,4.907018184661865,44,9524.0,16.236318588256836,326,9984.0
13410,0.408782958984375,0.5482093095779419,9,9524.0,7.770448684692383,-32,9984.0
13420,0.4087728261947632,-0.08553808927536011,-11,9524.0,-7.903482913970947,-235,9984.0
13430,0.40873587131500244,8.858966827392578,267,9524.0,-21.858680725097656,-375,9984.0
13440,0.4086363911628723,23.241832733154297,474,9524.0,-30.517868041992188,-636,9984.0
13450,0.40826359391212463,32.892520904541016,526,9524.0,-34.55646514892578,-509,9984.0
13460,0.40817609429359436,32.67385482788086,518,9524.0,-25.215085983276367,-389,9984.0
13470,0.4079156219959259,15.709871292114258,215,9524.0,-7.09938907623291,59,9984.0
13480,0.40769079327583313,-4.723927021026611,-227,9524.0,10.50610065460205,158,9984.0
13490,0.4075639247894287,-17.89052963256836,-276,9524.0,17.381235122680664,334,9984.0
13500,0.4075861871242523,-24.767492294311523,-434,9524.0,16.864622116088867,191,9984.0
13510,0.4074174761772156,-24.873815536499023,-335,9524.0,13.671643257141113,265,9984.0
13520,0.40724846720695496,-20.35993194580078,-283,9524.0,9.995923042297363,82,9984.0
13530,0.407124400138855,-10.263078689575195,-147,9524.0,5.903087139129639,77,9984.0
13540,0.40706369280815125,3.1885390281677246,165,9524.0,-4.723910808563232,-52,9984.0
13550,0.4069938063621521,13.343405723571777,198,9524.0,-12.930204391479492,-366,9984.0
13560,0.4069744646549225,18.554763793945312,313,9524.0,-12.21778678894043,-34,9984.0
13570,0.4069954752922058,18.844388961791992,339,9524.0,-1.5108695030212402,-68,9984.0
13580,0.40585219860076904,16.509769439697266,242,9524.0,8.138533592224121,273,9984.0
13590,0.4057106077671051,16.870582580566406,341,9524.0,18.02244758605957,258,9984.0
13600,0.40547627210617065,17.56742286682129,185,9524.0,26.397138595581055,463,9984.0
13610,0.4052453637123108,7.343348979949951,91,9524.0,35.105743408203125,647,9984.0
13620,0.4050874710083008,-4.137054443359375,-105,9524.0,39.867576599121094,520,9984.0
13630,0.4032710790634155,-9.821121215820312,-231,9524.0,34.839149475097656,587,9984.0
13640,0.40304940938949585,-14.605273246765137,-193,9524.0,28.001571655273438,438,9984.0
13650,0.40253904461860657,-14.369956016540527,-186,9524.0,17.41971778869629,139,9984.0
13660,0.40204066038131714,-9.321457862854004,-140,9524.0,-0.3210601210594177,-237,9984.0
13670,0.4040890336036682,-5.7030863761901855,-61,9524.0,-23.036176681518555,-441,9984.0
13680,0.4037727117538452,0.46134960651397705,74,9524.0,-44.18893051147461,-693,9984.0
13690,0.4033406376838684,6.629828929901123,136,9524.0,-51.202903747558594,-931,9984.0
13700,0.4028298556804657,13.33155345916748,226,9524.0,-41.04587173461914,-509,9984.0
13710,0.40270233154296875,19.467771530151367,392,9524.0,-16.02709197998047,-210,9984.0
13720,0.40201979875564575,18.95220947265625,215,9524.0,13.219642639160156,392,9984.0
13730,0.40165889263153076,10.014137268066406,176,9524.0,40.58478546142578,701,9984.0
13740,0.4014716148376465,-3.106445789337158,-164,9524.0,48.28475570678711,646,9984.0
13750,0.40134307742118835,-20.97808265686035,-427,9524.0,32.116973876953125,561,9984.0
13760,0.40085941553115845,-35.67474365234375,-579,9524.0,7.018531799316406,-113,9984.0
13770,0.40084174275398254,-38.95939636230469,-662,9524.0,-18.906381607055664,-464,9984.0
13780,0.40078508853912354,-31.95728302001953,-444,9524.0,-40.38001251220703,-599,9984.0
13790,0.40095192193984985,-19.408597946166992,-168,9524.0,-49.3538703918457,-898,9984.0
13800,0.4006032943725586,-5.849663734436035,-155,9524.0,-45.92157745361328,-629,9984.0
13810,0.4006498456001282,-3.2227485179901123,22,9524.0,-29.05992889404297,-347,9984.0
13820,0.4007999897003174,-1.311807632446289,-82,9524.0,-6.33357572555542,-8,9984.0
13830,0.4010964632034302,2.1769232749938965,107,9524.0,15.611879348754883,364,9984.0
13840,0.40146058797836304,6.226291656494141,69,9524.0,29.20754051208496,434,9984.0
13850,0.4006494879722595,4.958896160125732,91,9524.0,40.27054977416992,828,9984.0
13860,0.40079155564308167,1.6316407918930054,44,9524.0,48.0784912109375,755,9984.0
13870,0.4008827209472656,-2.8107450008392334,-139,9524.0,47.07871627807617,799,9984.0
13880,0.40093299746513367,-8.419692993164062,-85,9524.0,38.60329818725586,662,9984.0
13890,0.40194380283355713,-9.938238143920898,-239,9524.0,27.943893432617188,289,9984.0
13900,0.40196487307548523,-11.12415885925293,-250,9524.0,6.518422603607178,-21,9984.0
13910,0.40209031105041504,-6.5796003341674805,18,9524.0,-25.65892791748047,-484,9984.0
13920,0.4021899402141571,1.4240297079086304,-3,9524.0,-55.990909576416016,-1066,9984.0
13930,0.4020381569862366,8.333298683166504,79,9524.0,-66.9774398803711,-1058,9984.0
13940,0.4018053710460663,8.001605033874512,168,9524.0,-57.608306884765625,-872,9984.0
13950,0.40148547291755676,0.925359308719635,-123,9524.0,-34.368186950683594,-376,9984.0
13960,0.40148577094078064,-10.452401161193848,-104,9524.0,-7.782932758331299,-74,9984.0
13970,0.4012574553489685,-18.132740020751953,-386,9524.0,9.724100112915039,302,9984.0
13980,0.3989957273006439,-19.397489547729492,-242,9524.0,23.770822525024414,458,9984.0
13990,0.3987392783164978,-7.743327617645264,-110,9524.0,33.314300537109375,604,9984.0
14000,0.39846906065940857,6.468762397766113,242,9524.0,37.00016403198242,670,9984.0
14010,0.3982399106025696,20.266632080078125,376,9524.0,30.64429473876953,297,9984.0
14020,0.3984069228172302,31.61600112915039,510,9524.0,10.87707805633545,118,9984.0
14030,0.398366242647171,35.61516189575195,613,9524.0,-5.8473381996154785,-207,9984.0
14040,0.39838531613349915,28.579124450683594,352,9524.0,-18.048131942749023,-446,9984.0
14050,0.39837396144866943,20.729665756225586,344,9524.0,-21.7576961517334,-284,9984.0
14060,0.3984226882457733,13.738164901733398,95,9524.0,-20.09575080871582,-397,9984.0
14070,0.3990958631038666,3.9566094875335693,10,9524.0,-16.52377700805664,-97,9984.0
14080,0.39929407835006714,-1.3682622909545898,-37,9524.0,-8.356769561767578,-170,9984.0
