timestamp,kalman.stateZ,gyro.x,gyro.xRaw,gyro.xVariance,gyro.y,gyro.yRaw,gyro.yVariance
0,0.30033397674560547,1.9418232440948486,28,9524.0,20.595317840576172,343,9984.0
10,0.3004656434059143,0.56614089012146,-2,9524.0,21.073949813842773,342,9984.0
20,0.3001753091812134,-0.3032461404800415,-9,9524.0,20.604629516601562,337,9984.0
30,0.3002002239227295,-1.169709324836731,-20,9524.0,19.101512908935547,308,9984.0
40,0.3003416955471039,-2.105105400085449,-25,9524.0,17.411582946777344,266,9984.0
50,0.30041682720184326,-2.42801833152771,-36,9524.0,15.41681957244873,240,9984.0
60,0.30051177740097046,-2.3163528442382812,-30,9524.0,13.157301902770996,203,9984.0
70,0.2999424636363983,-1.7508394718170166,-16,9524.0,10.498632431030273,155,9984.0
80,0.29993483424186707,-0.7446402907371521,4,9524.0,7.321324825286865,105,9984.0
90,0.29996436834335327,1.2330808639526367,25,9524.0,4.095635890960693,55,9984.0
100,0.30008676648139954,2.2218451499938965,43,9524.0,1.0161564350128174,2,9984.0
110,0.29957887530326843,2.564486026763916,40,9524.0,-2.0891952514648438,-54,9984.0
120,0.29959625005722046,2.3937206268310547,44,9524.0,-5.31336784362793,-101,9984.0
130,0.2996393144130707,1.7483607530593872,28,9524.0,-8.30230712890625,-152,9984.0
140,0.2996791899204254,0.732518196105957,11,9524.0,-10.843358993530273,-186,9984.0
150,0.2998410165309906,0.09801841527223587,2,9524.0,-12.826947212219238,-218,9984.0
160,0.2999280095100403,-0.2969910204410553,1,9524.0,-14.423062324523926,-245,9984.0
170,0.3000010550022125,-1.1462281942367554,-14,9524.0,-16.491804122924805,-283,9984.0
180,0.3000318706035614,-0.008054696954786777,-3,9524.0,-18.69069480895996,-312,9984.0
190,0.30009669065475464,0.2174380123615265,24,9524.0,-19.10627555847168,-318,9984.0
200,0.2996223270893097,5.043988227844238,81,9524.0,-22.24528694152832,-388,9984.0
210,0.2996443510055542,4.886893272399902,52,9524.0,-24.61933135986328,-386,9984.0
220,0.29963135719299316,5.076077938079834,48,9524.0,-30.87225341796875,-578,9984.0
230,0.29968222975730896,12.010294914245605,198,9524.0,-47.921661376953125,-844,9984.0
240,0.29863718152046204,11.476933479309082,162,9524.0,-68.60478973388672,-1146,9984.0
250,0.29855573177337646,11.945795059204102,200,9524.0,-85.74590301513672,-1445,9984.0
260,0.2987237572669983,8.046208381652832,72,9524.0,-101.1093978881836,-1727,9984.0
270,0.29841822385787964,6.9093852043151855,142,9524.0,-102.55863189697266,-1639,9984.0
280,0.2989586293697357,3.2587811946868896,82,9524.0,-94.20182037353516,-1443,9984.0
290,0.29854151606559753,0.06525713950395584,32,9524.0,-76.7729721069336,-1190,9984.0
300,0.29954323172569275,-3.464646339416504,-95,9524.0,-53.367671966552734,-736,9984.0
310,0.29959625005722046,-6.196282863616943,-67,9524.0,-26.61941146850586,-493,9984.0
320,0.29989784955978394,-2.8318257331848145,-23,9524.0,-7.094005107879639,-82,9984.0
330,0.3022664189338684,-0.0442180335521698,-48,9524.0,6.443134307861328,215,9984.0
340,0.30272364616394043,9.697954177856445,191,9524.0,17.398717880249023,209,9984.0
350,0.30323082208633423,13.547605514526367,312,9524.0,19.764623641967773,311,9984.0
360,0.30376702547073364,14.719367980957031,241,9524.0,14.301810264587402,126,9984.0
370,0.3037257194519043,10.771191596984863,168,9524.0,1.8361115455627441,96,9984.0
380,0.30443623661994934,3.369507312774658,-52,9524.0,-9.730457305908203,-144,9984.0
390,0.304914265871048,-4.674861907958984,-79,9524.0,-20.0166015625,-409,9984.0
400,0.3052559792995453,-7.432812213897705,-91,9524.0,-26.10942268371582,-584,9984.0
410,0.30529385805130005,-3.778742790222168,27,9524.0,-36.42734146118164,-592,9984.0
420,0.3067648112773895,-0.6891528367996216,-28,9524.0,-36.97714614868164,-534,9984.0
430,0.30720365047454834,0.8127834796905518,-53,9524.0,-20.69259262084961,-97,9984.0
440,0.30769357085227966,3.8420519828796387,93,9524.0,2.7767837047576904,144,9984.0
450,0.3085750937461853,0.9201266169548035,-35,9524.0,24.855287551879883,408,9984.0
460,0.31138741970062256,-9.12364673614502,-148,9524.0,36.543643951416016,594,9984.0
470,0.31164759397506714,-13.726675987243652,-134,9524.0,34.769989013671875,568,9984.0
480,0.31199249625205994,-11.777043342590332,-214,9524.0,27.109777450561523,458,9984.0
490,0.3120538890361786,1.0472065210342407,86,9524.0,20.9165096282959,284,9984.0
500,0.3124040961265564,15.983609199523926,399,9524.0,12.14700984954834,111,9984.0
510,0.3121013343334198,25.679527282714844,305,9524.0,2.7618160247802734,84,9984.0
520,0.3116922974586487,18.589738845825195,289,9524.0,-0.5981050133705139,-73,9984.0
530,0.3112548887729645,7.492643356323242,114,9524.0,-1.4820622205734253,19,9984.0
540,0.3106788098812103,-7.093267917633057,-272,9524.0,1.047661542892456,58,9984.0
550,0.31092342734336853,-21.44292640686035,-437,9524.0,2.695065498352051,33,9984.0
560,0.3105821907520294,-29.613832473754883,-442,9524.0,2.5508666038513184,131,9984.0
570,0.31017374992370605,-29.356361389160156,-466,9524.0,5.604608058929443,96,9984.0
580,0.3099360167980194,-19.376211166381836,-223,9524.0,5.017629146575928,-1,9984.0
590,0.3116079866886139,-7.477283000946045,-98,9524.0,2.798858165740967,129,9984.0
600,0.3118823766708374,3.0140891075134277,193,9524.0,-1.5295275449752808,-121,9984.0
610,0.3122781813144684,11.731192588806152,248,9524.0,-4.238673686981201,15,9984.0
620,0.3129124045372009,16.74220848083496,225,9524.0,-3.9900996685028076,-184,9984.0
630,0.31305408477783203,17.14784812927246,314,9524.0,-1.842988133430481,-17,9984.0
640,0.31378164887428284,15.934640884399414,256,9524.0,-5.529647350311279,-65,9984.0
650,0.31459471583366394,14.544772148132324,219,9524.0,-10.019996643066406,-252,9984.0
660,0.3152908384799957,9.22075080871582,137,9524.0,-13.673218727111816,-323,9984.0
670,0.31606337428092957,1.0346729755401611,-72,9524.0,-14.053850173950195,-86,9984.0
680,0.3168860971927643,-2.554861068725586,-90,9524.0,-2.4602203369140625,54,9984.0
690,0.31765273213386536,-6.259667873382568,-97,9524.0,14.640539169311523,306,9984.0
700,0.3182615041732788,-9.287263870239258,-58,9524.0,26.838747024536133,569,9984.0
710,0.31873252987861633,-7.130052089691162,-110,9524.0,38.47480010986328,711,9984.0
720,0.3209060728549957,2.5840675830841064,66,9524.0,39.24431610107422,626,9984.0
730,0.3209984600543976,14.089676856994629,377,9524.0,26.10794448852539,249,9984.0
740,0.32085007429122925,22.71799087524414,327,9524.0,13.093819618225098,252,9984.0
750,0.3205856680870056,21.564334869384766,283,9524.0,8.529218673706055,-25,9984.0
760,0.3200554847717285,14.418380737304688,263,9524.0,5.713554382324219,170,9984.0
770,0.3191112279891968,6.665090084075928,44,9524.0,1.5669859647750854,37,9984.0
780,0.31838515400886536,-6.766775131225586,-112,9524.0,-6.356241703033447,-299,9984.0
790,0.3175298273563385,-16.912525177001953,-352,9524.0,-20.235628128051758,-317,9984.0
800,0.31655511260032654,-19.33709716796875,-341,9524.0,-32.66325378417969,-607,9984.0
810,0.31836408376693726,-15.815390586853027,-131,9524.0,-42.86610794067383,-741,9984.0
820,0.317590594291687,-6.829151153564453,-64,9524.0,-44.5509147644043,-675,9984.0
830,0.3167833089828491,-1.629846453666687,-125,9524.0,-37.671142578125,-563,9984.0
840,0.3167380094528198,-3.8000783920288086,-145,9524.0,-23.64847183227539,-386,9984.0
850,0.3162696957588196,-9.485321044921875,-112,9524.0,-2.2689266204833984,29,9984.0
860,0.3161318600177765,-12.332987785339355,-218,9524.0,17.19985008239746,471,9984.0
870,0.31611168384552,-12.653627395629883,-172,9524.0,23.763107299804688,298,9984.0
880,0.31623488664627075,-6.969940662384033,-14,9524.0,18.733116149902344,274,9984.0
890,0.3163194954395294,3.373361587524414,-30,9524.0,2.7061662673950195,15,9984.0
900,0.31749966740608215,5.901058673858643,84,9524.0,-8.73266315460205,-154,9984.0
910,0.3176729381084442,1.9779276847839355,53,9524.0,-6.890763282775879,10,9984.0
920,0.31791311502456665,-4.437659740447998,-119,9524.0,-5.992623805999756,-197,9984.0
930,0.31793296337127686,-7.500306606292725,-139,9524.0,-12.03536605834961,-232,9984.0
940,0.31865227222442627,-6.583061695098877,-170,9524.0,-19.120412826538086,-249,9984.0
950,0.3184282183647156,-3.866132974624634,39,9524.0,-28.41632843017578,-521,9984.0
960,0.3179469108581543,7.327426910400391,214,9524.0,-30.761295318603516,-427,9984.0
970,0.317192018032074,15.349126815795898,246,9524.0,-19.1989688873291,-237,9984.0
980,0.3164898157119751,23.345413208007812,428,9524.0,-5.51743221282959,-158,9984.0
990,0.31798672676086426,27.67374038696289,422,9524.0,5.692448616027832,266,9984.0
1000,0.3170747756958008,22.803783416748047,288,9524.0,19.691333770751953,265,9984.0
1010,0.31588083505630493,13.01119613647461,252,9524.0,27.070430755615234,422,9984.0
1020,0.3145374655723572,-1.6859712600708008,-136,9524.0,25.913057327270508,512,9984.0
1030,0.31558531522750854,-12.56920337677002,-240,9524.0,4.446728229522705,-84,9984.0
1040,0.3145662844181061,-15.443471908569336,-185,9524.0,-21.327363967895508,-374,9984.0
1050,0.313625693321228,-16.149341583251953,-334,9524.0,-37.486087799072266,-675,9984.0
1060,0.3128955364227295,-16.11671257019043,-198,9524.0,-42.32682418823242,-709,9984.0
1070,0.31253889203071594,-13.888606071472168,-235,9524.0,-31.023681640625,-364,9984.0
1080,0.31226250529289246,-9.670846939086914,-173,9524.0,-14.008220672607422,-172,9984.0
1090,0.3121882379055023,-8.305657386779785,-81,9524.0,2.896935224533081,92,9984.0
1100,0.3123529255390167,-10.074442863464355,-155,9524.0,19.59665870666504,576,9984.0
1110,0.3126998841762543,-8.657303810119629,-155,9524.0,34.926700592041016,568,9984.0
1120,0.3139254152774811,-4.802027225494385,-15,9524.0,36.64540481567383,549,9984.0
1130,0.3146269619464874,2.311460494995117,-53,9524.0,26.341659545898438,452,9984.0
1140,0.31552374362945557,1.103522539138794,19,9524.0,15.212578773498535,227,9984.0
1150,0.3164418339729309,-12.480424880981445,-189,9524.0,12.476092338562012,248,9984.0
1160,0.3184361159801483,-22.71772003173828,-482,9524.0,9.311861991882324,-16,9984.0
1170,0.3196559250354767,-34.06875991821289,-561,9524.0,-1.4878520965576172,114,9984.0
1180,0.3205733895301819,-35.841251373291016,-558,9524.0,-4.158613681793213,-194,9984.0
1190,0.3217447102069855,-24.847288131713867,-291,9524.0,-8.08922004699707,-54,9984.0
1200,0.32162708044052124,-2.3538267612457275,131,9524.0,-12.011302947998047,-291,9984.0
1210,0.3223409652709961,25.003393173217773,610,9524.0,-16.542327880859375,-273,9984.0
1220,0.3228391408920288,53.033782958984375,915,9524.0,-15.946466445922852,-216,9984.0
1230,0.32309815287590027,67.81007385253906,1237,9524.0,-11.237663269042969,-142,9984.0
1240,0.32317104935646057,66.98159790039062,985,9524.0,-3.10357403755188,66,9984.0
1250,0.32507240772247314,53.04195785522461,690,9524.0,13.569803237915039,156,9984.0
1260,0.32479622960090637,29.599334716796875,391,9524.0,25.69877052307129,413,9984.0
1270,0.3248598277568817,3.133394241333008,-190,9524.0,26.402429580688477,510,9984.0
1280,0.32475003600120544,-23.267818450927734,-562,9524.0,18.80400276184082,126,9984.0
1290,0.32380810379981995,-40.368507385253906,-638,9524.0,-0.46647047996520996,-96,9984.0
1300,0.32334545254707336,-43.7398681640625,-743,9524.0,-21.4083194732666,-398,9984.0
1310,0.32296377420425415,-36.301395416259766,-402,9524.0,-34.371620178222656,-672,9984.0
1320,0.3226964771747589,-17.62909698486328,-150,9524.0,-35.7454719543457,-557,9984.0
1330,0.3228486478328705,3.167367935180664,59,9524.0,-25.674497604370117,-505,9984.0
1340,0.3206039369106293,11.71126651763916,290,9524.0,-14.75367259979248,-207,9984.0
1350,0.3211388885974884,9.476033210754395,72,9524.0,-0.26483985781669617,131,9984.0
1360,0.32176855206489563,2.65816593170166,-26,9524.0,14.707544326782227,324,9984.0
1370,0.3225478231906891,0.36201438307762146,90,9524.0,29.57539176940918,469,9984.0
1380,0.3229067623615265,3.841564178466797,99,9524.0,33.15513610839844,520,9984.0
1390,0.324006587266922,3.163090229034424,-90,9524.0,30.824617385864258,525,9984.0
1400,0.3251982629299164,-7.664355754852295,-165,9524.0,34.682376861572266,451,9984.0
1410,0.32636892795562744,-23.114967346191406,-376,9524.0,29.01822280883789,569,9984.0
1420,0.32820966839790344,-32.24135208129883,-582,9524.0,17.12590789794922,129,9984.0
1430,0.32658958435058594,-26.996408462524414,-369,9524.0,8.215871810913086,115,9984.0
1440,0.3275037407875061,-10.868499755859375,-147,9524.0,7.304195404052734,187,9984.0
1450,0.3283887505531311,6.569845676422119,310,9524.0,5.305148601531982,-22,9984.0
1460,0.32909736037254333,25.59981918334961,377,9524.0,-5.638530254364014,-78,9984.0
1470,0.32826703786849976,38.51909637451172,696,9524.0,-11.937400817871094,-213,9984.0
1480,0.32862791419029236,43.1786003112793,733,9524.0,-14.211418151855469,-150,9984.0
1490,0.32889696955680847,34.661163330078125,485,9524.0,-10.648503303527832,-192,9984.0
1500,0.3288935124874115,20.785480499267578,271,9524.0,-11.115851402282715,-286,9984.0
1510,0.32792800664901733,2.704692840576172,-76,9524.0,-12.158706665039062,-139,9984.0
1520,0.327815979719162,-17.865903854370117,-440,9524.0,-9.276140213012695,-82,9984.0
1530,0.32766667008399963,-32.80835723876953,-524,9524.0,2.297830581665039,81,9984.0
1540,0.3274514675140381,-39.30736541748047,-627,9524.0,12.025761604309082,249,9984.0
1550,0.3274043798446655,-32.10842514038086,-464,9524.0,14.187255859375,109,9984.0
1560,0.32481831312179565,-14.439964294433594,-168,9524.0,8.079912185668945,100,9984.0
1570,0.32449790835380554,5.430416107177734,132,9524.0,-0.9234809279441833,44,9984.0
1580,0.32427382469177246,23.94977569580078,581,9524.0,-10.006196975708008,-212,9984.0
1590,0.3240939676761627,33.101051330566406,529,9524.0,-16.63825225830078,-331,9984.0
1600,0.32088977098464966,28.892318725585938,372,9524.0,-18.96540641784668,-405,9984.0
1610,0.3207814395427704,17.497264862060547,256,9524.0,-24.05453109741211,-281,9984.0
1620,0.32079067826271057,7.092745304107666,4,9524.0,-30.56255531311035,-441,9984.0
1630,0.3211066424846649,-7.279234409332275,-138,9524.0,-32.16255187988281,-631,9984.0
1640,0.31931272149086,-26.7113094329834,-452,9524.0,-22.01456069946289,-281,9984.0
1650,0.31949174404144287,-41.86878204345703,-824,9524.0,-13.925896644592285,-188,9984.0
1660,0.3195573389530182,-48.82545852661133,-786,9524.0,-5.4351301193237305,-80,9984.0
1670,0.31950482726097107,-33.25865173339844,-443,9524.0,2.818716049194336,246,9984.0
1680,0.3197219669818878,-12.415678024291992,-140,9524.0,19.60271453857422,375,9984.0
1690,0.3201521039009094,10.485891342163086,335,9524.0,22.301769256591797,336,9984.0
1700,0.320060133934021,35.74771499633789,536,9524.0,19.873958587646484,275,9984.0
1710,0.31975871324539185,45.62639617919922,846,9524.0,17.41931915283203,325,9984.0
1720,0.31936416029930115,46.530006408691406,707,9524.0,14.001567840576172,270,9984.0
1730,0.31976622343063354,34.9771728515625,543,9524.0,8.708794593811035,27,9984.0
1740,0.319115549325943,18.11866569519043,183,9524.0,1.2108397483825684,-47,9984.0
1750,0.31847965717315674,2.270235300064087,-30,9524.0,-5.710501670837402,-312,9984.0
1760,0.3177451193332672,-4.947705268859863,-51,9524.0,-19.951873779296875,-344,9984.0
1770,0.31690648198127747,-9.063271522521973,-214,9524.0,-29.63825798034668,-471,9984.0
1780,0.31685417890548706,-13.439260482788086,-168,9524.0,-34.83598709106445,-643,9984.0
1790,0.31596076488494873,-14.33092212677002,-177,9524.0,-35.091514587402344,-545,9984.0
1800,0.31523656845092773,-12.82635498046875,-202,9524.0,-28.905515670776367,-411,9984.0
1810,0.31441962718963623,-4.465682029724121,28,9524.0,-10.33498477935791,-125,9984.0
1820,0.31531280279159546,6.02968692779541,110,9524.0,9.685150146484375,322,9984.0
1830,0.31498482823371887,5.5384345054626465,8,9524.0,28.777246475219727,409,9984.0
1840,0.3146669566631317,-5.505494117736816,-97,9524.0,34.36857604980469,531,9984.0
1850,0.314515084028244,-14.514211654663086,-380,9524.0,28.791847229003906,500,9984.0
1860,0.31655123829841614,-18.766414642333984,-284,9524.0,18.181053161621094,173,9984.0
1870,0.3166098892688751,-10.879088401794434,-101,9524.0,3.199070692062378,98,9984.0
1880,0.3167771100997925,-3.357130765914917,-1,9524.0,-7.239860534667969,-213,9984.0
1890,0.31690171360969543,-1.7459053993225098,-1,9524.0,-11.047402381896973,-208,9984.0
1900,0.31695815920829773,-6.69110107421875,-192,9524.0,-13.359729766845703,-244,9984.0
1910,0.3178025186061859,-11.978131294250488,-176,9524.0,-6.2731451988220215,-143,9984.0
1920,0.3177897334098816,-13.94660758972168,-300,9524.0,0.735041081905365,158,9984.0
1930,0.31768447160720825,-11.77326488494873,-28,9524.0,5.714418411254883,65,9984.0
1940,0.31755563616752625,-0.6432416439056396,73,9524.0,7.578916072845459,260,9984.0
1950,0.31914931535720825,11.339607238769531,314,9524.0,15.642549514770508,205,9984.0
1960,0.3188753128051758,21.020370483398438,354,9524.0,23.895462036132812,527,9984.0
1970,0.31847426295280457,20.48764991760254,293,9524.0,29.585447311401367,458,9984.0
1980,0.31806161999702454,16.05198097229004,235,9524.0,25.5030574798584,418,9984.0
1990,0.3175256550312042,14.410502433776855,176,9524.0,20.529155731201172,333,9984.0
2000,0.3203047215938568,10.919525146484375,235,9524.0,13.906140327453613,149,9984.0
2010,0.320050448179245,9.112878799438477,102,9524.0,3.293189764022827,-42,9984.0
2020,0.31985345482826233,6.201389789581299,83,9524.0,-4.959336757659912,-311,9984.0
2030,0.31954851746559143,7.5745110511779785,111,9524.0,-19.654102325439453,-216,9984.0
2040,0.32038170099258423,8.106756210327148,77,9524.0,-19.182180404663086,-293,9984.0
2050,0.32024624943733215,5.471269130706787,112,9524.0,-15.23395824432373,-276,9984.0
2060,0.3201873302459717,-7.725648403167725,-148,9524.0,-10.29092025756836,-51,9984.0
2070,0.32047197222709656,-22.760541915893555,-456,9524.0,-2.16247820854187,63,9984.0
2080,0.3226676881313324,-31.29545783996582,-496,9524.0,7.006585597991943,16,9984.0
2090,0.32312068343162537,-26.177486419677734,-355,9524.0,10.188851356506348,157,9984.0
2100,0.32355549931526184,-10.017500877380371,-186,9524.0,8.122723579406738,174,9984.0
2110,0.32402700185775757,6.3715620040893555,166,9524.0,4.998987674713135,64,9984.0
2120,0.3245159983634949,7.098037242889404,178,9524.0,11.693413734436035,350,9984.0
2130,0.32537317276000977,5.896327972412109,17,9524.0,20.44298553466797,283,9984.0
2140,0.32573848962783813,-7.000086307525635,-117,9524.0,16.892379760742188,186,9984.0
2150,0.3259984850883484,-15.23043155670166,-342,9524.0,9.520594596862793,244,9984.0
2160,0.32602909207344055,-14.939427375793457,-272,9524.0,5.708817481994629,87,9984.0
2170,0.3266710340976715,-7.283112525939941,35,9524.0,2.6169095039367676,6,9984.0
2180,0.3265998661518097,8.799064636230469,114,9524.0,-5.263983726501465,-191,9984.0
2190,0.326418936252594,16.559040069580078,300,9524.0,-12.262587547302246,-250,9984.0
2200,0.32605093717575073,16.603633880615234,193,9524.0,-10.780508995056152,-47,9984.0
2210,0.3255387544631958,7.620494365692139,177,9524.0,-3.8428585529327393,-135,9984.0
2220,0.325420618057251,2.097707986831665,87,9524.0,-0.16347196698188782,91,9984.0
2230,0.32456710934638977,1.3874605894088745,-33,9524.0,0.9541265368461609,-100,9984.0
2240,0.32366129755973816,2.0767769813537598,90,9524.0,-2.622425079345703,-55,9984.0
2250,0.3226771950721741,3.93680477142334,-38,9524.0,-4.742325305938721,-106,9984.0
2260,0.3225659728050232,3.7219157218933105,126,9524.0,-7.0843634605407715,-148,9984.0
2270,0.32156679034233093,3.039936065673828,29,9524.0,-7.176347732543945,52,9984.0
2280,0.32055893540382385,-3.177762746810913,-70,9524.0,-6.075601577758789,-80,9984.0
2290,0.3195590376853943,-5.458926200866699,-21,9524.0,-2.2588188648223877,9,9984.0
2300,0.32033416628837585,-5.542405128479004,-143,9524.0,3.552936315536499,43,9984.0
2310,0.3195011019706726,-0.4344773292541504,20,9524.0,6.361949920654297,-9,9984.0
2320,0.3188011646270752,7.535008907318115,172,9524.0,-2.936781883239746,-2,9984.0
2330,0.3181430697441101,13.385281562805176,244,9524.0,-13.946617126464844,-263,9984.0
2340,0.31746435165405273,17.102081298828125,336,9524.0,-28.510536193847656,-439,9984.0
2350,0.3176115155220032,16.55365753173828,220,9524.0,-36.808876037597656,-600,9984.0
2360,0.3171006739139557,14.474776268005371,290,9524.0,-24.714046478271484,-457,9984.0
2370,0.3165534734725952,17.2587833404541,294,9524.0,-5.637163162231445,11,9984.0
2380,0.3161579370498657,7.844229698181152,44,9524.0,12.494889259338379,202,9984.0
2390,0.3180501461029053,-0.4941409230232239,-37,9524.0,12.785224914550781,161,9984.0
2400,0.3174450993537903,-8.109519958496094,-204,9524.0,7.065333843231201,205,9984.0
2410,0.3166942596435547,-13.791085243225098,-270,9524.0,6.199253559112549,52,9984.0
2420,0.31581589579582214,-14.401037216186523,-201,9524.0,5.180651664733887,142,9984.0
2430,0.31481462717056274,-12.686518669128418,-250,9524.0,2.6745362281799316,39,9984.0
2440,0.3162371814250946,-14.653246879577637,-78,9524.0,1.3237249851226807,-13,9984.0
2450,0.31515634059906006,-13.062461853027344,-273,9524.0,0.5893628001213074,32,9984.0
2460,0.3139811158180237,-11.442315101623535,-126,9524.0,-1.2346028089523315,-101,9984.0
2470,0.3128487765789032,-5.454652786254883,-166,9524.0,-6.982919216156006,-161,9984.0
2480,0.3142322599887848,-0.07684019953012466,102,9524.0,-13.764928817749023,-202,9984.0
2490,0.31320884823799133,4.676478385925293,50,9524.0,-19.190860748291016,-348,9984.0
2500,0.31231021881103516,5.4354248046875,223,9524.0,-25.836320877075195,-473,9984.0
2510,0.31152284145355225,3.0813231468200684,37,9524.0,-26.937795639038086,-349,9984.0
2520,0.31409090757369995,4.587948799133301,103,9524.0,-17.422117233276367,-397,9984.0
2530,0.31382009387016296,3.3109004497528076,85,9524.0,-4.471421241760254,30,9984.0
2540,0.31379038095474243,2.945260763168335,-33,9524.0,8.431573867797852,124,9984.0
2550,0.3140382468700409,0.816079318523407,32,9524.0,17.765098571777344,293,9984.0
2560,0.31439319252967834,-1.6960768699645996,-127,9524.0,16.784597396850586,326,9984.0
2570,0.3179425895214081,-3.204822301864624,-35,9524.0,6.456623077392578,9,9984.0
2580,0.31871849298477173,-1.3681539297103882,18,9524.0,-5.597028732299805,-14,9984.0
2590,0.3196970224380493,4.535196304321289,70,9524.0,-6.790234088897705,-35,9984.0
2600,0.32070472836494446,4.562939167022705,104,9524.0,9.342029571533203,138,9984.0
2610,0.32100632786750793,-1.222158432006836,-109,9524.0,20.78569793701172,451,9984.0
2620,0.32191941142082214,-8.26236343383789,-232,9524.0,25.70981788635254,336,9984.0
2630,0.32284384965896606,-15.076268196105957,-159,9524.0,21.12887191772461,338,9984.0
2640,0.32358628511428833,-13.009430885314941,-202,9524.0,15.67349624633789,325,9984.0
2650,0.32415562868118286,-8.675858497619629,-207,9524.0,14.188687324523926,267,9984.0
2660,0.32492929697036743,-2.8941650390625,99,9524.0,11.90224552154541,179,9984.0
2670,0.32528939843177795,3.92148756980896,151,9524.0,6.430752277374268,84,9984.0
2680,0.32555684447288513,10.282452583312988,136,9524.0,4.295017719268799,-93,9984.0
2690,0.3257264196872711,15.263413429260254,306,9524.0,0.6230606436729431,70,9984.0
2700,0.3238557279109955,15.86979866027832,237,9524.0,-0.20738033950328827,94,9984.0
2710,0.3237531781196594,11.867623329162598,211,9524.0,0.7286878824234009,-197,9984.0
2720,0.3236140012741089,3.122166633605957,21,9524.0,-2.826716423034668,-23,9984.0
2730,0.3234873414039612,-4.529390335083008,-178,9524.0,-5.009742736816406,-6,9984.0
2740,0.32360854744911194,-9.439891815185547,-141,9524.0,-5.1700358390808105,-113,9984.0
2750,0.3234937787055969,-9.126104354858398,-65,9524.0,-6.445520877838135,-114,9984.0
2760,0.3234255313873291,-5.4534735679626465,-100,9524.0,-3.0636279582977295,18,9984.0
2770,0.323514848947525,2.6256794929504395,35,9524.0,1.6819943189620972,-92,9984.0
2780,0.3237486183643341,4.178717613220215,121,9524.0,3.695936679840088,92,9984.0
2790,0.3211064338684082,4.8188652992248535,71,9524.0,-0.8243359327316284,-9,9984.0
2800,0.3215133249759674,1.4337064027786255,51,9524.0,-11.420077323913574,-313,9984.0
2810,0.32204708456993103,1.7329721450805664,94,9524.0,-17.212656021118164,-322,9984.0
2820,0.32268786430358887,7.695041179656982,66,9524.0,-11.356348991394043,-23,9984.0
2830,0.32250288128852844,14.414752006530762,213,9524.0,5.213686943054199,81,9984.0
2840,0.3231751620769501,18.171762466430664,386,9524.0,15.932028770446777,311,9984.0
2850,0.3236658275127411,17.011642456054688,297,9524.0,15.391106605529785,300,9984.0
2860,0.3242994546890259,11.253026008605957,126,9524.0,8.70862865447998,122,9984.0
2870,0.3246704339981079,4.843167781829834,40,9524.0,-0.14642293751239777,-165,9984.0
2880,0.32432907819747925,-6.195898532867432,-99,9524.0,-4.971868991851807,-163,9984.0
2890,0.32417476177215576,-14.918581008911133,-350,9524.0,-5.927530288696289,28,9984.0
2900,0.32381898164749146,-27.128690719604492,-515,9524.0,-4.984298229217529,-47,9984.0
2910,0.3233456313610077,-32.405269622802734,-452,9524.0,-5.732875823974609,-164,9984.0
2920,0.3207843601703644,-29.743804931640625,-422,9524.0,-3.6285240650177,-32,9984.0
2930,0.3200538456439972,-20.00782585144043,-400,9524.0,-0.49459925293922424,11,9984.0
2940,0.3194545805454254,-10.40196704864502,-43,9524.0,3.1268086433410645,16,9984.0
2950,0.3190821707248688,3.364788770675659,121,9524.0,4.186059951782227,226,9984.0
2960,0.3182148337364197,14.477132797241211,294,9524.0,5.470056056976318,-32,9984.0
2970,0.317705899477005,25.002614974975586,474,9524.0,3.834827184677124,106,9984.0
2980,0.3172670006752014,34.188907623291016,454,9524.0,3.249706506729126,26,9984.0
2990,0.3166995942592621,29.235979080200195,501,9524.0,-1.348739504814148,-95,9984.0
3000,0.3169952630996704,13.228240013122559,189,9524.0,-10.905571937561035,-110,9984.0
3010,0.31698375940322876,-5.65342903137207,-236,9524.0,-18.34161376953125,-347,9984.0
3020,0.3170163035392761,-18.800579071044922,-328,9524.0,-25.36534309387207,-566,9984.0
3030,0.31704244017601013,-22.42622947692871,-346,9524.0,-30.18853187561035,-499,9984.0
3040,0.3172113001346588,-16.594486236572266,-267,9524.0,-34.27552032470703,-504,9984.0
3050,0.31845298409461975,-13.485538482666016,-155,9524.0,-25.898088455200195,-396,9984.0
3060,0.3188060522079468,-10.384283065795898,-98,9524.0,-4.299399375915527,3,9984.0
3070,0.31921425461769104,-5.9500226974487305,-117,9524.0,13.501163482666016,309,9984.0
3080,0.3197006583213806,-2.4127731323242188,-98,9524.0,20.24042320251465,288,9984.0
3090,0.3200417459011078,0.24674008786678314,82,9524.0,17.629011154174805,321,9984.0
3100,0.3222352862358093,0.6461724042892456,19,9524.0,13.176029205322266,256,9984.0
3110,0.32235270738601685,0.8223227858543396,72,9524.0,12.057293891906738,26,9984.0
3120,0.3223898410797119,0.7885951399803162,31,9524.0,17.2420711517334,387,9984.0
3130,0.32203614711761475,2.366581439971924,-12,9524.0,21.811107635498047,350,9984.0
3140,0.32085758447647095,2.6649622917175293,207,9524.0,22.107318878173828,336,9984.0
3150,0.3201354742050171,8.588078498840332,148,9524.0,11.516440391540527,59,9984.0
3160,0.31938186287879944,12.612476348876953,184,9524.0,-7.606180191040039,-357,9984.0
3170,0.31859448552131653,7.274618148803711,93,9524.0,-25.37112045288086,-341,9984.0
3180,0.31713947653770447,-1.1708590984344482,-106,9524.0,-37.11614990234375,-639,9984.0
3190,0.31630679965019226,-8.353537559509277,-165,9524.0,-37.03543472290039,-650,9984.0
3200,0.315442830324173,-18.836597442626953,-371,9524.0,-24.921249389648438,-281,9984.0
3210,0.314657598733902,-20.912307739257812,-332,9524.0,-8.6556396484375,-147,9984.0
3220,0.3148473799228668,-15.965481758117676,-145,9524.0,8.637533187866211,211,9984.0
3230,0.3149573802947998,-7.2361836433410645,-79,9524.0,20.866029739379883,490,9984.0
3240,0.3148261606693268,3.09183931350708,205,9524.0,29.617156982421875,455,9984.0
3250,0.31479892134666443,11.429203987121582,239,9524.0,25.211286544799805,420,9984.0
3260,0.31487607955932617,19.26888084411621,309,9524.0,17.886600494384766,115,9984.0
3270,0.31623512506484985,20.753889083862305,318,9524.0,5.7600016593933105,44,9984.0
3280,0.3165224492549896,18.22981071472168,242,9524.0,-11.175978660583496,-235,9984.0
3290,0.31701332330703735,17.566261291503906,414,9524.0,-15.326044082641602,-253,9984.0
3300,0.3173370361328125,20.654247283935547,366,9524.0,-2.827704429626465,50,9984.0
3310,0.3177313208580017,19.10352897644043,244,9524.0,22.96768569946289,564,9984.0
3320,0.31960248947143555,20.240074157714844,298,9524.0,37.57120895385742,651,9984.0
3330,0.3197380602359772,8.149932861328125,211,9524.0,42.21339416503906,677,9984.0
3340,0.31971293687820435,-3.874258279800415,-177,9524.0,33.55451583862305,571,9984.0
3350,0.3195914626121521,-25.156068801879883,-528,9524.0,19.852134704589844,26,9984.0
3360,0.3208981156349182,-46.8438606262207,-776,9524.0,-2.392976999282837,-144,9984.0
3370,0.3204362094402313,-57.40727615356445,-1012,9524.0,-16.647869110107422,-204,9984.0
3380,0.31974032521247864,-52.95775604248047,-694,9524.0,-18.10918617248535,-341,9984.0
3390,0.3192959129810333,-30.43395233154297,-453,9524.0,-16.714311599731445,-218,9984.0
3400,0.3210134208202362,2.9459996223449707,163,9524.0,-21.707487106323242,-426,9984.0
3410,0.3205241858959198,32.4472541809082,654,9524.0,-22.10549545288086,-210,9984.0
3420,0.3201523721218109,51.2177848815918,844,9524.0,-19.372068405151367,-345,9984.0
3430,0.32017505168914795,55.95742416381836,888,9524.0,-10.107089042663574,-156,9984.0
3440,0.3200117349624634,38.54331970214844,540,9524.0,6.744800090789795,162,9984.0
3450,0.32311517000198364,12.008655548095703,59,9524.0,24.697385787963867,471,9984.0
3460,0.3235544264316559,-12.446516036987305,-303,9524.0,35.755332946777344,481,9984.0
3470,0.32404524087905884,-23.29905891418457,-328,9524.0,39.64302062988281,609,9984.0
3480,0.32450979948043823,-22.673633575439453,-477,9524.0,35.736572265625,639,9984.0
3490,0.3234635889530182,-18.022981643676758,-232,9524.0,27.00053596496582,344,9984.0
3500,0.324012815952301,-8.159719467163086,-51,9524.0,18.836082458496094,419,9984.0
3510,0.32442501187324524,-0.898829460144043,9,9524.0,11.102458000183105,-18,9984.0
3520,0.3249383568763733,3.4428207874298096,68,9524.0,-2.7490997314453125,-90,9984.0
3530,0.3260887861251831,4.817499160766602,9,9524.0,-18.039642333984375,-411,9984.0
3540,0.32663750648498535,2.3826467990875244,134,9524.0,-33.83828353881836,-602,9984.0
3550,0.3273061513900757,-1.9368000030517578,-67,9524.0,-48.38200378417969,-804,9984.0
3560,0.32781967520713806,2.5272433757781982,58,9524.0,-50.11811447143555,-888,9984.0
3570,0.3282403349876404,9.062301635742188,181,9524.0,-30.065277099609375,-385,9984.0
3580,0.32736527919769287,14.086039543151855,252,9524.0,-6.37576961517334,99,9984.0
3590,0.327535480260849,20.362274169921875,340,9524.0,6.013453006744385,131,9984.0
3600,0.3274286687374115,15.744446754455566,248,9524.0,8.377778053283691,58,9984.0
3610,0.32704201340675354,3.957420587539673,48,9524.0,2.6642892360687256,-31,9984.0
3620,0.32549887895584106,-4.844813823699951,-190,9524.0,-0.571924090385437,14,9984.0
3630,0.3246884047985077,-11.928726196289062,-309,9524.0,0.7464194893836975,12,9984.0
3640,0.323775053024292,-19.24721336364746,-255,9524.0,4.787444591522217,88,9984.0
3650,0.3227476477622986,-18.674684524536133,-308,9524.0,7.102991104125977,223,9984.0
3660,0.3216114938259125,-20.247512817382812,-293,9524.0,11.251349449157715,73,9984.0
3670,0.3221205770969391,-17.185869216918945,-214,9524.0,11.883296966552734,269,9984.0
3680,0.3208825886249542,-7.911983013153076,-171,9524.0,11.460819244384766,43,9984.0
3690,0.3196790814399719,5.540541172027588,207,9524.0,2.881162643432617,155,9984.0
3700,0.3187381625175476,22.589521408081055,361,9524.0,-8.449017524719238,-206,9984.0
3710,0.31745022535324097,25.459932327270508,492,9524.0,-17.259416580200195,-309,9984.0
3720,0.31674760580062866,20.071977615356445,219,9524.0,-20.225662231445312,-303,9984.0
3730,0.3163343369960785,15.015456199645996,200,9524.0,-17.04636001586914,-278,9984.0
3740,0.31615179777145386,8.956518173217773,99,9524.0,-9.362364768981934,-53,9984.0
3750,0.3168109953403473,1.8693987131118774,-52,9524.0,-6.903157711029053,-71,9984.0
3760,0.31725141406059265,-7.627222537994385,-102,9524.0,-10.405268669128418,-250,9984.0
3770,0.31781166791915894,-15.950104713439941,-252,9524.0,-15.69786262512207,-284,9984.0
3780,0.31839123368263245,-20.90749740600586,-400,9524.0,-22.734073638916016,-436,9984.0
3790,0.31909576058387756,-19.187801361083984,-320,9524.0,-29.20012664794922,-568,9984.0
3800,0.31994926929473877,-12.084442138671875,-103,9524.0,-31.120115280151367,-381,9984.0
3810,0.3206082880496979,1.337053894996643,45,9524.0,-18.519826889038086,-53,9984.0
3820,0.3212492763996124,5.72205114364624,103,9524.0,3.765166759490967,84,9984.0
3830,0.32183417677879333,9.758292198181152,173,9524.0,19.258054733276367,355,9984.0
3840,0.3225700557231903,7.532400608062744,42,9524.0,28.102113723754883,556,9984.0
3850,0.32294708490371704,6.000509262084961,77,9524.0,32.92457962036133,556,9984.0
3860,0.3231039047241211,4.929370880126953,140,9524.0,35.09870910644531,574,9984.0
3870,0.32346194982528687,-0.43553832173347473,-13,9524.0,39.773799896240234,652,9984.0
3880,0.3235189616680145,-1.3191401958465576,-58,9524.0,41.47738265991211,651,9984.0
3890,0.32219651341438293,3.62391996383667,164,9524.0,36.00042724609375,506,9984.0
3900,0.3219299912452698,0.04116964340209961,-45,9524.0,19.045696258544922,158,9984.0
3910,0.3216243386268616,-1.8835633993148804,-5,9524.0,-2.671109199523926,-267,9984.0
3920,0.3210366368293762,2.0274171829223633,158,9524.0,-24.82966423034668,-373,9984.0
3930,0.32022491097450256,10.737099647521973,99,9524.0,-41.8551025390625,-886,9984.0
3940,0.3194000720977783,11.01203727722168,187,9524.0,-57.77710723876953,-1055,9984.0
3950,0.3186255693435669,8.065729141235352,156,9524.0,-66.41348266601562,-1061,9984.0
3960,0.3177696466445923,-1.4958831071853638,-126,9524.0,-63.07841873168945,-981,9984.0
3970,0.31716620922088623,-17.081880569458008,-392,9524.0,-48.86062240600586,-700,9984.0
3980,0.3172440230846405,-28.31137466430664,-523,9524.0,-28.489892959594727,-427,9984.0
3990,0.31727513670921326,-31.507986068725586,-441,9524.0,-2.918618679046631,29,9984.0
4000,0.3174115717411041,-23.869619369506836,-380,9524.0,18.740943908691406,514,9984.0
4010,0.3177744150161743,-13.042719841003418,-176,9524.0,37.70307159423828,769,9984.0
4020,0.31830623745918274,0.5520564317703247,82,9524.0,47.59274673461914,686,9984.0
4030,0.3188220262527466,13.244169235229492,248,9524.0,45.51420974731445,718,9984.0
4040,0.3194221556186676,22.537612915039062,322,9524.0,38.755062103271484,591,9984.0
4050,0.31999269127845764,28.711502075195312,561,9524.0,31.663185119628906,503,9984.0
4060,0.32044142484664917,30.33725929260254,515,9524.0,26.42493438720703,465,9984.0
4070,0.3210068941116333,23.999128341674805,378,9524.0,28.0577392578125,330,9984.0
4080,0.32170453667640686,14.291337013244629,184,9524.0,30.919071197509766,533,9984.0
4090,0.32212311029434204,4.3360724449157715,-48,9524.0,26.03229522705078,407,9984.0
4100,0.3224015235900879,-11.379711151123047,-191,9524.0,23.427268981933594,412,9984.0
4110,0.32216861844062805,-27.83681297302246,-496,9524.0,20.15734100341797,360,9984.0
4120,0.32233116030693054,-34.5126838684082,-566,9524.0,9.46214771270752,-32,9984.0
4130,0.3221152126789093,-27.317474365234375,-406,9524.0,-4.795372486114502,4,9984.0
4140,0.3220551311969757,-11.557901382446289,-56,9524.0,-15.90047550201416,-380,9984.0
4150,0.32219934463500977,5.749587535858154,177,9524.0,-26.583145141601562,-446,9984.0
4160,0.32169732451438904,21.958904266357422,377,9524.0,-35.22573471069336,-653,9984.0
4170,0.3210649788379669,37.05923843383789,769,9524.0,-40.6141357421875,-662,9984.0
4180,0.32020241022109985,44.22585678100586,796,9524.0,-33.65726089477539,-485,9984.0
4190,0.3214951455593109,37.745330810546875,476,9524.0,-21.673946380615234,-176,9984.0
4200,0.3216613829135895,16.70710563659668,153,9524.0,-3.603057861328125,-117,9984.0
4210,0.32128092646598816,-5.679501533508301,-129,9524.0,10.006742477416992,82,9984.0
4220,0.321121484041214,-24.05743408203125,-465,9524.0,18.28924560546875,360,9984.0
4230,0.3209574222564697,-39.87141418457031,-716,9524.0,29.68339729309082,578,9984.0
4240,0.3205890357494354,-47.48520278930664,-847,9524.0,35.46909713745117,559,9984.0
4250,0.3203653395175934,-43.056602478027344,-566,9524.0,30.142745971679688,479,9984.0
4260,0.32016223669052124,-24.205135345458984,-275,9524.0,20.90579605102539,295,9984.0
4270,0.3204265534877777,-6.4796271324157715,-14,9524.0,4.406832695007324,-171,9984.0
4280,0.3231492042541504,9.1503267288208,213,9524.0,-13.550317764282227,-149,9984.0
4290,0.3233826756477356,19.654876708984375,371,9524.0,-22.78331756591797,-410,9984.0
4300,0.32361316680908203,26.19017219543457,453,9524.0,-26.54514503479004,-374,9984.0
4310,0.3237568438053131,26.606590270996094,352,9524.0,-18.142223358154297,-265,9984.0
4320,0.3240742087364197,32.432701110839844,541,9524.0,-13.308582305908203,-253,9984.0
4330,0.3249077796936035,36.60224914550781,679,9524.0,-10.707353591918945,-206,9984.0
4340,0.32487598061561584,42.219200134277344,676,9524.0,-7.969292640686035,65,9984.0
4350,0.3248964846134186,34.04467010498047,381,9524.0,7.188656330108643,295,9984.0
4360,0.32484984397888184,9.502232551574707,106,9524.0,25.457761764526367,399,9984.0
4370,0.32651615142822266,-18.788223266601562,-362,9524.0,41.019596099853516,676,9984.0
4380,0.3264957070350647,-46.828636169433594,-858,9524.0,44.01155090332031,761,9984.0
4390,0.32592180371284485,-67.29413604736328,-1206,9524.0,31.47697639465332,403,9984.0
4400,0.32533732056617737,-71.56832885742188,-1115,9524.0,8.399711608886719,-69,9984.0
4410,0.3265746235847473,-55.872982025146484,-898,9524.0,-22.948627471923828,-346,9984.0
4420,0.3260175585746765,-38.221622467041016,-480,9524.0,-44.77534866333008,-938,9984.0
4430,0.3254315257072449,-15.712937355041504,-93,9524.0,-50.109230041503906,-758,9984.0
4440,0.32470348477363586,9.310138702392578,239,9524.0,-42.41828536987305,-753,9984.0
4450,0.32476818561553955,29.499004364013672,652,9524.0,-35.09577560424805,-481,9984.0
4460,0.32365816831588745,39.43206787109375,639,9524.0,-26.4174747467041,-297,9984.0
4470,0.3229209780693054,39.40929412841797,618,9524.0,-13.068633079528809,-243,9984.0
4480,0.3222370445728302,28.208932876586914,410,9524.0,3.036952495574951,148,9984.0
4490,0.3217356503009796,10.364407539367676,33,9524.0,17.253530502319336,362,9984.0
4500,0.3219439387321472,-10.478468894958496,-300,9524.0,23.029216766357422,338,9984.0
4510,0.32185330986976624,-25.162988662719727,-476,9524.0,23.507667541503906,300,9984.0
4520,0.32175981998443604,-31.848129272460938,-575,9524.0,14.723849296569824,293,9984.0
4530,0.3218490183353424,-27.705833435058594,-388,9524.0,4.706417083740234,-16,9984.0
4540,0.3222246468067169,-15.585759162902832,-153,9524.0,-5.987477779388428,-93,9984.0
4550,0.32233285903930664,-2.2501049041748047,41,9524.0,-17.772096633911133,-465,9984.0
4560,0.3226724863052368,8.813233375549316,209,9524.0,-25.267047882080078,-435,9984.0
4570,0.3230803310871124,22.665870666503906,446,9524.0,-27.486207962036133,-422,9984.0
4580,0.3234882056713104,33.87593460083008,538,9524.0,-22.622516632080078,-404,9984.0
4590,0.324162095785141,40.877723693847656,742,9524.0,-12.72327995300293,-243,9984.0
4600,0.3244328796863556,41.198184967041016,613,9524.0,-3.1265530586242676,2,9984.0
4610,0.32574158906936646,35.391563415527344,453,9524.0,5.275454998016357,185,9984.0
4620,0.3259683847427368,18.729042053222656,152,9524.0,13.282610893249512,272,9984.0
4630,0.3256022334098816,-5.46560525894165,-145,9524.0,18.054134368896484,284,9984.0
4640,0.3256798982620239,-27.8277530670166,-423,9524.0,21.133214950561523,386,9984.0
4650,0.32544195652008057,-42.48607635498047,-725,9524.0,24.80582046508789,524,9984.0
4660,0.3253842890262604,-44.3213996887207,-795,9524.0,26.525367736816406,317,9984.0
4670,0.32488420605659485,-34.80585479736328,-428,9524.0,18.686546325683594,258,9984.0
4680,0.3232051730155945,-14.151708602905273,-138,9524.0,3.9575254917144775,54,9984.0
4690,0.32284823060035706,9.05808162689209,323,9524.0,-13.524620056152344,-496,9984.0
4700,0.322345495223999,32.05515670776367,559,9524.0,-34.12126541137695,-510,9984.0
4710,0.3217434287071228,41.21897888183594,609,9524.0,-42.75404357910156,-691,9984.0
4720,0.32002004981040955,37.76603317260742,702,9524.0,-38.531150817871094,-608,9984.0
4730,0.31953203678131104,26.116086959838867,389,9524.0,-22.389991760253906,-224,9984.0
4740,0.3195590376853943,7.538699626922607,-26,9524.0,-5.372657299041748,26,9984.0
4750,0.3193683922290802,-16.845762252807617,-354,9524.0,10.236383438110352,159,9984.0
4760,0.3191797137260437,-34.037864685058594,-560,9524.0,18.691709518432617,269,9984.0
4770,0.3191150724887848,-37.26905822753906,-597,9524.0,23.362110137939453,406,9984.0
4780,0.31936392188072205,-32.473854064941406,-567,9524.0,25.73969268798828,381,9984.0
4790,0.31952548027038574,-22.61343002319336,-252,9524.0,17.142860412597656,173,9984.0
4800,0.32009321451187134,-11.02340030670166,-49,9524.0,1.4588477611541748,5,9984.0
4810,0.32037353515625,4.654573440551758,98,9524.0,-13.474437713623047,-396,9984.0
4820,0.3208335340023041,2.742196559906006,-28,9524.0,-21.31283187866211,-312,9984.0
4830,0.3212765157222748,-8.477585792541504,-246,9524.0,-18.460203170776367,-219,9984.0
4840,0.32154613733291626,-20.41045570373535,-236,9524.0,-12.338529586791992,-241,9984.0
4850,0.3233378827571869,-24.380266189575195,-424,9524.0,-9.201831817626953,-57,9984.0
4860,0.3237135410308838,-22.055540084838867,-354,9524.0,3.3317058086395264,-64,9984.0
4870,0.32363003492355347,-10.888833999633789,-77,9524.0,13.235302925109863,341,9984.0
4880,0.32349082827568054,6.059054374694824,181,9524.0,21.200159072875977,439,9984.0
4890,0.32380712032318115,22.832805633544922,514,9524.0,28.14229965209961,400,9984.0
4900,0.32322490215301514,35.32744598388672,523,9524.0,33.697261810302734,644,9984.0
4910,0.32272037863731384,35.924102783203125,532,9524.0,34.99152374267578,475,9984.0
4920,0.32187968492507935,30.173723220825195,514,9524.0,26.60514259338379,513,9984.0
4930,0.3210327923297882,18.583349227905273,220,9524.0,15.767866134643555,180,9984.0
4940,0.31895875930786133,4.462042331695557,51,9524.0,1.6679432392120361,-84,9984.0
4950,0.3181142807006836,-6.8750810623168945,-262,9524.0,-9.93772029876709,-198,9984.0
4960,0.31730321049690247,-15.068609237670898,-211,9524.0,-17.337993621826172,-317,9984.0
4970,0.31658804416656494,-17.531644821166992,-296,9524.0,-15.271081924438477,-76,9984.0
4980,0.316588819026947,-15.456989288330078,-223,9524.0,-8.568062782287598,-142,9984.0
4990,0.31631848216056824,-5.991060256958008,-5,9524.0,-4.74244499206543,-62,9984.0
5000,0.31624698638916016,7.397704601287842,74,9524.0,-2.0307576656341553,-51,9984.0
5010,0.3163207173347473,16.406766891479492,364,9524.0,-3.527986526489258,-124,9984.0
5020,0.31648847460746765,29.00074577331543,464,9524.0,-9.285989761352539,-1,9984.0
5030,0.3179453909397125,29.020448684692383,486,9524.0,-8.404802322387695,-130,9984.0
5040,0.3183048367500305,26.166637420654297,475,9524.0,-6.528314590454102,-170,9984.0
5050,0.3188008666038513,19.34284782409668,275,9524.0,-2.045809268951416,70,9984.0
5060,0.3194928467273712,10.865874290466309,43,9524.0,5.397850513458252,131,9984.0
5070,0.32070961594581604,5.576150417327881,44,9524.0,14.887627601623535,238,9984.0
5080,0.32124805450439453,-0.457253098487854,40,9524.0,27.80497169494629,454,9984.0
5090,0.32158005237579346,-8.192465782165527,-233,9524.0,28.573753356933594,593,9984.0
5100,0.3218890428543091,-20.226356506347656,-411,9524.0,22.855684280395508,401,9984.0
5110,0.3229822814464569,-24.843116760253906,-331,9524.0,20.18470001220703,172,9984.0
5120,0.32315507531166077,-22.75101089477539,-377,9524.0,10.023186683654785,137,9984.0
5130,0.3230717182159424,-19.661575317382812,-340,9524.0,1.0245412588119507,-22,9984.0
5140,0.32301977276802063,-14.088078498840332,-136,9524.0,-9.036704063415527,-244,9984.0
5150,0.32317066192626953,-6.411952972412109,-148,9524.0,-22.1157283782959,-411,9984.0
5160,0.3235761523246765,-0.6632335782051086,25,9524.0,-27.32159423828125,-419,9984.0
5170,0.3231589198112488,2.0754988193511963,51,9524.0,-24.52188491821289,-246,9984.0
5180,0.322509765625,4.160964012145996,-5,9524.0,-20.23372459411621,-324,9984.0
5190,0.32193702459335327,4.898118495941162,90,9524.0,-15.463593482971191,-344,9984.0
5200,0.32122743129730225,5.731409549713135,72,9524.0,-15.958316802978516,-144,9984.0
5210,0.3204781413078308,7.211133003234863,92,9524.0,-12.956591606140137,-162,9984.0
5220,0.3197159469127655,5.520634174346924,221,9524.0,-6.523106098175049,-198,9984.0
5230,0.3190351724624634,3.2933452129364014,-32,9524.0,2.763289451599121,68,9984.0
5240,0.31856781244277954,-1.9367365837097168,-103,9524.0,16.761600494384766,354,9984.0
5250,0.3175279200077057,-4.319774150848389,-62,9524.0,21.30092430114746,381,9984.0
5260,0.317206472158432,-6.473045825958252,-12,9524.0,25.606647491455078,470,9984.0
5270,0.3170974850654602,-2.8102893829345703,-89,9524.0,22.185016632080078,313,9984.0
5280,0.3171774446964264,0.99526047706604,22,9524.0,9.393661499023438,50,9984.0
5290,0.3175983130931854,3.5119125843048096,23,9524.0,-9.699888229370117,-159,9984.0
5300,0.318046897649765,6.878927230834961,209,9524.0,-29.286611557006836,-609,9984.0
5310,0.3184139132499695,8.517847061157227,175,9524.0,-35.035343170166016,-575,9984.0
5320,0.31877878308296204,9.088363647460938,63,9524.0,-21.51727867126465,-293,9984.0
5330,0.32028475403785706,8.49272632598877,181,9524.0,-6.7288408279418945,-74,9984.0
5340,0.3205795884132385,4.389689922332764,69,9524.0,-4.579968452453613,71,9984.0
5350,0.32079946994781494,-2.497792959213257,-93,9524.0,-3.422837972640991,-6,9984.0
5360,0.32081499695777893,-2.8987882137298584,4,9524.0,0.4243388772010803,-157,9984.0
5370,0.32069075107574463,-5.111550331115723,-82,9524.0,6.59134578704834,185,9984.0
5380,0.32130593061447144,-12.622841835021973,-281,9524.0,15.910276412963867,333,9984.0
5390,0.32086431980133057,-13.765071868896484,-223,9524.0,21.265993118286133,409,9984.0
5400,0.32035622000694275,-7.846583843231201,-74,9524.0,28.4395751953125,544,9984.0
5410,0.3196978271007538,3.1033217906951904,48,9524.0,29.18315887451172,339,9984.0
5420,0.3198016881942749,9.704360008239746,218,9524.0,18.106985092163086,231,9984.0
5430,0.31918832659721375,16.442337036132812,194,9524.0,1.3554084300994873,22,9984.0
5440,0.3184818923473358,15.358894348144531,346,9524.0,-18.58074951171875,-447,9984.0
5450,0.3178175389766693,7.669393062591553,88,9524.0,-36.41556167602539,-617,9984.0
5460,0.3172028958797455,-4.309640884399414,-181,9524.0,-44.44527053833008,-891,9984.0
5470,0.3169868290424347,-17.84465789794922,-301,9524.0,-43.27703094482422,-643,9984.0
5480,0.3165569603443146,-24.036874771118164,-472,9524.0,-30.258602142333984,-269,9984.0
5490,0.3163873851299286,-21.087358474731445,-349,9524.0,-12.91118049621582,-74,9984.0
5500,0.31622013449668884,-10.471024513244629,-23,9524.0,2.9198975563049316,62,9984.0
5510,0.3183894157409668,1.219570517539978,56,9524.0,12.678206443786621,260,9984.0
5520,0.31857824325561523,8.084908485412598,68,9524.0,14.441415786743164,182,9984.0
5530,0.3189639449119568,10.39370346069336,209,9524.0,12.521345138549805,110,9984.0
5540,0.3194319009780884,12.01270866394043,179,9524.0,12.905051231384277,416,9984.0
5550,0.3208329677581787,11.07883071899414,142,9524.0,21.735239028930664,398,9984.0
5560,0.3214772939682007,6.4203338623046875,151,9524.0,26.38973617553711,334,9984.0
5570,0.32223430275917053,-0.832405686378479,0,9524.0,26.336040496826172,485,9984.0
5580,0.32275885343551636,2.229165554046631,-60,9524.0,18.60480308532715,201,9984.0
5590,0.323164701461792,0.5584354400634766,120,9524.0,5.575891494750977,30,9984.0
5600,0.3232889771461487,-0.2740662693977356,19,9524.0,-5.391640663146973,-31,9984.0
5610,0.3233245313167572,-1.4040766954421997,-105,9524.0,-8.040460586547852,-236,9984.0
5620,0.3230990767478943,-6.8597211837768555,-97,9524.0,-5.364566326141357,-70,9984.0
5630,0.3226976990699768,-10.73417854309082,-186,9524.0,1.5957142114639282,231,9984.0
5640,0.32145723700523376,-13.317259788513184,-221,9524.0,9.023322105407715,131,9984.0
5650,0.32078033685684204,-14.514453887939453,-178,9524.0,17.679975509643555,229,9984.0
5660,0.32013919949531555,-9.546618461608887,-186,9524.0,20.148006439208984,412,9984.0
5670,0.3195038139820099,-5.274105548858643,-38,9524.0,17.90795135498047,257,9984.0
5680,0.31977272033691406,3.414159059524536,101,9524.0,5.429946422576904,89,9984.0
5690,0.3192542493343353,5.921088695526123,68,9524.0,-9.69242000579834,-377,9984.0
5700,0.3188067674636841,6.297518730163574,136,9524.0,-26.22277069091797,-418,9984.0
5710,0.31838521361351013,7.952942371368408,133,9524.0,-33.744747161865234,-519,9984.0
5720,0.3180496394634247,10.142716407775879,270,9524.0,-33.84873580932617,-527,9984.0
5730,0.31990858912467957,12.65905475616455,152,9524.0,-29.370878219604492,-422,9984.0
5740,0.32019051909446716,8.679463386535645,77,9524.0,-20.745227813720703,-378,9984.0
5750,0.32022175192832947,5.6795220375061035,114,9524.0,-9.752928733825684,-178,9984.0
5760,0.32064908742904663,4.448619365692139,37,9524.0,-1.7662397623062134,89,9984.0
5770,0.31976762413978577,4.0974836349487305,30,9524.0,2.4993579387664795,83,9984.0
5780,0.32003313302993774,5.29523229598999,129,9524.0,9.605311393737793,219,9984.0
5790,0.3202816843986511,-0.9777039885520935,-1,9524.0,25.09507179260254,542,9984.0
5800,0.32058000564575195,-5.262416362762451,-145,9524.0,36.34779357910156,720,9984.0
5810,0.3208134174346924,-6.798294544219971,-112,9524.0,49.061927795410156,671,9984.0
5820,0.32209524512290955,-7.410695552825928,-65,9524.0,51.65309524536133,843,9984.0
5830,0.32243672013282776,-3.2049593925476074,-90,9524.0,40.474769592285156,574,9984.0
5840,0.32221657037734985,-2.570406436920166,6,9524.0,16.28432273864746,138,9984.0
5850,0.32221272587776184,-0.45703351497650146,-98,9524.0,-9.076122283935547,-347,9984.0
5860,0.3221356272697449,7.156583887990564e-05,97,9524.0,-26.685575485229492,-463,9984.0
5870,0.32172897458076477,5.292191028594971,93,9524.0,-40.429954528808594,-624,9984.0
5880,0.3212864100933075,6.755990505218506,133,9524.0,-44.0826301574707,-844,9984.0
5890,0.32058975100517273,6.003795623779297,151,9524.0,-39.18075942993164,-632,9984.0
5900,0.3198801279067993,4.424709320068359,114,9524.0,-25.539417266845703,-222,9984.0
5910,0.3206132650375366,7.697360992431641,115,9524.0,-9.474607467651367,-57,9984.0
5920,0.3202618658542633,9.513788223266602,197,9524.0,3.805070161819458,47,9984.0
5930,0.31970176100730896,8.204246520996094,121,9524.0,13.259604454040527,306,9984.0
5940,0.31928858160972595,4.194324016571045,-87,9524.0,22.52798080444336,380,9984.0
5950,0.31963083148002625,-5.778365135192871,-102,9524.0,28.518951416015625,321,9984.0
5960,0.31934940814971924,-12.717185020446777,-240,9524.0,23.672237396240234,556,9984.0
5970,0.31912118196487427,-24.562366485595703,-434,9524.0,18.64486312866211,298,9984.0
5980,0.31910935044288635,-26.89341926574707,-368,9524.0,7.8705153465271,28,9984.0
5990,0.3186889886856079,-20.409778594970703,-407,9524.0,-4.1560139656066895,-102,9984.0
6000,0.31892260909080505,-9.964567184448242,-90,9524.0,-16.362268447875977,-345,9984.0
6010,0.31955960392951965,2.3652665615081787,134,9524.0,-28.61293601989746,-445,9984.0
6020,0.32001233100891113,10.70533561706543,190,9524.0,-39.470115661621094,-854,9984.0
6030,0.32041165232658386,15.400090217590332,233,9524.0,-48.64911651611328,-761,9984.0
6040,0.3206041157245636,12.88602352142334,112,9524.0,-48.07835388183594,-635,9984.0
6050,0.32081183791160583,7.418205738067627,105,9524.0,-32.79774856567383,-394,9984.0
6060,0.32142627239227295,1.8720804452896118,89,9524.0,-5.7183427810668945,-94,9984.0
6070,0.3218183219432831,-3.345942974090576,11,9524.0,11.662006378173828,328,9984.0
6080,0.32421329617500305,-1.9760382175445557,-60,9524.0,26.023231506347656,474,9984.0
6090,0.32457154989242554,-2.5958290100097656,-20,9524.0,36.11244201660156,491,9984.0
6100,0.324715793132782,-7.016826629638672,-150,9524.0,37.94681930541992,618,9984.0
6110,0.32466480135917664,-9.849468231201172,-279,9524.0,34.626136779785156,543,9984.0
6120,0.32448717951774597,-15.679522514343262,-182,9524.0,25.829069137573242,387,9984.0
6130,0.32397279143333435,-14.223098754882812,-197,9524.0,15.702432632446289,243,9984.0
6140,0.32419371604919434,-9.77381706237793,-105,9524.0,10.568097114562988,85,9984.0
6150,0.32302266359329224,-2.3961215019226074,-113,9524.0,3.4099202156066895,92,9984.0
6160,0.3232822120189667,0.4831852316856384,109,9524.0,-6.710936546325684,-189,9984.0
6170,0.3214884102344513,1.2109044790267944,30,9524.0,-18.78302574157715,-293,9984.0
6180,0.3214814364910126,2.5443084239959717,90,9524.0,-27.092172622680664,-611,9984.0
6190,0.3206866383552551,9.247946739196777,140,9524.0,-34.0655517578125,-398,9984.0
6200,0.32076790928840637,13.019301414489746,168,9524.0,-30.683719635009766,-479,9984.0
6210,0.3196093738079071,12.93685531616211,336,9524.0,-20.990209579467773,-312,9984.0
6220,0.31956520676612854,14.867910385131836,210,9524.0,-5.4909868240356445,58,9984.0
6230,0.3198111057281494,11.465256690979004,159,9524.0,12.758410453796387,119,9984.0
6240,0.3206290900707245,3.938737154006958,50,9524.0,22.136457443237305,367,9984.0
6250,0.3213364779949188,-2.0848336219787598,-87,9524.0,23.460432052612305,493,9984.0
6260,0.32087668776512146,-5.3946123123168945,-113,9524.0,19.476247787475586,338,9984.0
6270,0.32178011536598206,-5.019677639007568,-1,9524.0,3.376978635787964,-132,9984.0
6280,0.3238736689090729,-1.4928972721099854,19,9524.0,-9.020550727844238,-210,9984.0
6290,0.3239127993583679,3.5365867614746094,-8,9524.0,-14.083027839660645,-181,9984.0
6300,0.3236388862133026,5.751053333282471,99,9524.0,-11.015410423278809,-165,9984.0
6310,0.32362261414527893,1.310677170753479,54,9524.0,-6.480532646179199,25,9984.0
6320,0.324868381023407,-3.7239794731140137,-107,9524.0,3.270566701889038,65,9984.0
6330,0.32485222816467285,-6.221664905548096,-156,9524.0,13.735149383544922,169,9984.0
6340,0.32487010955810547,-2.581446886062622,27,9524.0,19.280977249145508,300,9984.0
6350,0.32486507296562195,1.7656868696212769,59,9524.0,22.248767852783203,550,9984.0
6360,0.3251132667064667,3.6686549186706543,-12,9524.0,23.975255966186523,305,9984.0
6370,0.32512494921684265,5.751930236816406,133,9524.0,21.0556697845459,294,9984.0
6380,0.32500845193862915,9.185245513916016,152,9524.0,16.522226333618164,389,9984.0
6390,0.32276055216789246,11.165900230407715,169,9524.0,8.658247947692871,16,9984.0
6400,0.32220175862312317,6.449550151824951,120,9524.0,-0.4982726573944092,-96,9984.0
6410,0.3216732442378998,-3.40989351272583,-240,9524.0,-10.49274730682373,-158,9984.0
6420,0.3209357261657715,-13.879112243652344,-259,9524.0,-15.752447128295898,-278,9984.0
6430,0.32011735439300537,-19.769338607788086,-304,9524.0,-20.9161434173584,-313,9984.0
6440,0.31932640075683594,-23.089054107666016,-411,9524.0,-25.178184509277344,-472,9984.0
6450,0.3186623752117157,-18.74155044555664,-270,9524.0,-22.202863693237305,-335,9984.0
6460,0.3181854784488678,-8.458724975585938,-121,9524.0,-13.251731872558594,-44,9984.0
6470,0.31825798749923706,6.698648929595947,205,9524.0,-3.191622257232666,-7,9984.0
6480,0.3180552124977112,16.87310218811035,367,9524.0,3.5619237422943115,130,9984.0
6490,0.3180199861526489,20.27094841003418,251,9524.0,1.7603321075439453,10,9984.0
6500,0.31806233525276184,18.023706436157227,254,9524.0,-4.18833065032959,-273,9984.0
6510,0.31813353300094604,14.132651329040527,215,9524.0,-15.53299617767334,-217,9984.0
6520,0.3191209137439728,4.513975620269775,-54,9524.0,-21.335046768188477,-180,9984.0
6530,0.3194861114025116,-9.540637969970703,-262,9524.0,-9.573012351989746,-159,9984.0
6540,0.3198791742324829,-17.613601684570312,-278,9524.0,0.04430624470114708,-82,9984.0
6550,0.3203028440475464,-16.269817352294922,-243,9524.0,14.26701545715332,342,9984.0
6560,0.32231780886650085,-6.841957092285156,-100,9524.0,25.786893844604492,512,9984.0
6570,0.32273486256599426,6.511573791503906,287,9524.0,29.114805221557617,428,9984.0
6580,0.3229789137840271,14.9083833694458,220,9524.0,24.78708267211914,472,9984.0
6590,0.32299742102622986,12.800353050231934,130,9524.0,22.791826248168945,196,9984.0
6600,0.3229183256626129,5.812415599822998,91,9524.0,19.656970977783203,418,9984.0
6610,0.32225820422172546,3.033456802368164,38,9524.0,18.798612594604492,308,9984.0
6620,0.3217940032482147,3.607875108718872,148,9524.0,13.6011323928833,197,9984.0
6630,0.3212887644767761,2.4035611152648926,-106,9524.0,4.355363845825195,58,9984.0
6640,0.3206883668899536,2.534104585647583,95,9524.0,-11.078471183776855,-324,9984.0
6650,0.3200606405735016,3.317195177078247,73,9524.0,-29.864086151123047,-461,9984.0
6660,0.3195224404335022,6.480869770050049,113,9524.0,-47.01920700073242,-885,9984.0
6670,0.3191159665584564,2.8558850288391113,52,9524.0,-56.41194534301758,-965,9984.0
6680,0.3188742995262146,-2.8453829288482666,-211,9524.0,-52.99482345581055,-741,9984.0
6690,0.3198763430118561,-15.056408882141113,-351,9524.0,-37.1648063659668,-581,9984.0
6700,0.3202519118785858,-26.108848571777344,-395,9524.0,-15.438145637512207,-187,9984.0
6710,0.32100623846054077,-31.09037971496582,-495,9524.0,4.959790229797363,293,9984.0
6720,0.32225367426872253,-23.808446884155273,-353,9524.0,22.579299926757812,482,9984.0
6730,0.323478102684021,-8.736482620239258,-29,9524.0,35.0718879699707,398,9984.0
6740,0.3254668414592743,3.7897074222564697,108,9524.0,39.357322692871094,630,9984.0
6750,0.3273429870605469,6.395082950592041,96,9524.0,38.98476791381836,685,9984.0
6760,0.3293706178665161,0.44418391585350037,59,9524.0,33.85289001464844,365,9984.0
6770,0.33152303099632263,-3.890299081802368,-77,9524.0,31.582056045532227,651,9984.0
6780,0.33432865142822266,2.4697628021240234,76,9524.0,31.70341682434082,479,9984.0
6790,0.33675047755241394,14.95534610748291,325,9524.0,26.936002731323242,317,9984.0
6800,0.33936625719070435,27.450490951538086,495,9524.0,9.940834045410156,157,9984.0
6810,0.3423370122909546,33.49830627441406,539,9524.0,-8.469995498657227,-350,9984.0
6820,0.3457091450691223,27.57452964782715,411,9524.0,-30.243322372436523,-468,9984.0
6830,0.34841740131378174,15.416483879089355,175,9524.0,-45.20878982543945,-791,9984.0
6840,0.351101815700531,6.707408428192139,14,9524.0,-52.83367919921875,-899,9984.0
6850,0.35367193818092346,-5.615112781524658,-23,9524.0,-52.52470016479492,-961,9984.0
6860,0.35588690638542175,-11.475312232971191,-210,9524.0,-47.42094039916992,-706,9984.0
6870,0.35682380199432373,-10.806974411010742,-117,9524.0,-43.19456481933594,-600,9984.0
6880,0.3585730195045471,-1.48812735080719,-113,9524.0,-35.306461334228516,-443,9984.0
6890,0.36008745431900024,1.0284348726272583,47,9524.0,-25.95331573486328,-294,9984.0
6900,0.3614078164100647,9.760375022888184,168,9524.0,-18.625032424926758,-319,9984.0
6910,0.3632981479167938,13.745291709899902,195,9524.0,-6.899707317352295,-87,9984.0
6920,0.3640395998954773,14.439709663391113,275,9524.0,7.657756805419922,102,9984.0
6930,0.3645513951778412,5.6348185539245605,91,9524.0,18.142963409423828,236,9984.0
6940,0.3648885488510132,-5.191876411437988,-88,9524.0,22.407142639160156,364,9984.0
6950,0.36515432596206665,-11.680814743041992,-183,9524.0,12.110674858093262,106,9984.0
6960,0.36664921045303345,-16.18931770324707,-343,9524.0,-6.093246936798096,-55,9984.0
6970,0.3665490448474884,-18.9511661529541,-320,9524.0,-19.92586898803711,-376,9984.0
6980,0.36652565002441406,-19.399620056152344,-316,9524.0,-25.748144149780273,-557,9984.0
6990,0.3660764992237091,-17.171110153198242,-200,9524.0,-31.162216186523438,-457,9984.0
7000,0.36280757188796997,-7.235860824584961,-110,9524.0,-33.015018463134766,-468,9984.0
7010,0.36215800046920776,6.917964458465576,98,9524.0,-32.72111511230469,-561,9984.0
7020,0.3616451621055603,18.584339141845703,388,9524.0,-20.433494567871094,-300,9984.0
7030,0.3606521189212799,30.285720825195312,611,9524.0,-3.540926218032837,65,9984.0
7040,0.35949215292930603,23.419649124145508,184,9524.0,17.402149200439453,407,9984.0
7050,0.35832247138023376,-8.831911087036133,-378,9524.0,39.31986999511719,860,9984.0
7060,0.3572368025779724,-30.86622428894043,-672,9524.0,54.828956604003906,892,9984.0
7070,0.3560200035572052,-35.79319381713867,-438,9524.0,59.336143493652344,958,9984.0
7080,0.3552977442741394,-24.14335060119629,-361,9524.0,53.01211929321289,852,9984.0
7090,0.3516313135623932,-15.861092567443848,-172,9524.0,42.43627166748047,500,9984.0
7100,0.3512069582939148,-0.86686772108078,50,9524.0,25.12029266357422,398,9984.0
7110,0.3506711423397064,18.47978973388672,469,9524.0,7.522761344909668,-65,9984.0
7120,0.3501304090023041,17.8128604888916,166,9524.0,-7.849909782409668,-124,9984.0
7130,0.3432452380657196,7.14633321762085,31,9524.0,-16.672208786010742,-410,9984.0
7140,0.3423028290271759,2.161313772201538,73,9524.0,-21.6558837890625,-179,9984.0
7150,0.3414804935455322,8.867773056030273,168,9524.0,-10.495118141174316,-94,9984.0
7160,0.34090253710746765,13.329920768737793,308,9524.0,9.245659828186035,265,9984.0
7170,0.3406698405742645,14.071045875549316,235,9524.0,29.069820404052734,611,9984.0
7180,0.33426883816719055,12.597018241882324,124,9524.0,43.5194206237793,776,9984.0
7190,0.33411669731140137,8.811835289001465,162,9524.0,50.41470718383789,832,9984.0
7200,0.33446404337882996,-1.3511544466018677,-77,9524.0,44.95404815673828,749,9984.0
7210,0.3349999189376831,-19.46554946899414,-375,9524.0,33.26512908935547,353,9984.0
7220,0.3293522000312805,-30.400684356689453,-497,9524.0,14.177566528320312,155,9984.0
7230,0.3302586078643799,-26.600271224975586,-443,9524.0,-6.73647928237915,-249,9984.0
7240,0.33140042424201965,-19.562580108642578,-179,9524.0,-17.647396087646484,-262,9984.0
7250,0.3327619433403015,-17.6579647064209,-327,9524.0,-14.733598709106445,-271,9984.0
7260,0.3342089056968689,-15.769646644592285,-260,9524.0,-14.731751441955566,-308,9984.0
7270,0.33197563886642456,-14.219375610351562,-184,9524.0,-19.642793655395508,-179,9984.0
7280,0.3334328234195709,-1.0904455184936523,44,9524.0,-14.741586685180664,-200,9984.0
7290,0.33486491441726685,20.83427619934082,464,9524.0,3.0988640785217285,22,9984.0
7300,0.3363473117351532,39.43238067626953,696,9524.0,20.232219696044922,567,9984.0
7310,0.3339352011680603,50.067081451416016,818,9524.0,36.8812141418457,672,9984.0
7320,0.3347148895263672,54.45680618286133,960,9524.0,43.45124816894531,644,9984.0
7330,0.33517396450042725,48.33732604980469,732,9524.0,43.24043655395508,720,9984.0
7340,0.3358501195907593,29.516889572143555,256,9524.0,39.05678939819336,564,9984.0
7350,0.3336898982524872,5.130937576293945,45,9524.0,29.1989803314209,361,9984.0
7360,0.3337303698062897,-11.68703556060791,-265,9524.0,10.903059005737305,223,9984.0
7370,0.33353573083877563,-23.630640029907227,-449,9524.0,-11.243110656738281,-338,9984.0
7380,0.3333417773246765,-29.112361907958984,-397,9524.0,-33.659339904785156,-715,9984.0
7390,0.33257946372032166,-25.660608291625977,-534,9524.0,-54.34804153442383,-895,9984.0
7400,0.33128467202186584,-26.555269241333008,-403,9524.0,-62.03754425048828,-1072,9984.0
7410,0.3299204111099243,-21.772890090942383,-257,9524.0,-62.57802963256836,-920,9984.0
7420,0.32842978835105896,-12.915367126464844,-172,9524.0,-53.888404846191406,-752,9984.0
7430,0.32767704129219055,-1.3867332935333252,50,9524.0,-37.12751770019531,-646,9984.0
7440,0.32519394159317017,9.789608001708984,229,9524.0,-17.16641616821289,-165,9984.0
7450,0.3237485885620117,14.417101860046387,145,9524.0,4.633979320526123,131,9984.0
7460,0.32206371426582336,7.3367438316345215,87,9524.0,19.14199447631836,263,9984.0
7470,0.3203766644001007,-0.1785593032836914,33,9524.0,20.449806213378906,288,9984.0
7480,0.3184409737586975,-5.2306928634643555,-165,9524.0,8.335479736328125,55,9984.0
7490,0.31681960821151733,-8.468461990356445,-195,9524.0,-9.913186073303223,-204,9984.0
7500,0.31536146998405457,-15.535125732421875,-295,9524.0,-15.298558235168457,-135,9984.0
7510,0.31380701065063477,-18.938472747802734,-332,9524.0,-6.610545635223389,-84,9984.0
7520,0.31261613965034485,-11.545007705688477,-87,9524.0,8.887478828430176,218,9984.0
7530,0.3119816482067108,3.209261894226074,104,9524.0,17.951040267944336,313,9984.0
7540,0.31066951155662537,12.942564964294434,332,9524.0,21.942407608032227,328,9984.0
7550,0.3091275691986084,23.050457000732422,447,9524.0,13.140257835388184,205,9984.0
7560,0.30783015489578247,29.8017520904541,551,9524.0,3.3257975578308105,-77,9984.0
7570,0.3061695694923401,26.43387794494629,395,9524.0,3.560121774673462,209,9984.0
7580,0.30469265580177307,14.83169937133789,124,9524.0,11.69294548034668,252,9984.0
7590,0.30311107635498047,2.5964395999908447,43,9524.0,19.177656173706055,289,9984.0
7600,0.30145832896232605,-15.409632682800293,-274,9524.0,20.286863327026367,384,9984.0
7610,0.2997715175151825,-26.758146286010742,-561,9524.0,18.526132583618164,182,9984.0
7620,0.29979196190834045,-34.953399658203125,-514,9524.0,18.964282989501953,311,9984.0
7630,0.29828596115112305,-31.750995635986328,-544,9524.0,18.9226131439209,240,9984.0
7640,0.2964897155761719,-24.872854232788086,-334,9524.0,17.246246337890625,308,9984.0
7650,0.2945331037044525,-15.362237930297852,-243,9524.0,14.970552444458008,195,9984.0
7660,0.292938232421875,-5.0885491371154785,40,9524.0,8.805315971374512,186,9984.0
7670,0.29137760400772095,7.134496212005615,156,9524.0,3.1111185550689697,-17,9984.0
7680,0.2894004285335541,10.80753231048584,196,9524.0,-2.19783616065979,8,9984.0
7690,0.287933349609375,8.915324211120605,32,9524.0,-10.918996810913086,-358,9984.0
7700,0.2864362299442291,1.4832748174667358,67,9524.0,-13.403216361999512,-215,9984.0
7710,0.28292199969291687,-3.4398531913757324,-134,9524.0,-8.162163734436035,-140,9984.0
7720,0.28134453296661377,-3.428192377090454,10,9524.0,4.2781291007995605,171,9984.0
7730,0.27956071496009827,-0.5978471040725708,-86,9524.0,16.210155487060547,336,9984.0
7740,0.27795031666755676,5.0097808837890625,164,9524.0,24.700456619262695,385,9984.0
7750,0.2770337164402008,10.018861770629883,120,9524.0,27.810043334960938,562,9984.0
7760,0.275030255317688,11.050085067749023,194,9524.0,27.80319595336914,428,9984.0
7770,0.2742346525192261,15.354118347167969,186,9524.0,29.175430297851562,544,9984.0
7780,0.27343693375587463,13.072208404541016,104,9524.0,35.29279327392578,579,9984.0
7790,0.2721444070339203,4.568758010864258,88,9524.0,34.27544021606445,575,9984.0
7800,0.2708034813404083,1.4755043983459473,-30,9524.0,22.065082550048828,184,9984.0
7810,0.27039527893066406,-1.686785101890564,-32,9524.0,13.646708488464355,335,9984.0
7820,0.26962170004844666,-11.935479164123535,-309,9524.0,19.586286544799805,312,9984.0
7830,0.26901140809059143,-20.543142318725586,-250,9524.0,29.97521209716797,534,9984.0
7840,0.26634031534194946,-20.529403686523438,-376,9524.0,34.45515441894531,576,9984.0
7850,0.2661702036857605,-11.084542274475098,-58,9524.0,31.064237594604492,534,9984.0
7860,0.26534852385520935,6.83367919921875,108,9524.0,28.452966690063477,431,9984.0
7870,0.26478347182273865,16.696975708007812,294,9524.0,20.24892807006836,416,9984.0
7880,0.261990487575531,24.192415237426758,359,9524.0,13.155106544494629,139,9984.0
7890,0.2615184485912323,24.48180389404297,381,9524.0,7.632942199707031,261,9984.0
7900,0.2612864375114441,17.988384246826172,198,9524.0,5.747224807739258,14,9984.0
7910,0.26097312569618225,10.383625984191895,171,9524.0,2.778571844100952,110,9984.0
7920,0.2604203522205353,1.7966949939727783,-36,9524.0,2.5956454277038574,-11,9984.0
7930,0.25940388441085815,-9.524112701416016,-128,9524.0,5.2899651527404785,83,9984.0
7940,0.2591187655925751,-17.873191833496094,-373,9524.0,6.574879169464111,66,9984.0
7950,0.25886449217796326,-23.38018226623535,-329,9524.0,6.4535627365112305,155,9984.0
7960,0.2583170235157013,-24.608196258544922,-414,9524.0,3.491581916809082,20,9984.0
7970,0.2576220631599426,-23.06378173828125,-308,9524.0,-4.2359938621521,-18,9984.0
7980,0.25741374492645264,-16.01873779296875,-302,9524.0,-10.099717140197754,-232,9984.0
7990,0.2570483088493347,-11.768482208251953,-135,9524.0,-17.792606353759766,-168,9984.0
8000,0.2566322684288025,-3.9715089797973633,-113,9524.0,-16.519363403320312,-323,9984.0
8010,0.2568821310997009,1.632782220840454,54,9524.0,-13.809930801391602,-111,9984.0
8020,0.25695979595184326,6.668364524841309,102,9524.0,-7.626887321472168,-181,9984.0
8030,0.2570592164993286,6.7199177742004395,142,9524.0,0.8791821599006653,90,9984.0
8040,0.2569456100463867,2.977501392364502,18,9524.0,8.817937850952148,115,9984.0
8050,0.2569245994091034,0.13124243915081024,40,9524.0,17.81288719177246,386,9984.0
8060,0.2574169933795929,-0.4935407042503357,-57,9524.0,24.824357986450195,387,9984.0
8070,0.257465124130249,0.036701250821352005,24,9524.0,28.681827545166016,555,9984.0
8080,0.2575437128543854,1.8719134330749512,2,9524.0,26.890085220336914,303,9984.0
8090,0.25778648257255554,4.531205177307129,108,9524.0,23.620515823364258,456,9984.0
8100,0.25760146975517273,0.6380228996276855,56,9524.0,20.451425552368164,315,9984.0
8110,0.25748637318611145,-2.8536722660064697,-54,9524.0,15.624267578125,278,9984.0
8120,0.2573705017566681,-1.9068174362182617,53,9524.0,14.287649154663086,230,9984.0
8130,0.2571909427642822,3.077765941619873,22,9524.0,5.095008850097656,-76,9984.0
8140,0.25509148836135864,4.915339946746826,99,9524.0,-6.582159519195557,-67,9984.0
8150,0.254574716091156,4.393744945526123,14,9524.0,-15.21175479888916,-417,9984.0
8160,0.254003643989563,-0.23830893635749817,-53,9524.0,-22.88136863708496,-293,9984.0
8170,0.25333383679389954,-2.108505964279175,25,9524.0,-24.337865829467773,-460,9984.0
8180,0.25285089015960693,3.7222976684570312,79,9524.0,-26.716575622558594,-391,9984.0
8190,0.251703679561615,11.024287223815918,300,9524.0,-30.161653518676758,-568,9984.0
8200,0.25091254711151123,19.60239601135254,353,9524.0,-31.044771194458008,-440,9984.0
8210,0.24977849423885345,25.681106567382812,502,9524.0,-25.36632537841797,-400,9984.0
8220,0.2488248646259308,28.005041122436523,444,9524.0,-13.227987289428711,-93,9984.0
8230,0.2481222301721573,22.142812728881836,230,9524.0,-1.9182839393615723,-14,9984.0
8240,0.24724797904491425,5.095425128936768,58,9524.0,2.166135311126709,4,9984.0
8250,0.24697290360927582,-5.296688556671143,-174,9524.0,-2.3941309452056885,-83,9984.0
8260,0.24607065320014954,-10.501846313476562,-178,9524.0,-10.088885307312012,-249,9984.0
8270,0.24541330337524414,-14.928207397460938,-289,9524.0,-18.34317398071289,-311,9984.0
8280,0.24435684084892273,-16.467920303344727,-256,9524.0,-21.593914031982422,-483,9984.0
8290,0.2436605989933014,-19.222455978393555,-338,9524.0,-24.131250381469727,-318,9984.0
8300,0.24306036531925201,-20.96601104736328,-364,9524.0,-22.407299041748047,-392,9984.0
8310,0.24255242943763733,-19.066789627075195,-305,9524.0,-12.58702564239502,-8,9984.0
8320,0.2433430254459381,-19.244476318359375,-387,9524.0,-0.3259299695491791,-20,9984.0
8330,0.24302153289318085,-18.855926513671875,-228,9524.0,7.670137405395508,285,9984.0
8340,0.24229048192501068,-12.80239200592041,-189,9524.0,18.79741668701172,193,9984.0
8350,0.24193476140499115,-3.3782505989074707,37,9524.0,21.763717651367188,415,9984.0
8360,0.24321651458740234,7.191915512084961,190,9524.0,21.344778060913086,200,9984.0
8370,0.2429567128419876,14.715461730957031,178,9524.0,14.292311668395996,245,9984.0
8380,0.24288219213485718,14.556758880615234,287,9524.0,8.117856979370117,94,9984.0
8390,0.2423812597990036,13.281768798828125,106,9524.0,4.826256275177002,147,9984.0
8400,0.24220013618469238,9.104616165161133,197,9524.0,7.432736396789551,187,9984.0
8410,0.24234113097190857,5.531888484954834,-33,9524.0,9.82701587677002,169,9984.0
8420,0.241799995303154,0.5596967935562134,77,9524.0,9.167015075683594,113,9984.0
8430,0.24117372930049896,-2.1414642333984375,-108,9524.0,2.0071423053741455,94,9984.0
8440,0.24053509533405304,-1.2171472311019897,48,9524.0,-4.054281234741211,-130,9984.0
8450,0.24054951965808868,0.47412681579589844,-40,9524.0,-6.173131465911865,-41,9984.0
8460,0.23966477811336517,-1.2468905448913574,72,9524.0,-8.695330619812012,-165,9984.0
8470,0.23948684334754944,-1.3041456937789917,-115,9524.0,-9.649133682250977,-87,9984.0
8480,0.23925745487213135,-4.248119831085205,-32,9524.0,-8.926217079162598,-176,9984.0
8490,0.23892176151275635,-6.744518756866455,-191,9524.0,-9.106915473937988,-58,9984.0
8500,0.2393287867307663,-8.911931991577148,-102,9524.0,-8.37562370300293,-196,9984.0
8510,0.23889340460300446,-11.447092056274414,-279,9524.0,-8.604876518249512,-116,9984.0
8520,0.23819515109062195,-13.950295448303223,-152,9524.0,-8.30614185333252,-159,9984.0
8530,0.23740476369857788,-9.282100677490234,-231,9524.0,-4.240299224853516,14,9984.0
8540,0.23768919706344604,-4.80614709854126,23,9524.0,0.9347668290138245,26,9984.0
8550,0.2373991757631302,-0.8747196197509766,-58,9524.0,6.3824381828308105,119,9984.0
8560,0.23745018243789673,1.1809757947921753,107,9524.0,11.659477233886719,218,9984.0
8570,0.23754186928272247,2.823148488998413,-44,9524.0,16.68516731262207,235,9984.0
8580,0.2384897917509079,0.49696505069732666,79,9524.0,24.870882034301758,502,9984.0
8590,0.23845170438289642,1.989575743675232,-28,9524.0,30.8065128326416,397,9984.0
8600,0.23852141201496124,1.4220166206359863,29,9524.0,24.931610107421875,508,9984.0
8610,0.23862123489379883,-0.2683417797088623,-25,9524.0,21.639028549194336,254,9984.0
8620,0.23892171680927277,-0.4950658977031708,-72,9524.0,18.455476760864258,322,9984.0
8630,0.23962730169296265,-0.3911310136318207,16,9524.0,13.734783172607422,164,9984.0
8640,0.2396223396062851,-2.174499034881592,-38,9524.0,-0.9289681315422058,-195,9984.0
8650,0.2397044450044632,-0.6979437470436096,-32,9524.0,-18.46477699279785,-255,9984.0
8660,0.23952333629131317,-9.332539558410645,-139,9524.0,-27.683446884155273,-572,9984.0
8670,0.24058645963668823,-15.60169792175293,-337,9524.0,-29.138996124267578,-417,9984.0
8680,0.24043312668800354,-22.450206756591797,-301,9524.0,-19.773956298828125,-299,9984.0
8690,0.2402905970811844,-23.266952514648438,-390,9524.0,-4.738988399505615,-45,9984.0
8700,0.2400532215833664,-15.818984985351562,-166,9524.0,10.71606159210205,275,9984.0
8710,0.24167582392692566,-2.7679693698883057,-40,9524.0,22.225351333618164,315,9984.0
8720,0.23823101818561554,10.77564811706543,220,9524.0,28.191713333129883,465,9984.0
8730,0.23820678889751434,18.574039459228516,413,9524.0,22.587968826293945,257,9984.0
8740,0.23826465010643005,26.63824462890625,375,9524.0,10.972966194152832,87,9984.0
8750,0.23840957880020142,25.554506301879883,487,9524.0,-0.12774407863616943,54,9984.0
8760,0.23549418151378632,18.82459831237793,319,9524.0,-8.71688461303711,-231,9984.0
8770,0.23524481058120728,9.446117401123047,109,9524.0,-10.866969108581543,-66,9984.0
8780,0.23537515103816986,0.8276692032814026,44,9524.0,-7.642902374267578,-162,9984.0
8790,0.23541532456874847,-5.592082500457764,-193,9524.0,-3.664825916290283,-27,9984.0
8800,0.23652884364128113,-12.44384765625,-144,9524.0,-1.1491750478744507,-19,9984.0
8810,0.23676833510398865,-13.775225639343262,-317,9524.0,0.39178577065467834,13,9984.0
8820,0.23707595467567444,-15.88491153717041,-206,9524.0,3.482235908508301,176,9984.0
8830,0.23745813965797424,-14.33842658996582,-237,9524.0,10.518327713012695,72,9984.0
8840,0.2378949373960495,-6.809038162231445,-144,9524.0,19.676742553710938,444,9984.0
8850,0.2337426096200943,-1.039389967918396,58,9524.0,22.076736450195312,357,9984.0
8860,0.2341158241033554,7.118179798126221,55,9524.0,28.49427604675293,516,9984.0
8870,0.23458388447761536,8.79145336151123,162,9524.0,31.785581588745117,623,9984.0
8880,0.2349643111228943,7.7465667724609375,100,9524.0,28.604511260986328,293,9984.0
8890,0.2386939972639084,11.3101167678833,167,9524.0,16.350154876708984,300,9984.0
8900,0.2393476516008377,11.543768882751465,225,9524.0,5.490129470825195,-38,9984.0
8910,0.23987820744514465,11.295804977416992,102,9524.0,-4.356960296630859,-85,9984.0
8920,0.24028530716896057,7.715687274932861,150,9524.0,-9.864997863769531,-232,9984.0
8930,0.2375861555337906,2.390517473220825,-11,9524.0,-14.671041488647461,-215,9984.0
8940,0.23790521919727325,-3.311793088912964,-9,9524.0,-11.967833518981934,-199,9984.0
8950,0.23833973705768585,-9.981882095336914,-211,9524.0,-5.854367733001709,-148,9984.0
8960,0.2385345846414566,-13.288525581359863,-186,9524.0,-5.309201240539551,-64,9984.0
8970,0.23876529932022095,-14.809396743774414,-266,9524.0,-7.93718957901001,-230,9984.0
8980,0.23889042437076569,-12.163249015808105,-134,9524.0,-16.055686950683594,-229,9984.0
8990,0.23908193409442902,-6.116785526275635,-56,9524.0,-26.00967788696289,-528,9984.0
9000,0.23945167660713196,0.09202029556035995,49,9524.0,-29.72645378112793,-362,9984.0
9010,0.23957638442516327,7.384888648986816,228,9524.0,-23.483121871948242,-416,9984.0
9020,0.23853856325149536,15.974308967590332,286,9524.0,-16.467235565185547,-124,9984.0
9030,0.23863369226455688,21.704322814941406,409,9524.0,-0.7352704405784607,-42,9984.0
9040,0.23916295170783997,22.650188446044922,347,9524.0,10.180771827697754,295,9984.0
9050,0.23961241543293,17.12505340576172,230,9524.0,21.593976974487305,280,9984.0
9060,0.2398551106452942,10.49333381652832,124,9524.0,22.69427490234375,429,9984.0
9070,0.23467136919498444,5.532904148101807,110,9524.0,20.325090408325195,182,9984.0
9080,0.23481832444667816,1.7602416276931763,0,9524.0,9.5214262008667,80,9984.0
9090,0.23482482135295868,-1.906579852104187,-20,9524.0,0.48558542132377625,-35,9984.0
9100,0.2348572015762329,-9.411125183105469,-214,9524.0,-4.635146141052246,-123,9984.0
9110,0.23612692952156067,-17.935152053833008,-282,9524.0,-5.805335521697998,-38,9984.0
9120,0.23638302087783813,-23.757911682128906,-477,9524.0,-8.212065696716309,-52,9984.0
9130,0.2366662621498108,-25.323612213134766,-351,9524.0,-9.474458694458008,-159,9984.0
9140,0.2369043081998825,-25.37474250793457,-497,9524.0,-10.224843978881836,-231,9984.0
9150,0.2369326502084732,-21.09438133239746,-293,9524.0,-13.876443862915039,-169,9984.0
9160,0.2341924011707306,-13.177790641784668,-127,9524.0,-19.600000381469727,-394,9984.0
9170,0.2341902107000351,-1.4920721054077148,32,9524.0,-25.65325355529785,-545,9984.0
9180,0.23425859212875366,12.249404907226562,259,9524.0,-27.460914611816406,-383,9984.0
9190,0.2340942770242691,24.303199768066406,419,9524.0,-16.961700439453125,-265,9984.0
9200,0.23472481966018677,32.82541275024414,543,9524.0,-2.2574849128723145,121,9984.0
9210,0.2351274937391281,33.248817443847656,541,9524.0,14.98765754699707,251,9984.0
9220,0.23529353737831116,32.47788619995117,509,9524.0,29.338605880737305,597,9984.0
9230,0.23545938730239868,27.671741485595703,417,9524.0,34.67531967163086,544,9984.0
9240,0.23421870172023773,20.25835418701172,278,9524.0,30.829769134521484,549,9984.0
9250,0.2349604219198227,10.082985877990723,211,9524.0,22.885177612304688,279,9984.0
9260,0.2353409230709076,1.7992674112319946,-133,9524.0,8.670494079589844,103,9984.0
9270,0.23627333343029022,-8.479033470153809,-85,9524.0,-8.810235023498535,-161,9984.0
9280,0.23690135776996613,-13.050237655639648,-318,9524.0,-24.885303497314453,-493,9984.0
9290,0.23956824839115143,-13.373236656188965,-195,9524.0,-37.475101470947266,-540,9984.0
9300,0.24040253460407257,-12.251646041870117,-201,9524.0,-42.04946517944336,-751,9984.0
9310,0.24120409786701202,-11.181012153625488,-124,9524.0,-38.47722244262695,-551,9984.0
9320,0.24231183528900146,-6.770423889160156,-177,9524.0,-29.017038345336914,-437,9984.0
9330,0.23988617956638336,-4.976410388946533,-52,9524.0,-13.301392555236816,-120,9984.0
9340,0.2409181147813797,-8.789809226989746,-261,9524.0,7.719227313995361,255,9984.0
9350,0.24172358214855194,-15.720094680786133,-165,9524.0,25.599332809448242,471,9984.0
9360,0.2428838312625885,-18.189590454101562,-349,9524.0,36.93598556518555,646,9984.0
9370,0.24384009838104248,-12.128108024597168,-76,9524.0,43.26089859008789,743,9984.0
9380,0.2447456270456314,0.8977336287498474,-8,9524.0,41.98692321777344,612,9984.0
9390,0.24533051252365112,13.575715065002441,317,9524.0,25.443201065063477,400,9984.0
9400,0.2459235042333603,17.74338150024414,234,9524.0,8.942010879516602,-37,9984.0
9410,0.24736808240413666,15.428132057189941,256,9524.0,-0.6497147083282471,62,9984.0
9420,0.24929286539554596,9.681110382080078,151,9524.0,-7.341715335845947,-255,9984.0
9430,0.25003519654273987,1.6892976760864258,-18,9524.0,-15.757683753967285,-202,9984.0
9440,0.25104859471321106,-8.511275291442871,-120,9524.0,-25.434921264648438,-448,9984.0
9450,0.25166821479797363,-15.777339935302734,-389,9524.0,-30.779680252075195,-461,9984.0
9460,0.25215867161750793,-19.677865982055664,-285,9524.0,-33.7097053527832,-565,9984.0
9470,0.2528562545776367,-16.392126083374023,-248,9524.0,-27.711872100830078,-347,9984.0
9480,0.25343748927116394,-7.0242743492126465,-56,9524.0,-17.010875701904297,-304,9984.0
9490,0.2542625665664673,5.989663124084473,89,9524.0,-3.7926323413848877,136,9984.0
9500,0.2555122673511505,10.725881576538086,257,9524.0,9.252937316894531,112,9984.0
9510,0.2564218044281006,13.652995109558105,166,9524.0,14.555427551269531,300,9984.0
9520,0.2572992742061615,13.456425666809082,248,9524.0,12.708030700683594,153,9984.0
9530,0.25813028216362,9.869098663330078,98,9524.0,8.362008094787598,177,9984.0
9540,0.25900891423225403,5.414689064025879,64,9524.0,3.8772809505462646,-58,9984.0
9550,0.26068115234375,1.852473258972168,-11,9524.0,-4.5465779304504395,-56,9984.0
9560,0.2615540325641632,-6.049413681030273,-130,9524.0,-11.36512565612793,-314,9984.0
9570,0.2625083029270172,-11.582533836364746,-235,9524.0,-13.529071807861328,-179,9984.0
9580,0.26335299015045166,-22.488059997558594,-416,9524.0,-9.002738952636719,-118,9984.0
9590,0.2645675837993622,-28.12046241760254,-399,9524.0,0.4361664950847626,15,9984.0
9600,0.26534128189086914,-25.364856719970703,-455,9524.0,12.82142448425293,305,9984.0
9610,0.26632463932037354,-17.276935577392578,-107,9524.0,20.31343650817871,331,9984.0
9620,0.2675439119338989,0.7339962720870972,73,9524.0,16.999324798583984,147,9984.0
9630,0.26856502890586853,18.484268188476562,461,9524.0,8.407132148742676,164,9984.0
9640,0.27117371559143066,34.810386657714844,618,9524.0,-1.8520987033843994,-217,9984.0
9650,0.2718580365180969,43.24073791503906,742,9524.0,-7.000777721405029,-32,9984.0
9660,0.27262863516807556,41.94670104980469,715,9524.0,-7.2791852951049805,-181,9984.0
9670,0.27340906858444214,36.97074508666992,553,9524.0,-0.32996445894241333,104,9984.0
9680,0.2755563259124756,24.001728057861328,273,9524.0,7.993165493011475,151,9984.0
9690,0.27604126930236816,3.729717254638672,0,9524.0,13.11099624633789,272,9984.0
9700,0.2766350507736206,-14.344473838806152,-430,9524.0,12.519450187683105,197,9984.0
9710,0.2770109176635742,-28.988262176513672,-487,9524.0,9.243829727172852,136,9984.0
9720,0.2774520516395569,-35.11178207397461,-672,9524.0,1.4915556907653809,-124,9984.0
9730,0.276814341545105,-36.468414306640625,-569,9524.0,-10.088220596313477,-147,9984.0
9740,0.2770719826221466,-34.49101638793945,-522,9524.0,-19.4375,-528,9984.0
9750,0.2775672376155853,-24.89972496032715,-321,9524.0,-28.221879959106445,-461,9984.0
9760,0.2776491641998291,-12.632829666137695,-168,9524.0,-34.1633186340332,-651,9984.0
9770,0.2778838872909546,-0.8145575523376465,37,9524.0,-32.39370346069336,-458,9984.0
9780,0.2778964340686798,9.965876579284668,258,9524.0,-23.241374969482422,-322,9984.0
9790,0.27829527854919434,18.575969696044922,260,9524.0,-7.793074607849121,-119,9984.0
9800,0.27849718928337097,17.56484031677246,382,9524.0,7.402297019958496,68,9984.0
9810,0.27737319469451904,14.043431282043457,118,9524.0,14.157437324523926,252,9984.0
9820,0.27756446599960327,5.627809047698975,117,9524.0,23.232088088989258,478,9984.0
9830,0.2777046859264374,-2.7019166946411133,-106,9524.0,33.49044418334961,453,9984.0
9840,0.27785953879356384,-9.714997291564941,-120,9524.0,28.510080337524414,452,9984.0
9850,0.27802541851997375,-5.992993354797363,24,9524.0,11.300661087036133,86,9984.0
9860,0.27749356627464294,9.765891075134277,197,9524.0,-7.198159694671631,-299,9984.0
9870,0.27771538496017456,28.268577575683594,507,9524.0,-15.553906440734863,-258,9984.0
9880,0.27782130241394043,38.75356674194336,698,9524.0,-17.916900634765625,-232,9984.0
9890,0.27788814902305603,31.819969177246094,374,9524.0,-11.971748352050781,-244,9984.0
9900,0.2776626944541931,11.691985130310059,117,9524.0,-0.12734867632389069,201,9984.0
9910,0.2776479423046112,-6.580416202545166,-184,9524.0,12.772963523864746,156,9984.0
9920,0.2774706184864044,-14.616092681884766,-231,9524.0,21.109540939331055,488,9984.0
9930,0.27727189660072327,-11.74655818939209,-154,9524.0,25.54088020324707,348,9984.0
9940,0.27892735600471497,-8.568756103515625,-162,9524.0,26.474401473999023,409,9984.0
9950,0.2791289687156677,-5.28774881362915,-56,9524.0,17.88357925415039,325,9984.0
9960,0.2790863811969757,-0.8873509168624878,-13,9524.0,8.615829467773438,22,9984.0
9970,0.2791953980922699,0.26997998356819153,-82,9524.0,-2.2684524059295654,-73,9984.0
9980,0.2792357802391052,-4.77278470993042,-22,9524.0,-16.373023986816406,-261,9984.0
9990,0.2794010043144226,-7.52965784072876,-183,9524.0,-24.809345245361328,-503,9984.0
10000,0.279754638671875,-11.122918128967285,-185,9524.0,-30.37116050720215,-385,9984.0
10010,0.2798408269882202,-9.849773406982422,-82,9524.0,-31.241491317749023,-518,9984.0
10020,0.27989256381988525,-5.282413959503174,-118,9524.0,-27.18364715576172,-383,9984.0
10030,0.28182289004325867,-1.5396019220352173,19,9524.0,-18.654695510864258,-336,9984.0
10040,0.2821718752384186,2.342283248901367,-5,9524.0,-10.181739807128906,-105,9984.0
10050,0.2827007472515106,4.419609546661377,129,9524.0,-2.603841781616211,42,9984.0
10060,0.2832527160644531,5.156256675720215,41,9524.0,4.50385046005249,8,9984.0
10070,0.28385716676712036,-0.16015177965164185,16,9524.0,10.66885757446289,288,9984.0
10080,0.2837681770324707,0.2000381499528885,36,9524.0,20.15970802307129,260,9984.0
10090,0.2843722701072693,6.682909965515137,98,9524.0,21.91463279724121,439,9984.0
10100,0.2852293848991394,12.453572273254395,343,9524.0,15.391716003417969,189,9984.0
10110,0.2863120436668396,20.710847854614258,255,9524.0,5.307895660400391,91,9984.0
10120,0.2875969409942627,18.831663131713867,343,9524.0,0.6258662939071655,41,9984.0
10130,0.2886088490486145,16.033876419067383,181,9524.0,-4.229189395904541,-125,9984.0
10140,0.28966009616851807,4.719427108764648,49,9524.0,-9.898171424865723,-110,9984.0
10150,0.29078078269958496,-8.55752182006836,-310,9524.0,-10.805727005004883,-219,9984.0
10160,0.29297488927841187,-28.463207244873047,-520,9524.0,-9.52475643157959,12,9984.0
10170,0.2939167618751526,-36.739112854003906,-656,9524.0,2.1418545246124268,-48,9984.0
10180,0.29478147625923157,-33.250885009765625,-550,9524.0,11.67155647277832,356,9984.0
10190,0.29579439759254456,-21.717756271362305,-282,9524.0,16.68457794189453,136,9984.0
10200,0.29676806926727295,0.36976736783981323,47,9524.0,12.380182266235352,257,9984.0
10210,0.2984811067581177,17.05014991760254,374,9524.0,6.261383533477783,83,9984.0
10220,0.2991619110107422,23.06407356262207,309,9524.0,6.548791885375977,78,9984.0
10230,0.3000344932079315,19.91630744934082,331,9524.0,3.3053693771362305,128,9984.0
10240,0.3007931709289551,17.83648109436035,256,9524.0,-5.038693904876709,-276,9984.0
10250,0.3025221824645996,11.86047649383545,114,9524.0,-15.455087661743164,-212,9984.0
10260,0.3034028112888336,4.888068675994873,-15,9524.0,-21.14319610595703,-468,9984.0
10270,0.30412915349006653,-0.08958011865615845,30,9524.0,-26.05093002319336,-379,9984.0
10280,0.3048959970474243,-0.8978856801986694,-96,9524.0,-32.11058807373047,-763,9984.0
10290,0.30570539832115173,-7.976582050323486,-111,9524.0,-39.60655212402344,-662,9984.0
10300,0.3065072000026703,-11.938199043273926,-271,9524.0,-42.927146911621094,-725,9984.0
10310,0.30712729692459106,-15.021151542663574,-176,9524.0,-33.724205017089844,-518,9984.0
10320,0.30821195244789124,-14.392317771911621,-234,9524.0,-15.258408546447754,-39,9984.0
10330,0.3089715540409088,-12.677753448486328,-216,9524.0,10.294857025146484,274,9984.0
10340,0.30818721652030945,-13.796101570129395,-195,9524.0,32.85074996948242,741,9984.0
10350,0.30885806679725647,-14.557635307312012,-268,9524.0,49.70463943481445,807,9984.0
10360,0.3097626268863678,-15.332038879394531,-189,9524.0,57.89607238769531,982,9984.0
10370,0.3102949857711792,-6.417619705200195,47,9524.0,50.10637664794922,653,9984.0
10380,0.3114893138408661,12.304728507995605,282,9524.0,24.617219924926758,223,9984.0
10390,0.31237170100212097,30.670381546020508,635,9524.0,7.808134078979492,119,9984.0
10400,0.31314581632614136,33.895668029785156,455,9524.0,-4.211672782897949,-106,9984.0
10410,0.31389886140823364,26.508821487426758,449,9524.0,-13.268133163452148,-168,9984.0
10420,0.3144550025463104,14.352441787719727,88,9524.0,-19.12272834777832,-338,9984.0
10430,0.3144252598285675,-1.1543723344802856,-51,9524.0,-23.10540008544922,-311,9984.0
10440,0.3149372637271881,-14.947651863098145,-334,9524.0,-21.57207679748535,-427,9984.0
10450,0.3154992163181305,-22.82008171081543,-384,9524.0,-16.102771759033203,-173,9984.0
10460,0.3158949911594391,-25.895126342773438,-437,9524.0,-9.72688102722168,-211,9984.0
10470,0.31769323348999023,-21.75003433227539,-252,9524.0,-3.35278582572937,22,9984.0
10480,0.3180086314678192,-11.361238479614258,-207,9524.0,3.6763830184936523,14,9984.0
10490,0.3184747099876404,-1.2441766262054443,77,9524.0,8.998785018920898,300,9984.0
10500,0.31900331377983093,8.989941596984863,168,9524.0,11.306017875671387,76,9984.0
10510,0.3196646571159363,18.06578826904297,319,9524.0,8.724874496459961,211,9984.0
10520,0.32163524627685547,21.287233352661133,400,9524.0,6.174527168273926,20,9984.0
10530,0.32244110107421875,20.670244216918945,305,9524.0,-0.5982749462127686,-106,9984.0
10540,0.3232026696205139,17.11653709411621,354,9524.0,-11.687853813171387,-169,9984.0
10550,0.3240906596183777,13.93432903289795,115,9524.0,-13.407793998718262,-183,9984.0
10560,0.32363197207450867,5.315766334533691,136,9524.0,-6.686578273773193,-112,9984.0
10570,0.32457682490348816,-3.8089983463287354,-174,9524.0,0.43398424983024597,73,9984.0
10580,0.3256229758262634,-9.665909767150879,-128,9524.0,5.395318031311035,5,9984.0
10590,0.3266611099243164,-15.998663902282715,-307,9524.0,-3.0557548999786377,-90,9984.0
10600,0.3277984857559204,-17.983013153076172,-274,9524.0,-5.822131156921387,-64,9984.0
10610,0.3287128508090973,-25.764089584350586,-476,9524.0,-0.8596252202987671,35,9984.0
10620,0.3294961750507355,-26.956398010253906,-354,9524.0,3.8830959796905518,99,9984.0
10630,0.33018577098846436,-19.011878967285156,-347,9524.0,9.231696128845215,130,9984.0
10640,0.33075496554374695,-3.7852299213409424,61,9524.0,7.185769081115723,259,9984.0
10650,0.3297988772392273,11.210841178894043,211,9524.0,11.268641471862793,121,9984.0
10660,0.3301369249820709,20.75674057006836,405,9524.0,14.451842308044434,367,9984.0
10670,0.33058854937553406,27.351425170898438,479,9524.0,20.53700828552246,261,9984.0
10680,0.33088353276252747,27.658796310424805,436,9524.0,23.153366088867188,469,9984.0
10690,0.32889267802238464,22.38909912109375,416,9524.0,20.365259170532227,250,9984.0
10700,0.3289698660373688,17.266767501831055,195,9524.0,6.377006530761719,11,9984.0
10710,0.3289816975593567,8.420693397521973,175,9524.0,-12.719354629516602,-213,9984.0
10720,0.3292202651500702,1.2841908931732178,-59,9524.0,-24.803855895996094,-465,9984.0
10730,0.3294910490512848,1.1373252868652344,117,9524.0,-25.78776741027832,-345,9984.0
10740,0.3308420479297638,3.7393441200256348,34,9524.0,-14.602328300476074,-231,9984.0
10750,0.3312497138977051,2.437628746032715,57,9524.0,-3.774369716644287,19,9984.0
10760,0.33169499039649963,2.1346538066864014,0,9524.0,2.1362457275390625,-13,9984.0
10770,0.33215397596359253,0.13191688060760498,71,9524.0,0.831464409828186,19,9984.0
10780,0.3322322368621826,-1.5469173192977905,-118,9524.0,-7.953542232513428,-156,9984.0
10790,0.3327217698097229,-7.652678489685059,-55,9524.0,-14.7265625,-274,9984.0
10800,0.33322668075561523,-13.44196605682373,-345,9524.0,-13.440851211547852,-189,9984.0
10810,0.33380573987960815,-23.53245735168457,-353,9524.0,-11.010892868041992,-173,9984.0
10820,0.33464521169662476,-32.28564453125,-593,9524.0,-3.4695918560028076,-3,9984.0
10830,0.33539724349975586,-35.792179107666016,-562,9524.0,5.541116714477539,178,9984.0
10840,0.33596447110176086,-29.592369079589844,-481,9524.0,15.530129432678223,322,9984.0
10850,0.3365846574306488,-12.127021789550781,-86,9524.0,19.116079330444336,372,9984.0
10860,0.3376980125904083,-1.6665129661560059,-29,9524.0,19.619844436645508,196,9984.0
10870,0.338155597448349,8.161341667175293,216,9524.0,12.494166374206543,200,9984.0
10880,0.33901533484458923,23.610742568969727,545,9524.0,6.459441184997559,84,9984.0
10890,0.339682936668396,39.08621597290039,602,9524.0,6.847278594970703,116,9984.0
10900,0.3402600586414337,47.96819305419922,896,9524.0,8.689286231994629,195,9984.0
10910,0.34003862738609314,44.29140853881836,608,9524.0,9.74728775024414,119,9984.0
10920,0.3405594229698181,28.727296829223633,375,9524.0,7.026423931121826,117,9984.0
10930,0.3411869406700134,8.463115692138672,-81,9524.0,0.9831303954124451,-54,9984.0
10940,0.34159204363822937,-15.208784103393555,-284,9524.0,-7.141660213470459,-286,9984.0
10950,0.34229838848114014,-32.140892028808594,-646,9524.0,-21.465673446655273,-428,9984.0
10960,0.34269195795059204,-38.09007263183594,-516,9524.0,-26.501283645629883,-364,9984.0
10970,0.3428855240345001,-29.103755950927734,-459,9524.0,-20.79236602783203,-418,9984.0
10980,0.3437207341194153,-20.700775146484375,-230,9524.0,-16.493896484375,-144,9984.0
10990,0.3441908657550812,-7.571640491485596,-111,9524.0,-3.8113865852355957,-81,9984.0
11000,0.3432231843471527,2.6843838691711426,102,9524.0,8.698081970214844,285,9984.0
11010,0.3439720571041107,11.241546630859375,140,9524.0,10.633892059326172,111,9984.0
11020,0.34466060996055603,16.6170711517334,346,9524.0,4.392901420593262,108,9984.0
11030,0.3455013930797577,21.596309661865234,367,9524.0,-0.9692529439926147,-144,9984.0
11040,0.3454512357711792,27.43795394897461,471,9524.0,-5.631178855895996,-126,9984.0
11050,0.3463694751262665,34.5586051940918,675,9524.0,-2.3537909984588623,-98,9984.0
11060,0.3473924398422241,45.536102294921875,738,9524.0,2.875527858734131,163,9984.0
11070,0.34877973794937134,34.25831604003906,492,9524.0,9.199466705322266,36,9984.0
11080,0.34984397888183594,8.808366775512695,44,9524.0,8.674898147583008,266,9984.0
11090,0.3509984314441681,-21.752859115600586,-572,9524.0,14.126246452331543,233,9984.0
11100,0.35202205181121826,-50.88656234741211,-881,9524.0,17.027652740478516,341,9984.0
11110,0.35304349660873413,-65.96966552734375,-1141,9524.0,17.641088485717773,212,9984.0
11120,0.35374152660369873,-67.91837310791016,-1079,9524.0,12.394401550292969,304,9984.0
11130,0.35513755679130554,-54.73758316040039,-820,9524.0,5.0118889808654785,-59,9984.0
11140,0.3558462858200073,-31.07316017150879,-435,9524.0,-5.838682651519775,-79,9984.0
11150,0.3568977117538452,-0.17447589337825775,174,9524.0,-16.363204956054688,-226,9984.0
11160,0.3576538860797882,23.480539321899414,465,9524.0,-20.5103816986084,-449,9984.0
11170,0.358532577753067,37.146949768066406,548,9524.0,-23.855310440063477,-360,9984.0
11180,0.3601458966732025,40.12674331665039,713,9524.0,-20.645885467529297,-383,9984.0
11190,0.3608894944190979,36.99087905883789,548,9524.0,-15.346229553222656,-242,9984.0
11200,0.36156928539276123,32.38162612915039,590,9524.0,-6.418054103851318,-104,9984.0
11210,0.3623140752315521,26.683012008666992,352,9524.0,6.1860785484313965,293,9984.0
11220,0.3637649714946747,20.31450080871582,306,9524.0,19.753597259521484,231,9984.0
11230,0.36478087306022644,15.706341743469238,227,9524.0,17.580936431884766,348,9984.0
11240,0.36573320627212524,4.553980827331543,-23,9524.0,9.016074180603027,-57,9984.0
11250,0.36672013998031616,-11.481437683105469,-241,9524.0,-3.518465280532837,-77,9984.0
11260,0.36624833941459656,-22.426551818847656,-431,9524.0,-13.034183502197266,-332,9984.0
11270,0.3671078085899353,-27.40544319152832,-399,9524.0,-22.168371200561523,-362,9984.0
11280,0.367936909198761,-26.325281143188477,-448,9524.0,-21.754411697387695,-364,9984.0
11290,0.3687315583229065,-20.697921752929688,-261,9524.0,-13.286857604980469,-78,9984.0
11300,0.36961427330970764,-16.731237411499023,-292,9524.0,1.330270767211914,2,9984.0
11310,0.3704770803451538,-11.780951499938965,-139,9524.0,10.270018577575684,285,9984.0
11320,0.3712250590324402,-2.6883747577667236,-66,9524.0,17.308963775634766,234,9984.0
11330,0.3717300295829773,4.070330619812012,121,9524.0,18.440645217895508,414,9984.0
11340,0.3722566068172455,10.799311637878418,217,9524.0,19.751367568969727,204,9984.0
11350,0.3729914128780365,17.752897262573242,331,9524.0,21.254514694213867,449,9984.0
11360,0.3734377324581146,22.815628051757812,437,9524.0,18.28705406188965,220,9984.0
11370,0.37352454662323,24.544578552246094,306,9524.0,13.89197063446045,253,9984.0
11380,0.37352538108825684,18.02245330810547,287,9524.0,9.768805503845215,168,9984.0
11390,0.37404778599739075,8.004135131835938,-2,9524.0,2.943514108657837,50,9984.0
11400,0.374460369348526,-4.011029243469238,-24,9524.0,-5.63266134262085,-85,9984.0
11410,0.3744393289089203,-7.288173675537109,-190,9524.0,-14.980334281921387,-302,9984.0
11420,0.37453514337539673,-12.031538009643555,-156,9524.0,-16.2978572845459,-188,9984.0
11430,0.374540776014328,-17.04473114013672,-344,9524.0,-15.472676277160645,-250,9984.0
11440,0.37392860651016235,-16.080245971679688,-223,9524.0,-8.230425834655762,37,9984.0
11450,0.3739076256752014,-8.862588882446289,-123,9524.0,8.46084976196289,86,9984.0
11460,0.3739359676837921,-3.147634744644165,-43,9524.0,23.710901260375977,513,9984.0
11470,0.3740830719470978,0.39148157835006714,31,9524.0,23.117446899414062,345,9984.0
11480,0.3746238946914673,2.455548048019409,13,9524.0,9.533785820007324,-45,9984.0
11490,0.37508678436279297,3.4308977127075195,100,9524.0,-12.890432357788086,-183,9984.0
11500,0.37555867433547974,2.6520931720733643,42,9524.0,-30.286197662353516,-598,9984.0
11510,0.376096248626709,-2.5367960929870605,-111,9524.0,-33.89321517944336,-506,9984.0
11520,0.3766869008541107,-17.821348190307617,-290,9524.0,-25.367841720581055,-353,9984.0
11530,0.3773641288280487,-29.970468521118164,-562,9524.0,-12.595959663391113,-124,9984.0
11540,0.37814655900001526,-29.485107421875,-355,9524.0,1.101987600326538,144,9984.0
11550,0.37876319885253906,-18.693391799926758,-277,9524.0,11.612311363220215,89,9984.0
11560,0.37938204407691956,-2.420069456100464,51,9524.0,16.405078887939453,385,9984.0
11570,0.38115236163139343,11.706080436706543,315,9524.0,18.51296043395996,304,9984.0
11580,0.38177138566970825,16.835697174072266,240,9524.0,16.821399688720703,181,9984.0
11590,0.38230350613594055,14.582548141479492,264,9524.0,16.740280151367188,365,9984.0
11600,0.3827149271965027,12.790775299072266,252,9524.0,9.908292770385742,46,9984.0
11610,0.38337069749832153,15.22844123840332,262,9524.0,-2.7369301319122314,-224,9984.0
11620,0.38488107919692993,18.06945037841797,328,9524.0,-18.77349281311035,-291,9984.0
11630,0.38528430461883545,19.469308853149414,274,9524.0,-32.879093170166016,-702,9984.0
11640,0.38557881116867065,12.442540168762207,172,9524.0,-38.58586502075195,-556,9984.0
11650,0.38590776920318604,7.4664530754089355,50,9524.0,-31.294954299926758,-418,9984.0
11660,0.38576942682266235,-9.073868751525879,-275,9524.0,-13.104930877685547,-2,9984.0
11670,0.38600486516952515,-23.567113876342773,-408,9524.0,8.41450023651123,158,9984.0
11680,0.38624078035354614,-34.23075485229492,-661,9524.0,22.29764747619629,511,9984.0
11690,0.38684600591659546,-34.447914123535156,-539,9524.0,27.671606063842773,398,9984.0
11700,0.38833630084991455,-22.39435577392578,-367,9524.0,23.308185577392578,329,9984.0
11710,0.38899263739585876,-5.344473838806152,9,9524.0,7.632769584655762,147,9984.0
11720,0.3897327482700348,11.377786636352539,273,9524.0,-11.583292007446289,-295,9984.0
11730,0.39042985439300537,22.333574295043945,348,9524.0,-26.996414184570312,-503,9984.0
11740,0.3911791145801544,21.589290618896484,346,9524.0,-29.809499740600586,-395,9984.0
11750,0.3914424479007721,12.147266387939453,203,9524.0,-26.239303588867188,-403,9984.0
11760,0.39214980602264404,-0.6054205894470215,-148,9524.0,-16.900798797607422,-186,9984.0
11770,0.3928324580192566,-13.565089225769043,-181,9524.0,-8.127420425415039,-102,9984.0
11780,0.39349666237831116,-18.24066925048828,-361,9524.0,0.4235598146915436,-10,9984.0
11790,0.3938697874546051,-11.975793838500977,-92,9524.0,3.2096400260925293,188,9984.0
11800,0.39449381828308105,0.6773830652236938,36,9524.0,7.464651107788086,23,9984.0
11810,0.3950270414352417,11.314645767211914,215,9524.0,8.311643600463867,197,9984.0
11820,0.3955352306365967,16.203174591064453,309,9524.0,12.480911254882812,233,9984.0
11830,0.3959321677684784,17.182968139648438,274,9524.0,14.889625549316406,173,9984.0
11840,0.39417895674705505,18.226329803466797,286,9524.0,14.448064804077148,270,9984.0
11850,0.39436137676239014,19.319618225097656,433,9524.0,9.072185516357422,77,9984.0
11860,0.39435648918151855,20.412534713745117,290,9524.0,1.216269612312317,-53,9984.0
11870,0.3943355679512024,22.395475387573242,450,9524.0,-7.168640613555908,-84,9984.0
11880,0.39604154229164124,25.74492645263672,447,9524.0,-13.938393592834473,-323,9984.0
11890,0.3961769640445709,31.01556968688965,513,9524.0,-18.84720230102539,-234,9984.0
11900,0.39605042338371277,25.1657657623291,401,9524.0,-19.57380485534668,-405,9984.0
11910,0.3958301842212677,9.775781631469727,51,9524.0,-12.372570037841797,-87,9984.0
11920,0.39569276571273804,-10.663484573364258,-228,9524.0,3.134734630584717,-7,9984.0
11930,0.3957214951515198,-25.17813491821289,-415,9524.0,15.027843475341797,349,9984.0
11940,0.3957349956035614,-33.123512268066406,-613,9524.0,20.424930572509766,259,9984.0
11950,0.39582911133766174,-35.261802673339844,-573,9524.0,16.875885009765625,266,9984.0
11960,0.3959755599498749,-28.547359466552734,-360,9524.0,7.7310590744018555,74,9984.0
11970,0.39660152792930603,-19.641817092895508,-348,9524.0,-2.6925930976867676,-200,9984.0
11980,0.39707455039024353,-8.373490333557129,-70,9524.0,-14.888599395751953,-196,9984.0
11990,0.3974449932575226,-3.5589804649353027,-14,9524.0,-20.03819465637207,-326,9984.0
12000,0.39797481894493103,-4.236937046051025,-162,9524.0,-15.195475578308105,-298,9984.0
12010,0.39840057492256165,-11.223426818847656,-157,9524.0,-8.32084846496582,27,9984.0
12020,0.398828387260437,-8.991236686706543,-113,9524.0,0.6215766668319702,-46,9984.0
12030,0.399325966835022,0.6894585490226746,-4,9524.0,13.468071937561035,346,9984.0
12040,0.39995676279067993,13.936577796936035,347,9524.0,21.961624145507812,446,9984.0
12050,0.4007020890712738,30.679277420043945,524,9524.0,27.633352279663086,442,9984.0
12060,0.4011465907096863,37.585086822509766,571,9524.0,27.69133186340332,509,9984.0
12070,0.40153083205223083,29.160871505737305,499,9524.0,26.000925064086914,441,9984.0
12080,0.40185317397117615,14.22369384765625,104,9524.0,23.59874725341797,321,9984.0
12090,0.40207716822624207,-0.3468382954597473,-14,9524.0,14.425779342651367,289,9984.0
12100,0.40475088357925415,-10.496228218078613,-184,9524.0,3.378952980041504,-89,9984.0
12110,0.4049941301345825,-13.92281436920166,-334,9524.0,-9.499277114868164,-125,9984.0
12120,0.40515264868736267,-12.642338752746582,-115,9524.0,-20.8864803314209,-359,9984.0
12130,0.40521252155303955,-3.7608652114868164,-64,9524.0,-30.05035400390625,-555,9984.0
12140,0.4044301211833954,5.326104640960693,112,9524.0,-28.535194396972656,-318,9984.0
12150,0.40440160036087036,11.840789794921875,243,9524.0,-16.963186264038086,-311,9984.0
12160,0.4044399559497833,16.32442855834961,263,9524.0,0.41059473156929016,113,9984.0
12170,0.4044024348258972,17.771167755126953,298,9524.0,19.35628890991211,300,9984.0
12180,0.4044104516506195,8.14973258972168,17,9524.0,30.746688842773438,605,9984.0
12190,0.403087854385376,-6.619160175323486,-138,9524.0,37.44814682006836,560,9984.0
12200,0.40323805809020996,-23.416475296020508,-521,9524.0,28.405147552490234,285,9984.0
12210,0.403594970703125,-33.099491119384766,-475,9524.0,11.141082763671875,143,9984.0
12220,0.40379682183265686,-28.389135360717773,-400,9524.0,-6.787256240844727,-233,9984.0
12230,0.40384426712989807,-19.128612518310547,-293,9524.0,-22.28380584716797,-489,9984.0
12240,0.40439358353614807,-10.587271690368652,-108,9524.0,-32.31135559082031,-419,9984.0
12250,0.404798299074173,-8.373566627502441,-119,9524.0,-30.686798095703125,-547,9984.0
12260,0.4052148759365082,-9.10289192199707,-242,9524.0,-23.81770133972168,-261,9984.0
12270,0.4056711792945862,-13.7058744430542,-180,9524.0,-9.886852264404297,-97,9984.0
12280,0.40497905015945435,-16.218738555908203,-318,9524.0,-0.21599619090557098,-32,9984.0
12290,0.40540245175361633,-15.790504455566406,-220,9524.0,9.885008811950684,303,9984.0
12300,0.40581005811691284,-7.95602560043335,-8,9524.0,19.700817108154297,352,9984.0
12310,0.40655410289764404,6.1160454750061035,115,9524.0,27.885602951049805,364,9984.0
12320,0.40643802285194397,18.239803314208984,386,9524.0,25.255727767944336,478,9984.0
12330,0.406867653131485,23.732269287109375,415,9524.0,22.13689613342285,321,9984.0
12340,0.40711885690689087,22.70816421508789,309,9524.0,13.774507522583008,221,9984.0
12350,0.40748536586761475,14.930301666259766,256,9524.0,7.109423637390137,126,9984.0
12360,0.4070468544960022,7.100436210632324,80,9524.0,-4.591954708099365,-230,9984.0
12370,0.40708231925964355,6.5643439292907715,45,9524.0,-19.448238372802734,-321,9984.0
12380,0.4070747196674347,17.786056518554688,428,9524.0,-28.814233779907227,-534,9984.0
12390,0.40696588158607483,37.84211349487305,635,9524.0,-32.5123291015625,-515,9984.0
12400,0.4067847728729248,49.36201095581055,861,9524.0,-29.224775314331055,-405,9984.0
12410,0.4071282148361206,44.21747970581055,647,9524.0,-13.142095565795898,-151,9984.0
12420,0.4070083796977997,25.499691009521484,355,9524.0,5.891581058502197,160,9984.0
12430,0.4069574177265167,-3.7787091732025146,-221,9524.0,17.570846557617188,361,9984.0
12440,0.40719807147979736,-28.164546966552734,-536,9524.0,20.414756774902344,293,9984.0
12450,0.4075418710708618,-48.1766471862793,-858,9524.0,21.70091438293457,445,9984.0
12460,0.4077302813529968,-56.270084381103516,-908,9524.0,14.654922485351562,156,9984.0
12470,0.4079754948616028,-49.54539489746094,-789,9524.0,5.520318508148193,27,9984.0
12480,0.40849173069000244,-27.15896224975586,-262,9524.0,-4.094814777374268,-26,9984.0
12490,0.40861326456069946,-1.1125890016555786,40,9524.0,-16.828216552734375,-406,9984.0
12500,0.4075237512588501,11.546592712402344,197,9524.0,-24.964252471923828,-409,9984.0
12510,0.4078560471534729,16.570627212524414,270,9524.0,-24.78873062133789,-262,9984.0
12520,0.4080687463283539,4.128133773803711,-6,9524.0,-11.985109329223633,-229,9984.0
12530,0.40824204683303833,-8.501066207885742,-167,9524.0,3.053194761276245,233,9984.0
12540,0.406321257352829,-13.022167205810547,-182,9524.0,20.764949798583984,312,9984.0
12550,0.4064544141292572,-11.582621574401855,-241,9524.0,31.233070373535156,538,9984.0
12560,0.40670540928840637,-8.012839317321777,-27,9524.0,30.705333709716797,553,9984.0
12570,0.40685445070266724,1.8142884969711304,103,9524.0,27.007783889770508,364,9984.0
12580,0.40831878781318665,11.274197578430176,150,9524.0,16.627052307128906,82,9984.0
12590,0.40834856033325195,18.79899787902832,373,9524.0,0.19725607335567474,-38,9984.0
12600,0.40854817628860474,23.354055404663086,453,9524.0,-18.450300216674805,-296,9984.0
12610,0.4086507558822632,25.2972354888916,420,9524.0,-31.45270347595215,-666,9984.0
12620,0.4087149500846863,25.79385757446289,444,9524.0,-32.17795181274414,-355,9984.0
12630,0.40832194685935974,30.306171417236328,550,9524.0,-23.002580642700195,-391,9984.0
12640,0.40823349356651306,34.861446380615234,541,9524.0,-5.079548358917236,117,9984.0
12650,0.4085383415222168,38.892372131347656,693,9524.0,15.084856986999512,268,9984.0
12660,0.4084555208683014,44.39921188354492,730,9524.0,30.399160385131836,618,9984.0
12670,0.4081248939037323,43.14426040649414,645,9524.0,33.9080810546875,550,9984.0
12680,0.40795671939849854,27.6300048828125,325,9524.0,38.163490295410156,683,9984.0
12690,0.40803107619285583,6.343381404876709,-26,9524.0,32.81303024291992,414,9984.0
12700,0.4078103303909302,-21.349143981933594,-479,9524.0,18.547252655029297,223,9984.0
12710,0.4079839885234833,-50.47150421142578,-894,9524.0,-6.761361122131348,-328,9984.0
12720,0.4078325033187866,-75.73117065429688,-1300,9524.0,-33.85973358154297,-604,9984.0
12730,0.4077298045158386,-86.74207305908203,-1376,9524.0,-48.56196975708008,-786,9984.0
12740,0.4078119397163391,-86.2516860961914,-1404,9524.0,-51.32685089111328,-943,9984.0
12750,0.40775924921035767,-74.5115966796875,-1142,9524.0,-42.63711929321289,-565,9984.0
12760,0.4072461426258087,-58.63543701171875,-807,9524.0,-25.129026412963867,-321,9984.0
12770,0.4086887836456299,-35.1843376159668,-515,9524.0,-5.276087760925293,-117,9984.0
12780,0.4088066518306732,-12.079794883728027,-124,9524.0,4.67390251159668,172,9984.0
12790,0.4097890257835388,9.258133888244629,289,9524.0,15.194221496582031,345,9984.0
12800,0.4071354866027832,23.873706817626953,426,9524.0,20.053869247436523,235,9984.0
12810,0.4075654447078705,25.632837295532227,333,9524.0,23.232868194580078,397,9984.0
12820,0.40794774889945984,21.797414779663086,397,9524.0,25.029077529907227,527,9984.0
12830,0.4083130657672882,24.53105354309082,473,9524.0,26.984256744384766,445,9984.0
12840,0.40858426690101624,24.404645919799805,360,9524.0,24.57914924621582,241,9984.0
12850,0.4080579876899719,20.31395149230957,329,9524.0,15.888811111450195,227,9984.0
12860,0.40837010741233826,18.0675106048584,340,9524.0,-1.902130126953125,-87,9984.0
12870,0.4084615707397461,19.426612854003906,313,9524.0,-22.336599349975586,-568,9984.0
12880,0.40845635533332825,23.107213973999023,443,9524.0,-33.71529769897461,-436,9984.0
12890,0.408168226480484,30.677715301513672,582,9524.0,-26.65520668029785,-446,9984.0
12900,0.4081708490848541,33.82974624633789,487,9524.0,-16.035558700561523,-129,9984.0
12910,0.4080027937889099,31.433135986328125,555,9524.0,1.956107497215271,37,9984.0
12920,0.4077112078666687,20.82971954345703,165,9524.0,13.496967315673828,362,9984.0
12930,0.40768447518348694,1.8863075971603394,-68,9524.0,24.77163314819336,327,9984.0
12940,0.40733665227890015,-22.48125457763672,-501,9524.0,26.581668853759766,526,9984.0
12950,0.4074462950229645,-42.30130386352539,-732,9524.0,24.256000518798828,249,9984.0
12960,0.40745365619659424,-47.666385650634766,-737,9524.0,15.13964557647705,197,9984.0
12970,0.4076562821865082,-39.11420822143555,-629,9524.0,0.770208477973938,-113,9984.0
12980,0.40705394744873047,-25.945173263549805,-352,9524.0,-14.639643669128418,-267,9984.0
12990,0.407227098941803,-15.985868453979492,-170,9524.0,-25.199670791625977,-393,9984.0
13000,0.40734854340553284,-18.951204299926758,-378,9524.0,-24.890443801879883,-490,9984.0
13010,0.40758076310157776,-19.771581649780273,-294,9524.0,-23.61109161376953,-298,9984.0
13020,0.4067848324775696,-13.821249008178711,-102,9524.0,-16.30904769897461,-235,9984.0
13030,0.40696802735328674,-2.3981473445892334,-43,9524.0,-6.635693073272705,-200,9984.0
13040,0.40726861357688904,11.899365425109863,273,9524.0,-0.030685540288686752,166,9984.0
13050,0.40766263008117676,22.869417190551758,476,9524.0,15.477607727050781,281,9984.0
13060,0.40809404850006104,35.736595153808594,563,9524.0,28.770078659057617,454,9984.0
13070,0.4078591763973236,37.93064880371094,633,9524.0,32.63884735107422,650,9984.0
13080,0.4081108868122101,34.17113494873047,580,9524.0,28.88468360900879,405,9984.0
13090,0.40830159187316895,29.57331657409668,367,9524.0,16.537277221679688,193,9984.0
13100,0.4087948799133301,18.41362762451172,311,9524.0,-0.06306105107069016,58,9984.0
13110,0.4100647568702698,14.423133850097656,241,9524.0,-17.9661808013916,-398,9984.0
13120,0.4100745916366577,17.828479766845703,243,9524.0,-27.49812126159668,-408,9984.0
13130,0.41003960371017456,20.578214645385742,391,9524.0,-24.85741424560547,-337,9984.0
13140,0.4102751612663269,22.757369995117188,268,9524.0,-12.3143949508667,-113,9984.0
13150,0.41009241342544556,20.86181640625,399,9524.0,-0.08449730277061462,83,9984.0
13160,0.4098849892616272,16.17060661315918,96,9524.0,10.623271942138672,252,9984.0
13170,0.40975162386894226,4.844090938568115,89,9524.0,19.17117691040039,354,9984.0
13180,0.40961217880249023,-7.83702278137207,-294,9524.0,25.200366973876953,414,9984.0
13190,0.4095959961414337,-20.35672950744629,-337,9524.0,27.5109806060791,449,9984.0
13200,0.40882954001426697,-24.927913665771484,-432,9524.0,18.243017196655273,108,9984.0
13210,0.40878957509994507,-23.731922149658203,-332,9524.0,1.584886908531189,2,9984.0
13220,0.40888527035713196,-21.782163619995117,-270,9524.0,-19.850852966308594,-486,9984.0
13230,0.4089280664920807,-20.267295837402344,-404,9524.0,-36.38427734375,-677,9984.0
13240,0.4089031219482422,-25.848114013671875,-414,9524.0,-43.372013092041016,-657,9984.0
13250,0.4088986814022064,-39.561126708984375,-746,9524.0,-35.65109634399414,-587,9984.0
13260,0.408907949924469,-47.60983657836914,-791,9524.0,-22.348115921020508,-212,9984.0
13270,0.4091651737689972,-45.27720260620117,-687,9524.0,-5.554938793182373,-94,9984.0
13280,0.4093572497367859,-29.007137298583984,-459,9524.0,11.563165664672852,259,9984.0
13290,0.4085739552974701,-8.877561569213867,-19,9524.0,20.758277893066406,435,9984.0
13300,0.4087677001953125,10.703959465026855,212,9524.0,22.406543731689453,290,9984.0
13310,0.40905654430389404,27.002540588378906,454,9524.0,20.560434341430664,311,9984.0
13320,0.4092756509780884,36.35329818725586,675,9524.0,13.176631927490234,250,9984.0
13330,0.40892353653907776,34.6773796081543,616,9524.0,4.9355669021606445,16,9984.0
13340,0.409035861492157,25.023223876953125,257,9524.0,-0.49994978308677673,-43,9984.0
13350,0.4090755879878998,9.673521995544434,160,9524.0,-3.3331053256988525,57,9984.0
13360,0.4090327322483063,-3.8515262603759766,-191,9524.0,2.9748005867004395,-96,9984.0
13370,0.40892449021339417,-10.270889282226562,-169,9524.0,-1.1352767944335938,13,9984.0
13380,0.408714234828949,-3.1341090202331543,68,9524.0,-6.16575288772583,-171,9984.0
13390,0.4084802269935608,14.860861778259277,328,9524.0,-12.73199462890625,-294,9984.0
13400,0.40820810198783875,33.84780502319336,640,9524.0,-13.895512580871582,-95,9984.0
13410,0.40792372822761536,40.951637268066406,638,9524.0,-0.4632287621498108,9,9984.0
13420,0.40905818343162537,32.6397705078125,386,9524.0,14.034811973571777,379,9984.0
13430,0.40914079546928406,12.433954238891602,119,9524.0,22.87683868408203,313,9984.0
13440,0.408953458070755,-14.031254768371582,-370,9524.0,22.798227310180664,442,9984.0
13450,0.40877383947372437,-31.476030349731445,-505,9524.0,13.9718656539917,146,9984.0
13460,0.4072224199771881,-34.38760757446289,-618,9524.0,7.573718547821045,68,9984.0
13470,0.40706726908683777,-27.126710891723633,-359,9524.0,-0.39001455903053284,46,9984.0
13480,0.4069685935974121,-15.366042137145996,-212,9524.0,-8.893383979797363,-262,9984.0
13490,0.40704500675201416,-6.079293727874756,-70,9524.0,-11.527420043945312,-109,9984.0
13500,0.4071042835712433,-2.392622470855713,-57,9524.0,-6.904769420623779,-69,9984.0
13510,0.4075429439544678,-8.94966983795166,-214,9524.0,1.9674254655838013,-29,9984.0
13520,0.4077300429344177,-15.48115062713623,-278,9524.0,8.527240753173828,203,9984.0
13530,0.4079216420650482,-16.629518508911133,-144,9524.0,8.714461326599121,145,9984.0
13540,0.40805479884147644,-1.6968295574188232,8,9524.0,6.513619899749756,-32,9984.0
13550,0.40740346908569336,13.259759902954102,253,9524.0,6.17325496673584,174,9984.0
13560,0.4074648916721344,18.80548667907715,346,9524.0,8.10079574584961,185,9984.0
13570,0.40747466683387756,15.565469741821289,179,9524.0,2.808232307434082,-36,9984.0
13580,0.40745970606803894,7.667465686798096,34,9524.0,-1.7236484289169312,-57,9984.0
13590,0.4074346721172333,2.083371639251709,52,9524.0,-2.6749184131622314,71,9984.0
13600,0.40752431750297546,-3.151155471801758,-69,9524.0,-3.346869468688965,-100,9984.0
13610,0.4073387086391449,-3.908778667449951,-159,9524.0,-4.278620719909668,-44,9984.0
13620,0.40709367394447327,-5.560939311981201,-68,9524.0,-4.702714920043945,-150,9984.0
13630,0.40676864981651306,-1.4869261980056763,-28,9524.0,-6.125430583953857,-91,9984.0
13640,0.40740448236465454,9.916656494140625,266,9524.0,-9.204700469970703,-11,9984.0
13650,0.4069955050945282,20.116355895996094,355,9524.0,-8.45323371887207,-200,9984.0
13660,0.40651431679725647,24.573835372924805,348,9524.0,-6.387556552886963,-106,9984.0
13670,0.4060659110546112,17.84440803527832,271,9524.0,0.17543667554855347,133,9984.0
13680,0.40569189190864563,7.7157087326049805,-3,9524.0,9.928133964538574,172,9984.0
13690,0.40534549951553345,-9.295185089111328,-156,9524.0,19.19013786315918,380,9984.0
13700,0.40496522188186646,-20.99898338317871,-482,9524.0,21.400615692138672,293,9984.0
13710,0.4046955704689026,-29.82273292541504,-458,9524.0,14.624083518981934,293,9984.0
13720,0.4045870900154114,-29.88336753845215,-421,9524.0,1.51829195022583,-34,9984.0
13730,0.4042479991912842,-24.395700454711914,-404,9524.0,-14.536676406860352,-352,9984.0
13740,0.4042190909385681,-17.249588012695312,-201,9524.0,-26.000349044799805,-316,9984.0
13750,0.404218465089798,-13.459485054016113,-168,9524.0,-24.551332473754883,-414,9984.0
13760,0.4042888581752777,-10.38111400604248,-180,9524.0,-14.019478797912598,-200,9984.0
13770,0.4038349688053131,-5.525829315185547,-36,9524.0,-2.028519868850708,106,9984.0
13780,0.4039968252182007,6.1298980712890625,228,9524.0,9.126739501953125,125,9984.0
13790,0.40414103865623474,22.810606002807617,343,9524.0,16.110698699951172,239,9984.0
13800,0.40426427125930786,29.448341369628906,537,9524.0,13.690743446350098,368,9984.0
13810,0.4034312665462494,29.19573211669922,497,9524.0,12.025443077087402,105,9984.0
13820,0.4033313989639282,21.728912353515625,255,9524.0,12.110918998718262,224,9984.0
13830,0.40325286984443665,9.48569107055664,168,9524.0,9.675012588500977,230,9984.0
13840,0.4031747579574585,-0.39516884088516235,-39,9524.0,8.111124038696289,-61,9984.0
13850,0.40306276082992554,-5.834044933319092,-78,9524.0,-1.2190040349960327,14,9984.0
13860,0.40327033400535583,-4.334751129150391,-7,9524.0,-12.32508659362793,-247,9984.0
13870,0.40291786193847656,3.3901355266571045,75,9524.0,-21.485645294189453,-506,9984.0
13880,0.4025435149669647,18.19860076904297,375,9524.0,-20.52603530883789,-183,9984.0
13890,0.4021316170692444,32.14421844482422,600,9524.0,-7.418246269226074,-169,9984.0
13900,0.40185773372650146,38.345703125,603,9524.0,4.95973539352417,196,9984.0
13910,0.4015085995197296,30.335622787475586,470,9524.0,9.438592910766602,63,9984.0
13920,0.40129324793815613,12.215340614318848,5,9524.0,10.093514442443848,244,9984.0
13930,0.4010868966579437,-20.471553802490234,-356,9524.0,12.546348571777344,116,9984.0
13940,0.4010821282863617,-42.151939392089844,-860,9524.0,12.24830436706543,210,9984.0
13950,0.3997516334056854,-50.18047332763672,-727,9524.0,8.109045028686523,96,9984.0
13960,0.39973294734954834,-45.1483039855957,-722,9524.0,-0.4739309847354889,-163,9984.0
13970,0.3999703824520111,-28.34520149230957,-406,9524.0,-8.135639190673828,-100,9984.0
13980,0.4002552032470703,-10.084541320800781,13,9524.0,-4.3084235191345215,-14,9984.0
13990,0.40219995379447937,5.3480753898620605,107,9524.0,-0.5451094508171082,-79,9984.0
14000,0.40255799889564514,10.32518482208252,112,9524.0,-5.551383972167969,-107,9984.0
14010,0.40290361642837524,6.850658416748047,156,9524.0,-11.826125144958496,-145,9984.0
14020,0.4032856225967407,2.900604009628296,-91,9524.0,-15.031437873840332,-344,9984.0
14030,0.4034271836280823,-8.099587440490723,-174,9524.0,-8.470855712890625,-16,9984.0
14040,0.4037500321865082,-10.045965194702148,-64,9524.0,1.0868617296218872,30,9984.0
14050,0.40402358770370483,0.1520698517560959,3,9524.0,8.469677925109863,154,9984.0
14060,0.40425729751586914,5.697000026702881,141,9524.0,11.34782600402832,335,9984.0
14070,0.40443822741508484,7.0644073486328125,126,9524.0,17.857254028320312,218,9984.0
14080,0.40513747930526733,1.9933619499206543,-82,9524.0,18.87143898010254,341,9984.0
14090,0.4053272604942322,-2.518000364303589,-11,9524.0,9.256156921386719,151,9984.0
14100,0.40540847182273865,1.6073415279388428,67,9524.0,-3.2600390911102295,-182,9984.0
