timestamp,kalman.stateZ,gyro.x,gyro.xRaw,gyro.xVariance,gyro.y,gyro.yRaw,gyro.yVariance
0,0.3175278902053833,-1.6305782794952393,-27,9524.0,-7.935300827026367,-131,9984.0
10,0.3176025152206421,-0.8745514154434204,-6,9524.0,-8.296850204467773,-132,9984.0
20,0.31766703724861145,-0.15565137565135956,-7,9524.0,-7.864717960357666,-124,9984.0
30,0.31770390272140503,1.367891550064087,29,9524.0,-7.072500705718994,-109,9984.0
40,0.3173162341117859,2.691657304763794,52,9524.0,-5.355166912078857,-86,9984.0
50,0.31731852889060974,2.9512879848480225,50,9524.0,-3.6437325477600098,-53,9984.0
60,0.31735658645629883,2.6780707836151123,49,9524.0,-1.368354082107544,-8,9984.0
70,0.31737178564071655,2.0094664096832275,20,9524.0,1.1063252687454224,30,9984.0
80,0.31715160608291626,-0.269843727350235,-13,9524.0,3.851529598236084,82,9984.0
90,0.31717249751091003,-1.8730427026748657,-40,9524.0,6.835587024688721,123,9984.0
100,0.31718817353248596,-3.2161386013031006,-56,9524.0,9.160589218139648,157,9984.0
110,0.3171829581260681,-3.7360610961914062,-58,9524.0,10.970524787902832,186,9984.0
120,0.31720027327537537,-3.092045545578003,-45,9524.0,12.27767276763916,203,9984.0
130,0.3161122500896454,-1.7502961158752441,-18,9524.0,13.058531761169434,211,9984.0
140,0.3161853551864624,0.4983328580856323,21,9524.0,13.396296501159668,215,9984.0
150,0.3160915672779083,1.6177330017089844,37,9524.0,13.958253860473633,230,9984.0
160,0.3159641623497009,2.2296109199523926,33,9524.0,13.294392585754395,214,9984.0
170,0.316010057926178,1.096492886543274,12,9524.0,11.188643455505371,181,9984.0
180,0.3159123361110687,0.5851690769195557,18,9524.0,8.973298072814941,134,9984.0
190,0.3161730468273163,0.09294092655181885,-4,9524.0,-0.5671082735061646,-45,9984.0
200,0.31620705127716064,-0.49969303607940674,-4,9524.0,-14.004800796508789,-325,9984.0
210,0.3148970901966095,-0.298496276140213,47,9524.0,-30.406797409057617,-630,9984.0
220,0.3149872422218323,1.9643101692199707,86,9524.0,-53.1640510559082,-997,9984.0
230,0.31509822607040405,11.240106582641602,157,9524.0,-75.74353790283203,-1234,9984.0
240,0.31509318947792053,10.201971054077148,146,9524.0,-95.00088500976562,-1615,9984.0
250,0.31491929292678833,11.097429275512695,241,9524.0,-106.73786926269531,-1733,9984.0
260,0.31598496437072754,13.111898422241211,185,9524.0,-95.65092468261719,-1500,9984.0
270,0.31586939096450806,11.353321075439453,146,9524.0,-78.25822448730469,-1166,9984.0
280,0.31585267186164856,9.894777297973633,78,9524.0,-53.62968444824219,-589,9984.0
290,0.31641334295272827,6.229672908782959,-11,9524.0,-24.212060928344727,-226,9984.0
300,0.3192378282546997,0.6962960958480835,-12,9524.0,3.7601890563964844,21,9984.0
310,0.3198603689670563,-0.7060428261756897,27,9524.0,20.90736198425293,470,9984.0
320,0.32096490263938904,-0.11340389400720596,-71,9524.0,32.7225456237793,789,9984.0
330,0.3220119774341583,0.30805379152297974,-78,9524.0,38.72174072265625,826,9984.0
340,0.32280826568603516,0.5777077674865723,31,9524.0,41.31243896484375,668,9984.0
350,0.3241100311279297,7.180185794830322,272,9524.0,41.137107849121094,626,9984.0
360,0.3248799443244934,15.606922149658203,372,9524.0,33.8230094909668,464,9984.0
370,0.325754314661026,22.974523544311523,382,9524.0,18.690017700195312,96,9984.0
380,0.3262580633163452,24.313953399658203,397,9524.0,-7.349574089050293,-255,9984.0
390,0.32533565163612366,15.669402122497559,210,9524.0,-36.813209533691406,-832,9984.0
400,0.32537171244621277,5.9100446701049805,143,9524.0,-57.33651351928711,-1193,9984.0
410,0.3251207768917084,-7.589354991912842,-224,9524.0,-68.67428588867188,-1037,9984.0
420,0.32481878995895386,-22.83095932006836,-429,9524.0,-66.70606994628906,-902,9984.0
430,0.32662084698677063,-25.380264282226562,-477,9524.0,-50.404998779296875,-679,9984.0
440,0.32645705342292786,-18.707687377929688,-251,9524.0,-23.358524322509766,-172,9984.0
450,0.3268106281757355,-9.490340232849121,-207,9524.0,7.145514965057373,164,9984.0
460,0.3273588716983795,-6.796749591827393,-89,9524.0,26.73440933227539,480,9984.0
470,0.327266126871109,-1.3735729455947876,109,9524.0,36.39809036254883,579,9984.0
480,0.3291569650173187,7.788623809814453,145,9524.0,38.42195129394531,716,9984.0
490,0.32947537302970886,21.8530330657959,346,9524.0,42.10936737060547,699,9984.0
500,0.32978659868240356,24.552490234375,455,9524.0,36.74864196777344,494,9984.0
510,0.3300492465496063,21.941564559936523,283,9524.0,26.310373306274414,435,9984.0
520,0.32938694953918457,12.483845710754395,92,9524.0,8.388864517211914,98,9984.0
530,0.3298338055610657,-0.7870741486549377,15,9524.0,-8.368802070617676,-329,9984.0
540,0.33023306727409363,-16.114574432373047,-357,9524.0,-19.293195724487305,-235,9984.0
550,0.3307287096977234,-26.702041625976562,-502,9524.0,-23.035171508789062,-341,9984.0
560,0.33131903409957886,-35.66120147705078,-552,9524.0,-17.35801887512207,-413,9984.0
570,0.33296895027160645,-40.756107330322266,-677,9524.0,-10.287851333618164,-93,9984.0
580,0.3337901830673218,-41.25897216796875,-663,9524.0,-7.451282024383545,-44,9984.0
590,0.33437687158584595,-35.10789489746094,-500,9524.0,-9.744980812072754,-321,9984.0
600,0.3354529142379761,-19.56025505065918,-202,9524.0,-11.437567710876465,-102,9984.0
610,0.33693861961364746,-0.23002664744853973,52,9524.0,-11.51425552368164,-175,9984.0
620,0.3377426564693451,11.6908540725708,250,9524.0,-3.261894464492798,-70,9984.0
630,0.33824825286865234,24.90361213684082,456,9524.0,-0.25378507375717163,173,9984.0
640,0.33877894282341003,34.455509185791016,588,9524.0,3.5968003273010254,18,9984.0
650,0.3386784791946411,39.946598052978516,682,9524.0,4.536814212799072,-23,9984.0
660,0.3388356864452362,43.56002426147461,723,9524.0,1.3238348960876465,72,9984.0
670,0.33887240290641785,35.27748107910156,528,9524.0,-0.8442018032073975,57,9984.0
680,0.33873528242111206,21.58241844177246,247,9524.0,3.6628901958465576,151,9984.0
690,0.3385569751262665,9.00971508026123,84,9524.0,12.708292961120605,71,9984.0
700,0.3377818763256073,-4.148952960968018,-90,9524.0,20.60399627685547,225,9984.0
710,0.33736374974250793,-7.256443977355957,-133,9524.0,19.814165115356445,484,9984.0
720,0.3369668424129486,-8.71682357788086,-150,9524.0,22.597270965576172,483,9984.0
730,0.33661624789237976,-6.235363483428955,-68,9524.0,25.95858383178711,279,9984.0
740,0.33452028036117554,-2.1033239364624023,4,9524.0,23.189495086669922,359,9984.0
750,0.33399149775505066,3.6253015995025635,56,9524.0,12.854619026184082,299,9984.0
760,0.3335253596305847,0.7815422415733337,-43,9524.0,-2.3236019611358643,-115,9984.0
770,0.3331391215324402,-9.163654327392578,-190,9524.0,-16.769636154174805,-457,9984.0
780,0.332912802696228,-17.503570556640625,-280,9524.0,-29.91651725769043,-435,9984.0
790,0.33372461795806885,-25.00395393371582,-495,9524.0,-31.973920822143555,-425,9984.0
800,0.3333873152732849,-41.23986053466797,-729,9524.0,-20.64685821533203,-426,9984.0
810,0.3333020508289337,-54.89528274536133,-931,9524.0,-15.769798278808594,-156,9984.0
820,0.33298856019973755,-62.588905334472656,-981,9524.0,-11.86227798461914,-109,9984.0
830,0.3337530195713043,-53.96044921875,-748,9524.0,-7.061296463012695,-295,9984.0
840,0.33351191878318787,-20.3228702545166,-182,9524.0,-17.67984962463379,-258,9984.0
850,0.3343646228313446,21.026630401611328,631,9524.0,-28.76972770690918,-556,9984.0
860,0.33495453000068665,51.38306427001953,802,9524.0,-29.789615631103516,-467,9984.0
870,0.3363257348537445,66.11820983886719,1183,9524.0,-24.684019088745117,-360,9984.0
880,0.3365858197212219,65.58320617675781,1051,9524.0,-21.483213424682617,-215,9984.0
890,0.33692777156829834,54.67022705078125,787,9524.0,-13.979480743408203,-270,9984.0
900,0.33701279759407043,32.888648986816406,496,9524.0,-4.10186767578125,-26,9984.0
910,0.33724889159202576,5.594793319702148,-23,9524.0,6.838653564453125,193,9984.0
920,0.33919134736061096,-18.05438232421875,-413,9524.0,16.96976661682129,369,9984.0
930,0.3393454849720001,-32.018959045410156,-536,9524.0,23.920486450195312,256,9984.0
940,0.3395094573497772,-31.64556884765625,-413,9524.0,26.96927261352539,462,9984.0
950,0.3397367000579834,-17.412212371826172,-175,9524.0,25.987768173217773,512,9984.0
960,0.33961382508277893,5.248541831970215,221,9524.0,21.826467514038086,215,9984.0
970,0.33987972140312195,20.5513916015625,447,9524.0,12.100218772888184,129,9984.0
980,0.3400905728340149,31.896799087524414,459,9524.0,-0.2426651269197464,-1,9984.0
990,0.34029191732406616,27.302921295166016,433,9524.0,-11.476181983947754,-368,9984.0
1000,0.3404952585697174,12.889284133911133,230,9524.0,-22.49363136291504,-459,9984.0
1010,0.3389728367328644,-1.6876277923583984,-246,9524.0,-28.1209659576416,-364,9984.0
1020,0.3389526307582855,-25.163103103637695,-579,9524.0,-31.943174362182617,-476,9984.0
1030,0.3389132022857666,-37.736045837402344,-626,9524.0,-30.791589736938477,-573,9984.0
1040,0.3390512466430664,-40.01789855957031,-541,9524.0,-21.63803482055664,-345,9984.0
1050,0.33940911293029785,-30.702844619750977,-428,9524.0,-9.468308448791504,-96,9984.0
1060,0.3397235572338104,-16.083362579345703,-273,9524.0,6.8529052734375,410,9984.0
1070,0.3402250111103058,-6.717618465423584,-124,9524.0,26.753854751586914,537,9984.0
1080,0.340840607881546,-6.367213249206543,-64,9524.0,48.15497589111328,793,9984.0
1090,0.33965760469436646,-5.034486293792725,-2,9524.0,53.654258728027344,932,9984.0
1100,0.34020647406578064,-1.5643210411071777,-66,9524.0,44.175228118896484,616,9984.0
1110,0.3408893644809723,3.006842851638794,125,9524.0,31.98578453063965,504,9984.0
1120,0.34170636534690857,14.997130393981934,329,9524.0,18.06606674194336,228,9984.0
1130,0.3426406979560852,23.757217407226562,413,9524.0,5.488193988800049,-75,9984.0
1140,0.34015989303588867,26.947311401367188,458,9524.0,-17.105077743530273,-198,9984.0
1150,0.3409248888492584,25.64936637878418,420,9524.0,-31.903274536132812,-746,9984.0
1160,0.341536283493042,26.191198348999023,447,9524.0,-36.50965118408203,-572,9984.0
1170,0.34235888719558716,29.943185806274414,458,9524.0,-26.67479705810547,-213,9984.0
1180,0.34222611784935,21.310007095336914,264,9524.0,-12.53276252746582,-87,9984.0
1190,0.3430810570716858,13.782160758972168,231,9524.0,1.9082633256912231,-3,9984.0
1200,0.343893438577652,7.803491592407227,192,9524.0,17.266128540039062,197,9984.0
1210,0.3447651267051697,3.695655107498169,47,9524.0,29.06963539123535,586,9984.0
1220,0.3430287837982178,0.7135996222496033,-57,9524.0,40.26154327392578,784,9984.0
1230,0.3436790108680725,-6.68850564956665,-209,9524.0,44.73451232910156,874,9984.0
1240,0.344264417886734,-13.38266658782959,-271,9524.0,41.65782165527344,517,9984.0
1250,0.3449799418449402,-20.752779006958008,-342,9524.0,31.66362953186035,356,9984.0
1260,0.3455422818660736,-26.359954833984375,-446,9524.0,10.419281959533691,213,9984.0
1270,0.3418274521827698,-29.325817108154297,-503,9524.0,-11.045195579528809,-310,9984.0
1280,0.34211236238479614,-24.412418365478516,-368,9524.0,-32.3713493347168,-685,9984.0
1290,0.3422798812389374,-15.748478889465332,-144,9524.0,-48.373836517333984,-719,9984.0
1300,0.3429145812988281,-3.1165430545806885,-88,9524.0,-52.26839065551758,-836,9984.0
1310,0.34050241112709045,9.355667114257812,145,9524.0,-45.13930130004883,-773,9984.0
1320,0.3407130539417267,11.962440490722656,307,9524.0,-34.38347244262695,-523,9984.0
1330,0.341312974691391,8.627569198608398,127,9524.0,-20.155467987060547,-182,9984.0
1340,0.34195414185523987,-1.428214192390442,-153,9524.0,-0.4412904977798462,77,9984.0
1350,0.3423907160758972,-11.110228538513184,-272,9524.0,19.114593505859375,375,9984.0
1360,0.3398449718952179,-12.085638046264648,-162,9524.0,32.64434814453125,483,9984.0
1370,0.34005942940711975,-12.762385368347168,-113,9524.0,34.51255798339844,670,9984.0
1380,0.3404024839401245,-1.4485925436019897,14,9524.0,30.934188842773438,498,9984.0
1390,0.34068360924720764,12.981293678283691,240,9524.0,22.98691177368164,221,9984.0
1400,0.3389383852481842,19.50008201599121,311,9524.0,13.442172050476074,371,9984.0
1410,0.33887630701065063,16.336835861206055,257,9524.0,9.942885398864746,118,9984.0
1420,0.33873677253723145,11.70339298248291,184,9524.0,7.526533126831055,80,9984.0
1430,0.33863088488578796,6.142292022705078,-10,9524.0,0.08065132796764374,31,9984.0
1440,0.3379327058792114,3.1518938541412354,115,9524.0,-5.91102409362793,-132,9984.0
1450,0.3377968370914459,4.711538314819336,155,9524.0,-12.454972267150879,-287,9984.0
1460,0.33763647079467773,12.437694549560547,124,9524.0,-21.977319717407227,-426,9984.0
1470,0.33747076988220215,12.986420631408691,236,9524.0,-28.037303924560547,-472,9984.0
1480,0.3372923731803894,8.854768753051758,146,9524.0,-31.56345558166504,-400,9984.0
1490,0.33506500720977783,-0.8560349345207214,-77,9524.0,-32.50174331665039,-539,9984.0
1500,0.3349168300628662,-11.938714981079102,-280,9524.0,-28.702194213867188,-484,9984.0
1510,0.3349795937538147,-19.107812881469727,-306,9524.0,-21.751571655273438,-360,9984.0
1520,0.3350391983985901,-23.283153533935547,-313,9524.0,-13.084049224853516,-9,9984.0
1530,0.33691123127937317,-24.299718856811523,-385,9524.0,-0.20900991559028625,65,9984.0
1540,0.33750638365745544,-19.571043014526367,-383,9524.0,12.981261253356934,141,9984.0
1550,0.3382965922355652,-18.95278549194336,-250,9524.0,24.85858917236328,480,9984.0
1560,0.33907994627952576,-22.394649505615234,-379,9524.0,30.76236343383789,614,9984.0
1570,0.33995485305786133,-25.789405822753906,-429,9524.0,31.265193939208984,376,9984.0
1580,0.338959276676178,-17.15172004699707,-155,9524.0,25.53544807434082,417,9984.0
1590,0.3397088348865509,2.6800174713134766,104,9524.0,6.6100263595581055,-56,9984.0
1600,0.340789258480072,17.16130828857422,368,9524.0,-7.829904079437256,-192,9984.0
1610,0.34176215529441833,27.247621536254883,493,9524.0,-20.860795974731445,-381,9984.0
1620,0.3403482735157013,33.000099182128906,616,9524.0,-23.50853157043457,-483,9984.0
1630,0.34072145819664,40.13260269165039,711,9524.0,-20.48348045349121,-190,9984.0
1640,0.3410438001155853,46.51906204223633,689,9524.0,-15.50849723815918,-109,9984.0
1650,0.34090322256088257,40.421836853027344,673,9524.0,-4.354426383972168,-91,9984.0
1660,0.33970198035240173,29.262561798095703,461,9524.0,9.490970611572266,98,9984.0
1670,0.33980992436408997,15.014094352722168,126,9524.0,21.405588150024414,480,9984.0
1680,0.33970391750335693,-0.34531688690185547,-93,9524.0,29.440433502197266,610,9984.0
1690,0.339492529630661,-15.225217819213867,-351,9524.0,33.597381591796875,594,9984.0
1700,0.3392009437084198,-24.900266647338867,-326,9524.0,31.92572784423828,348,9984.0
1710,0.3367844223976135,-18.795209884643555,-226,9524.0,29.176328659057617,489,9984.0
1720,0.3363204896450043,-9.0604887008667,-205,9524.0,20.144868850708008,361,9984.0
1730,0.3359789550304413,-5.350772857666016,-7,9524.0,6.582423686981201,-79,9984.0
1740,0.3357648253440857,-3.6562044620513916,-44,9524.0,-9.552955627441406,-278,9984.0
1750,0.3350498378276825,-4.983366966247559,-64,9524.0,-25.443099975585938,-341,9984.0
1760,0.3350457549095154,-11.525321960449219,-289,9524.0,-34.182552337646484,-616,9984.0
1770,0.33513808250427246,-19.833911895751953,-379,9524.0,-33.59994125366211,-569,9984.0
1780,0.3353191316127777,-24.31919288635254,-302,9524.0,-26.722463607788086,-345,9984.0
1790,0.3355008661746979,-20.798067092895508,-312,9524.0,-11.041890144348145,-40,9984.0
1800,0.3349868655204773,-13.48388671875,-243,9524.0,12.90649700164795,155,9984.0
1810,0.33563265204429626,-8.364530563354492,-60,9524.0,29.911121368408203,579,9984.0
1820,0.33636772632598877,-5.950797080993652,-63,9524.0,43.050209045410156,820,9984.0
1830,0.33723482489585876,-0.3673577606678009,-49,9524.0,45.862632751464844,587,9984.0
1840,0.3367516100406647,10.547283172607422,290,9524.0,35.01610565185547,609,9984.0
1850,0.33768120408058167,20.680438995361328,340,9524.0,18.2512149810791,80,9984.0
1860,0.3384688198566437,25.494178771972656,438,9524.0,-0.794387936592102,-20,9984.0
1870,0.3392803966999054,22.191957473754883,359,9524.0,-10.961997032165527,-208,9984.0
1880,0.3384251594543457,13.5201997756958,196,9524.0,-19.708433151245117,-485,9984.0
1890,0.3388569951057434,2.08292818069458,-12,9524.0,-28.618589401245117,-393,9984.0
1900,0.3391430675983429,-7.060372352600098,-163,9524.0,-29.807559967041016,-453,9984.0
1910,0.33932632207870483,-11.165493965148926,-126,9524.0,-28.808046340942383,-612,9984.0
1920,0.3396211564540863,-10.719396591186523,-153,9524.0,-26.613210678100586,-372,9984.0
1930,0.3393288850784302,-2.064314365386963,-28,9524.0,-21.67608070373535,-252,9984.0
1940,0.33912748098373413,11.247912406921387,284,9524.0,-19.985700607299805,-478,9984.0
1950,0.3390182554721832,22.37995147705078,393,9524.0,-20.777324676513672,-377,9984.0
1960,0.3389345705509186,16.67778778076172,154,9524.0,-19.12743377685547,-103,9984.0
1970,0.33787503838539124,5.254527568817139,23,9524.0,-6.229403018951416,-9,9984.0
1980,0.3372833728790283,-8.285299301147461,-212,9524.0,0.9460158944129944,-31,9984.0
1990,0.33670225739479065,-25.133588790893555,-519,9524.0,2.6103134155273438,-11,9984.0
2000,0.33611470460891724,-37.264892578125,-592,9524.0,1.7730746269226074,33,9984.0
2010,0.3355228900909424,-36.4224739074707,-488,9524.0,1.5806289911270142,143,9984.0
2020,0.33549606800079346,-20.084678649902344,-328,9524.0,3.2145700454711914,83,9984.0
2030,0.33503836393356323,2.995143175125122,143,9524.0,7.737037658691406,123,9984.0
2040,0.33483514189720154,20.648406982421875,476,9524.0,12.459089279174805,279,9984.0
2050,0.3347929120063782,27.33843231201172,353,9524.0,19.565332412719727,435,9984.0
2060,0.3345818817615509,27.273086547851562,371,9524.0,25.58214569091797,402,9984.0
2070,0.33500996232032776,18.815092086791992,398,9524.0,19.026954650878906,195,9984.0
2080,0.3354574143886566,12.580327033996582,181,9524.0,7.786515712738037,114,9984.0
2090,0.33630916476249695,9.924544334411621,68,9524.0,-0.551222026348114,-82,9984.0
2100,0.3345530331134796,10.535995483398438,242,9524.0,-5.408792972564697,-122,9984.0
2110,0.3348848521709442,15.714594841003418,354,9524.0,-2.150265693664551,-48,9984.0
2120,0.3351133465766907,18.844181060791016,236,9524.0,5.685001373291016,266,9984.0
2130,0.3352797329425812,16.920974731445312,195,9524.0,20.877504348754883,426,9984.0
2140,0.3358611464500427,7.018435478210449,98,9524.0,31.0157470703125,564,9984.0
2150,0.33639955520629883,-4.993560314178467,-88,9524.0,34.509517669677734,339,9984.0
2160,0.3364371955394745,-15.688450813293457,-263,9524.0,26.29373550415039,428,9984.0
2170,0.3367793560028076,-21.131450653076172,-334,9524.0,13.107229232788086,219,9984.0
2180,0.33693253993988037,-16.740428924560547,-301,9524.0,-6.829226016998291,-268,9984.0
2190,0.33539870381355286,-10.010927200317383,-107,9524.0,-26.638479232788086,-490,9984.0
2200,0.33532458543777466,-2.012178421020508,93,9524.0,-40.69782638549805,-732,9984.0
2210,0.335061639547348,6.215377330780029,59,9524.0,-45.94282531738281,-586,9984.0
2220,0.3345720171928406,7.677121162414551,75,9524.0,-40.54169845581055,-613,9984.0
2230,0.3340671956539154,6.028525352478027,133,9524.0,-32.82190704345703,-560,9984.0
2240,0.33429524302482605,3.801084518432617,75,9524.0,-19.408416748046875,-373,9984.0
2250,0.3337823748588562,-3.5234906673431396,-142,9524.0,-8.782642364501953,-106,9984.0
2260,0.33332839608192444,-20.69322395324707,-400,9524.0,0.9152430891990662,91,9984.0
2270,0.3329198360443115,-33.323116302490234,-554,9524.0,6.633326530456543,288,9984.0
2280,0.3332637846469879,-32.076271057128906,-521,9524.0,11.811084747314453,201,9984.0
2290,0.33309102058410645,-19.38326644897461,-247,9524.0,10.446219444274902,113,9984.0
2300,0.3331078588962555,-1.73796808719635,112,9524.0,8.384459495544434,106,9984.0
2310,0.3332115709781647,7.548670291900635,171,9524.0,5.976727485656738,124,9984.0
2320,0.332460880279541,15.039824485778809,231,9524.0,5.66072416305542,4,9984.0
2330,0.33265092968940735,12.869965553283691,214,9524.0,8.186554908752441,173,9984.0
2340,0.33287176489830017,8.873419761657715,117,9524.0,9.053444862365723,269,9984.0
2350,0.33305877447128296,-2.798875331878662,-201,9524.0,7.450845718383789,91,9984.0
2360,0.3332124650478363,-21.91057586669922,-473,9524.0,5.933373928070068,-19,9984.0
2370,0.333320289850235,-33.328956604003906,-434,9524.0,1.9276074171066284,59,9984.0
2380,0.3333691954612732,-31.358013153076172,-449,9524.0,2.878533363342285,168,9984.0
2390,0.33335819840431213,-15.905570030212402,-296,9524.0,11.3059663772583,315,9984.0
2400,0.33339983224868774,-0.5394200682640076,164,9524.0,20.601234436035156,234,9984.0
2410,0.3343505859375,17.8617000579834,341,9524.0,22.881122589111328,485,9984.0
2420,0.3341706693172455,27.987102508544922,458,9524.0,25.487655639648438,430,9984.0
2430,0.3337908983230591,29.238569259643555,535,9524.0,21.667009353637695,227,9984.0
2440,0.3332817256450653,26.745859146118164,384,9524.0,6.47497034072876,103,9984.0
2450,0.3331531286239624,18.531238555908203,253,9524.0,-13.071107864379883,-284,9984.0
2460,0.33236268162727356,6.908457279205322,87,9524.0,-31.588016510009766,-723,9984.0
2470,0.3320026993751526,-4.390261650085449,-102,9524.0,-42.785587310791016,-594,9984.0
2480,0.3317048251628876,-14.089961051940918,-282,9524.0,-42.5965461730957,-561,9984.0
2490,0.33146634697914124,-19.495206832885742,-315,9524.0,-31.884666442871094,-616,9984.0
2500,0.3321533501148224,-12.25687313079834,-149,9524.0,-21.867143630981445,-382,9984.0
2510,0.3321341574192047,-3.6637797355651855,23,9524.0,-11.618783950805664,-41,9984.0
2520,0.33225017786026,4.9441962242126465,107,9524.0,-3.365873336791992,60,9984.0
2530,0.332317590713501,10.637635231018066,109,9524.0,2.621546506881714,-51,9984.0
2540,0.3334985375404358,12.018379211425781,191,9524.0,1.0892359018325806,-24,9984.0
2550,0.33366385102272034,12.872803688049316,321,9524.0,2.040574073791504,105,9984.0
2560,0.33400025963783264,11.414101600646973,175,9524.0,16.368244171142578,378,9984.0
2570,0.33431705832481384,6.78322696685791,-11,9524.0,31.946609497070312,670,9984.0
2580,0.3345188498497009,-1.4121233224868774,-99,9524.0,37.1671142578125,573,9984.0
2590,0.33468127250671387,-3.29746675491333,86,9524.0,32.42490768432617,415,9984.0
2600,0.33459872007369995,-6.348134517669678,-106,9524.0,27.384662628173828,417,9984.0
2610,0.3342263698577881,-13.850396156311035,-355,9524.0,23.084125518798828,481,9984.0
2620,0.33395957946777344,-19.535940170288086,-258,9524.0,18.527788162231445,130,9984.0
2630,0.3349228799343109,-15.97407341003418,-246,9524.0,7.564085960388184,149,9984.0
2640,0.33445999026298523,-7.4745330810546875,-126,9524.0,1.4874413013458252,8,9984.0
2650,0.33374181389808655,1.242404580116272,127,9524.0,-5.722570419311523,-202,9984.0
2660,0.3329421281814575,8.071371078491211,96,9524.0,-7.419209957122803,23,9984.0
2670,0.3321313261985779,10.017987251281738,161,9524.0,-8.205684661865234,-197,9984.0
2680,0.3324466347694397,5.770685195922852,97,9524.0,-13.19177532196045,-307,9984.0
2690,0.33171918988227844,-2.033055067062378,-128,9524.0,-19.96394920349121,-171,9984.0
2700,0.3310272693634033,-6.250370979309082,-124,9524.0,-24.19275665283203,-492,9984.0
2710,0.33048081398010254,-5.1560797691345215,-66,9524.0,-25.55779457092285,-482,9984.0
2720,0.3301911950111389,-0.9297845363616943,45,9524.0,-22.797924041748047,-155,9984.0
2730,0.3299071788787842,5.724598407745361,100,9524.0,-11.027498245239258,-64,9984.0
2740,0.3297989070415497,9.226482391357422,167,9524.0,4.561980724334717,-29,9984.0
2750,0.3299034833908081,10.075577735900879,173,9524.0,15.850555419921875,194,9984.0
2760,0.3312627971172333,11.164417266845703,187,9524.0,14.778008460998535,411,9984.0
2770,0.33149784803390503,7.913858413696289,81,9524.0,12.327463150024414,131,9984.0
2780,0.3317379653453827,9.051592826843262,159,9524.0,11.073780059814453,68,9984.0
2790,0.3320276737213135,9.975777626037598,196,9524.0,7.110934257507324,222,9984.0
2800,0.3323315680027008,6.157363414764404,38,9524.0,7.342257976531982,203,9984.0
2810,0.3347671329975128,5.138883113861084,55,9524.0,4.765717029571533,-114,9984.0
2820,0.33491331338882446,3.3653178215026855,133,9524.0,2.371035575866699,92,9984.0
2830,0.33504489064216614,-0.09621962904930115,-7,9524.0,-1.8531222343444824,-59,9984.0
2840,0.3348865211009979,-6.44956636428833,-178,9524.0,-3.1310176849365234,-131,9984.0
2850,0.33633166551589966,-7.5104660987854,-63,9524.0,-0.9683721661567688,-5,9984.0
2860,0.33594030141830444,-3.9581165313720703,-37,9524.0,0.5357457399368286,109,9984.0
2870,0.33537808060646057,-3.672773838043213,-131,9524.0,3.7992937564849854,16,9984.0
2880,0.33454278111457825,-3.8357419967651367,-27,9524.0,7.501799583435059,150,9984.0
2890,0.33355602622032166,-4.5315656661987305,-12,9524.0,6.078437328338623,109,9984.0
2900,0.33301717042922974,-7.9083476066589355,-261,9524.0,-2.2206661701202393,-168,9984.0
2910,0.3319229781627655,-15.888359069824219,-232,9524.0,-18.411155700683594,-416,9984.0
2920,0.33078333735466003,-20.483091354370117,-325,9524.0,-35.20207977294922,-623,9984.0
2930,0.3297497034072876,-19.92963218688965,-349,9524.0,-46.20414733886719,-823,9984.0
2940,0.3297019600868225,-16.0341739654541,-175,9524.0,-41.49074935913086,-548,9984.0
2950,0.3289456069469452,-6.7003960609436035,40,9524.0,-24.73362159729004,-198,9984.0
2960,0.3286937177181244,12.055946350097656,210,9524.0,-5.755454063415527,-45,9984.0
2970,0.3288460373878479,22.99070167541504,433,9524.0,14.282261848449707,299,9984.0
2980,0.33032917976379395,22.8465633392334,451,9524.0,27.160959243774414,521,9984.0
2990,0.33078905940055847,19.09906578063965,218,9524.0,27.455596923828125,466,9984.0
3000,0.33170801401138306,12.623696327209473,76,9524.0,18.64643669128418,122,9984.0
3010,0.33251315355300903,4.357538223266602,82,9524.0,1.0308083295822144,-126,9984.0
3020,0.333484411239624,-2.0011494159698486,5,9524.0,-10.631636619567871,-231,9984.0
3030,0.33515241742134094,-7.127969741821289,-253,9524.0,-4.180789947509766,56,9984.0
3040,0.33619728684425354,-13.671506881713867,-185,9524.0,9.836641311645508,272,9984.0
3050,0.33714738488197327,-17.0754451751709,-313,9524.0,13.495404243469238,116,9984.0
3060,0.3378901481628418,-14.37042236328125,-199,9524.0,16.00574493408203,244,9984.0
3070,0.3374391794204712,-6.667852401733398,22,9524.0,15.774656295776367,301,9984.0
3080,0.33756956458091736,2.581090211868286,-33,9524.0,15.488106727600098,340,9984.0
3090,0.33748042583465576,10.8310546875,202,9524.0,17.585508346557617,288,9984.0
3100,0.33714810013771057,15.90671157836914,364,9524.0,21.1878662109375,233,9984.0
3110,0.3365418016910553,17.392772674560547,210,9524.0,19.84033966064453,447,9984.0
3120,0.33636385202407837,13.886168479919434,189,9524.0,19.72759246826172,309,9984.0
3130,0.33551034331321716,6.192684650421143,35,9524.0,15.142945289611816,117,9984.0
3140,0.3345873951911926,-2.2773308753967285,-38,9524.0,8.10964298248291,171,9984.0
3150,0.33384037017822266,-9.600738525390625,-219,9524.0,-2.232389211654663,-68,9984.0
3160,0.3309851884841919,-11.995048522949219,-240,9524.0,-15.265487670898438,-430,9984.0
3170,0.3300420045852661,-16.218914031982422,-206,9524.0,-29.690427780151367,-486,9984.0
3180,0.32934194803237915,-18.450916290283203,-327,9524.0,-36.91610336303711,-611,9984.0
3190,0.3287033140659332,-16.045127868652344,-285,9524.0,-33.78479766845703,-569,9984.0
3200,0.3293871581554413,-8.410499572753906,30,9524.0,-24.59119987487793,-379,9984.0
3210,0.32976865768432617,2.9491002559661865,123,9524.0,-6.464506149291992,-92,9984.0
3220,0.3300878405570984,12.662374496459961,170,9524.0,11.107181549072266,296,9984.0
3230,0.3305838704109192,17.765230178833008,349,9524.0,21.072158813476562,296,9984.0
3240,0.3310638964176178,18.603954315185547,351,9524.0,22.038597106933594,287,9984.0
3250,0.331467866897583,18.02885627746582,217,9524.0,10.585811614990234,219,9984.0
3260,0.3321179151535034,9.188433647155762,112,9524.0,-4.700926780700684,-96,9984.0
3270,0.33285343647003174,-5.854320526123047,-114,9524.0,-7.248391628265381,-306,9984.0
3280,0.3335694372653961,-16.37750816345215,-303,9524.0,-5.209734916687012,-6,9984.0
3290,0.3336869478225708,-23.234970092773438,-397,9524.0,-1.189260721206665,118,9984.0
3300,0.3341406285762787,-25.894197463989258,-516,9524.0,-6.477054119110107,-228,9984.0
3310,0.33420267701148987,-23.65810203552246,-286,9524.0,-8.31777286529541,-80,9984.0
3320,0.33406561613082886,-13.509016036987305,-129,9524.0,-9.113241195678711,-149,9984.0
3330,0.33371251821517944,6.29709005355835,98,9524.0,-8.0570707321167,-85,9984.0
3340,0.3357495367527008,24.772953033447266,548,9524.0,-5.2913689613342285,-71,9984.0
3350,0.3350246846675873,33.75587844848633,572,9524.0,4.247987747192383,79,9984.0
3360,0.33410513401031494,32.88080596923828,451,9524.0,9.876498222351074,332,9984.0
3370,0.3336000442504883,22.23982810974121,352,9524.0,11.118294715881348,150,9984.0
3380,0.33354419469833374,8.616073608398438,94,9524.0,6.7194108963012695,-45,9984.0
3390,0.3324766159057617,-3.9502086639404297,-103,9524.0,0.02523580566048622,110,9984.0
3400,0.3313383162021637,-12.660137176513672,-284,9524.0,-7.431667804718018,-118,9984.0
3410,0.3302592635154724,-17.232194900512695,-239,9524.0,-15.736105918884277,-481,9984.0
3420,0.33035582304000854,-15.620847702026367,-243,9524.0,-25.107074737548828,-341,9984.0
3430,0.3294638395309448,-15.235733985900879,-185,9524.0,-28.250389099121094,-392,9984.0
3440,0.32886165380477905,-9.184894561767578,-162,9524.0,-27.558752059936523,-621,9984.0
3450,0.3286100924015045,-5.496771335601807,-21,9524.0,-21.5023136138916,-282,9984.0
3460,0.32887911796569824,-2.0447702407836914,42,9524.0,-10.61281967163086,-69,9984.0
3470,0.3312873840332031,1.5513042211532593,3,9524.0,-2.8572843074798584,57,9984.0
3480,0.33184269070625305,4.504326343536377,25,9524.0,-0.1920984536409378,-119,9984.0
3490,0.3326174020767212,8.678487777709961,228,9524.0,-0.4523351788520813,0,9984.0
3500,0.3334868252277374,4.581031799316406,105,9524.0,7.861844062805176,207,9984.0
3510,0.33520960807800293,-5.029019355773926,-238,9524.0,22.10283088684082,476,9984.0
3520,0.33641964197158813,-19.15103530883789,-412,9524.0,27.179447174072266,499,9984.0
3530,0.3374919295310974,-26.01403045654297,-341,9524.0,26.1456241607666,241,9984.0
3540,0.33846259117126465,-21.164331436157227,-294,9524.0,22.29749298095703,377,9984.0
3550,0.3392684757709503,-9.107434272766113,-38,9524.0,15.627105712890625,371,9984.0
3560,0.3397033214569092,5.234889984130859,128,9524.0,11.074135780334473,12,9984.0
3570,0.3401983380317688,13.920304298400879,347,9524.0,8.154165267944336,143,9984.0
3580,0.3405175805091858,19.268207550048828,305,9524.0,3.2117788791656494,157,9984.0
3590,0.3407840132713318,19.98653221130371,287,9524.0,6.090655326843262,88,9984.0
3600,0.3384780287742615,20.279895782470703,407,9524.0,13.40248966217041,184,9984.0
3610,0.33828258514404297,16.98625946044922,211,9524.0,19.573434829711914,429,9984.0
3620,0.33807694911956787,10.418584823608398,171,9524.0,23.049116134643555,433,9984.0
3630,0.3376205265522003,5.620748043060303,-40,9524.0,19.999996185302734,268,9984.0
3640,0.33523204922676086,-5.102503776550293,-73,9524.0,10.40051555633545,-10,9984.0
3650,0.334785133600235,-11.915749549865723,-171,9524.0,-7.246337890625,-189,9984.0
3660,0.3344687521457672,-10.839727401733398,-220,9524.0,-20.559175491333008,-237,9984.0
3670,0.33444538712501526,-4.1046037673950195,-30,9524.0,-25.095857620239258,-518,9984.0
3680,0.334609717130661,1.724537968635559,28,9524.0,-24.19064712524414,-383,9984.0
3690,0.3330494165420532,-1.57752525806427,20,9524.0,-19.482759475708008,-432,9984.0
3700,0.3334476053714752,-5.296469688415527,-90,9524.0,-14.754985809326172,-119,9984.0
3710,0.33396846055984497,-6.845980644226074,-90,9524.0,-10.905848503112793,-82,9984.0
3720,0.33469757437705994,-2.9640004634857178,-136,9524.0,-12.343173027038574,-270,9984.0
3730,0.3341943919658661,-1.4446632862091064,52,9524.0,-15.10030746459961,-264,9984.0
3740,0.33511611819267273,0.15647241473197937,60,9524.0,-8.034346580505371,-180,9984.0
3750,0.3361036479473114,4.189135551452637,125,9524.0,6.401067733764648,225,9984.0
3760,0.33694130182266235,14.90514850616455,319,9524.0,21.4320011138916,507,9984.0
3770,0.3376471698284149,21.262550354003906,210,9524.0,27.158992767333984,476,9984.0
3780,0.33841264247894287,13.532588005065918,233,9524.0,26.714160919189453,323,9984.0
3790,0.3391585648059845,-0.49143120646476746,-18,9524.0,22.35902214050293,218,9984.0
3800,0.3394102156162262,-9.122679710388184,-163,9524.0,11.073734283447266,235,9984.0
3810,0.33938854932785034,-16.980262756347656,-339,9524.0,3.831191062927246,36,9984.0
3820,0.3374425768852234,-16.431705474853516,-259,9524.0,-2.0720760822296143,-37,9984.0
3830,0.3372502028942108,-10.980283737182617,-81,9524.0,-4.663132190704346,-239,9984.0
3840,0.3369104862213135,-1.6983673572540283,31,9524.0,-9.95122241973877,-61,9984.0
3850,0.33657509088516235,3.7960848808288574,37,9524.0,-13.679524421691895,-201,9984.0
3860,0.33408471941947937,2.953962564468384,3,9524.0,-17.105859756469727,-323,9984.0
3870,0.3334823250770569,3.7070837020874023,161,9524.0,-23.73861312866211,-556,9984.0
3880,0.3329189419746399,6.385739803314209,97,9524.0,-33.534454345703125,-545,9984.0
3890,0.3325194716453552,5.8268866539001465,121,9524.0,-35.16435623168945,-468,9984.0
3900,0.33226603269577026,5.166040897369385,-39,9524.0,-33.37513732910156,-470,9984.0
3910,0.3324163854122162,-2.2000930309295654,-111,9524.0,-23.012422561645508,-306,9984.0
3920,0.33263128995895386,-8.150586128234863,-64,9524.0,-11.87023639678955,-276,9984.0
3930,0.3330892026424408,-9.784708023071289,-135,9524.0,-0.5539032220840454,-8,9984.0
3940,0.33381056785583496,-7.901793956756592,-105,9524.0,9.298725128173828,260,9984.0
3950,0.3340042233467102,-5.669495582580566,-128,9524.0,13.995414733886719,193,9984.0
3960,0.3349277079105377,-2.7926881313323975,-117,9524.0,6.217177867889404,155,9984.0
3970,0.3358363211154938,0.9272967576980591,15,9524.0,-1.322259783744812,-36,9984.0
3980,0.33678707480430603,2.392963171005249,30,9524.0,7.374241352081299,72,9984.0
3990,0.33774513006210327,2.444939374923706,127,9524.0,19.691242218017578,351,9984.0
4000,0.33701562881469727,5.24902868270874,48,9524.0,29.67082977294922,587,9984.0
4010,0.3376712501049042,5.058037281036377,137,9524.0,26.849451065063477,539,9984.0
4020,0.33805423974990845,6.659888744354248,18,9524.0,15.945880889892578,147,9984.0
4030,0.33850714564323425,0.8018506169319153,13,9524.0,5.03694486618042,36,9984.0
4040,0.3378731906414032,-8.85933780670166,-106,9524.0,-2.908447265625,-224,9984.0
4050,0.33756813406944275,-12.33278751373291,-211,9524.0,-5.744688510894775,-2,9984.0
4060,0.3370171785354614,-12.870100975036621,-225,9524.0,2.121196985244751,131,9984.0
4070,0.3363970220088959,-9.853306770324707,-232,9524.0,12.103534698486328,263,9984.0
4080,0.33546027541160583,-3.468182325363159,-2,9524.0,17.047109603881836,154,9984.0
4090,0.334782212972641,5.121563911437988,153,9524.0,11.723353385925293,204,9984.0
4100,0.33413538336753845,11.936600685119629,301,9524.0,6.4024858474731445,39,9984.0
4110,0.3334514796733856,17.372211456298828,201,9524.0,-2.885669469833374,18,9984.0
4120,0.3328527808189392,16.951921463012695,258,9524.0,-11.529467582702637,-313,9984.0
4130,0.33176189661026,5.986554145812988,49,9524.0,-17.053922653198242,-390,9984.0
4140,0.3315941393375397,-6.862843990325928,-147,9524.0,-17.568737030029297,-175,9984.0
4150,0.33163803815841675,-14.913784980773926,-272,9524.0,-12.334181785583496,-187,9984.0
4160,0.33231768012046814,-14.106513023376465,-298,9524.0,-7.571820259094238,-33,9984.0
4170,0.33184173703193665,-6.389424800872803,-6,9524.0,1.5562665462493896,77,9984.0
4180,0.3324357867240906,5.361420154571533,169,9524.0,9.374368667602539,22,9984.0
4190,0.3333077132701874,13.340551376342773,315,9524.0,14.646953582763672,314,9984.0
4200,0.33430224657058716,17.9243221282959,313,9524.0,16.94392967224121,344,9984.0
4210,0.3352538049221039,19.973358154296875,224,9524.0,15.153584480285645,315,9984.0
4220,0.3339138329029083,17.517139434814453,287,9524.0,9.358518600463867,100,9984.0
4230,0.3346392810344696,10.382672309875488,84,9524.0,5.798976421356201,-29,9984.0
4240,0.3353772759437561,-1.350557804107666,5,9524.0,12.150979995727539,221,9984.0
4250,0.3359164595603943,-9.750199317932129,-207,9524.0,20.517803192138672,350,9984.0
4260,0.3354223668575287,-16.51308822631836,-320,9524.0,14.79704761505127,330,9984.0
4270,0.33566153049468994,-18.222496032714844,-373,9524.0,4.1037397384643555,-9,9984.0
4280,0.33555737137794495,-19.06791114807129,-301,9524.0,-7.533414363861084,-162,9984.0
4290,0.3353758752346039,-18.47538185119629,-255,9524.0,-13.194684982299805,-315,9984.0
4300,0.33476749062538147,-17.713905334472656,-306,9524.0,-20.1547908782959,-246,9984.0
4310,0.33291956782341003,-4.382631301879883,19,9524.0,-30.792434692382812,-592,9984.0
4320,0.33183106780052185,13.914283752441406,351,9524.0,-29.907453536987305,-526,9984.0
4330,0.33074966073036194,21.894731521606445,457,9524.0,-18.134004592895508,-356,9984.0
4340,0.3297460973262787,24.221595764160156,387,9524.0,-10.838810920715332,-65,9984.0
4350,0.33088868856430054,9.3051176071167,23,9524.0,-7.287027359008789,-145,9984.0
4360,0.3301754295825958,-9.478665351867676,-318,9524.0,-5.386122226715088,0,9984.0
4370,0.32939061522483826,-21.893779754638672,-335,9524.0,-4.204233169555664,-128,9984.0
4380,0.328725129365921,-17.335081100463867,-216,9524.0,-8.139117240905762,-266,9984.0
4390,0.328855037689209,-5.531430721282959,-13,9524.0,-14.59080982208252,-143,9984.0
4400,0.32895344495773315,6.004845142364502,100,9524.0,-15.602757453918457,-183,9984.0
4410,0.32915768027305603,15.125118255615234,191,9524.0,-11.28218936920166,-159,9984.0
4420,0.32989978790283203,13.905482292175293,260,9524.0,1.0244086980819702,-105,9984.0
4430,0.33048611879348755,5.269886493682861,52,9524.0,8.123842239379883,126,9984.0
4440,0.33143967390060425,1.0195257663726807,70,9524.0,9.918886184692383,226,9984.0
4450,0.3323644995689392,-0.5481022596359253,-93,9524.0,11.874154090881348,261,9984.0
4460,0.3333013951778412,-4.626382827758789,-117,9524.0,13.920023918151855,259,9984.0
4470,0.3341289162635803,-4.887864112854004,-47,9524.0,8.557772636413574,-36,9984.0
4480,0.33646345138549805,-0.306369811296463,31,9524.0,2.418334484100342,30,9984.0
4490,0.33737844228744507,4.1754045486450195,160,9524.0,-6.793970108032227,-130,9984.0
4500,0.33824050426483154,16.328256607055664,223,9524.0,-9.569572448730469,-30,9984.0
4510,0.33898890018463135,24.778837203979492,441,9524.0,-9.674777030944824,-172,9984.0
4520,0.33873122930526733,33.183284759521484,504,9524.0,-4.012539863586426,-95,9984.0
4530,0.33901447057724,31.284841537475586,525,9524.0,2.8597214221954346,-93,9984.0
4540,0.3396194279193878,11.269728660583496,119,9524.0,10.70877456665039,141,9984.0
4550,0.33971288800239563,-12.766681671142578,-251,9524.0,16.899879455566406,265,9984.0
4560,0.339966356754303,-36.79831314086914,-604,9524.0,19.94666862487793,241,9984.0
4570,0.3396640717983246,-51.73128890991211,-939,9524.0,23.424015045166016,545,9984.0
4580,0.3392779231071472,-51.698184967041016,-812,9524.0,26.661113739013672,467,9984.0
4590,0.33842480182647705,-37.79229736328125,-535,9524.0,25.979557037353516,350,9984.0
4600,0.338848739862442,-14.103804588317871,4,9524.0,19.762468338012695,236,9984.0
4610,0.3367638885974884,15.134835243225098,345,9524.0,12.860466957092285,366,9984.0
4620,0.3370490074157715,34.341609954833984,550,9524.0,7.07813835144043,-23,9984.0
4630,0.3355277180671692,45.21188735961914,828,9524.0,0.03394603356719017,-39,9984.0
4640,0.33561381697654724,42.662437438964844,680,9524.0,-7.105625629425049,-199,9984.0
4650,0.3349912464618683,25.886812210083008,195,9524.0,-20.441055297851562,-206,9984.0
4660,0.3330114483833313,-4.062978744506836,-208,9524.0,-28.168773651123047,-519,9984.0
4670,0.33253365755081177,-32.55428695678711,-657,9524.0,-28.13794708251953,-525,9984.0
4680,0.33251839876174927,-44.97993469238281,-623,9524.0,-22.343515396118164,-367,9984.0
4690,0.33246514201164246,-35.730072021484375,-424,9524.0,-15.613774299621582,-295,9984.0
4700,0.3311736583709717,-13.486953735351562,-166,9524.0,-10.242563247680664,49,9984.0
4710,0.3313770294189453,6.902483940124512,197,9524.0,-1.4800623655319214,91,9984.0
4720,0.3320545256137848,24.225990295410156,407,9524.0,-1.8034254312515259,-163,9984.0
4730,0.33212536573410034,29.759950637817383,575,9524.0,-3.633312702178955,-139,9984.0
4740,0.3351118564605713,24.798715591430664,451,9524.0,-3.8516335487365723,-131,9984.0
4750,0.3351118564605713,17.609214782714844,216,9524.0,-6.751890659332275,-79,9984.0
4760,0.33612215518951416,10.493066787719727,195,9524.0,-2.839787006378174,74,9984.0
4770,0.33622533082962036,9.9059419631958,96,9524.0,6.7718353271484375,190,9984.0
4780,0.3366408944129944,5.585170269012451,-56,9524.0,14.28728199005127,396,9984.0
4790,0.33735191822052,-0.38024649024009705,-44,9524.0,21.558834075927734,500,9984.0
4800,0.3375546932220459,-5.1573286056518555,-175,9524.0,32.975765228271484,592,9984.0
4810,0.3377804756164551,-10.384064674377441,-162,9524.0,37.90260696411133,609,9984.0
4820,0.33752986788749695,-15.099860191345215,-259,9524.0,37.09040069580078,410,9984.0
4830,0.33686918020248413,-17.39902687072754,-194,9524.0,30.457155227661133,470,9984.0
4840,0.33601924777030945,-16.999277114868164,-318,9524.0,23.585777282714844,322,9984.0
4850,0.3354736566543579,-14.854684829711914,-266,9524.0,9.102133750915527,142,9984.0
4860,0.33439943194389343,-10.54940414428711,-180,9524.0,-5.975595474243164,-323,9984.0
4870,0.3333113193511963,0.3360845744609833,196,9524.0,-22.991697311401367,-442,9984.0
4880,0.33088958263397217,7.332079887390137,17,9524.0,-39.597354888916016,-710,9984.0
4890,0.32945626974105835,8.324323654174805,203,9524.0,-52.21550750732422,-1016,9984.0
4900,0.3279845714569092,5.886617660522461,83,9524.0,-60.80048370361328,-1028,9984.0
4910,0.32658651471138,2.249858856201172,-36,9524.0,-61.100040435791016,-800,9984.0
4920,0.32716259360313416,-1.3204537630081177,-23,9524.0,-50.25532913208008,-777,9984.0
4930,0.32608160376548767,-2.0804693698883057,-20,9524.0,-29.57208251953125,-450,9984.0
4940,0.32565951347351074,-3.390817403793335,-48,9524.0,-2.4308276176452637,110,9984.0
4950,0.3255791664123535,-5.770199775695801,-94,9524.0,23.359403610229492,583,9984.0
4960,0.32809847593307495,-8.85386848449707,-156,9524.0,39.23868179321289,716,9984.0
4970,0.32854244112968445,-10.484807014465332,-233,9524.0,40.13740921020508,541,9984.0
4980,0.32914599776268005,-11.401023864746094,-166,9524.0,32.86247634887695,357,9984.0
4990,0.33017438650131226,-9.052434921264648,-109,9524.0,17.744956970214844,304,9984.0
5000,0.33117085695266724,-1.6400820016860962,-13,9524.0,4.6145429611206055,172,9984.0
5010,0.3340359926223755,-2.893864393234253,-136,9524.0,-0.3835267424583435,-155,9984.0
5020,0.33499786257743835,-6.20324182510376,-25,9524.0,1.2022242546081543,39,9984.0
5030,0.3357887268066406,-7.935619831085205,-130,9524.0,3.630563259124756,74,9984.0
5040,0.33655107021331787,0.8187462091445923,29,9524.0,6.935767650604248,208,9984.0
5050,0.33827275037765503,11.17353343963623,212,9524.0,5.921098709106445,-10,9984.0
5060,0.33877524733543396,19.262832641601562,423,9524.0,3.3023781776428223,-2,9984.0
5070,0.33910104632377625,23.944101333618164,417,9524.0,2.133500337600708,54,9984.0
5080,0.33920425176620483,23.9644775390625,315,9524.0,5.783198356628418,277,9984.0
5090,0.33903768658638,19.10642433166504,282,9524.0,15.206910133361816,199,9984.0
5100,0.3383570909500122,12.39236831665039,160,9524.0,19.82659912109375,281,9984.0
5110,0.3378522992134094,-0.333732545375824,49,9524.0,16.681392669677734,232,9984.0
5120,0.33722493052482605,-13.13685417175293,-323,9524.0,7.587719440460205,170,9984.0
5130,0.33666932582855225,-23.809345245361328,-449,9524.0,-4.3230085372924805,-115,9984.0
5140,0.33527565002441406,-26.902875900268555,-450,9524.0,-16.660781860351562,-391,9984.0
5150,0.33462077379226685,-20.743316650390625,-186,9524.0,-23.483806610107422,-491,9984.0
5160,0.33395200967788696,-9.968050956726074,-163,9524.0,-22.797971725463867,-241,9984.0
5170,0.3336438834667206,1.7158771753311157,118,9524.0,-12.488353729248047,-79,9984.0
5180,0.3317312002182007,15.907896995544434,251,9524.0,1.8305190801620483,-59,9984.0
5190,0.3317587375640869,24.570560455322266,517,9524.0,13.636387825012207,258,9984.0
5200,0.3319513499736786,28.284334182739258,435,9524.0,22.567371368408203,350,9984.0
5210,0.3323482871055603,20.06868553161621,266,9524.0,19.09564781188965,394,9984.0
5220,0.33288317918777466,8.356019973754883,25,9524.0,6.80316686630249,63,9984.0
5230,0.331837922334671,-0.03996482491493225,-49,9524.0,-6.687713146209717,-147,9984.0
5240,0.3325015902519226,-10.892451286315918,-162,9524.0,-12.540797233581543,-363,9984.0
5250,0.3331732451915741,-14.325407028198242,-207,9524.0,-7.026084899902344,-79,9984.0
5260,0.3337835967540741,-15.519979476928711,-216,9524.0,-1.205069899559021,39,9984.0
5270,0.33419448137283325,-13.282934188842773,-324,9524.0,-3.5858161449432373,66,9984.0
5280,0.3346363306045532,-15.655301094055176,-274,9524.0,1.1240952014923096,121,9984.0
5290,0.334999144077301,-12.986296653747559,-222,9524.0,0.9299882054328918,-46,9984.0
5300,0.3350468575954437,-3.6698362827301025,81,9524.0,-0.6891751885414124,-168,9984.0
5310,0.33488479256629944,5.746540546417236,154,9524.0,-1.485642433166504,65,9984.0
5320,0.33512625098228455,13.391377449035645,336,9524.0,3.675539970397949,138,9984.0
5330,0.33467453718185425,19.506546020507812,196,9524.0,8.494329452514648,225,9984.0
5340,0.3340705931186676,12.253896713256836,189,9524.0,15.876587867736816,180,9984.0
5350,0.3333013653755188,9.979581832885742,145,9524.0,16.57420539855957,234,9984.0
5360,0.3322385549545288,7.6232075691223145,183,9524.0,10.834419250488281,106,9984.0
5370,0.331655353307724,2.2764499187469482,-26,9524.0,0.26910069584846497,134,9984.0
5380,0.33108100295066833,0.3486506938934326,-21,9524.0,-12.937870025634766,-280,9984.0
5390,0.3308121860027313,1.4603044986724854,-65,9524.0,-28.02182388305664,-562,9984.0
5400,0.3306504189968109,1.2894980907440186,103,9524.0,-38.10028839111328,-798,9984.0
5410,0.33046358823776245,-4.74569034576416,-132,9524.0,-42.299617767333984,-672,9984.0
5420,0.3305133581161499,-14.850805282592773,-209,9524.0,-39.779537200927734,-591,9984.0
5430,0.33074626326560974,-21.773752212524414,-424,9524.0,-36.11052322387695,-559,9984.0
5440,0.3314114212989807,-23.358379364013672,-419,9524.0,-32.554622650146484,-363,9984.0
5450,0.3324640691280365,-17.642574310302734,-235,9524.0,-30.586748123168945,-532,9984.0
5460,0.33336928486824036,-2.2237472534179688,56,9524.0,-27.035123825073242,-454,9984.0
5470,0.33449652791023254,9.311640739440918,246,9524.0,-15.623318672180176,-275,9984.0
5480,0.33561739325523376,11.8243408203125,171,9524.0,0.20953711867332458,36,9984.0
5490,0.33987706899642944,8.189480781555176,210,9524.0,16.917848587036133,260,9984.0
5500,0.34112441539764404,1.8415125608444214,8,9524.0,23.964326858520508,359,9984.0
5510,0.34216222167015076,-1.7247637510299683,-38,9524.0,34.82599639892578,581,9984.0
5520,0.3430231809616089,-8.282567977905273,-146,9524.0,41.35018539428711,666,9984.0
5530,0.34360432624816895,-12.627274513244629,-117,9524.0,47.894474029541016,831,9984.0
5540,0.3442870080471039,-7.065065860748291,-112,9524.0,47.01288986206055,824,9984.0
5550,0.3442706763744354,-1.1009552478790283,13,9524.0,49.17205810546875,855,9984.0
5560,0.3443160057067871,5.758321762084961,61,9524.0,51.08308792114258,776,9984.0
5570,0.34448549151420593,10.827767372131348,279,9524.0,40.8711051940918,421,9984.0
5580,0.3413001298904419,11.94592571258545,216,9524.0,25.240943908691406,438,9984.0
5590,0.3407386541366577,10.790745735168457,173,9524.0,5.211277961730957,29,9984.0
5600,0.3400193750858307,7.234177589416504,45,9524.0,-15.524703979492188,-463,9984.0
5610,0.3391853868961334,0.7352555394172668,-9,9524.0,-33.42414855957031,-640,9984.0
5620,0.3375188410282135,-8.141008377075195,-154,9524.0,-42.40534591674805,-853,9984.0
5630,0.33660686016082764,-10.106922149658203,-73,9524.0,-52.78710174560547,-844,9984.0
5640,0.3357526957988739,-9.6563720703125,-239,9524.0,-46.17399215698242,-599,9984.0
5650,0.33545786142349243,-6.66423225402832,-100,9524.0,-31.573177337646484,-401,9984.0
5660,0.335584819316864,0.9174593091011047,20,9524.0,-11.836078643798828,-263,9984.0
5670,0.33604565262794495,13.05327033996582,289,9524.0,5.9731903076171875,213,9984.0
5680,0.33620330691337585,19.652557373046875,437,9524.0,25.755760192871094,345,9984.0
5690,0.33654019236564636,19.09320640563965,286,9524.0,31.1370906829834,552,9984.0
5700,0.33693820238113403,13.723271369934082,193,9524.0,23.119365692138672,388,9984.0
5710,0.33920425176620483,5.8712310791015625,9,9524.0,14.671348571777344,208,9984.0
5720,0.34006816148757935,1.8353394269943237,69,9524.0,13.611164093017578,174,9984.0
5730,0.3408711850643158,1.5928754806518555,82,9524.0,25.454885482788086,296,9984.0
5740,0.3415051996707916,3.1572306156158447,119,9524.0,26.843799591064453,509,9984.0
5750,0.3422588109970093,-0.8240655660629272,-69,9524.0,22.193931579589844,332,9984.0
5760,0.3459056615829468,-6.153556823730469,-96,9524.0,10.359392166137695,146,9984.0
5770,0.3465089201927185,-16.246973037719727,-420,9524.0,-2.9209444522857666,-158,9984.0
5780,0.3469218909740448,-26.15659523010254,-408,9524.0,-18.050647735595703,-469,9984.0
5790,0.34686610102653503,-26.670997619628906,-365,9524.0,-27.053386688232422,-408,9984.0
5800,0.3472607731819153,-13.685295104980469,-223,9524.0,-29.53826332092285,-445,9984.0
5810,0.34697383642196655,-0.05267215520143509,18,9524.0,-26.640010833740234,-269,9984.0
5820,0.34623298048973083,12.975916862487793,138,9524.0,-25.0942440032959,-406,9984.0
5830,0.34524884819984436,16.18075180053711,313,9524.0,-25.224035263061523,-545,9984.0
5840,0.3459756374359131,17.129638671875,269,9524.0,-30.825847625732422,-587,9984.0
5850,0.3447866141796112,14.320859909057617,354,9524.0,-40.93508529663086,-803,9984.0
5860,0.3435481786727905,7.829007148742676,80,9524.0,-41.386192321777344,-706,9984.0
5870,0.3422034978866577,1.0081957578659058,-6,9524.0,-31.729263305664062,-373,9984.0
5880,0.3409058749675751,-5.926013946533203,-117,9524.0,-8.465765953063965,-34,9984.0
5890,0.34506261348724365,-11.958901405334473,-313,9524.0,12.96097183227539,373,9984.0
5900,0.3440972864627838,-18.233665466308594,-341,9524.0,31.516141891479492,657,9984.0
5910,0.34359848499298096,-21.653457641601562,-419,9524.0,38.9008903503418,691,9984.0
5920,0.3431117534637451,-18.875032424926758,-291,9524.0,35.001243591308594,480,9984.0
5930,0.3459293842315674,-7.4046735763549805,-33,9524.0,22.68125343322754,134,9984.0
5940,0.346187561750412,2.548933506011963,100,9524.0,1.8425986766815186,117,9984.0
5950,0.34671491384506226,4.645445823669434,3,9524.0,-2.1181576251983643,-7,9984.0
5960,0.3474482595920563,2.006493330001831,32,9524.0,6.844860076904297,152,9984.0
5970,0.34821856021881104,5.54476261138916,134,9524.0,15.228462219238281,188,9984.0
5980,0.3495694100856781,7.202599048614502,197,9524.0,19.69232749938965,329,9984.0
5990,0.35015869140625,5.798003673553467,39,9524.0,16.67007064819336,318,9984.0
6000,0.35051098465919495,3.004345655441284,95,9524.0,7.000649929046631,133,9984.0
6010,0.35062381625175476,5.881098747253418,58,9524.0,-0.6508088707923889,-221,9984.0
6020,0.3506348431110382,7.802330017089844,234,9524.0,-6.974308490753174,-204,9984.0
6030,0.3500231206417084,6.745251178741455,117,9524.0,-7.758208751678467,-105,9984.0
6040,0.34907427430152893,3.3416216373443604,112,9524.0,-7.56754207611084,-80,9984.0
6050,0.3481057286262512,1.6748145818710327,-72,9524.0,-7.10630989074707,-91,9984.0
6060,0.3473834991455078,-0.3304993510246277,17,9524.0,0.5309045910835266,31,9984.0
6070,0.34625816345214844,-2.1563875675201416,-19,9524.0,9.01949405670166,87,9984.0
6080,0.34503448009490967,0.5761451721191406,108,9524.0,14.646750450134277,290,9984.0
6090,0.34368228912353516,5.759237289428711,106,9524.0,18.218185424804688,308,9984.0
6100,0.34241095185279846,13.72452163696289,212,9524.0,14.22216796875,280,9984.0
6110,0.3419334292411804,10.477020263671875,164,9524.0,10.019469261169434,-58,9984.0
6120,0.3408975899219513,4.170305252075195,56,9524.0,1.9347022771835327,17,9984.0
6130,0.34028488397598267,-5.927223205566406,-141,9524.0,-11.294012069702148,-225,9984.0
6140,0.3396843373775482,-14.774479866027832,-368,9524.0,-24.154491424560547,-351,9984.0
6150,0.33929821848869324,-18.92014503479004,-275,9524.0,-29.453277587890625,-586,9984.0
6160,0.3390541076660156,-15.41500186920166,-224,9524.0,-29.31490135192871,-514,9984.0
6170,0.3391137719154358,-10.021662712097168,-37,9524.0,-26.2545223236084,-360,9984.0
6180,0.3392397463321686,-3.731261730194092,-65,9524.0,-25.93365478515625,-362,9984.0
6190,0.3397497832775116,5.829240798950195,124,9524.0,-29.708988189697266,-480,9984.0
6200,0.3410612940788269,10.693039894104004,176,9524.0,-28.74768829345703,-523,9984.0
6210,0.34163516759872437,9.974150657653809,191,9524.0,-12.44214916229248,-97,9984.0
6220,0.3423055112361908,4.8550310134887695,51,9524.0,-1.4874012470245361,-16,9984.0
6230,0.34302809834480286,-2.678419351577759,-94,9524.0,4.726047515869141,90,9984.0
6240,0.3458121120929718,-2.8524534702301025,-44,9524.0,4.863395690917969,32,9984.0
6250,0.34634461998939514,-2.1582696437835693,-47,9524.0,3.2202954292297363,75,9984.0
6260,0.34685778617858887,0.6170001029968262,73,9524.0,8.329048156738281,95,9984.0
6270,0.34726613759994507,1.0619069337844849,-11,9524.0,12.153639793395996,185,9984.0
6280,0.34846800565719604,-0.1720990389585495,32,9524.0,12.748213768005371,159,9984.0
6290,0.3485525846481323,-7.959264278411865,-146,9524.0,17.079044342041016,329,9984.0
6300,0.3485625386238098,-18.773221969604492,-262,9524.0,18.252187728881836,263,9984.0
6310,0.3485867977142334,-3.034050941467285,23,9524.0,14.153440475463867,316,9984.0
6320,0.34836867451667786,9.121295928955078,73,9524.0,8.09688663482666,197,9984.0
6330,0.3487302362918854,12.388494491577148,255,9524.0,0.9509854912757874,-157,9984.0
6340,0.34807583689689636,15.267655372619629,263,9524.0,-8.561525344848633,-205,9984.0
6350,0.34714221954345703,19.531801223754883,399,9524.0,-20.446393966674805,-411,9984.0
6360,0.34589892625808716,14.024199485778809,181,9524.0,-23.391637802124023,-236,9984.0
6370,0.3459062874317169,6.721981525421143,37,9524.0,-18.960630416870117,-298,9984.0
6380,0.3443673253059387,1.550934076309204,-46,9524.0,-10.718345642089844,-110,9984.0
6390,0.342954158782959,-0.4635051190853119,1,9524.0,-1.4603185653686523,0,9984.0
6400,0.34144726395606995,-1.8200767040252686,-43,9524.0,4.137823581695557,9,9984.0
6410,0.3411448001861572,-9.339191436767578,-113,9524.0,13.030447006225586,275,9984.0
6420,0.33992043137550354,-8.413244247436523,-149,9524.0,11.741252899169922,205,9984.0
6430,0.33883756399154663,-11.437742233276367,-252,9524.0,11.94821834564209,206,9984.0
6440,0.33786776661872864,-13.597153663635254,-222,9524.0,6.112088680267334,12,9984.0
6450,0.33702701330184937,-10.860692977905273,-95,9524.0,2.91924786567688,-23,9984.0
6460,0.33618390560150146,0.19291488826274872,69,9524.0,5.748168468475342,269,9984.0
6470,0.33565762639045715,10.302133560180664,125,9524.0,20.008800506591797,417,9984.0
6480,0.33509865403175354,14.013751983642578,223,9524.0,32.28778839111328,563,9984.0
6490,0.334522008895874,10.978630065917969,272,9524.0,37.2732048034668,527,9984.0
6500,0.3335264325141907,10.258665084838867,84,9524.0,35.18174362182617,638,9984.0
6510,0.3326769471168518,4.158346176147461,87,9524.0,26.29766845703125,373,9984.0
6520,0.33187663555145264,-3.8672895431518555,-129,9524.0,17.821914672851562,159,9984.0
6530,0.330621600151062,-11.401928901672363,-145,9524.0,13.428546905517578,341,9984.0
6540,0.329349547624588,-15.075255393981934,-344,9524.0,13.163717269897461,175,9984.0
6550,0.32812589406967163,-15.02242374420166,-195,9524.0,10.11133861541748,136,9984.0
6560,0.3269228935241699,-9.235101699829102,-92,9524.0,3.263972282409668,42,9984.0
6570,0.32558682560920715,-0.3004341721534729,-22,9524.0,-3.4315760135650635,-98,9984.0
6580,0.32433927059173584,9.480527877807617,300,9524.0,-8.99931812286377,-245,9984.0
6590,0.32539719343185425,18.709196090698242,244,9524.0,-19.63213348388672,-219,9984.0
6600,0.32443997263908386,22.328048706054688,379,9524.0,-28.080711364746094,-520,9984.0
6610,0.32354414463043213,17.987688064575195,294,9524.0,-32.436485290527344,-612,9984.0
6620,0.3226855397224426,12.536375045776367,183,9524.0,-29.543441772460938,-293,9984.0
6630,0.3237946033477783,8.516797065734863,119,9524.0,-19.844491958618164,-268,9984.0
6640,0.32307055592536926,0.8268823623657227,-94,9524.0,-11.117463111877441,-198,9984.0
6650,0.32242241501808167,-4.472936630249023,-58,9524.0,-4.090372085571289,-41,9984.0
6660,0.32172808051109314,-3.5283172130584717,67,9524.0,1.8196109533309937,-19,9984.0
6670,0.32105255126953125,-1.19576096534729,10,9524.0,2.0627670288085938,22,9984.0
6680,0.3250535726547241,3.678314208984375,14,9524.0,-3.0853188037872314,19,9984.0
6690,0.3246895670890808,1.5222861766815186,-19,9524.0,-6.311739444732666,-129,9984.0
6700,0.3242606222629547,-6.893355846405029,-148,9524.0,-3.9791929721832275,-189,9984.0
6710,0.32373863458633423,-12.580100059509277,-156,9524.0,-0.9119343161582947,27,9984.0
6720,0.32622310519218445,-14.19192123413086,-181,9524.0,-2.648721933364868,44,9984.0
6730,0.3257657587528229,-7.213683128356934,-256,9524.0,-0.3702720105648041,-30,9984.0
6740,0.32513540983200073,-7.575204372406006,-70,9524.0,3.121346950531006,32,9984.0
6750,0.3242610991001129,-3.9344143867492676,8,9524.0,4.386857509613037,66,9984.0
6760,0.3230884075164795,-0.6067039370536804,-75,9524.0,1.9936033487319946,103,9984.0
6770,0.32318612933158875,0.684313952922821,7,9524.0,-0.365745484828949,-26,9984.0
6780,0.32159286737442017,-0.8615819215774536,16,9524.0,-4.2284135818481445,-182,9984.0
6790,0.31980469822883606,0.4363197386264801,77,9524.0,-5.1674346923828125,32,9984.0
6800,0.3178609013557434,10.815001487731934,189,9524.0,1.7436707019805908,157,9984.0
6810,0.31757816672325134,14.173591613769531,163,9524.0,13.407050132751465,161,9984.0
6820,0.31545406579971313,5.948531627655029,91,9524.0,22.76964569091797,431,9984.0
6830,0.31324851512908936,-3.478070020675659,-67,9524.0,27.553884506225586,554,9984.0
6840,0.3110576570034027,-9.31719970703125,-222,9524.0,26.364845275878906,209,9984.0
6850,0.3088495135307312,-11.56566333770752,-113,9524.0,15.286303520202637,332,9984.0
6860,0.3066713213920593,-6.602307319641113,-141,9524.0,3.262847661972046,-144,9984.0
6870,0.3045662045478821,-5.520660400390625,-78,9524.0,-14.574065208435059,-339,9984.0
6880,0.30269649624824524,-5.326105117797852,-109,9524.0,-32.38566589355469,-579,9984.0
6890,0.30079761147499084,-8.754916191101074,-98,9524.0,-41.88621520996094,-793,9984.0
6900,0.2993444502353668,-10.207342147827148,-212,9524.0,-43.48781204223633,-569,9984.0
6910,0.29771310091018677,-6.228830337524414,-47,9524.0,-33.8271484375,-515,9984.0
6920,0.2969568371772766,0.5798813104629517,30,9524.0,-20.348520278930664,-406,9984.0
6930,0.2964326739311218,6.883397579193115,183,9524.0,-8.406500816345215,-31,9984.0
6940,0.2972051501274109,7.231388568878174,94,9524.0,8.537616729736328,310,9984.0
6950,0.2970096468925476,-4.934619903564453,-120,9524.0,26.99842643737793,344,9984.0
6960,0.2972779870033264,-16.93733024597168,-356,9524.0,39.47296142578125,710,9984.0
6970,0.2974553406238556,-32.15310287475586,-571,9524.0,40.55191421508789,725,9984.0
6980,0.2982335686683655,-34.050987243652344,-423,9524.0,31.178913116455078,379,9984.0
6990,0.29761096835136414,-22.37246322631836,-403,9524.0,26.848918914794922,507,9984.0
7000,0.298317015171051,0.468421995639801,257,9524.0,31.163284301757812,468,9984.0
7010,0.29932573437690735,24.4093074798584,405,9524.0,31.38922882080078,558,9984.0
7020,0.2999868392944336,42.962890625,824,9524.0,26.577354431152344,328,9984.0
7030,0.2992212176322937,51.76223373413086,847,9524.0,18.643260955810547,296,9984.0
7040,0.29959747195243835,50.43891525268555,797,9524.0,8.004767417907715,75,9984.0
7050,0.2997274696826935,42.361942291259766,687,9524.0,2.6063337326049805,-69,9984.0
7060,0.299615740776062,29.494504928588867,386,9524.0,-0.4850357472896576,175,9984.0
7070,0.29926836490631104,10.7805757522583,77,9524.0,0.9490785002708435,-50,9984.0
7080,0.29916247725486755,-5.757275104522705,-170,9524.0,4.729302406311035,-12,9984.0
7090,0.2988755404949188,-15.628053665161133,-182,9524.0,0.9518750309944153,-13,9984.0
7100,0.2985156178474426,-17.353851318359375,-304,9524.0,-5.005832672119141,-64,9984.0
7110,0.2983137369155884,-16.249114990234375,-285,9524.0,-11.416708946228027,-175,9984.0
7120,0.29649463295936584,-8.441731452941895,-18,9524.0,-15.881616592407227,-451,9984.0
7130,0.2957240641117096,0.23694364726543427,46,9524.0,-20.433406829833984,-275,9984.0
7140,0.2947651743888855,6.796456813812256,174,9524.0,-21.871734619140625,-286,9984.0
7150,0.2940583825111389,7.1826252937316895,16,9524.0,-22.4448299407959,-358,9984.0
7160,0.29191523790359497,3.229915142059326,-13,9524.0,-20.320755004882812,-327,9984.0
7170,0.29108619689941406,-2.791287660598755,69,9524.0,-16.321762084960938,-330,9984.0
7180,0.29013514518737793,-4.9716010093688965,-4,9524.0,-13.602458000183105,-276,9984.0
7190,0.2893317639827728,-3.387547492980957,-117,9524.0,-10.773174285888672,4,9984.0
7200,0.28921452164649963,-1.2352659702301025,-16,9524.0,-3.5509400367736816,71,9984.0
7210,0.2887655198574066,0.9477214813232422,26,9524.0,8.524767875671387,117,9984.0
7220,0.28833720088005066,-3.4031922817230225,-81,9524.0,24.727285385131836,410,9984.0
7230,0.28759586811065674,-9.622139930725098,-175,9524.0,40.27202224731445,746,9984.0
7240,0.2866848409175873,-18.088703155517578,-299,9524.0,47.0161247253418,797,9984.0
7250,0.2849074602127075,-25.83307647705078,-495,9524.0,38.29521942138672,451,9984.0
7260,0.2837207019329071,-30.33871841430664,-468,9524.0,22.430723190307617,425,9984.0
7270,0.2826797664165497,-27.454425811767578,-445,9524.0,12.706948280334473,55,9984.0
7280,0.28129705786705017,-19.594758987426758,-277,9524.0,2.8329179286956787,99,9984.0
7290,0.2774360179901123,-11.252378463745117,-136,9524.0,-4.218106746673584,-148,9984.0
7300,0.2758018374443054,-7.72604513168335,-102,9524.0,-11.152606010437012,-251,9984.0
7310,0.27413225173950195,-3.20064640045166,-41,9524.0,-14.217244148254395,-164,9984.0
7320,0.2725983262062073,9.449898719787598,304,9524.0,-12.390707969665527,-240,9984.0
7330,0.27104058861732483,22.09636116027832,295,9524.0,-8.57870864868164,-52,9984.0
7340,0.26837241649627686,29.65935707092285,599,9524.0,-3.657848834991455,-61,9984.0
7350,0.2663102447986603,32.30717468261719,510,9524.0,1.13454008102417,61,9984.0
7360,0.26458320021629333,29.79637908935547,405,9524.0,9.428545951843262,87,9984.0
7370,0.2625484764575958,21.673355102539062,426,9524.0,12.989460945129395,303,9984.0
7380,0.26082128286361694,13.408722877502441,112,9524.0,15.472506523132324,294,9984.0
7390,0.2592025101184845,1.9318324327468872,-7,9524.0,12.538165092468262,65,9984.0
7400,0.2576948404312134,-7.0608696937561035,-191,9524.0,8.008959770202637,204,9984.0
7410,0.2562423348426819,-12.561420440673828,-236,9524.0,4.062143802642822,10,9984.0
7420,0.25498202443122864,-14.114288330078125,-161,9524.0,-1.9975488185882568,-73,9984.0
7430,0.2537539601325989,-12.757989883422852,-289,9524.0,-10.325685501098633,-192,9984.0
7440,0.25255638360977173,-7.836137771606445,-34,9524.0,-15.59406852722168,-263,9984.0
7450,0.2513473927974701,-1.9150702953338623,27,9524.0,-18.147825241088867,-203,9984.0
7460,0.2503605782985687,3.0376627445220947,77,9524.0,-16.80611801147461,-429,9984.0
7470,0.24755893647670746,3.5374915599823,72,9524.0,-11.8938570022583,-128,9984.0
7480,0.24638105928897858,1.813878059387207,-21,9524.0,-7.062150955200195,-90,9984.0
7490,0.2454034835100174,-0.7292649149894714,62,9524.0,2.904017210006714,79,9984.0
7500,0.24444305896759033,-2.6968657970428467,42,9524.0,8.845094680786133,232,9984.0
7510,0.24314694106578827,4.595245838165283,77,9524.0,11.959896087646484,71,9984.0
7520,0.24183200299739838,8.279926300048828,159,9524.0,18.64549446105957,370,9984.0
7530,0.24065053462982178,11.66861629486084,141,9524.0,24.04180908203125,467,9984.0
7540,0.23921291530132294,15.037874221801758,349,9524.0,31.392902374267578,516,9984.0
7550,0.2377043068408966,13.59367561340332,185,9524.0,35.90812683105469,666,9984.0
7560,0.2391342967748642,5.158275604248047,-44,9524.0,35.64084243774414,679,9984.0
7570,0.23760201036930084,-7.294139862060547,-125,9524.0,31.567533493041992,428,9984.0
7580,0.23595474660396576,-19.944515228271484,-343,9524.0,21.429798126220703,337,9984.0
7590,0.23433703184127808,-26.75014877319336,-559,9524.0,7.0358357429504395,-25,9984.0
7600,0.2345743030309677,-29.19699478149414,-410,9524.0,-10.797142028808594,-118,9984.0
7610,0.2326849400997162,-26.505836486816406,-436,9524.0,-18.58833885192871,-426,9984.0
7620,0.23071885108947754,-21.641773223876953,-339,9524.0,-26.121219635009766,-463,9984.0
7630,0.22803997993469238,-17.394865036010742,-313,9524.0,-28.97728157043457,-400,9984.0
7640,0.22794827818870544,-14.011149406433105,-124,9524.0,-28.72140884399414,-575,9984.0
7650,0.22548988461494446,-9.166126251220703,-157,9524.0,-26.950990676879883,-363,9984.0
7660,0.22303754091262817,-3.3249855041503906,-17,9524.0,-21.530704498291016,-407,9984.0
7670,0.2228519320487976,5.284685134887695,124,9524.0,-7.697512149810791,82,9984.0
7680,0.22029425203800201,15.374676704406738,230,9524.0,8.864605903625488,184,9984.0
7690,0.22057926654815674,20.63129425048828,357,9524.0,20.893949508666992,500,9984.0
7700,0.21897679567337036,18.797273635864258,239,9524.0,29.790504455566406,497,9984.0
7710,0.21718351542949677,11.529699325561523,209,9524.0,32.09254455566406,601,9984.0
7720,0.21477298438549042,3.453519582748413,-10,9524.0,29.45705223083496,406,9984.0
7730,0.2185448706150055,-4.739789962768555,-57,9524.0,16.849748611450195,359,9984.0
7740,0.21703697741031647,-8.613842964172363,-159,9524.0,9.779556274414062,50,9984.0
7750,0.2157074213027954,-10.107451438903809,-181,9524.0,-0.7694304585456848,100,9984.0
7760,0.21394580602645874,-10.161497116088867,-97,9524.0,-6.789881706237793,-197,9984.0
7770,0.21221427619457245,-7.4502177238464355,-142,9524.0,-11.337774276733398,-78,9984.0
7780,0.21105413138866425,-3.3655145168304443,34,9524.0,-9.69775676727295,-162,9984.0
7790,0.21019402146339417,-2.515968084335327,-49,9524.0,1.5400846004486084,181,9984.0
7800,0.20978616178035736,-1.9306224584579468,-75,9524.0,16.4198055267334,303,9984.0
7810,0.20760886371135712,-4.673709392547607,-79,9524.0,25.43950653076172,586,9984.0
7820,0.2109898179769516,-7.876267433166504,-204,9524.0,31.81673812866211,514,9984.0
7830,0.2102717012166977,-9.02309513092041,-116,9524.0,32.80150604248047,696,9984.0
7840,0.20968660712242126,-9.721858978271484,-226,9524.0,26.991905212402344,350,9984.0
7850,0.20821014046669006,-4.573117733001709,-20,9524.0,18.119396209716797,445,9984.0
7860,0.20965920388698578,7.418259143829346,159,9524.0,15.653595924377441,223,9984.0
7870,0.20917244255542755,11.947600364685059,200,9524.0,13.954435348510742,349,9984.0
7880,0.20851735770702362,14.47377872467041,265,9524.0,16.71030616760254,233,9984.0
7890,0.20754946768283844,15.796984672546387,225,9524.0,19.58207893371582,442,9984.0
7900,0.2088623344898224,12.490189552307129,200,9524.0,23.557861328125,357,9984.0
7910,0.20831118524074554,9.944511413574219,157,9524.0,29.44144630432129,642,9984.0
7920,0.2078053206205368,8.315815925598145,78,9524.0,27.964397430419922,332,9984.0
7930,0.2073945254087448,6.240631103515625,134,9524.0,21.114376068115234,430,9984.0
7940,0.20740367472171783,5.3031463623046875,106,9524.0,12.460541725158691,96,9984.0
7950,0.20729516446590424,6.0341315269470215,148,9524.0,6.482295036315918,196,9984.0
7960,0.20708759129047394,9.64529800415039,97,9524.0,5.859468460083008,100,9984.0
7970,0.2060965746641159,10.006750106811523,213,9524.0,7.80354642868042,156,9984.0
7980,0.20728473365306854,8.125913619995117,66,9524.0,10.01109504699707,197,9984.0
7990,0.20670732855796814,3.382767915725708,129,9524.0,14.739497184753418,277,9984.0
8000,0.20698730647563934,-5.440145492553711,-172,9524.0,17.318389892578125,316,9984.0
8010,0.20716126263141632,-14.024097442626953,-203,9524.0,15.727117538452148,230,9984.0
8020,0.20751996338367462,-17.499794006347656,-275,9524.0,11.71279239654541,188,9984.0
8030,0.2076301872730255,-16.242271423339844,-153,9524.0,4.928792953491211,-63,9984.0
8040,0.20481984317302704,-11.596659660339355,-234,9524.0,-6.610886573791504,-80,9984.0
8050,0.2053229957818985,-4.346370697021484,29,9524.0,-14.307573318481445,-312,9984.0
8060,0.20544223487377167,3.616438627243042,3,9524.0,-20.707834243774414,-346,9984.0
8070,0.2056146264076233,9.314029693603516,158,9524.0,-22.091341018676758,-467,9984.0
8080,0.20325912535190582,11.051308631896973,199,9524.0,-21.952848434448242,-257,9984.0
8090,0.20321348309516907,11.315851211547852,178,9524.0,-19.58339500427246,-293,9984.0
8100,0.20321159064769745,10.6710786819458,246,9524.0,-13.93770694732666,-212,9984.0
8110,0.20314238965511322,10.999322891235352,166,9524.0,-7.100394248962402,53,9984.0
8120,0.20310361683368683,11.257251739501953,152,9524.0,-0.5685812830924988,-10,9984.0
8130,0.2020750194787979,5.420633792877197,69,9524.0,6.643100261688232,107,9984.0
8140,0.20210988819599152,-3.0248284339904785,-136,9524.0,6.92102575302124,173,9984.0
8150,0.201993927359581,-10.71473503112793,-166,9524.0,5.140407085418701,-65,9984.0
8160,0.2021181583404541,-14.652359008789062,-251,9524.0,-0.27984029054641724,4,9984.0
8170,0.20105402171611786,-13.646224021911621,-299,9524.0,-4.800075054168701,-192,9984.0
8180,0.20075082778930664,-14.140165328979492,-212,9524.0,-10.055965423583984,-203,9984.0
8190,0.20044606924057007,-13.80572509765625,-261,9524.0,-17.944923400878906,-341,9984.0
8200,0.19988781213760376,-14.289770126342773,-247,9524.0,-22.22422218322754,-493,9984.0
8210,0.1983216106891632,-11.478672981262207,-132,9524.0,-22.062091827392578,-326,9984.0
8220,0.19772405922412872,-4.060650825500488,-110,9524.0,-17.00688934326172,-276,9984.0
8230,0.19709903001785278,2.6917884349823,105,9524.0,-11.37052059173584,-194,9984.0
8240,0.19659142196178436,6.865409851074219,74,9524.0,-5.51950740814209,-50,9984.0
8250,0.1959579735994339,11.16209888458252,203,9524.0,-0.8842384219169617,-33,9984.0
8260,0.1939183473587036,10.67729377746582,182,9524.0,0.6733945608139038,135,9984.0
8270,0.19311411678791046,6.614792823791504,43,9524.0,3.33137845993042,19,9984.0
8280,0.19269469380378723,1.2459486722946167,57,9524.0,2.2876765727996826,74,9984.0
8290,0.19194206595420837,-4.296701908111572,-111,9524.0,3.02364444732666,114,9984.0
8300,0.1905299574136734,-7.008209705352783,-59,9524.0,-0.8386359810829163,-79,9984.0
8310,0.1900378316640854,-9.648067474365234,-197,9524.0,-2.3797502517700195,66,9984.0
8320,0.1892639845609665,-12.647307395935059,-186,9524.0,-5.33648681640625,-130,9984.0
8330,0.1884780377149582,-13.607721328735352,-198,9524.0,-8.145926475524902,-69,9984.0
8340,0.18643732368946075,-11.60843563079834,-226,9524.0,-9.26417064666748,-205,9984.0
8350,0.18590617179870605,-8.507058143615723,-70,9524.0,-9.600618362426758,-58,9984.0
8360,0.18618948757648468,-4.7184343338012695,-142,9524.0,-6.048279762268066,-125,9984.0
8370,0.18534931540489197,-0.979168713092804,76,9524.0,-3.519087076187134,-15,9984.0
8380,0.18565738201141357,0.2768705189228058,-48,9524.0,2.9268198013305664,147,9984.0
8390,0.18409381806850433,1.7205233573913574,134,9524.0,8.585264205932617,193,9984.0
8400,0.18377456068992615,3.1203081607818604,45,9524.0,16.165477752685547,309,9984.0
8410,0.18334510922431946,5.6952385902404785,172,9524.0,21.37210464477539,335,9984.0
8420,0.18263541162014008,7.652327060699463,93,9524.0,21.035375595092773,424,9984.0
8430,0.18102873861789703,5.824940204620361,128,9524.0,19.522579193115234,229,9984.0
8440,0.18072126805782318,4.7806572914123535,14,9524.0,16.496662139892578,347,9984.0
8450,0.18005725741386414,-2.5333645343780518,6,9524.0,11.635493278503418,111,9984.0
8460,0.17985524237155914,-5.753276824951172,-141,9524.0,6.519303798675537,179,9984.0
8470,0.17908510565757751,-9.29806900024414,-107,9524.0,3.464354991912842,-10,9984.0
8480,0.1788870096206665,-9.291912078857422,-168,9524.0,-2.8471601009368896,-18,9984.0
8490,0.1787736862897873,-11.5398588180542,-171,9524.0,-5.389603614807129,-111,9984.0
8500,0.17850950360298157,-13.128228187561035,-239,9524.0,-4.455139636993408,32,9984.0
8510,0.17836321890354156,-12.957560539245605,-197,9524.0,-3.0332415103912354,-178,9984.0
8520,0.17499667406082153,-10.229297637939453,-166,9524.0,-3.9324228763580322,75,9984.0
8530,0.17466729879379272,-8.791789054870605,-139,9524.0,1.0660998821258545,-42,9984.0
8540,0.1743457168340683,-7.345459938049316,-100,9524.0,4.486851215362549,146,9984.0
8550,0.17376166582107544,-3.417259454727173,-55,9524.0,8.504844665527344,101,9984.0
8560,0.17156781256198883,-0.9170666337013245,8,9524.0,8.899635314941406,263,9984.0
8570,0.17110753059387207,4.112552165985107,66,9524.0,7.169570446014404,9,9984.0
8580,0.17104919254779816,4.331240177154541,48,9524.0,5.9506072998046875,209,9984.0
8590,0.1707010716199875,5.4371256828308105,82,9524.0,5.4339776039123535,10,9984.0
8600,0.17093174159526825,4.137679100036621,84,9524.0,4.392355918884277,76,9984.0
8610,0.16705413162708282,1.6509321928024292,9,9524.0,2.7037534713745117,-81,9984.0
8620,0.16659578680992126,-2.849544048309326,-47,9524.0,0.2527737617492676,28,9984.0
8630,0.16590014100074768,-5.061705112457275,-91,9524.0,-2.7250728607177734,-214,9984.0
8640,0.1660415679216385,-7.421401500701904,-102,9524.0,-5.684162139892578,15,9984.0
8650,0.16254054009914398,-8.030905723571777,-135,9524.0,-4.732034206390381,-117,9984.0
8660,0.16262687742710114,-6.44336462020874,-90,9524.0,-3.809725761413574,26,9984.0
8670,0.16253751516342163,-5.673330307006836,-159,9524.0,-1.2979151010513306,-65,9984.0
8680,0.1624952256679535,-5.2854461669921875,-26,9524.0,-1.6270469427108765,107,9984.0
8690,0.16230922937393188,-0.9745970964431763,-49,9524.0,-1.6291236877441406,-123,9984.0
8700,0.1598803848028183,0.7079636454582214,54,9524.0,-1.1614354848861694,67,9984.0
8710,0.15972696244716644,5.012999534606934,84,9524.0,2.592599868774414,-12,9984.0
8720,0.15976324677467346,6.573835849761963,162,9524.0,5.965717792510986,146,9984.0
8730,0.15945693850517273,5.981739044189453,50,9524.0,9.642134666442871,18,9984.0
8740,0.15574689209461212,7.322049617767334,190,9524.0,9.797818183898926,260,9984.0
8750,0.15548591315746307,9.295713424682617,131,9524.0,8.449551582336426,28,9984.0
8760,0.1552075445652008,8.494048118591309,137,9524.0,6.444211006164551,174,9984.0
8770,0.15459951758384705,6.485339641571045,60,9524.0,3.9419875144958496,-27,9984.0
8780,0.15417681634426117,2.8011746406555176,53,9524.0,1.7543474435806274,106,9984.0
8790,0.15493223071098328,-0.9883918762207031,-58,9524.0,0.024964697659015656,-151,9984.0
8800,0.15458419919013977,-7.534267425537109,-109,9524.0,-1.7378648519515991,74,9984.0
8810,0.15509171783924103,-10.409496307373047,-182,9524.0,-1.4940656423568726,-130,9984.0
8820,0.1550210565328598,-11.693974494934082,-114,9524.0,-0.8778876066207886,10,9984.0
8830,0.15389513969421387,-10.0201997756958,-191,9524.0,0.9882692694664001,-6,9984.0
8840,0.1542402058839798,-5.8937273025512695,-36,9524.0,0.741577684879303,23,9984.0
8850,0.15417197346687317,-1.1356947422027588,29,9524.0,-0.4377362132072449,-14,9984.0
8860,0.15449140965938568,5.432790279388428,34,9524.0,-1.2821332216262817,6,9984.0
8870,0.15672679245471954,8.010688781738281,186,9524.0,-1.1348764896392822,-16,9984.0
8880,0.15782395005226135,10.048401832580566,132,9524.0,-3.078686475753784,-58,9984.0
8890,0.1583181619644165,10.643158912658691,197,9524.0,-1.9145944118499756,117,9984.0
8900,0.15946534276008606,7.8543524742126465,46,9524.0,1.619334101676941,62,9984.0
8910,0.1607343852519989,3.1114039421081543,49,9524.0,5.4154181480407715,199,9984.0
8920,0.16270074248313904,1.4498603343963623,21,9524.0,10.106417655944824,153,9984.0
8930,0.1637297123670578,1.0953755378723145,7,9524.0,12.890268325805664,313,9984.0
8940,0.16414761543273926,3.883058786392212,128,9524.0,16.777101516723633,248,9984.0
8950,0.16597406566143036,5.438567638397217,38,9524.0,21.160198211669922,292,9984.0
8960,0.16827088594436646,7.283039569854736,165,9524.0,18.936330795288086,374,9984.0
8970,0.1707511991262436,10.814384460449219,166,9524.0,19.202037811279297,215,9984.0
8980,0.17370501160621643,15.18006706237793,221,9524.0,14.276806831359863,306,9984.0
8990,0.17480780184268951,14.716663360595703,273,9524.0,8.488435745239258,54,9984.0
9000,0.17667368054389954,10.908829689025879,85,9524.0,4.701201438903809,39,9984.0
9010,0.17798972129821777,4.8065924644470215,123,9524.0,-2.5709447860717773,-58,9984.0
9020,0.179214745759964,0.6738855838775635,-55,9524.0,-5.344751834869385,-180,9984.0
9030,0.180568128824234,-2.0806572437286377,7,9524.0,-5.802089214324951,-96,9984.0
9040,0.18174077570438385,-4.569410800933838,-93,9524.0,-4.577934265136719,-146,9984.0
9050,0.18413040041923523,-3.4885177612304688,-5,9524.0,-4.016551971435547,44,9984.0
9060,0.18534860014915466,-1.3503999710083008,-31,9524.0,-2.220019578933716,-74,9984.0
9070,0.18642540276050568,0.8891598582267761,59,9524.0,-0.7444261908531189,99,9984.0
9080,0.1873364895582199,5.297474384307861,70,9524.0,2.4873387813568115,-58,9984.0
9090,0.19088642299175262,8.794892311096191,143,9524.0,1.2511345148086548,145,9984.0
9100,0.1937420517206192,10.369782447814941,164,9524.0,0.7636491060256958,-68,9984.0
9110,0.19572532176971436,13.419560432434082,225,9524.0,-1.3577847480773926,64,9984.0
9120,0.19696615636348724,9.618431091308594,172,9524.0,-0.4634026288986206,-163,9984.0
9130,0.19826821982860565,6.80340051651001,144,9524.0,-2.6226391792297363,-6,9984.0
9140,0.19516626000404358,2.371992588043213,-33,9524.0,-3.9740614891052246,-115,9984.0
9150,0.19611670076847076,-1.8181798458099365,-19,9524.0,-4.803107738494873,0,9984.0
9160,0.1970338225364685,-3.872542381286621,-153,9524.0,-2.919905424118042,-57,9984.0
9170,0.1979042887687683,-5.179746150970459,1,9524.0,-0.2935912609100342,-75,9984.0
9180,0.1954479217529297,-4.102291584014893,-135,9524.0,3.240719795227051,25,9984.0
9190,0.19597452878952026,-4.9530463218688965,18,9524.0,4.591794013977051,48,9984.0
9200,0.19661886990070343,-2.2858974933624268,-96,9524.0,4.752060413360596,165,9984.0
9210,0.197021946310997,-4.624051570892334,-54,9524.0,3.50289249420166,28,9984.0
9220,0.1972620040178299,-7.181026935577393,-184,9524.0,3.4565300941467285,47,9984.0
9230,0.19758307933807373,-6.039421558380127,-82,9524.0,2.2948813438415527,40,9984.0
9240,0.1978292465209961,-3.5594747066497803,-126,9524.0,0.8213403820991516,68,9984.0
9250,0.19819602370262146,-1.2467540502548218,62,9524.0,-2.8540117740631104,-51,9984.0
9260,0.19846823811531067,3.198756217956543,-18,9524.0,-7.065890789031982,-196,9984.0
9270,0.19871240854263306,7.543328285217285,138,9524.0,-12.032670974731445,-173,9984.0
9280,0.1989831030368805,5.792068958282471,16,9524.0,-16.060060501098633,-320,9984.0
9290,0.19894520938396454,3.244595766067505,74,9524.0,-15.703063011169434,-261,9984.0
9300,0.19881165027618408,1.1574150323867798,-35,9524.0,-12.355676651000977,-261,9984.0
9310,0.19839634001255035,-2.0199952125549316,22,9524.0,-8.897759437561035,-70,9984.0
9320,0.1982928067445755,-1.9737906455993652,-89,9524.0,-3.5451900959014893,-120,9984.0
9330,0.19827724993228912,-1.178029179573059,14,9524.0,4.355905532836914,176,9984.0
9340,0.19844141602516174,3.2779102325439453,48,9524.0,6.771814346313477,103,9984.0
9350,0.19850847125053406,5.917691230773926,148,9524.0,10.225543975830078,233,9984.0
9360,0.19853325188159943,8.347293853759766,121,9524.0,11.110651016235352,74,9984.0
9370,0.19861696660518646,9.06329345703125,209,9524.0,7.67664098739624,168,9984.0
9380,0.19879521429538727,10.865493774414062,115,9524.0,2.2018747329711914,-81,9984.0
9390,0.19964998960494995,6.7623467445373535,48,9524.0,-4.4236836433410645,-12,9984.0
9400,0.19961333274841309,2.043090343475342,-54,9524.0,-9.040604591369629,-233,9984.0
9410,0.20039775967597961,-2.869669198989868,-57,9524.0,-13.121343612670898,-146,9984.0
9420,0.20114989578723907,-6.391037940979004,-142,9524.0,-17.148069381713867,-391,9984.0
9430,0.20187239348888397,-9.369460105895996,-163,9524.0,-18.006916046142578,-132,9984.0
9440,0.20413154363632202,-10.790563583374023,-234,9524.0,-10.927543640136719,-240,9984.0
9450,0.20517690479755402,-12.56303596496582,-184,9524.0,-4.684697151184082,86,9984.0
9460,0.2063983976840973,-11.493577003479004,-217,9524.0,2.1780364513397217,-52,9984.0
9470,0.20694921910762787,-10.41193675994873,-126,9524.0,6.536808490753174,220,9984.0
9480,0.20851504802703857,-8.402485847473145,-119,9524.0,10.316465377807617,277,9984.0
9490,0.20836696028709412,-3.948925733566284,2,9524.0,14.210378646850586,263,9984.0
9500,0.20876121520996094,1.7877585887908936,27,9524.0,13.540075302124023,223,9984.0
9510,0.20968659222126007,5.50011682510376,175,9524.0,6.4398345947265625,49,9984.0
9520,0.2108234316110611,6.880711078643799,34,9524.0,1.905921459197998,-31,9984.0
9530,0.2119193971157074,2.593656063079834,107,9524.0,-3.060554027557373,-83,9984.0
9540,0.21296995878219604,-0.9455334544181824,-67,9524.0,-6.739304542541504,-117,9984.0
9550,0.21392519772052765,-2.4861154556274414,25,9524.0,-9.213288307189941,-144,9984.0
9560,0.2149176299571991,-5.658173561096191,-118,9524.0,-9.05443000793457,-133,9984.0
9570,0.2157869189977646,-4.458428382873535,-16,9524.0,-7.022585868835449,-209,9984.0
9580,0.2147100269794464,-4.955225944519043,-136,9524.0,-5.963091850280762,-76,9984.0
9590,0.2154088169336319,-2.3580849170684814,32,9524.0,-6.537362098693848,-131,9984.0
9600,0.21606115996837616,-2.413686752319336,-97,9524.0,-7.817759037017822,-74,9984.0
9610,0.21675074100494385,-2.587285280227661,69,9524.0,-6.242033004760742,-129,9984.0
9620,0.21676068007946014,-1.530868411064148,-36,9524.0,-0.620100736618042,9,9984.0
9630,0.2174755334854126,-2.387691020965576,-19,9524.0,4.385474681854248,41,9984.0
9640,0.21816419064998627,-2.705962657928467,-63,9524.0,4.452618598937988,110,9984.0
9650,0.21917563676834106,-2.9486114978790283,11,9524.0,5.819342613220215,1,9984.0
9660,0.22035130858421326,-6.316186428070068,-152,9524.0,6.641193389892578,134,9984.0
9670,0.22079148888587952,-9.129159927368164,-79,9524.0,7.129753589630127,91,9984.0
9680,0.22191956639289856,-11.133123397827148,-285,9524.0,6.574717998504639,28,9984.0
9690,0.2226475179195404,-15.13296127319336,-151,9524.0,8.177628517150879,216,9984.0
9700,0.22325806319713593,-12.031193733215332,-199,9524.0,8.493718147277832,4,9984.0
9710,0.2206384241580963,-7.31851863861084,-129,9524.0,3.215559720993042,106,9984.0
9720,0.2210923731327057,-1.1576223373413086,116,9524.0,-4.888113975524902,-140,9984.0
9730,0.2214890718460083,2.6890883445739746,-22,9524.0,-9.599555969238281,-280,9984.0
9740,0.22187000513076782,1.5842053890228271,66,9524.0,-9.55112361907959,-34,9984.0
9750,0.22542771697044373,4.588421821594238,114,9524.0,-7.156744003295898,-111,9984.0
9760,0.22592534124851227,7.134352684020996,115,9524.0,-2.2402255535125732,-83,9984.0
9770,0.2264205366373062,12.327021598815918,270,9524.0,-1.9308720827102661,80,9984.0
9780,0.22683657705783844,17.302780151367188,323,9524.0,1.7047139406204224,-3,9984.0
9790,0.2246912121772766,21.68423843383789,336,9524.0,7.5135722160339355,159,9984.0
9800,0.22507554292678833,19.858051300048828,350,9524.0,5.787301540374756,136,9984.0
9810,0.22542798519134521,17.377124786376953,241,9524.0,2.7402448654174805,-23,9984.0
9820,0.2257564812898636,13.226938247680664,187,9524.0,-3.484483480453491,-16,9984.0
9830,0.22641609609127045,8.797654151916504,176,9524.0,-8.1360502243042,-134,9984.0
9840,0.22799260914325714,2.4671788215637207,1,9524.0,-9.009812355041504,-203,9984.0
9850,0.2285718321800232,-0.39656874537467957,20,9524.0,-7.640504837036133,-89,9984.0
9860,0.22915306687355042,-1.3313803672790527,-36,9524.0,-5.79564094543457,-166,9984.0
9870,0.22976793348789215,-1.58797025680542,-35,9524.0,-5.484594345092773,-83,9984.0
9880,0.22946102917194366,-0.6186661720275879,34,9524.0,0.3573461174964905,68,9984.0
9890,0.23018652200698853,-2.3847484588623047,-108,9524.0,10.911951065063477,199,9984.0
9900,0.23117075860500336,-5.6735310554504395,-59,9524.0,21.68536376953125,480,9984.0
9910,0.2321624904870987,-7.77557897567749,-123,9524.0,29.967439651489258,485,9984.0
9920,0.23286275565624237,1.0699471235275269,23,9524.0,37.62939453125,642,9984.0
9930,0.23415562510490417,15.054081916809082,294,9524.0,36.280662536621094,729,9984.0
9940,0.23453956842422485,23.131101608276367,383,9524.0,25.061691284179688,257,9984.0
9950,0.23509547114372253,22.013938903808594,201,9524.0,6.837254047393799,15,9984.0
9960,0.23649266362190247,7.750826358795166,122,9524.0,-14.642463684082031,-241,9984.0
9970,0.23911215364933014,-7.669243812561035,-190,9524.0,-26.93589210510254,-545,9984.0
9980,0.24064096808433533,-21.11212158203125,-486,9524.0,-35.33423614501953,-565,9984.0
9990,0.24144548177719116,-29.810483932495117,-426,9524.0,-37.403297424316406,-534,9984.0
10000,0.24209755659103394,-28.635028839111328,-464,9524.0,-36.26924514770508,-697,9984.0
10010,0.24167023599147797,-20.779312133789062,-336,9524.0,-30.153955459594727,-326,9984.0
10020,0.24226145446300507,-10.147281646728516,-37,9524.0,-18.124019622802734,-209,9984.0
10030,0.24289993941783905,-0.9723071455955505,-11,9524.0,-2.6627867221832275,-78,9984.0
10040,0.24352331459522247,7.031351566314697,206,9524.0,7.935720443725586,272,9984.0
10050,0.24417102336883545,11.218969345092773,299,9524.0,10.615891456604004,157,9984.0
10060,0.24517612159252167,12.004385948181152,131,9524.0,7.289834976196289,-7,9984.0
10070,0.24599885940551758,8.404378890991211,186,9524.0,-0.3415749967098236,24,9984.0
10080,0.24668045341968536,6.557543754577637,140,9524.0,-8.530108451843262,-274,9984.0
10090,0.2476506531238556,1.3631960153579712,-59,9524.0,-17.34633445739746,-348,9984.0
10100,0.24751588702201843,-2.5419812202453613,-69,9524.0,-21.144847869873047,-259,9984.0
10110,0.24844877421855927,-4.622381210327148,-84,9524.0,-21.071840286254883,-370,9984.0
10120,0.2493787258863449,-8.786324501037598,-198,9524.0,-16.03842544555664,-157,9984.0
10130,0.2504273056983948,-15.038581848144531,-214,9524.0,-10.622509002685547,-196,9984.0
10140,0.25153034925460815,-22.74517822265625,-512,9524.0,-6.154775142669678,-33,9984.0
10150,0.25195208191871643,-26.923809051513672,-351,9524.0,5.513927936553955,97,9984.0
10160,0.25305888056755066,-18.011425018310547,-314,9524.0,19.579198837280273,305,9984.0
10170,0.2541902959346771,-6.151345729827881,-24,9524.0,29.67087745666504,620,9984.0
10180,0.25516918301582336,3.6979169845581055,117,9524.0,33.89388656616211,399,9984.0
10190,0.25378721952438354,14.68566608428955,199,9524.0,28.204729080200195,425,9984.0
10200,0.25470253825187683,23.673425674438477,454,9524.0,19.59473991394043,388,9984.0
10210,0.25555428862571716,25.143564224243164,405,9524.0,8.111194610595703,23,9984.0
10220,0.25654086470603943,22.889171600341797,251,9524.0,-8.790912628173828,-284,9984.0
10230,0.2571581304073334,14.89582347869873,180,9524.0,-25.317623138427734,-351,9984.0
10240,0.2580367922782898,5.523082256317139,28,9524.0,-29.909982681274414,-559,9984.0
10250,0.2587698698043823,-3.4676291942596436,-111,9524.0,-24.5212459564209,-318,9984.0
10260,0.25944337248802185,-6.552504062652588,-21,9524.0,-15.251688003540039,-280,9984.0
10270,0.26008743047714233,0.06667566299438477,-8,9524.0,-9.757318496704102,-208,9984.0
10280,0.2614840269088745,6.635254383087158,219,9524.0,-4.524321556091309,-13,9984.0
10290,0.2621822953224182,8.36845588684082,49,9524.0,0.3320927917957306,-59,9984.0
10300,0.26296427845954895,3.4633727073669434,87,9524.0,7.889437675476074,295,9984.0
10310,0.26386842131614685,-3.156606435775757,-74,9524.0,14.229337692260742,115,9984.0
10320,0.26547855138778687,-7.625951766967773,-155,9524.0,15.181549072265625,305,9984.0
10330,0.26632121205329895,-5.798344135284424,-38,9524.0,12.533014297485352,196,9984.0
10340,0.26722821593284607,-0.9346470832824707,-64,9524.0,9.674220085144043,102,9984.0
10350,0.26825007796287537,1.083221435546875,42,9524.0,6.589512825012207,200,9984.0
10360,0.2699742615222931,2.7360386848449707,23,9524.0,6.655595779418945,29,9984.0
10370,0.2712063193321228,1.4688299894332886,-82,9524.0,3.6809566020965576,125,9984.0
10380,0.2724458575248718,-6.1511735916137695,-56,9524.0,3.1823627948760986,80,9984.0
10390,0.27360793948173523,-9.718294143676758,-222,9524.0,4.300297260284424,5,9984.0
10400,0.2747507095336914,-13.235413551330566,-156,9524.0,7.633647441864014,295,9984.0
10410,0.2753789722919464,-4.6440935134887695,-68,9524.0,8.575936317443848,35,9984.0
10420,0.2763272225856781,5.720308780670166,145,9524.0,8.634062767028809,246,9984.0
10430,0.27703437209129333,14.767975807189941,365,9524.0,4.110469341278076,40,9984.0
10440,0.2777321934700012,20.274578094482422,281,9524.0,4.173207759857178,41,9984.0
10450,0.2800455093383789,21.481830596923828,370,9524.0,7.118783473968506,177,9984.0
10460,0.2813928723335266,16.456674575805664,233,9524.0,9.072492599487305,47,9984.0
10470,0.2820397615432739,3.090733528137207,5,9524.0,10.009050369262695,240,9984.0
10480,0.2827836573123932,-13.435845375061035,-227,9524.0,5.601997375488281,-11,9984.0
10490,0.2833552062511444,-26.106250762939453,-520,9524.0,-4.738476276397705,-110,9984.0
10500,0.2852064371109009,-27.806650161743164,-406,9524.0,-12.207427024841309,-174,9984.0
10510,0.28592002391815186,-21.735424041748047,-371,9524.0,-12.389140129089355,-347,9984.0
10520,0.2863090932369232,-13.320944786071777,-150,9524.0,-13.199671745300293,-171,9984.0
10530,0.28703799843788147,1.9431294202804565,191,9524.0,-20.953601837158203,-445,9984.0
10540,0.28850722312927246,18.69097328186035,290,9524.0,-29.047760009765625,-535,9984.0
10550,0.28975483775138855,25.63243865966797,455,9524.0,-34.052791595458984,-430,9984.0
10560,0.29081329703330994,23.15751838684082,364,9524.0,-34.79994201660156,-696,9984.0
10570,0.29183605313301086,16.599245071411133,259,9524.0,-36.06061935424805,-492,9984.0
10580,0.29297712445259094,12.11309814453125,193,9524.0,-30.58603286743164,-517,9984.0
10590,0.2940877377986908,6.078850269317627,25,9524.0,-6.967189788818359,163,9984.0
10600,0.2953513562679291,-2.938565731048584,-56,9524.0,29.977642059326172,506,9984.0
10610,0.29658421874046326,-5.514055252075195,-180,9524.0,47.30851364135742,919,9984.0
10620,0.298188179731369,-11.084644317626953,-156,9524.0,48.84373474121094,758,9984.0
10630,0.3006625473499298,-10.652409553527832,-206,9524.0,47.729515075683594,808,9984.0
10640,0.30210158228874207,-0.3763866722583771,76,9524.0,34.7752799987793,586,9984.0
10650,0.3037494421005249,10.500980377197266,324,9524.0,17.370460510253906,125,9984.0
10660,0.30496275424957275,26.41956901550293,427,9524.0,-2.8784492015838623,-86,9984.0
10670,0.3075200021266937,34.395511627197266,589,9524.0,-15.359228134155273,-198,9984.0
10680,0.3087990880012512,32.2791633605957,481,9524.0,-21.365507125854492,-446,9984.0
10690,0.309785395860672,23.292762756347656,286,9524.0,-21.987268447875977,-303,9984.0
10700,0.3115622401237488,11.492952346801758,120,9524.0,-24.489788055419922,-568,9984.0
10710,0.3125665485858917,-2.6983449459075928,-118,9524.0,-29.826129913330078,-427,9984.0
10720,0.312167763710022,-13.540851593017578,-244,9524.0,-29.93262481689453,-557,9984.0
10730,0.31336918473243713,-19.806737899780273,-308,9524.0,-28.928251266479492,-409,9984.0
10740,0.3144378066062927,-20.3918514251709,-377,9524.0,-28.11035919189453,-448,9984.0
10750,0.3155577480792999,-21.169633865356445,-285,9524.0,-21.858678817749023,-152,9984.0
10760,0.3143373131752014,-13.524483680725098,-234,9524.0,-7.005463123321533,-170,9984.0
10770,0.31525495648384094,-13.769879341125488,-226,9524.0,1.4658534526824951,148,9984.0
10780,0.31620892882347107,-13.731008529663086,-249,9524.0,3.657083034515381,0,9984.0
10790,0.3171171247959137,-16.827777862548828,-188,9524.0,4.537757873535156,36,9984.0
10800,0.31817346811294556,-12.857207298278809,-211,9524.0,-0.06731521338224411,-15,9984.0
10810,0.3152795135974884,-10.879923820495605,-116,9524.0,-4.74882173538208,-45,9984.0
10820,0.316069096326828,-13.633222579956055,-330,9524.0,0.22069723904132843,9,9984.0
10830,0.31710323691368103,-18.203340530395508,-244,9524.0,12.092179298400879,307,9984.0
10840,0.3183228075504303,-15.240792274475098,-301,9524.0,25.82773208618164,337,9984.0
10850,0.3174859881401062,-15.40392017364502,-205,9524.0,25.607776641845703,485,9984.0
10860,0.3181760609149933,-10.225225448608398,-90,9524.0,19.620746612548828,244,9984.0
10870,0.31882810592651367,-3.6047048568725586,-64,9524.0,9.441207885742188,36,9984.0
10880,0.3196454346179962,7.407797813415527,257,9524.0,-3.1690261363983154,52,9984.0
10890,0.3176964223384857,17.829864501953125,331,9524.0,-8.133874893188477,-248,9984.0
10900,0.31821876764297485,21.27199935913086,309,9524.0,-7.768362522125244,-62,9984.0
10910,0.3186373710632324,20.324249267578125,360,9524.0,-9.784311294555664,-176,9984.0
10920,0.31894582509994507,13.106966972351074,159,9524.0,-9.007723808288574,-258,9984.0
10930,0.31924331188201904,5.321422100067139,-19,9524.0,-8.024870872497559,-28,9984.0
10940,0.31929558515548706,-3.4927051067352295,-76,9524.0,-0.28009113669395447,10,9984.0
10950,0.319426953792572,-10.232307434082031,-264,9524.0,12.434162139892578,294,9984.0
10960,0.31957659125328064,-13.786737442016602,-113,9524.0,17.960060119628906,232,9984.0
10970,0.31980687379837036,-10.930940628051758,-217,9524.0,18.56498146057129,180,9984.0
10980,0.32004937529563904,-11.911227226257324,-164,9524.0,15.639371871948242,305,9984.0
10990,0.32038459181785583,-6.240208148956299,13,9524.0,11.043092727661133,142,9984.0
11000,0.3208354711532593,3.2098639011383057,-15,9524.0,3.6714601516723633,-101,9984.0
11010,0.32124269008636475,6.216188430786133,33,9524.0,-9.129792213439941,-184,9984.0
11020,0.32210060954093933,4.833525657653809,171,9524.0,-20.3362979888916,-292,9984.0
11030,0.3221524953842163,7.785067081451416,77,9524.0,-25.0867862701416,-521,9984.0
11040,0.32330581545829773,11.594541549682617,221,9524.0,-26.559186935424805,-322,9984.0
11050,0.3234805166721344,16.20328712463379,344,9524.0,-18.130582809448242,-285,9984.0
11060,0.3250581622123718,19.959989547729492,336,9524.0,-0.6639713644981384,63,9984.0
11070,0.3246203362941742,23.94932746887207,404,9524.0,19.28605842590332,447,9984.0
11080,0.32657289505004883,24.544097900390625,342,9524.0,40.08018493652344,732,9984.0
11090,0.3274426758289337,22.97861099243164,453,9524.0,50.35420608520508,898,9984.0
11100,0.3295292854309082,25.861984252929688,351,9524.0,48.17319869995117,646,9984.0
11110,0.3284776210784912,25.246349334716797,372,9524.0,37.06855392456055,637,9984.0
11120,0.32941824197769165,12.93152141571045,182,9524.0,22.59671401977539,199,9984.0
11130,0.33066073060035706,-7.501898765563965,-268,9524.0,6.008608818054199,58,9984.0
11140,0.33161064982414246,-26.485116958618164,-441,9524.0,-10.452406883239746,-203,9984.0
11150,0.3328375816345215,-37.41561508178711,-645,9524.0,-22.379343032836914,-507,9984.0
11160,0.3357833921909332,-38.46241760253906,-561,9524.0,-20.28050994873047,-249,9984.0
11170,0.3375658690929413,-31.30417823791504,-372,9524.0,-20.380277633666992,-362,9984.0
11180,0.3375919759273529,-19.54327964782715,-375,9524.0,-17.52168083190918,-261,9984.0
11190,0.33930814266204834,-9.906929969787598,-20,9524.0,-13.120866775512695,-127,9984.0
11200,0.3407324552536011,3.479081869125366,36,9524.0,-7.311071872711182,-165,9984.0
11210,0.3427199721336365,13.09787654876709,259,9524.0,-5.764181613922119,-9,9984.0
11220,0.34272125363349915,15.502437591552734,285,9524.0,-4.24210262298584,-85,9984.0
11230,0.3446802496910095,10.068241119384766,104,9524.0,-0.2565200924873352,59,9984.0
11240,0.34447845816612244,5.303680896759033,147,9524.0,1.9210437536239624,9,9984.0
11250,0.3465401232242584,-1.7881832122802734,-163,9524.0,3.154995918273926,22,9984.0
11260,0.34654200077056885,-6.6494832038879395,-59,9524.0,-1.049068808555603,-23,9984.0
11270,0.3486950397491455,-6.674775123596191,-125,9524.0,-4.404974937438965,-207,9984.0
11280,0.34868648648262024,-4.254723072052002,-25,9524.0,-9.960771560668945,-182,9984.0
11290,0.34834232926368713,-1.4241172075271606,17,9524.0,-16.388893127441406,-379,9984.0
11300,0.34949353337287903,-2.290316343307495,-70,9524.0,-17.92482566833496,-176,9984.0
11310,0.3506805896759033,1.7266937494277954,111,9524.0,-10.248172760009766,-196,9984.0
11320,0.35196399688720703,9.30898380279541,140,9524.0,1.934614658355713,180,9984.0
11330,0.35349559783935547,14.830141067504883,207,9524.0,21.61466407775879,435,9984.0
11340,0.35477563738822937,9.08843994140625,124,9524.0,41.378807067871094,858,9984.0
11350,0.35588154196739197,5.01966667175293,40,9524.0,41.08180236816406,578,9984.0
11360,0.3569347858428955,-3.1846630573272705,-185,9524.0,34.466331481933594,577,9984.0
11370,0.35825657844543457,-10.769104957580566,-121,9524.0,25.047887802124023,293,9984.0
11380,0.36001768708229065,-11.186063766479492,-249,9524.0,5.44197940826416,-135,9984.0
11390,0.3610195517539978,-10.952888488769531,-119,9524.0,-13.763193130493164,-236,9984.0
11400,0.361800879240036,-12.42880630493164,-192,9524.0,-25.22156524658203,-520,9984.0
11410,0.3624424338340759,-8.428213119506836,-178,9524.0,-25.388216018676758,-357,9984.0
11420,0.36468446254730225,-4.477099895477295,31,9524.0,-18.5474796295166,-330,9984.0
11430,0.3653392791748047,-1.2311204671859741,-45,9524.0,-13.346376419067383,-226,9984.0
11440,0.36595040559768677,2.5602333545684814,162,9524.0,-8.755138397216797,-200,9984.0
11450,0.3665194511413574,6.156436443328857,25,9524.0,-9.684762001037598,-172,9984.0
11460,0.3692580461502075,3.9893906116485596,101,9524.0,-11.732086181640625,-164,9984.0
11470,0.3698601722717285,-1.79714834690094,-94,9524.0,-12.687479972839355,-279,9984.0
11480,0.3704628050327301,-3.4885716438293457,-5,9524.0,-12.159100532531738,-153,9984.0
11490,0.37136292457580566,1.435611367225647,81,9524.0,-6.9806976318359375,-191,9984.0
11500,0.37215980887413025,18.48890495300293,351,9524.0,3.145486831665039,175,9984.0
11510,0.3741471469402313,29.500009536743164,572,9524.0,9.454238891601562,81,9984.0
11520,0.3750254511833191,31.010772705078125,435,9524.0,5.593141555786133,73,9984.0
11530,0.37603339552879333,20.715877532958984,328,9524.0,-2.8262271881103516,-36,9984.0
11540,0.376982182264328,6.465488910675049,-25,9524.0,-8.039730072021484,-277,9984.0
11550,0.37718164920806885,-8.580782890319824,-148,9524.0,-15.775481224060059,-137,9984.0
11560,0.3783743977546692,-18.924175262451172,-344,9524.0,-12.204319953918457,-297,9984.0
11570,0.3796178698539734,-22.990182876586914,-318,9524.0,-6.8835978507995605,-48,9984.0
11580,0.380781888961792,-14.183934211730957,-212,9524.0,-6.751430988311768,-134,9984.0
11590,0.3820009231567383,-3.8828768730163574,-24,9524.0,-6.367563247680664,-45,9984.0
11600,0.38349398970603943,-2.1689085960388184,14,9524.0,-9.67010498046875,-231,9984.0
11610,0.3846198618412018,-8.053114891052246,-224,9524.0,-9.568839073181152,-116,9984.0
11620,0.3856451213359833,-15.402774810791016,-209,9524.0,-5.148815631866455,-27,9984.0
11630,0.3865737020969391,-17.926118850708008,-346,9524.0,1.3518893718719482,44,9984.0
11640,0.3860985040664673,-12.622097969055176,-106,9524.0,9.972758293151855,281,9984.0
11650,0.38673627376556396,-3.5295846462249756,-25,9524.0,17.341854095458984,197,9984.0
11660,0.38728776574134827,3.1417250633239746,66,9524.0,14.824207305908203,244,9984.0
11670,0.38784536719322205,8.629446983337402,222,9524.0,2.093003988265991,39,9984.0
11680,0.38790571689605713,8.286194801330566,61,9524.0,-12.13885498046875,-343,9984.0
11690,0.3883928060531616,1.7617793083190918,13,9524.0,-22.97979164123535,-327,9984.0
11700,0.38876256346702576,-7.962103843688965,-107,9524.0,-26.213279724121094,-404,9984.0
11710,0.38913244009017944,-8.456727027893066,-261,9524.0,-13.06069278717041,-67,9984.0
11720,0.38953861594200134,-8.906319618225098,-75,9524.0,3.823660373687744,156,9984.0
11730,0.3884419798851013,-8.412958145141602,-202,9524.0,12.766176223754883,113,9984.0
11740,0.38894370198249817,-6.3165154457092285,-33,9524.0,4.883127689361572,129,9984.0
11750,0.38949769735336304,0.7577881217002869,25,9524.0,-7.917375564575195,-188,9984.0
11760,0.3900986909866333,2.722027063369751,-30,9524.0,-17.695560455322266,-383,9984.0
11770,0.39003831148147583,1.3196007013320923,74,9524.0,-22.956087112426758,-271,9984.0
11780,0.3907097280025482,0.9875612258911133,-62,9524.0,-23.225889205932617,-484,9984.0
11790,0.3913842737674713,-4.036055564880371,-62,9524.0,-16.607614517211914,-104,9984.0
11800,0.39207252860069275,-6.034722805023193,-47,9524.0,0.8087249994277954,62,9984.0
11810,0.3927522599697113,-6.653998851776123,-126,9524.0,15.889131546020508,310,9984.0
11820,0.3950449824333191,-2.226322889328003,3,9524.0,25.628740310668945,503,9984.0
11830,0.3957805037498474,2.448751449584961,-1,9524.0,26.54620361328125,268,9984.0
11840,0.3964459300041199,1.8242484331130981,4,9524.0,21.952190399169922,392,9984.0
11850,0.39725589752197266,3.9350779056549072,141,9524.0,16.81942367553711,229,9984.0
11860,0.3975348472595215,9.648836135864258,153,9524.0,7.336023330688477,-25,9984.0
11870,0.3980492353439331,14.091265678405762,158,9524.0,3.805473804473877,51,9984.0
11880,0.39852261543273926,14.501012802124023,255,9524.0,2.0932810306549072,134,9984.0
11890,0.39892011880874634,11.717421531677246,165,9524.0,3.8527939319610596,-72,9984.0
11900,0.3999289870262146,10.022316932678223,97,9524.0,-1.347011685371399,-53,9984.0
11910,0.4003007113933563,4.9392290115356445,96,9524.0,-6.556782245635986,-151,9984.0
11920,0.4005972445011139,-4.421889781951904,-166,9524.0,-15.705750465393066,-370,9984.0
11930,0.40088915824890137,-15.245184898376465,-266,9524.0,-19.261905670166016,-267,9984.0
11940,0.4011329114437103,-22.831758499145508,-321,9524.0,-13.870448112487793,-176,9984.0
11950,0.4020155668258667,-20.397462844848633,-313,9524.0,0.6833771467208862,111,9984.0
11960,0.4023551642894745,-6.054320812225342,55,9524.0,19.473243713378906,460,9984.0
11970,0.4027825593948364,9.076766014099121,326,9524.0,32.514225006103516,535,9984.0
11980,0.4033362865447998,24.55527114868164,410,9524.0,30.794267654418945,331,9984.0
11990,0.40324538946151733,31.646995544433594,544,9524.0,16.600872039794922,204,9984.0
12000,0.40399718284606934,27.954505920410156,423,9524.0,-1.6652580499649048,-119,9984.0
12010,0.40504273772239685,19.91473960876465,186,9524.0,-23.350263595581055,-622,9984.0
12020,0.4060252904891968,6.410250186920166,58,9524.0,-32.7312126159668,-439,9984.0
12030,0.4070429801940918,0.48414236307144165,72,9524.0,-24.805315017700195,-317,9984.0
12040,0.4073169529438019,-10.532825469970703,-301,9524.0,-13.019022941589355,-216,9984.0
12050,0.4082854390144348,-19.56885528564453,-306,9524.0,-2.7194066047668457,122,9984.0
12060,0.40920862555503845,-25.05060577392578,-552,9524.0,10.257486343383789,149,9984.0
12070,0.41012057662010193,-29.11172103881836,-402,9524.0,12.595620155334473,313,9984.0
12080,0.4109088182449341,-23.24161720275879,-388,9524.0,7.8896803855896,14,9984.0
12090,0.4116848111152649,-14.171594619750977,-211,9524.0,-1.3115334510803223,-20,9984.0
12100,0.41243618726730347,-3.4554083347320557,-13,9524.0,-1.8453490734100342,62,9984.0
12110,0.41309598088264465,7.426384449005127,252,9524.0,-0.2552137076854706,41,9984.0
12120,0.41265320777893066,18.57356071472168,301,9524.0,-1.1623317003250122,-117,9984.0
12130,0.413090318441391,24.911911010742188,355,9524.0,-6.071433067321777,-59,9984.0
12140,0.4134712219238281,21.198720932006836,395,9524.0,-15.166316986083984,-207,9984.0
12150,0.41384413838386536,15.07210636138916,224,9524.0,-18.90553855895996,-389,9984.0
12160,0.4142094552516937,9.537701606750488,119,9524.0,-14.757911682128906,-141,9984.0
12170,0.4158478081226349,5.2372870445251465,133,9524.0,-9.576668739318848,-146,9984.0
12180,0.41619986295700073,1.3410696983337402,-106,9524.0,4.238117218017578,170,9984.0
12190,0.41656556725502014,-0.05073254182934761,68,9524.0,22.53693962097168,504,9984.0
12200,0.4169681668281555,3.9850401878356934,104,9524.0,35.6197509765625,505,9984.0
12210,0.41726937890052795,12.339609146118164,194,9524.0,32.070926666259766,461,9984.0
12220,0.41773727536201477,15.308098793029785,262,9524.0,17.153501510620117,371,9984.0
12230,0.4183320105075836,12.251031875610352,209,9524.0,0.8352830410003662,-81,9984.0
12240,0.4190526008605957,6.390286445617676,46,9524.0,-12.691144943237305,-296,9984.0
12250,0.41987064480781555,0.03277897089719772,-8,9524.0,-24.15397071838379,-257,9984.0
12260,0.4179743528366089,-5.991704940795898,-82,9524.0,-26.709081649780273,-464,9984.0
12270,0.418681263923645,-9.485601425170898,-232,9524.0,-20.569494247436523,-336,9984.0
12280,0.41951218247413635,-13.594968795776367,-185,9524.0,-11.224763870239258,-13,9984.0
12290,0.42024779319763184,-15.563821792602539,-257,9524.0,5.999924182891846,67,9984.0
12300,0.4209357798099518,-12.581389427185059,-262,9524.0,16.72835350036621,317,9984.0
12310,0.42159706354141235,-5.037609577178955,24,9524.0,25.645658493041992,526,9984.0
12320,0.4222922623157501,8.224108695983887,187,9524.0,28.116180419921875,340,9984.0
12330,0.42301082611083984,18.724267959594727,305,9524.0,23.4224796295166,300,9984.0
12340,0.42372533679008484,22.277727127075195,370,9524.0,22.967926025390625,385,9984.0
12350,0.4242555797100067,15.82834529876709,268,9524.0,19.7614803314209,382,9984.0
12360,0.42480218410491943,6.261783599853516,-28,9524.0,10.345887184143066,34,9984.0
12370,0.4251468777656555,-6.558648586273193,-208,9524.0,-11.666241645812988,-306,9984.0
12380,0.4254434406757355,-18.257957458496094,-300,9524.0,-35.10147476196289,-513,9984.0
12390,0.4253771901130676,-26.720815658569336,-441,9524.0,-50.39048767089844,-872,9984.0
12400,0.42538008093833923,-29.9301700592041,-603,9524.0,-48.90854263305664,-812,9984.0
12410,0.4257640242576599,-30.8675479888916,-443,9524.0,-28.450695037841797,-244,9984.0
12420,0.42583462595939636,-24.722095489501953,-316,9524.0,-0.8895750045776367,182,9984.0
12430,0.42268043756484985,-9.923659324645996,-75,9524.0,27.857112884521484,448,9984.0
12440,0.4228985607624054,20.66874122619629,443,9524.0,39.50944137573242,800,9984.0
12450,0.4233188331127167,48.487213134765625,919,9524.0,38.76156234741211,651,9984.0
12460,0.42363646626472473,57.6800422668457,931,9524.0,23.108016967773438,267,9984.0
12470,0.4240860342979431,44.41550064086914,576,9524.0,-1.4249597787857056,-161,9984.0
12480,0.4251444935798645,18.4287052154541,183,9524.0,-22.348535537719727,-357,9984.0
12490,0.42573145031929016,-9.302776336669922,-236,9524.0,-35.37009048461914,-618,9984.0
12500,0.42638537287712097,-33.40008544921875,-704,9524.0,-36.672916412353516,-446,9984.0
12510,0.4269932210445404,-52.08513259887695,-845,9524.0,-24.878795623779297,-250,9984.0
12520,0.42645955085754395,-53.96929931640625,-897,9524.0,-13.698868751525879,-237,9984.0
12530,0.427339106798172,-47.04228973388672,-771,9524.0,-3.189695119857788,-23,9984.0
12540,0.4280572533607483,-26.9404296875,-309,9524.0,0.7137290835380554,155,9984.0
12550,0.42887741327285767,0.5704200863838196,163,9524.0,8.009780883789062,71,9984.0
12560,0.42900505661964417,24.584915161132812,428,9524.0,13.08176040649414,192,9984.0
12570,0.4296058416366577,34.84474563598633,596,9524.0,21.876142501831055,426,9984.0
12580,0.4301665425300598,32.87643051147461,595,9524.0,25.896617889404297,434,9984.0
12590,0.430694043636322,26.39972686767578,317,9524.0,23.211341857910156,272,9984.0
12600,0.43107378482818604,16.881492614746094,240,9524.0,12.751710891723633,124,9984.0
12610,0.43001696467399597,5.441890239715576,123,9524.0,-0.7123605012893677,-91,9984.0
12620,0.43017417192459106,-4.842098236083984,-235,9524.0,-18.61018180847168,-491,9984.0
12630,0.43029260635375977,-20.290393829345703,-413,9524.0,-35.12068176269531,-617,9984.0
12640,0.4303167760372162,-31.704912185668945,-489,9524.0,-41.79857635498047,-706,9984.0
12650,0.4303998351097107,-38.045379638671875,-713,9524.0,-39.258949279785156,-687,9984.0
12660,0.43067440390586853,-35.36690902709961,-440,9524.0,-23.31379508972168,-114,9984.0
12670,0.43071651458740234,-19.954343795776367,-209,9524.0,5.795986652374268,233,9984.0
12680,0.4308593273162842,0.8435244560241699,149,9524.0,32.700965881347656,509,9984.0
12690,0.43120110034942627,27.068632125854492,577,9524.0,43.674468994140625,863,9984.0
12700,0.4312884211540222,50.174556732177734,966,9524.0,46.1014518737793,737,9984.0
12710,0.43156763911247253,59.98728561401367,967,9524.0,34.70850372314453,362,9984.0
12720,0.431930273771286,52.991024017333984,733,9524.0,12.928255081176758,149,9984.0
12730,0.43240639567375183,33.05942153930664,485,9524.0,-4.380988597869873,-111,9984.0
12740,0.43146127462387085,11.31070327758789,65,9524.0,-14.537322044372559,-404,9984.0
12750,0.4319338798522949,-4.550963878631592,-136,9524.0,-21.978900909423828,-263,9984.0
12760,0.43233421444892883,-11.112518310546875,-164,9524.0,-23.45945167541504,-365,9984.0
12770,0.4327516257762909,-12.079240798950195,-277,9524.0,-20.240556716918945,-382,9984.0
12780,0.4316888749599457,-17.913084030151367,-323,9524.0,-10.52407455444336,54,9984.0
12790,0.4320325553417206,-27.654659271240234,-512,9524.0,2.325871229171753,33,9984.0
12800,0.43236467242240906,-33.665626525878906,-589,9524.0,18.395212173461914,412,9984.0
12810,0.4325432777404785,-28.23409080505371,-423,9524.0,30.143903732299805,585,9984.0
12820,0.4328846037387848,-23.831514358520508,-354,9524.0,35.6270866394043,562,9984.0
12830,0.4330492317676544,-12.039748191833496,-166,9524.0,36.60380172729492,519,9984.0
12840,0.4331471920013428,4.149290561676025,132,9524.0,37.278385162353516,651,9984.0
12850,0.43332260847091675,18.306865692138672,338,9524.0,28.292146682739258,523,9984.0
12860,0.43347904086112976,21.97723960876465,441,9524.0,11.653938293457031,19,9984.0
12870,0.43477675318717957,18.600143432617188,228,9524.0,-14.747855186462402,-415,9984.0
12880,0.4347798228263855,4.691770076751709,-70,9524.0,-37.35078048706055,-659,9984.0
12890,0.4346531331539154,-16.58783531188965,-268,9524.0,-47.040122985839844,-671,9984.0
12900,0.4344758689403534,-31.40869140625,-596,9524.0,-42.17192459106445,-663,9984.0
12910,0.434514582157135,-40.03664779663086,-736,9524.0,-21.871652603149414,-228,9984.0
12920,0.43331700563430786,-35.398223876953125,-447,9524.0,4.533417224884033,250,9984.0
12930,0.43326660990715027,-13.542738914489746,-99,9524.0,28.456432342529297,453,9984.0
12940,0.43321651220321655,12.543088912963867,223,9524.0,42.5044059753418,691,9984.0
12950,0.43339359760284424,33.4827995300293,633,9524.0,42.457061767578125,713,9984.0
12960,0.4324941039085388,38.3209114074707,601,9524.0,31.494598388671875,548,9984.0
12970,0.4326675534248352,31.3205623626709,404,9524.0,9.334707260131836,71,9984.0
12980,0.4330050051212311,14.677299499511719,160,9524.0,-7.113475322723389,-255,9984.0
12990,0.43334120512008667,0.16283352673053741,-115,9524.0,-24.671348571777344,-390,9984.0
13000,0.4341624677181244,-11.254920959472656,-146,9524.0,-29.29290008544922,-483,9984.0
13010,0.43450185656547546,-10.518019676208496,-206,9524.0,-30.712080001831055,-498,9984.0
13020,0.43483832478523254,-5.856245994567871,-148,9524.0,-21.9014835357666,-316,9984.0
13030,0.4351787567138672,-8.376652717590332,-125,9524.0,-14.047001838684082,-147,9984.0
13040,0.43551233410835266,-13.382681846618652,-275,9524.0,-8.22716999053955,-184,9984.0
13050,0.43633657693862915,-14.809539794921875,-280,9524.0,0.2250036895275116,102,9984.0
13060,0.4365476071834564,-11.129712104797363,-121,9524.0,12.33536148071289,230,9984.0
13070,0.4366084337234497,-8.57238483428955,-113,9524.0,23.918060302734375,335,9984.0
13080,0.43658652901649475,-3.643733263015747,-74,9524.0,29.14830780029297,497,9984.0
13090,0.43708348274230957,0.9226151704788208,103,9524.0,27.120622634887695,588,9984.0
13100,0.4370153248310089,5.041909217834473,106,9524.0,20.741605758666992,282,9984.0
13110,0.4369772970676422,10.404275894165039,122,9524.0,11.035506248474121,1,9984.0
13120,0.4368801712989807,9.024646759033203,64,9524.0,-7.963510990142822,-274,9984.0
13130,0.4367108643054962,1.3133901357650757,28,9524.0,-25.17789077758789,-367,9984.0
13140,0.4389721751213074,-12.161518096923828,-244,9524.0,-26.827938079833984,-424,9984.0
13150,0.43884527683258057,-24.684598922729492,-456,9524.0,-21.39872169494629,-370,9984.0
13160,0.43863794207572937,-29.536890029907227,-540,9524.0,-14.993446350097656,-208,9984.0
13170,0.43855586647987366,-26.79326057434082,-283,9524.0,-4.457033634185791,101,9984.0
13180,0.43909209966659546,-13.300929069519043,-76,9524.0,6.548114776611328,107,9984.0
13190,0.4391275942325592,3.9432365894317627,111,9524.0,9.218606948852539,109,9984.0
13200,0.43928948044776917,18.208343505859375,352,9524.0,5.336538314819336,-11,9984.0
13210,0.43952950835227966,36.20265197753906,647,9524.0,-5.958675861358643,-124,9984.0
13220,0.4406297206878662,44.636287689208984,740,9524.0,-12.178146362304688,-145,9984.0
13230,0.4409308433532715,35.484413146972656,547,9524.0,-12.354180335998535,-190,9984.0
13240,0.4412521719932556,14.519757270812988,62,9524.0,-1.353018045425415,-41,9984.0
13250,0.44182097911834717,-12.009157180786133,-255,9524.0,8.191324234008789,287,9984.0
13260,0.4422394931316376,-26.51371192932129,-349,9524.0,12.569085121154785,147,9984.0
13270,0.44115346670150757,-25.458181381225586,-445,9524.0,8.615711212158203,-54,9984.0
13280,0.441404789686203,-16.161720275878906,-245,9524.0,-1.229646921157837,12,9984.0
13290,0.4417223334312439,-6.824463844299316,6,9524.0,-10.760879516601562,-215,9984.0
13300,0.44196203351020813,6.995434761047363,191,9524.0,-21.18416976928711,-359,9984.0
13310,0.4393423795700073,20.575353622436523,370,9524.0,-19.418113708496094,-431,9984.0
13320,0.4393666684627533,24.705793380737305,380,9524.0,-13.998183250427246,-129,9984.0
13330,0.4394226372241974,22.53632926940918,405,9524.0,-0.3281559646129608,201,9984.0
13340,0.4393704831600189,14.452404022216797,185,9524.0,17.21218490600586,290,9984.0
13350,0.4393090307712555,9.564908981323242,116,9524.0,30.626737594604492,505,9984.0
13360,0.4386884570121765,17.945777893066406,368,9524.0,35.380462646484375,751,9984.0
13370,0.4384506046772003,25.686294555664062,421,9524.0,37.08835220336914,497,9984.0
13380,0.4382239282131195,28.06865882873535,390,9524.0,29.152196884155273,462,9984.0
13390,0.43796443939208984,16.80167579650879,229,9524.0,9.929547309875488,148,9984.0
13400,0.4379105269908905,3.6952362060546875,3,9524.0,-7.130564212799072,-124,9984.0
13410,0.43780964612960815,-13.811208724975586,-343,9524.0,-13.310081481933594,-345,9984.0
13420,0.43765151500701904,-21.584672927856445,-343,9524.0,-20.87351417541504,-384,9984.0
13430,0.4373990297317505,-10.581674575805664,-83,9524.0,-26.36395263671875,-451,9984.0
13440,0.43863555788993835,-2.230018377304077,2,9524.0,-25.960187911987305,-347,9984.0
13450,0.43844547867774963,-4.237743377685547,-52,9524.0,-13.713759422302246,-249,9984.0
13460,0.4383115768432617,-2.961031198501587,-120,9524.0,1.3308132886886597,109,9984.0
13470,0.4382089674472809,-9.94620132446289,-190,9524.0,15.652777671813965,447,9984.0
13480,0.43817338347435,-20.152124404907227,-344,9524.0,26.562833786010742,439,9984.0
13490,0.43649888038635254,-27.32617950439453,-497,9524.0,28.210912704467773,344,9984.0
13500,0.4364069998264313,-30.434146881103516,-580,9524.0,21.29206657409668,347,9984.0
13510,0.4365580677986145,-26.43825340270996,-329,9524.0,15.306676864624023,253,9984.0
13520,0.4365880787372589,-22.726137161254883,-393,9524.0,1.232956051826477,32,9984.0
13530,0.4361327588558197,-19.06346321105957,-250,9524.0,-19.396493911743164,-427,9984.0
13540,0.43614819645881653,-7.402401924133301,-73,9524.0,-30.843486785888672,-521,9984.0
13550,0.4361809492111206,9.539371490478516,228,9524.0,-30.689712524414062,-509,9984.0
13560,0.4362637400627136,25.3773136138916,472,9524.0,-24.423097610473633,-320,9984.0
13570,0.43613386154174805,38.041908264160156,690,9524.0,-18.891965866088867,-161,9984.0
13580,0.4336180090904236,34.25327682495117,507,9524.0,-3.4290080070495605,-125,9984.0
13590,0.43335941433906555,28.764446258544922,426,9524.0,17.443511962890625,442,9984.0
13600,0.43297332525253296,18.993820190429688,308,9524.0,38.133544921875,704,9984.0
13610,0.43271952867507935,6.635254383087158,12,9524.0,51.380821228027344,775,9984.0
13620,0.4309152066707611,-2.040555238723755,-134,9524.0,47.00276565551758,730,9984.0
13630,0.4303148686885834,-10.407002449035645,-190,9524.0,30.714750289916992,460,9984.0
13640,0.4298127293586731,-22.064964294433594,-399,9524.0,6.592192649841309,-107,9984.0
13650,0.42926445603370667,-34.5079345703125,-657,9524.0,-19.339345932006836,-519,9984.0
13660,0.43001237511634827,-40.9995002746582,-725,9524.0,-37.63798522949219,-712,9984.0
13670,0.429470032453537,-43.60740280151367,-668,9524.0,-47.943965911865234,-745,9984.0
13680,0.42901068925857544,-30.201169967651367,-379,9524.0,-49.088035583496094,-728,9984.0
13690,0.4289707839488983,-8.059910774230957,9,9524.0,-32.50585174560547,-389,9984.0
13700,0.428805947303772,18.14535140991211,322,9524.0,-4.605072021484375,-2,9984.0
13710,0.42855048179626465,31.451866149902344,547,9524.0,24.450119018554688,477,9984.0
13720,0.42868122458457947,44.38301086425781,831,9524.0,39.980281829833984,707,9984.0
13730,0.4288991093635559,49.19987869262695,829,9524.0,39.95083999633789,672,9984.0
13740,0.42956990003585815,40.883113861083984,592,9524.0,33.96127700805664,411,9984.0
13750,0.4307333528995514,30.11469078063965,386,9524.0,17.06881332397461,170,9984.0
13760,0.4314364790916443,13.882530212402344,225,9524.0,-2.735170841217041,-12,9984.0
13770,0.43212881684303284,-1.471021056175232,-103,9524.0,-18.45337677001953,-343,9984.0
13780,0.43284159898757935,-19.30677604675293,-503,9524.0,-20.40376091003418,-319,9984.0
13790,0.4336685240268707,-35.51619338989258,-580,9524.0,-11.348848342895508,-121,9984.0
13800,0.43495598435401917,-46.39827346801758,-765,9524.0,-12.167482376098633,-286,9984.0
13810,0.4356585741043091,-47.64518356323242,-784,9524.0,-24.934160232543945,-603,9984.0
13820,0.43661364912986755,-36.19611358642578,-501,9524.0,-33.77582550048828,-506,9984.0
13830,0.4373137652873993,-21.346269607543945,-247,9524.0,-29.116849899291992,-368,9984.0
13840,0.4367388188838959,-7.958359718322754,-71,9524.0,-15.820182800292969,-206,9984.0
13850,0.43738824129104614,6.936489105224609,70,9524.0,-1.408445954322815,52,9984.0
13860,0.4378892779350281,13.063177108764648,278,9524.0,12.590478897094727,363,9984.0
13870,0.438373863697052,16.559852600097656,323,9524.0,23.13558006286621,364,9984.0
13880,0.4380957782268524,19.583288192749023,294,9524.0,22.968402862548828,237,9984.0
13890,0.438315749168396,15.735794067382812,258,9524.0,19.61569595336914,335,9984.0
13900,0.43851664662361145,5.557028293609619,56,9524.0,11.835328102111816,148,9984.0
13910,0.4386264979839325,-8.237495422363281,-247,9524.0,7.339878559112549,38,9984.0
13920,0.4386570453643799,-22.236276626586914,-483,9524.0,-0.8989310264587402,-71,9984.0
13930,0.43795421719551086,-33.47368621826172,-488,9524.0,-6.319354057312012,-20,9984.0
13940,0.4378657042980194,-25.5700626373291,-267,9524.0,-8.129826545715332,-64,9984.0
13950,0.4377897083759308,-3.2824745178222656,108,9524.0,-4.885854721069336,-83,9984.0
13960,0.4378419816493988,26.212047576904297,554,9524.0,-5.906357288360596,-169,9984.0
13970,0.43826979398727417,45.72677230834961,765,9524.0,-6.697980880737305,-91,9984.0
13980,0.43822550773620605,43.656227111816406,654,9524.0,-4.737226963043213,35,9984.0
13990,0.4382179379463196,28.08841896057129,355,9524.0,-1.7006676197052002,-34,9984.0
14000,0.4381744861602783,9.235681533813477,-66,9524.0,0.8488121628761292,28,9984.0
14010,0.4380735456943512,-4.895335674285889,-17,9524.0,2.774728536605835,-7,9984.0
14020,0.43995246291160583,-10.673164367675781,-249,9524.0,5.128840923309326,-19,9984.0
14030,0.4398963153362274,-13.081226348876953,-234,9524.0,8.122493743896484,195,9984.0
14040,0.4397844672203064,-13.847894668579102,-164,9524.0,8.883039474487305,143,9984.0
14050,0.43962469696998596,-10.886676788330078,-149,9524.0,7.577422142028809,31,9984.0
14060,0.4396865963935852,-3.9104435443878174,-54,9524.0,-3.538177490234375,-240,9984.0
14070,0.4394459128379822,8.492568016052246,64,9524.0,-11.112704277038574,-164,9984.0
14080,0.43914541602134705,13.241589546203613,279,9524.0,-8.81791877746582,-9,9984.0
14090,0.4387775659561157,15.568055152893066,275,9524.0,-0.42981186509132385,72,9984.0
14100,0.438574880361557,14.159566879272461,200,9524.0,14.31645679473877,254,9984.0
