timestamp,kalman.stateZ,gyro.x,gyro.xRaw,gyro.xVariance,gyro.y,gyro.yRaw,gyro.yVariance
0,0.31271272897720337,0.9768649935722351,21,7950.0,-14.37294864654541,-252,9965.0
10,0.3125806152820587,1.706500768661499,37,7950.0,-17.24469757080078,-287,9965.0
20,0.31255847215652466,2.137033700942993,43,7950.0,-18.685056686401367,-318,9965.0
30,0.31249597668647766,2.383416175842285,34,7950.0,-20.199539184570312,-344,9965.0
40,0.31241849064826965,1.5926851034164429,28,7950.0,-21.88972282409668,-386,9965.0
50,0.31321367621421814,2.145049571990967,45,7950.0,-25.939990997314453,-440,9965.0
60,0.31315985321998596,2.066448926925659,13,7950.0,-32.189414978027344,-539,9965.0
70,0.3132002055644989,1.5422955751419067,29,7950.0,-35.55429458618164,-624,9965.0
80,0.3132283687591553,-0.8214720487594604,5,7950.0,-39.326202392578125,-677,9965.0
90,0.3144523501396179,1.4066556692123413,40,7950.0,-42.063072204589844,-684,9965.0
100,0.31456896662712097,0.5392162799835205,48,7950.0,-35.1788444519043,-526,9965.0
110,0.31501030921936035,3.301025152206421,4,7950.0,-24.51953887939453,-201,9965.0
120,0.3156481981277466,5.329293727874756,139,7950.0,-3.252390146255493,-38,9965.0
130,0.31601211428642273,3.174593687057495,11,7950.0,3.566585063934326,115,9965.0
140,0.31781989336013794,3.163346767425537,55,7950.0,6.999040126800537,255,9965.0
150,0.3182487487792969,4.9512104988098145,151,7950.0,11.480401992797852,87,9965.0
160,0.3185836672782898,5.772474765777588,92,7950.0,15.292729377746582,150,9965.0
170,0.31895700097084045,5.95049524307251,59,7950.0,13.370855331420898,271,9965.0
180,0.3180237412452698,5.475932598114014,13,7950.0,7.383349418640137,254,9965.0
190,0.3182167410850525,5.4284234046936035,16,7950.0,-0.005287571344524622,66,9965.0
200,0.3183782398700714,6.148914813995361,35,7950.0,-4.852931499481201,-112,9965.0
210,0.3185005187988281,1.3907135725021362,-38,7950.0,-12.738693237304688,-259,9965.0
220,0.31805258989334106,-2.4837539196014404,-107,7950.0,-22.092708587646484,-386,9965.0
230,0.31820565462112427,-5.27234411239624,-122,7950.0,-28.756546020507812,-522,9965.0
240,0.31845879554748535,-1.3129541873931885,-16,7950.0,-34.840614318847656,-645,9965.0
250,0.3186051845550537,-0.4449447691440582,22,7950.0,-40.105865478515625,-717,9965.0
260,0.3192078769207001,-0.9835001230239868,-37,7950.0,-41.63383102416992,-580,9965.0
270,0.3198970854282379,-0.44498249888420105,-70,7950.0,-37.72499084472656,-403,9965.0
280,0.32034629583358765,-2.044813632965088,-88,7950.0,-24.051034927368164,-237,9965.0
290,0.3205099403858185,-6.245950698852539,-125,7950.0,-9.344048500061035,154,9965.0
300,0.3209020793437958,-0.7555271983146667,-56,7950.0,0.30411508679389954,120,9965.0
310,0.323349267244339,0.07375505566596985,91,7950.0,8.824798583984375,210,9965.0
320,0.32432320713996887,7.748932838439941,123,7950.0,9.148481369018555,186,9965.0
330,0.32496359944343567,10.139206886291504,230,7950.0,12.219644546508789,146,9965.0
340,0.32555726170539856,11.040436744689941,166,7950.0,16.385339736938477,290,9965.0
350,0.32620036602020264,9.71489429473877,215,7950.0,19.539094924926758,187,9965.0
360,0.3269217908382416,5.022604465484619,39,7950.0,19.15305519104004,268,9965.0
370,0.32736027240753174,0.7617917656898499,80,7950.0,22.305028915405273,206,9965.0
380,0.3276441693305969,0.25490856170654297,-48,7950.0,30.662565231323242,581,9965.0
390,0.3278205394744873,-2.3855042457580566,56,7950.0,41.41303253173828,642,9965.0
400,0.32714489102363586,-0.8448257446289062,-31,7950.0,46.02415084838867,845,9965.0
410,0.32703953981399536,-3.912062883377075,-61,7950.0,48.836204528808594,750,9965.0
420,0.3270643651485443,-3.3079464435577393,-92,7950.0,37.469608306884766,720,9965.0
430,0.3270359933376312,-4.852350234985352,-129,7950.0,29.719863891601562,530,9965.0
440,0.32580408453941345,-3.6071860790252686,-73,7950.0,16.898813247680664,90,9965.0
450,0.32590973377227783,-2.42914080619812,-1,7950.0,-0.21496987342834473,-66,9965.0
460,0.3259788751602173,2.981799602508545,62,7950.0,-16.109230041503906,-342,9965.0
470,0.32614773511886597,2.0774590969085693,56,7950.0,-33.56241989135742,-504,9965.0
480,0.326382040977478,2.9499926567077637,5,7950.0,-44.875267028808594,-768,9965.0
490,0.32482561469078064,3.8773672580718994,24,7950.0,-49.36478042602539,-625,9965.0
500,0.3250747323036194,2.7110228538513184,25,7950.0,-40.060096740722656,-669,9965.0
510,0.32592636346817017,2.5170533657073975,-44,7950.0,-24.22505760192871,-337,9965.0
520,0.32646092772483826,-1.5311932563781738,8,7950.0,-6.817835330963135,-48,9965.0
530,0.3259936273097992,-4.07238245010376,-89,7950.0,4.824163913726807,21,9965.0
540,0.3267374038696289,-5.056055068969727,28,7950.0,11.657413482666016,154,9965.0
550,0.32745033502578735,-2.704069137573242,15,7950.0,10.896289825439453,77,9965.0
560,0.3281368911266327,-1.615856409072876,53,7950.0,2.6732773780822754,0,9965.0
570,0.3286307156085968,0.38126906752586365,-11,7950.0,-5.968384742736816,-140,9965.0
580,0.3286135494709015,-3.7548184394836426,-126,7950.0,-8.429516792297363,-21,9965.0
590,0.3289864957332611,-6.636432647705078,-175,7950.0,-5.98828125,-20,9965.0
600,0.3292936086654663,-8.076369285583496,-151,7950.0,-4.706293106079102,-27,9965.0
610,0.32940351963043213,1.1518677473068237,100,7950.0,-1.9626505374908447,-22,9965.0
620,0.33199578523635864,8.691948890686035,178,7950.0,7.452225685119629,-13,9965.0
630,0.3320046663284302,15.51512622833252,344,7950.0,11.882859230041504,297,9965.0
640,0.3318045437335968,13.472587585449219,230,7950.0,19.339101791381836,315,9965.0
650,0.33136314153671265,9.367147445678711,85,7950.0,21.47987174987793,446,9965.0
660,0.33095836639404297,2.8397293090820312,-29,7950.0,20.436534881591797,365,9965.0
670,0.3289954662322998,-2.9920313358306885,-74,7950.0,15.363964080810547,214,9965.0
680,0.3284829258918762,-6.482278347015381,-175,7950.0,3.565117835998535,-164,9965.0
690,0.3279123306274414,-13.128089904785156,-235,7950.0,-17.290544509887695,-388,9965.0
700,0.3274211585521698,-20.807981491088867,-259,7950.0,-38.67955017089844,-856,9965.0
710,0.3271119296550751,-15.53381061553955,-240,7950.0,-57.93378448486328,-830,9965.0
720,0.32696297764778137,-6.233094215393066,-64,7950.0,-62.603294372558594,-967,9965.0
730,0.32710668444633484,2.9565114974975586,3,7950.0,-53.76163864135742,-885,9965.0
740,0.3274395167827606,8.2181978225708,192,7950.0,-30.649208068847656,-401,9965.0
750,0.3294146955013275,6.215574741363525,177,7950.0,-4.735743522644043,-89,9965.0
760,0.3302234709262848,3.2548089027404785,36,7950.0,14.275246620178223,245,9965.0
770,0.3313758075237274,-0.413858562707901,-6,7950.0,21.711549758911133,401,9965.0
780,0.33256351947784424,-0.5646218657493591,31,7950.0,16.9707088470459,278,9965.0
790,0.333717405796051,3.276848793029785,-62,7950.0,17.08819007873535,433,9965.0
800,0.3349703550338745,0.9555032849311829,-2,7950.0,24.087650299072266,432,9965.0
810,0.3362768888473511,-2.7135937213897705,-98,7950.0,22.410472869873047,300,9965.0
820,0.3374929130077362,-6.682693958282471,-119,7950.0,13.522713661193848,130,9965.0
830,0.33858630061149597,-6.257750988006592,-33,7950.0,5.319038391113281,-93,9965.0
840,0.3381693661212921,-7.363239765167236,-75,7950.0,5.04045295715332,118,9965.0
850,0.33882489800453186,-3.8703160285949707,-52,7950.0,6.086096286773682,174,9965.0
860,0.3392660319805145,2.0341973304748535,-21,7950.0,9.846357345581055,285,9965.0
870,0.3394828140735626,7.354232311248779,158,7950.0,19.002567291259766,434,9965.0
880,0.3382626175880432,8.86463737487793,122,7950.0,27.08926010131836,319,9965.0
890,0.33808937668800354,9.27880573272705,263,7950.0,28.42789077758789,443,9965.0
900,0.3376760184764862,10.398778915405273,162,7950.0,24.013416290283203,435,9965.0
910,0.33716079592704773,10.44852066040039,130,7950.0,16.298404693603516,358,9965.0
920,0.3367750644683838,7.046910285949707,69,7950.0,7.262816429138184,104,9965.0
930,0.33229801058769226,0.37479856610298157,-45,7950.0,-4.019796371459961,-224,9965.0
940,0.331668496131897,-1.8151164054870605,53,7950.0,-19.2459716796875,-376,9965.0
950,0.3310515284538269,-5.310844898223877,-134,7950.0,-25.457212448120117,-407,9965.0
960,0.3305239677429199,-7.163443088531494,-153,7950.0,-22.730966567993164,-203,9965.0
970,0.32872217893600464,-2.7448153495788574,-34,7950.0,-14.814386367797852,-205,9965.0
980,0.3287280201911926,-1.1544710397720337,-23,7950.0,-9.950826644897461,-311,9965.0
990,0.3290310800075531,1.796526312828064,93,7950.0,-10.69832706451416,-153,9965.0
1000,0.32951661944389343,4.474078178405762,155,7950.0,-14.294297218322754,-213,9965.0
1010,0.3300333619117737,9.95390796661377,77,7950.0,-22.009763717651367,-301,9965.0
1020,0.3296034634113312,1.2324532270431519,-85,7950.0,-17.304954528808594,-263,9965.0
1030,0.3304678201675415,-9.471148490905762,-178,7950.0,-7.268296718597412,-110,9965.0
1040,0.33147165179252625,-20.681900024414062,-239,7950.0,9.943008422851562,173,9965.0
1050,0.33238881826400757,-24.136978149414062,-342,7950.0,18.427772521972656,306,9965.0
1060,0.3331100046634674,-13.568217277526855,-272,7950.0,23.34419822692871,550,9965.0
1070,0.33369532227516174,-2.050640106201172,19,7950.0,26.00718879699707,466,9965.0
1080,0.3341049551963806,9.534551620483398,258,7950.0,24.773799896240234,223,9965.0
1090,0.3347225487232208,12.841031074523926,197,7950.0,20.908973693847656,390,9965.0
1100,0.3337593674659729,12.318866729736328,221,7950.0,20.86580467224121,413,9965.0
1110,0.3335310220718384,9.172189712524414,155,7950.0,22.877927780151367,202,9965.0
1120,0.3331476151943207,5.453240394592285,79,7950.0,20.35079002380371,337,9965.0
1130,0.3328545391559601,2.0775442123413086,-8,7950.0,9.9432954788208,136,9965.0
1140,0.33220335841178894,-2.1089675426483154,3,7950.0,-7.787175178527832,-358,9965.0
1150,0.33202484250068665,0.49758774042129517,21,7950.0,-21.74148941040039,-410,9965.0
1160,0.33119451999664307,5.421395301818848,121,7950.0,-36.5968017578125,-552,9965.0
1170,0.33053722977638245,6.619070529937744,87,7950.0,-46.37630081176758,-884,9965.0
1180,0.3298594057559967,5.841789245605469,132,7950.0,-48.67425537109375,-825,9965.0
1190,0.32994547486305237,6.027304172515869,98,7950.0,-38.81697463989258,-509,9965.0
1200,0.32960230112075806,4.414392471313477,61,7950.0,-22.566448211669922,-82,9965.0
1210,0.32941755652427673,2.081943988800049,-47,7950.0,-1.7312827110290527,128,9965.0
1220,0.32927635312080383,-5.166671276092529,-126,7950.0,12.959733963012695,197,9965.0
1230,0.32932886481285095,-10.763099670410156,-112,7950.0,20.217348098754883,159,9965.0
1240,0.3304980993270874,-10.247267723083496,-143,7950.0,11.282362937927246,118,9965.0
1250,0.33086398243904114,-4.976852893829346,-137,7950.0,-5.531127452850342,-60,9965.0
1260,0.33138737082481384,-1.955462098121643,4,7950.0,-12.6662015914917,-169,9965.0
1270,0.3319815397262573,0.2786300480365753,73,7950.0,-7.975270748138428,-277,9965.0
1280,0.3331792652606964,3.542534828186035,96,7950.0,-7.002735614776611,-57,9965.0
1290,0.33380889892578125,0.9655193090438843,-54,7950.0,3.2446696758270264,224,9965.0
1300,0.3344036638736725,-0.6702065467834473,-108,7950.0,16.07040023803711,404,9965.0
1310,0.3349025547504425,-10.010987281799316,-134,7950.0,29.533748626708984,510,9965.0
1320,0.3352978229522705,-12.477945327758789,-164,7950.0,38.481319427490234,601,9965.0
1330,0.33747342228889465,-11.029865264892578,-209,7950.0,40.2653694152832,769,9965.0
1340,0.33765795826911926,-4.836012840270996,-77,7950.0,39.49692153930664,667,9965.0
1350,0.3374039828777313,5.513187408447266,83,7950.0,33.018829345703125,310,9965.0
1360,0.3376794159412384,14.019702911376953,254,7950.0,18.505817413330078,293,9965.0
1370,0.3354049026966095,21.84874153137207,327,7950.0,1.7521299123764038,-53,9965.0
1380,0.33495694398880005,23.55264663696289,361,7950.0,-13.573725700378418,-383,9965.0
1390,0.33455970883369446,22.017868041992188,424,7950.0,-27.48682975769043,-476,9965.0
1400,0.3340955078601837,13.059605598449707,147,7950.0,-40.78810119628906,-672,9965.0
1410,0.3326345980167389,0.5966569781303406,-132,7950.0,-43.090694427490234,-628,9965.0
1420,0.3324281871318817,-13.927287101745605,-329,7950.0,-35.01483154296875,-530,9965.0
1430,0.33246690034866333,-29.54021453857422,-473,7950.0,-23.33342742919922,-329,9965.0
1440,0.3324001729488373,-35.585819244384766,-470,7950.0,-14.478100776672363,-238,9965.0
1450,0.3323426842689514,-27.193958282470703,-415,7950.0,-9.543769836425781,-135,9965.0
1460,0.3325642943382263,-14.11734390258789,-267,7950.0,-4.878489971160889,-71,9965.0
1470,0.33296242356300354,-4.1044921875,-9,7950.0,-2.9254345893859863,-55,9965.0
1480,0.33358216285705566,-4.735054969787598,-23,7950.0,3.9217495918273926,156,9965.0
1490,0.334270179271698,-3.665181875228882,-97,7950.0,8.525262832641602,204,9965.0
1500,0.3345532715320587,6.90304708480835,145,7950.0,12.681662559509277,198,9965.0
1510,0.33518335223197937,24.05904197692871,578,7950.0,17.035781860351562,238,9965.0
1520,0.335679829120636,38.4715576171875,707,7950.0,25.84989356994629,455,9965.0
1530,0.3358730375766754,41.79323196411133,562,7950.0,30.614675521850586,598,9965.0
1540,0.33562299609184265,35.28407287597656,517,7950.0,25.642871856689453,378,9965.0
1550,0.335761696100235,18.715120315551758,315,7950.0,16.58550453186035,135,9965.0
1560,0.3357934057712555,-2.3750662803649902,-145,7950.0,10.745806694030762,176,9965.0
1570,0.3358212113380432,-24.505718231201172,-584,7950.0,6.899024963378906,201,9965.0
1580,0.3354279398918152,-41.1868896484375,-658,7950.0,6.1773600578308105,54,9965.0
1590,0.33430296182632446,-38.92802810668945,-549,7950.0,-0.29326874017715454,-109,9965.0
1600,0.3337883949279785,-21.532535552978516,-264,7950.0,-12.409614562988281,-92,9965.0
1610,0.33339500427246094,0.6564470529556274,104,7950.0,-25.276716232299805,-560,9965.0
1620,0.3330700099468231,19.141353607177734,376,7950.0,-31.362388610839844,-593,9965.0
1630,0.33209049701690674,29.971590042114258,541,7950.0,-30.97196388244629,-392,9965.0
1640,0.33178022503852844,30.078140258789062,435,7950.0,-25.16963768005371,-226,9965.0
1650,0.331537663936615,16.0787410736084,148,7950.0,-15.048480033874512,-239,9965.0
1660,0.33171921968460083,-1.778823971748352,-156,7950.0,-8.676566123962402,-171,9965.0
1670,0.3315601944923401,-18.816606521606445,-281,7950.0,-3.6485683917999268,-119,9965.0
1680,0.3324795067310333,-21.2554931640625,-334,7950.0,-9.738276481628418,-131,9965.0
1690,0.33274123072624207,-21.567594528198242,-289,7950.0,-10.40756607055664,-96,9965.0
1700,0.3329773247241974,-23.64034652709961,-461,7950.0,-6.667847633361816,-98,9965.0
1710,0.33318355679512024,-24.435688018798828,-423,7950.0,0.49246564507484436,-19,9965.0
1720,0.3345153331756592,-14.279048919677734,-73,7950.0,10.662853240966797,258,9965.0
1730,0.3348044157028198,9.415575981140137,300,7950.0,23.0467472076416,531,9965.0
1740,0.33516448736190796,30.652578353881836,545,7950.0,32.09669494628906,541,9965.0
1750,0.33530300855636597,48.09956359863281,839,7950.0,35.749446868896484,457,9965.0
1760,0.3359163701534271,54.19766616821289,884,7950.0,36.10297393798828,632,9965.0
1770,0.3355296850204468,43.232242584228516,663,7950.0,32.756141662597656,572,9965.0
1780,0.33519768714904785,24.12176513671875,253,7950.0,20.861526489257812,264,9965.0
1790,0.3354426920413971,-1.9438037872314453,-124,7950.0,4.293356418609619,-130,9965.0
1800,0.3346221446990967,-24.142154693603516,-464,7950.0,-10.005500793457031,-187,9965.0
1810,0.33141446113586426,-38.490386962890625,-653,7950.0,-21.47560691833496,-241,9965.0
1820,0.3308205008506775,-39.22904968261719,-628,7950.0,-28.657596588134766,-472,9965.0
1830,0.33014407753944397,-28.993104934692383,-370,7950.0,-30.151456832885742,-697,9965.0
1840,0.32948604226112366,-16.293630599975586,-194,7950.0,-30.232824325561523,-452,9965.0
1850,0.3285316526889801,-5.353390216827393,-71,7950.0,-25.232667922973633,-233,9965.0
1860,0.32802799344062805,6.195131778717041,152,7950.0,-14.944339752197266,-150,9965.0
1870,0.3274482488632202,11.462159156799316,245,7950.0,-0.978074848651886,-96,9965.0
1880,0.32722777128219604,9.407431602478027,86,7950.0,9.216909408569336,252,9965.0
1890,0.32707658410072327,2.086703062057495,-55,7950.0,12.000197410583496,278,9965.0
1900,0.3282186686992645,-3.6547677516937256,-94,7950.0,9.422502517700195,173,9965.0
1910,0.32833290100097656,-4.445051670074463,-9,7950.0,1.5590009689331055,-167,9965.0
1920,0.32853925228118896,0.7565575242042542,75,7950.0,-9.216814041137695,-177,9965.0
1930,0.32886892557144165,-0.5515196323394775,-109,7950.0,-8.656978607177734,-15,9965.0
1940,0.33199721574783325,-11.054190635681152,-277,7950.0,-6.294436454772949,-62,9965.0
1950,0.3327237367630005,-24.173044204711914,-397,7950.0,-9.903682708740234,-351,9965.0
1960,0.3333565294742584,-34.039119720458984,-562,7950.0,-13.494007110595703,-195,9965.0
1970,0.3338150382041931,-31.261093139648438,-522,7950.0,-11.671319007873535,-2,9965.0
1980,0.33396556973457336,-15.437063217163086,-132,7950.0,-2.4278581142425537,-24,9965.0
1990,0.334218293428421,4.509779453277588,356,7950.0,6.313312530517578,-4,9965.0
2000,0.3346579074859619,34.8943977355957,720,7950.0,13.2107572555542,300,9965.0
2010,0.33461910486221313,55.688941955566406,965,7950.0,18.65409278869629,412,9965.0
2020,0.33430925011634827,60.15206527709961,894,7950.0,15.885096549987793,174,9965.0
2030,0.33367466926574707,41.51136779785156,580,7950.0,14.691174507141113,163,9965.0
2040,0.3336162269115448,12.237797737121582,8,7950.0,18.28162956237793,294,9965.0
2050,0.3332517445087433,-22.49517822265625,-469,7950.0,23.228145599365234,537,9965.0
2060,0.3327706754207611,-46.844966888427734,-816,7950.0,27.47135353088379,544,9965.0
2070,0.3320031464099884,-50.41891860961914,-786,7950.0,20.857219696044922,87,9965.0
2080,0.33143192529678345,-39.826683044433594,-571,7950.0,6.485963821411133,58,9965.0
2090,0.3308984041213989,-18.581342697143555,-231,7950.0,-6.94059944152832,-101,9965.0
2100,0.3303609788417816,6.467226982116699,262,7950.0,-21.100399017333984,-461,9965.0
2110,0.33018338680267334,31.078880310058594,563,7950.0,-23.997989654541016,-261,9965.0
2120,0.32886701822280884,43.5755729675293,710,7950.0,-23.183866500854492,-400,9965.0
2130,0.3287963271141052,37.815731048583984,637,7950.0,-18.84222984313965,-355,9965.0
2140,0.32923775911331177,15.133593559265137,173,7950.0,-11.242754936218262,-169,9965.0
2150,0.32969924807548523,-5.0638837814331055,-224,7950.0,-2.3948023319244385,123,9965.0
2160,0.33059602975845337,-14.405492782592773,-311,7950.0,6.295969486236572,88,9965.0
2170,0.33117809891700745,-15.156462669372559,-163,7950.0,7.203286170959473,95,9965.0
2180,0.33178189396858215,-10.281476020812988,-39,7950.0,2.560661554336548,10,9965.0
2190,0.33245816826820374,-9.756495475769043,-224,7950.0,1.3347879648208618,26,9965.0
2200,0.3331240713596344,-10.347426414489746,-291,7950.0,-3.615276575088501,-76,9965.0
2210,0.3339270353317261,-20.660053253173828,-330,7950.0,-7.3859992027282715,-187,9965.0
2220,0.3346711993217468,-24.82343101501465,-337,7950.0,-6.995954990386963,-45,9965.0
2230,0.33520448207855225,-21.87894630432129,-368,7950.0,4.549673557281494,222,9965.0
2240,0.3354971706867218,-7.453688144683838,-81,7950.0,22.509984970092773,431,9965.0
2250,0.3347070813179016,15.581875801086426,468,7950.0,36.43641662597656,543,9965.0
2260,0.334726482629776,41.02341842651367,748,7950.0,37.21501159667969,637,9965.0
2270,0.33438172936439514,59.621883392333984,916,7950.0,26.96014976501465,415,9965.0
2280,0.33434849977493286,55.254066467285156,882,7950.0,13.184918403625488,128,9965.0
2290,0.33287009596824646,23.839794158935547,227,7950.0,0.9166663885116577,-118,9965.0
2300,0.3325413763523102,-13.776705741882324,-409,7950.0,-12.81379508972168,-123,9965.0
2310,0.332144170999527,-42.97774124145508,-826,7950.0,-26.48626708984375,-468,9965.0
2320,0.33136844635009766,-52.9585075378418,-758,7950.0,-36.88145065307617,-772,9965.0
2330,0.33040472865104675,-45.83286666870117,-669,7950.0,-40.8336181640625,-683,9965.0
2340,0.32970884442329407,-27.860685348510742,-466,7950.0,-38.83745193481445,-496,9965.0
2350,0.3287600576877594,-6.943601131439209,30,7950.0,-32.86876678466797,-523,9965.0
2360,0.32816702127456665,13.413617134094238,339,7950.0,-22.526426315307617,-395,9965.0
2370,0.32820385694503784,24.803239822387695,388,7950.0,-7.078713417053223,23,9965.0
2380,0.3298020362854004,29.824996948242188,404,7950.0,14.248525619506836,298,9965.0
2390,0.33000054955482483,25.418720245361328,392,7950.0,33.10457229614258,609,9965.0
2400,0.3303116261959076,14.519017219543457,306,7950.0,46.44060134887695,782,9965.0
2410,0.33064576983451843,1.9337084293365479,16,7950.0,48.19049072265625,784,9965.0
2420,0.33108091354370117,-3.74161696434021,-185,7950.0,38.195987701416016,634,9965.0
2430,0.33167022466659546,-11.773805618286133,-219,7950.0,28.736347198486328,430,9965.0
2440,0.33241501450538635,-16.08043670654297,-182,7950.0,10.117486000061035,-4,9965.0
2450,0.33316099643707275,-19.010421752929688,-415,7950.0,-13.250982284545898,-201,9965.0
2460,0.33404794335365295,-22.076656341552734,-361,7950.0,-26.590349197387695,-514,9965.0
2470,0.33220601081848145,-22.86896514892578,-324,7950.0,-32.11854553222656,-600,9965.0
2480,0.33229485154151917,-22.182472229003906,-367,7950.0,-30.18538475036621,-288,9965.0
2490,0.3324199318885803,-14.226794242858887,-190,7950.0,-17.802669525146484,-230,9965.0
2500,0.3323371708393097,-5.818676948547363,-1,7950.0,-2.4282913208007812,-106,9965.0
2510,0.33324846625328064,6.533502578735352,252,7950.0,6.150909423828125,187,9965.0
2520,0.3329346477985382,20.858749389648438,417,7950.0,6.207765579223633,160,9965.0
2530,0.33249378204345703,37.46796798706055,620,7950.0,12.158164024353027,158,9965.0
2540,0.3317530155181885,45.86415481567383,849,7950.0,16.036470413208008,204,9965.0
2550,0.3310149908065796,39.001338958740234,576,7950.0,11.106897354125977,150,9965.0
2560,0.33096417784690857,19.901145935058594,66,7950.0,-0.5656262040138245,29,9965.0
2570,0.3302571773529053,-4.278172969818115,-220,7950.0,-13.440936088562012,-319,9965.0
2580,0.32931986451148987,-19.5256290435791,-270,7950.0,-24.71572494506836,-529,9965.0
2590,0.3282862901687622,-30.115270614624023,-446,7950.0,-29.977815628051758,-619,9965.0
2600,0.3300374448299408,-29.727035522460938,-532,7950.0,-36.21302032470703,-437,9965.0
2610,0.32940229773521423,-17.228830337524414,-183,7950.0,-33.44008255004883,-501,9965.0
2620,0.3288413882255554,-0.1922106295824051,166,7950.0,-20.84017562866211,-320,9965.0
2630,0.32869386672973633,9.533086776733398,266,7950.0,-7.9979095458984375,42,9965.0
2640,0.32844358682632446,16.590723037719727,228,7950.0,11.558616638183594,345,9965.0
2650,0.3295436501502991,14.739689826965332,130,7950.0,30.70798110961914,636,9965.0
2660,0.329865962266922,3.2654125690460205,-51,7950.0,47.54501724243164,878,9965.0
2670,0.3302580416202545,-15.454798698425293,-221,7950.0,59.95276641845703,874,9965.0
2680,0.33054882287979126,-32.027408599853516,-531,7950.0,56.86021041870117,931,9965.0
2690,0.3310979902744293,-33.03983688354492,-598,7950.0,50.08911895751953,760,9965.0
2700,0.332084059715271,-21.99488639831543,-181,7950.0,33.55720520019531,440,9965.0
2710,0.3326636850833893,-7.000453472137451,-121,7950.0,17.65583610534668,255,9965.0
2720,0.33325257897377014,7.3498029708862305,238,7950.0,1.3915386199951172,-42,9965.0
2730,0.33247262239456177,19.62148094177246,384,7950.0,-14.3389892578125,-293,9965.0
2740,0.3324832618236542,31.746685028076172,509,7950.0,-26.6335506439209,-496,9965.0
2750,0.3323656916618347,34.44325256347656,666,7950.0,-33.89118576049805,-558,9965.0
2760,0.3321000337600708,33.265987396240234,462,7950.0,-33.23851013183594,-529,9965.0
2770,0.33166876435279846,24.16600227355957,320,7950.0,-29.163137435913086,-463,9965.0
2780,0.33210381865501404,12.774413108825684,223,7950.0,-23.419893264770508,-376,9965.0
2790,0.3313888907432556,3.0088253021240234,83,7950.0,-15.50537109375,-210,9965.0
2800,0.33104223012924194,-5.953253746032715,-161,7950.0,-6.78566837310791,-97,9965.0
2810,0.33033743500709534,-11.002753257751465,-246,7950.0,-4.414191246032715,59,9965.0
2820,0.3310259282588959,-15.338949203491211,-353,7950.0,-1.6101304292678833,3,9965.0
2830,0.3303805887699127,-16.8782958984375,-208,7950.0,0.3211138844490051,-66,9965.0
2840,0.32969874143600464,-17.030494689941406,-200,7950.0,1.052115559577942,-44,9965.0
2850,0.32898661494255066,-11.409818649291992,-248,7950.0,-0.6336875557899475,134,9965.0
2860,0.3284265398979187,-2.9317493438720703,-57,7950.0,2.3425211906433105,113,9965.0
2870,0.3298507332801819,5.015057563781738,197,7950.0,-0.6086118817329407,-133,9965.0
2880,0.32974737882614136,10.64375114440918,226,7950.0,-7.968762397766113,-156,9965.0
2890,0.32979467511177063,11.983013153076172,120,7950.0,-19.215599060058594,-355,9965.0
2900,0.32997164130210876,11.971790313720703,192,7950.0,-26.207347869873047,-392,9965.0
2910,0.3301433026790619,8.80639934539795,262,7950.0,-15.595702171325684,-262,9965.0
2920,0.3304974436759949,4.866270542144775,131,7950.0,-1.5789769887924194,25,9965.0
2930,0.3308126926422119,5.071383476257324,39,7950.0,16.948545455932617,436,9965.0
2940,0.3311205506324768,5.024811267852783,-40,7950.0,32.30255889892578,550,9965.0
2950,0.3323533236980438,-0.0979180783033371,-42,7950.0,36.06806945800781,577,9965.0
2960,0.33234068751335144,-4.98915433883667,23,7950.0,33.1833610534668,467,9965.0
2970,0.33233842253685,-9.063627243041992,-146,7950.0,26.71738624572754,391,9965.0
2980,0.33190417289733887,-11.092254638671875,-312,7950.0,16.77073860168457,291,9965.0
2990,0.331641286611557,-15.01731014251709,-200,7950.0,10.225483894348145,86,9965.0
3000,0.3310455083847046,-9.65464973449707,-83,7950.0,2.2243499755859375,-7,9965.0
3010,0.33045005798339844,-5.209988117218018,-154,7950.0,-3.972804546356201,-10,9965.0
3020,0.32994499802589417,-1.0608344078063965,11,7950.0,-7.050498962402344,-167,9965.0
3030,0.3294259011745453,4.775892734527588,160,7950.0,-17.467321395874023,-420,9965.0
3040,0.3284749388694763,8.281813621520996,84,7950.0,-27.48250961303711,-421,9965.0
3050,0.32784056663513184,4.041947364807129,37,7950.0,-38.39200973510742,-627,9965.0
3060,0.3273158371448517,-4.6279377937316895,-74,7950.0,-43.235107421875,-712,9965.0
3070,0.32695215940475464,-13.23965072631836,-210,7950.0,-33.9293098449707,-617,9965.0
3080,0.32757502794265747,-15.931745529174805,-301,7950.0,-16.822961807250977,-155,9965.0
3090,0.32761150598526,-10.74139404296875,-140,7950.0,3.987905502319336,273,9965.0
3100,0.3281378746032715,-2.107664108276367,6,7950.0,19.390689849853516,383,9965.0
3110,0.3284713923931122,7.5276312828063965,166,7950.0,24.4188232421875,284,9965.0
3120,0.3288143575191498,12.65836238861084,239,7950.0,20.628711700439453,218,9965.0
3130,0.3301205337047577,15.593216896057129,231,7950.0,7.484769344329834,114,9965.0
3140,0.3308340311050415,13.84113597869873,243,7950.0,-4.922275066375732,-97,9965.0
3150,0.33146345615386963,6.959969997406006,-51,7950.0,-14.66087818145752,-258,9965.0
3160,0.332089364528656,-9.787644386291504,-298,7950.0,-12.778639793395996,-181,9965.0
3170,0.3326972723007202,-18.66172218322754,-168,7950.0,-2.4878177642822266,-64,9965.0
3180,0.33304575085639954,-8.91347599029541,-11,7950.0,8.262332916259766,170,9965.0
3190,0.33334115147590637,-1.3730652332305908,-68,7950.0,19.467451095581055,505,9965.0
3200,0.33349406719207764,2.3553154468536377,22,7950.0,28.100399017333984,526,9965.0
3210,0.33328893780708313,7.90428352355957,157,7950.0,31.21949577331543,390,9965.0
3220,0.33302950859069824,6.942842483520508,123,7950.0,28.980138778686523,465,9965.0
3230,0.3324943482875824,5.801450729370117,89,7950.0,24.3715877532959,503,9965.0
3240,0.33175966143608093,5.9399542808532715,77,7950.0,16.68924903869629,253,9965.0
3250,0.3308299481868744,3.8178036212921143,54,7950.0,9.81548023223877,-10,9965.0
3260,0.3307141363620758,2.153926372528076,88,7950.0,-0.3672395348548889,-9,9965.0
3270,0.32974520325660706,3.5577728748321533,63,7950.0,-12.42015552520752,-238,9965.0
3280,0.3286173343658447,3.9222006797790527,-16,7950.0,-20.75859260559082,-424,9965.0
3290,0.32749679684638977,3.5384044647216797,124,7950.0,-24.604398727416992,-444,9965.0
3300,0.3264467120170593,6.327065467834473,169,7950.0,-25.905057907104492,-523,9965.0
3310,0.32613489031791687,7.247730255126953,54,7950.0,-21.337099075317383,-218,9965.0
3320,0.3256259560585022,0.5465988516807556,-82,7950.0,-12.00931167602539,-78,9965.0
3330,0.3253823518753052,-11.443845748901367,-226,7950.0,-6.595646858215332,-61,9965.0
3340,0.3253265619277954,-22.935165405273438,-348,7950.0,-1.7963182926177979,-194,9965.0
3350,0.32681792974472046,-23.66201400756836,-340,7950.0,-4.293706893920898,-45,9965.0
3360,0.3272503912448883,-19.151084899902344,-339,7950.0,-6.767650604248047,25,9965.0
3370,0.32770630717277527,-19.028779983520508,-360,7950.0,-7.620760440826416,-88,9965.0
3380,0.3283155858516693,-24.121078491210938,-393,7950.0,-4.132743835449219,-203,9965.0
3390,0.3304908871650696,-20.381942749023438,-269,7950.0,0.32459235191345215,13,9965.0
3400,0.33134207129478455,-7.833137512207031,-13,7950.0,2.814687728881836,225,9965.0
3410,0.332157164812088,13.136404037475586,219,7950.0,14.033211708068848,182,9965.0
3420,0.3329222798347473,29.86605453491211,570,7950.0,23.345672607421875,361,9965.0
3430,0.3333238363265991,44.38261795043945,830,7950.0,29.319477081298828,640,9965.0
3440,0.3347303867340088,51.203983306884766,801,7950.0,32.34614944458008,525,9965.0
3450,0.3347838222980499,49.596031188964844,737,7950.0,27.564393997192383,329,9965.0
3460,0.3345346748828888,36.28278732299805,586,7950.0,20.620691299438477,341,9965.0
3470,0.33414584398269653,16.4196720123291,103,7950.0,9.641727447509766,194,9965.0
3480,0.33464306592941284,-9.670159339904785,-331,7950.0,2.5187418460845947,25,9965.0
3490,0.33446186780929565,-32.605995178222656,-660,7950.0,-2.706042766571045,-121,9965.0
3500,0.33403217792510986,-42.5413703918457,-551,7950.0,-11.48555850982666,-271,9965.0
3510,0.33354565501213074,-40.75376892089844,-637,7950.0,-22.667282104492188,-416,9965.0
3520,0.3331262171268463,-29.72335433959961,-513,7950.0,-37.9207763671875,-592,9965.0
3530,0.3325866460800171,-15.715332984924316,-131,7950.0,-45.805763244628906,-899,9965.0
3540,0.33207622170448303,0.7098783850669861,119,7950.0,-44.78364944458008,-685,9965.0
3550,0.3317612111568451,14.117944717407227,236,7950.0,-32.50472640991211,-316,9965.0
3560,0.3315921127796173,13.805028915405273,179,7950.0,-12.299935340881348,-8,9965.0
3570,0.33107900619506836,3.6887893676757812,26,7950.0,6.770973205566406,177,9965.0
3580,0.3310980498790741,-4.096216678619385,-134,7950.0,21.311208724975586,191,9965.0
3590,0.3313954174518585,-10.056640625,-81,7950.0,17.681659698486328,288,9965.0
3600,0.3319186270236969,-11.328498840332031,-98,7950.0,14.51176643371582,263,9965.0
3610,0.3314748704433441,-14.924304962158203,-274,7950.0,7.268889427185059,48,9965.0
3620,0.3319610059261322,-16.56946563720703,-340,7950.0,5.807140827178955,135,9965.0
3630,0.332542359828949,-15.214239120483398,-167,7950.0,4.466611385345459,-46,9965.0
3640,0.333089679479599,-4.638192653656006,58,7950.0,2.5843610763549805,27,9965.0
3650,0.33364707231521606,12.277327537536621,245,7950.0,12.479963302612305,473,9965.0
3660,0.33336690068244934,27.1003475189209,535,7950.0,24.004026412963867,397,9965.0
3670,0.33340078592300415,37.88945388793945,679,7950.0,28.03777503967285,335,9965.0
3680,0.3330988585948944,41.135719299316406,665,7950.0,24.133481979370117,433,9965.0
3690,0.3328307867050171,30.907411575317383,433,7950.0,16.959455490112305,301,9965.0
3700,0.3312321603298187,13.224679946899414,51,7950.0,6.621137619018555,35,9965.0
3710,0.3306458592414856,-4.1291279792785645,-135,7950.0,-6.303077697753906,-200,9965.0
3720,0.3300740718841553,-19.350990295410156,-270,7950.0,-15.11814022064209,-246,9965.0
3730,0.32933056354522705,-27.389375686645508,-518,7950.0,-21.75135612487793,-359,9965.0
3740,0.3282838761806488,-25.980009078979492,-459,7950.0,-29.94184684753418,-479,9965.0
3750,0.3273718059062958,-18.901187896728516,-227,7950.0,-36.804344177246094,-765,9965.0
3760,0.3267457187175751,-10.984099388122559,-105,7950.0,-41.281707763671875,-673,9965.0
3770,0.3262630105018616,-0.4368821084499359,38,7950.0,-33.57621765136719,-295,9965.0
3780,0.32613930106163025,5.5899505615234375,114,7950.0,-11.768985748291016,-31,9965.0
3790,0.3281782865524292,10.32081127166748,144,7950.0,7.149086952209473,147,9965.0
3800,0.3287191390991211,9.34742546081543,87,7950.0,22.596471786499023,409,9965.0
3810,0.32924994826316833,0.5315098166465759,5,7950.0,36.82701873779297,601,9965.0
3820,0.3298730254173279,-2.689774990081787,18,7950.0,36.40827178955078,665,9965.0
3830,0.33072054386138916,-0.6437084078788757,-91,7950.0,24.322858810424805,351,9965.0
3840,0.3316347002983093,-3.7396962642669678,-140,7950.0,15.446857452392578,211,9965.0
3850,0.33262860774993896,-19.717857360839844,-294,7950.0,14.521556854248047,129,9965.0
3860,0.3334555923938751,-27.681116104125977,-517,7950.0,5.053369045257568,51,9965.0
3870,0.33406776189804077,-24.168779373168945,-311,7950.0,-0.8101904392242432,39,9965.0
3880,0.3354847729206085,-4.987715721130371,36,7950.0,-0.47774702310562134,-104,9965.0
3890,0.33606579899787903,10.813676834106445,262,7950.0,2.3669145107269287,93,9965.0
3900,0.33651599287986755,21.650253295898438,335,7950.0,2.6135478019714355,45,9965.0
3910,0.33684206008911133,29.953304290771484,524,7950.0,-0.3204934597015381,-63,9965.0
3920,0.33645880222320557,35.78923797607422,624,7950.0,-2.2356348037719727,-151,9965.0
3930,0.3362441956996918,33.947418212890625,529,7950.0,-5.147779941558838,-22,9965.0
3940,0.33585092425346375,23.089706420898438,381,7950.0,-3.5347843170166016,-9,9965.0
3950,0.33510518074035645,5.890896320343018,-62,7950.0,-1.1975421905517578,41,9965.0
3960,0.33293405175209045,-7.350478172302246,-200,7950.0,-3.6751575469970703,-36,9965.0
3970,0.3320133686065674,-15.345108032226562,-213,7950.0,-8.950065612792969,-358,9965.0
3980,0.3310711681842804,-16.744850158691406,-289,7950.0,-15.649490356445312,-239,9965.0
3990,0.3300788700580597,-13.154086112976074,-202,7950.0,-19.609224319458008,-216,9965.0
4000,0.3291015625,-10.772095680236816,-169,7950.0,-20.097036361694336,-293,9965.0
4010,0.3274175524711609,-7.675673007965088,-191,7950.0,-14.4608793258667,-271,9965.0
4020,0.32670632004737854,-8.925307273864746,-133,7950.0,-12.035000801086426,-172,9965.0
4030,0.32630792260169983,-9.574691772460938,-54,7950.0,-9.852017402648926,-112,9965.0
4040,0.3261869251728058,-7.948990345001221,-151,7950.0,-6.071101188659668,-97,9965.0
4050,0.32725152373313904,-3.724761486053467,-147,7950.0,-3.4110913276672363,47,9965.0
4060,0.3276699483394623,-7.3418354988098145,-105,7950.0,-1.844614028930664,9,9965.0
4070,0.3283006250858307,-17.31011962890625,-285,7950.0,10.267430305480957,34,9965.0
4080,0.3291914463043213,-28.695600509643555,-506,7950.0,12.65869140625,317,9965.0
4090,0.3300397992134094,-32.06964874267578,-443,7950.0,13.616365432739258,276,9965.0
4100,0.3305136561393738,-19.59848976135254,-274,7950.0,12.901875495910645,67,9965.0
4110,0.3313922584056854,-3.7759220600128174,50,7950.0,17.83633041381836,416,9965.0
4120,0.33193156123161316,16.009029388427734,375,7950.0,24.28217315673828,462,9965.0
4130,0.3326537013053894,40.5064811706543,755,7950.0,29.995433807373047,364,9965.0
4140,0.3323186933994293,66.40196990966797,1250,7950.0,25.55748176574707,422,9965.0
4150,0.33227506279945374,74.41006469726562,1127,7950.0,18.220537185668945,318,9965.0
4160,0.3320123851299286,62.10623550415039,889,7950.0,6.458019733428955,44,9965.0
4170,0.33172035217285156,36.878509521484375,542,7950.0,-7.977794170379639,-209,9965.0
4180,0.33151760697364807,4.412356376647949,3,7950.0,-17.828710556030273,-460,9965.0
4190,0.3317452073097229,-20.96392250061035,-548,7950.0,-38.028297424316406,-536,9965.0
4200,0.33136048913002014,-40.359283447265625,-746,7950.0,-45.95140075683594,-650,9965.0
4210,0.33079949021339417,-47.96339797973633,-803,7950.0,-40.09141540527344,-613,9965.0
4220,0.3301061987876892,-40.57150650024414,-615,7950.0,-27.279808044433594,-532,9965.0
4230,0.32957595586776733,-20.064449310302734,-164,7950.0,-15.60045337677002,-188,9965.0
4240,0.3292415738105774,2.677637815475464,186,7950.0,-0.8962321281433105,56,9965.0
4250,0.32886916399002075,16.063180923461914,267,7950.0,12.36290168762207,225,9965.0
4260,0.3286048173904419,20.987224578857422,283,7950.0,23.06972312927246,572,9965.0
4270,0.32987427711486816,18.487529754638672,301,7950.0,26.50504493713379,419,9965.0
4280,0.33001652359962463,7.58003568649292,69,7950.0,29.098215103149414,305,9965.0
4290,0.3302726149559021,-6.558156967163086,-126,7950.0,22.693084716796875,298,9965.0
4300,0.3307066261768341,-20.009841918945312,-265,7950.0,12.308974266052246,237,9965.0
4310,0.3300096094608307,-20.09493637084961,-409,7950.0,-1.352914571762085,-110,9965.0
4320,0.330748587846756,-20.78215217590332,-356,7950.0,-11.903677940368652,-251,9965.0
4330,0.3315415382385254,-23.759008407592773,-314,7950.0,-19.97747230529785,-461,9965.0
4340,0.3322591483592987,-26.885961532592773,-481,7950.0,-27.72385025024414,-409,9965.0
4350,0.33316248655319214,-24.10749626159668,-334,7950.0,-33.15284729003906,-473,9965.0
4360,0.3333573639392853,-11.880192756652832,-166,7950.0,-31.4818058013916,-589,9965.0
4370,0.3339843451976776,3.6095428466796875,107,7950.0,-20.767488479614258,-237,9965.0
4380,0.3345955014228821,12.265429496765137,347,7950.0,5.51353120803833,185,9965.0
4390,0.33573949337005615,21.22472381591797,339,7950.0,23.72071075439453,484,9965.0
4400,0.33620336651802063,28.87586212158203,428,7950.0,38.461578369140625,810,9965.0
4410,0.33657971024513245,35.17726516723633,588,7950.0,43.52974319458008,740,9965.0
4420,0.3367663025856018,34.022518157958984,527,7950.0,47.91268539428711,635,9965.0
4430,0.3372134268283844,22.87676239013672,337,7950.0,44.220428466796875,654,9965.0
4440,0.3371080160140991,10.471223831176758,157,7950.0,30.58242416381836,376,9965.0
4450,0.3349274694919586,-4.162161350250244,-254,7950.0,9.850140571594238,195,9965.0
4460,0.33464136719703674,-17.563278198242188,-367,7950.0,-8.748479843139648,-221,9965.0
4470,0.33477866649627686,-23.236230850219727,-425,7950.0,-28.393266677856445,-693,9965.0
4480,0.3345685601234436,-21.519729614257812,-244,7950.0,-38.687007904052734,-698,9965.0
4490,0.33223745226860046,-8.100998878479004,17,7950.0,-42.060340881347656,-696,9965.0
4500,0.3320227861404419,7.821743965148926,152,7950.0,-39.215110778808594,-472,9965.0
4510,0.3319072425365448,20.289525985717773,375,7950.0,-32.8602180480957,-348,9965.0
4520,0.3322620093822479,23.3686580657959,259,7950.0,-21.5987606048584,-197,9965.0
4530,0.3331272304058075,8.78740119934082,-45,7950.0,-8.265432357788086,-29,9965.0
4540,0.33167049288749695,-12.249951362609863,-357,7950.0,0.5556633472442627,27,9965.0
4550,0.3325115442276001,-29.266645431518555,-453,7950.0,4.633423805236816,117,9965.0
4560,0.33336368203163147,-29.134315490722656,-383,7950.0,6.409698963165283,175,9965.0
4570,0.3342110812664032,-17.95635223388672,-225,7950.0,7.671848773956299,141,9965.0
4580,0.3337591588497162,-8.852150917053223,-64,7950.0,14.00936508178711,110,9965.0
4590,0.33470726013183594,-9.9192533493042,-195,7950.0,19.511802673339844,362,9965.0
4600,0.335605651140213,-18.106502532958984,-245,7950.0,27.547273635864258,458,9965.0
4610,0.33641645312309265,-21.311933517456055,-366,7950.0,24.437387466430664,394,9965.0
4620,0.33455270528793335,-20.50140953063965,-377,7950.0,20.917163848876953,440,9965.0
4630,0.3354606032371521,-9.313725471496582,-36,7950.0,10.824530601501465,-22,9965.0
4640,0.3362080454826355,5.957144737243652,188,7950.0,-1.340226650238037,-38,9965.0
4650,0.3372251093387604,17.896793365478516,318,7950.0,-13.530197143554688,-306,9965.0
4660,0.33795487880706787,25.785940170288086,406,7950.0,-25.375280380249023,-402,9965.0
4670,0.33648085594177246,26.84545135498047,471,7950.0,-33.016239166259766,-677,9965.0
4680,0.33690130710601807,22.50840950012207,334,7950.0,-34.2673454284668,-638,9965.0
4690,0.3372938930988312,9.041027069091797,142,7950.0,-29.225893020629883,-374,9965.0
4700,0.3378099799156189,-2.556216239929199,-117,7950.0,-21.002614974975586,-232,9965.0
4710,0.3376981317996979,-9.64909553527832,-217,7950.0,-13.651604652404785,-41,9965.0
4720,0.3384522795677185,-14.795541763305664,-277,7950.0,-1.3189417123794556,69,9965.0
4730,0.33926257491111755,-13.65046215057373,-316,7950.0,11.736763000488281,240,9965.0
4740,0.34034985303878784,-11.4384765625,-131,7950.0,20.92270851135254,409,9965.0
4750,0.3416174352169037,-1.181901216506958,45,7950.0,26.076940536499023,333,9965.0
4760,0.3427521884441376,7.137486934661865,215,7950.0,24.84130096435547,341,9965.0
4770,0.34431424736976624,13.74549674987793,264,7950.0,17.918453216552734,221,9965.0
4780,0.34591367840766907,13.7608003616333,216,7950.0,7.717505931854248,178,9965.0
4790,0.34750375151634216,10.931625366210938,121,7950.0,-4.734134197235107,-167,9965.0
4800,0.3481748700141907,5.718177795410156,77,7950.0,-17.177888870239258,-166,9965.0
4810,0.3499540686607361,-3.116447925567627,-181,7950.0,-26.865999221801758,-410,9965.0
4820,0.3517686724662781,-13.697782516479492,-225,7950.0,-26.77643585205078,-336,9965.0
4830,0.35335099697113037,-10.288220405578613,-224,7950.0,-22.49431610107422,-227,9965.0
4840,0.3551884889602661,-4.497135639190674,22,7950.0,-11.770174980163574,-31,9965.0
4850,0.3565520644187927,3.451709270477295,7,7950.0,3.4662926197052,202,9965.0
4860,0.3576468825340271,11.722332954406738,338,7950.0,16.410289764404297,367,9965.0
4870,0.3582216203212738,23.705427169799805,199,7950.0,30.824392318725586,574,9965.0
4880,0.35843363404273987,13.625509262084961,213,7950.0,37.0294189453125,694,9965.0
4890,0.359985888004303,16.633359909057617,206,7950.0,44.01791000366211,759,9965.0
4900,0.35951024293899536,10.823365211486816,134,7950.0,48.09121322631836,735,9965.0
4910,0.3582492470741272,0.017765456810593605,-48,7950.0,41.2366828918457,602,9965.0
4920,0.35641494393348694,-7.213322639465332,-21,7950.0,32.63683319091797,303,9965.0
4930,0.3532840311527252,-4.516043663024902,-58,7950.0,13.366317749023438,179,9965.0
4940,0.3510814309120178,-4.296573162078857,-70,7950.0,-10.287718772888184,-237,9965.0
4950,0.3491327166557312,-0.1489204615354538,-87,7950.0,-31.52178955078125,-571,9965.0
4960,0.3474542498588562,-1.319534420967102,36,7950.0,-45.87928771972656,-939,9965.0
4970,0.34479910135269165,-3.1475892066955566,-59,7950.0,-48.27855682373047,-666,9965.0
4980,0.34253987669944763,-3.226222515106201,-82,7950.0,-40.42906188964844,-461,9965.0
4990,0.34029221534729004,-3.7453532218933105,-78,7950.0,-28.4851131439209,-553,9965.0
5000,0.3381509780883789,-3.768582344055176,-30,7950.0,-19.39167594909668,-330,9965.0
5010,0.3363358974456787,-5.590164661407471,-64,7950.0,-14.912630081176758,-131,9965.0
5020,0.3340339660644531,-4.557394981384277,-89,7950.0,-14.3865327835083,-99,9965.0
5030,0.33313053846359253,-4.632006645202637,-93,7950.0,-11.516349792480469,-200,9965.0
5040,0.332669198513031,0.4811052978038788,58,7950.0,-8.197009086608887,-221,9965.0
5050,0.33252620697021484,2.636449098587036,35,7950.0,-0.539667546749115,84,9965.0
5060,0.33489537239074707,8.207395553588867,94,7950.0,16.508892059326172,503,9965.0
5070,0.3355042040348053,2.2178874015808105,45,7950.0,32.94233322143555,503,9965.0
5080,0.3363603353500366,-8.577862739562988,-122,7950.0,37.22959899902344,541,9965.0
5090,0.33738473057746887,-9.452494621276855,-130,7950.0,33.62276077270508,522,9965.0
5100,0.33865901827812195,0.5123880505561829,-28,7950.0,25.655948638916016,446,9965.0
5110,0.3387187421321869,6.212904930114746,133,7950.0,20.2318172454834,262,9965.0
5120,0.3398181200027466,3.508568286895752,63,7950.0,17.838842391967773,227,9965.0
5130,0.3408239185810089,1.4229835271835327,-45,7950.0,13.864446640014648,361,9965.0
5140,0.34225350618362427,-3.771580219268799,-98,7950.0,10.499052047729492,111,9965.0
5150,0.34050434827804565,-6.450493335723877,-115,7950.0,5.427860736846924,-47,9965.0
5160,0.3410273492336273,-3.2947914600372314,68,7950.0,-5.2278337478637695,-151,9965.0
5170,0.3414938151836395,-1.1687668561935425,-49,7950.0,-18.44867706298828,-264,9965.0
5180,0.3418777585029602,2.9297990798950195,52,7950.0,-28.566692352294922,-494,9965.0
5190,0.3422631323337555,7.88069486618042,105,7950.0,-32.509429931640625,-564,9965.0
5200,0.3410475552082062,13.300756454467773,256,7950.0,-29.216917037963867,-431,9965.0
5210,0.3409770429134369,15.417852401733398,359,7950.0,-15.793678283691406,-333,9965.0
5220,0.3413272500038147,16.0064640045166,233,7950.0,-0.7143831253051758,70,9965.0
5230,0.3413698375225067,10.376126289367676,261,7950.0,12.033055305480957,150,9965.0
5240,0.3402802646160126,3.848526954650879,-8,7950.0,19.180910110473633,303,9965.0
5250,0.34010350704193115,-5.127518653869629,-120,7950.0,22.115161895751953,409,9965.0
5260,0.33988502621650696,-9.522215843200684,-181,7950.0,16.618885040283203,277,9965.0
5270,0.339584618806839,-11.262483596801758,-287,7950.0,5.962032794952393,158,9965.0
5280,0.3374045789241791,-8.201753616333008,-61,7950.0,-2.5113344192504883,-7,9965.0
5290,0.33689963817596436,0.16091503202915192,60,7950.0,-0.9821280241012573,-216,9965.0
5300,0.3364024758338928,13.975924491882324,348,7950.0,-6.509588718414307,-81,9965.0
5310,0.33573707938194275,25.33721160888672,527,7950.0,-2.048628091812134,59,9965.0
5320,0.334906667470932,28.42704200744629,418,7950.0,8.17027759552002,123,9965.0
5330,0.3323034346103668,23.027103424072266,194,7950.0,18.28544807434082,503,9965.0
5340,0.3311457931995392,-0.7038974761962891,-165,7950.0,25.49534797668457,539,9965.0
5350,0.330194890499115,-31.11064338684082,-636,7950.0,30.02779197692871,435,9965.0
5360,0.3288908302783966,-52.86777877807617,-924,7950.0,27.872358322143555,354,9965.0
5370,0.32672393321990967,-51.88810348510742,-685,7950.0,17.977842330932617,232,9965.0
5380,0.32573583722114563,-37.681331634521484,-537,7950.0,4.177759170532227,24,9965.0
5390,0.3253023624420166,-13.395191192626953,-156,7950.0,-13.846114158630371,-367,9965.0
5400,0.3251325488090515,8.965965270996094,285,7950.0,-30.40205192565918,-525,9965.0
5410,0.32517433166503906,19.64607810974121,234,7950.0,-39.88510513305664,-618,9965.0
5420,0.32347387075424194,12.624787330627441,176,7950.0,-38.59012985229492,-622,9965.0
5430,0.3242754340171814,0.4233303964138031,35,7950.0,-26.69466781616211,-344,9965.0
5440,0.32512331008911133,-6.601816654205322,-98,7950.0,-16.721179962158203,-238,9965.0
5450,0.3258052468299866,-1.5476150512695312,-107,7950.0,-8.249588012695312,-93,9965.0
5460,0.3283451199531555,9.710064888000488,223,7950.0,1.2349746227264404,89,9965.0
5470,0.32865896821022034,25.58264923095703,585,7950.0,11.822688102722168,113,9965.0
5480,0.329058438539505,32.62847900390625,527,7950.0,15.325328826904297,194,9965.0
5490,0.3290101885795593,26.056541442871094,327,7950.0,11.913969993591309,336,9965.0
5500,0.33077266812324524,15.837288856506348,234,7950.0,6.155078887939453,117,9965.0
5510,0.3309137225151062,6.265843868255615,-44,7950.0,-4.54632568359375,-176,9965.0
5520,0.3303040862083435,-3.8958754539489746,-75,7950.0,-15.966742515563965,-289,9965.0
5530,0.33047178387641907,-18.810461044311523,-272,7950.0,-18.387231826782227,-417,9965.0
5540,0.32923370599746704,-29.917469024658203,-439,7950.0,-21.456127166748047,-467,9965.0
5550,0.3304010033607483,-33.44227600097656,-540,7950.0,-24.455568313598633,-202,9965.0
5560,0.32937169075012207,-29.1151065826416,-437,7950.0,-13.128880500793457,-143,9965.0
5570,0.328305184841156,-12.416082382202148,-145,7950.0,-8.238333702087402,-204,9965.0
5580,0.3267623484134674,13.619579315185547,379,7950.0,-2.5689022541046143,18,9965.0
5590,0.3275359272956848,30.273908615112305,659,7950.0,7.860026836395264,190,9965.0
5600,0.32581019401550293,41.52956771850586,636,7950.0,12.603469848632812,221,9965.0
5610,0.3237535059452057,39.15696334838867,518,7950.0,14.934741020202637,246,9965.0
5620,0.3215503394603729,25.986186981201172,321,7950.0,12.15373706817627,93,9965.0
5630,0.31727635860443115,8.404605865478516,93,7950.0,7.461159706115723,81,9965.0
5640,0.3172031342983246,-11.271895408630371,-202,7950.0,5.775440692901611,147,9965.0
5650,0.3117337226867676,-23.846065521240234,-462,7950.0,2.667760133743286,131,9965.0
5660,0.3116829991340637,-27.19865608215332,-406,7950.0,2.177196979522705,-165,9965.0
5670,0.30612868070602417,-19.694616317749023,-225,7950.0,2.822453260421753,73,9965.0
5680,0.3061874806880951,-9.858798027038574,-173,7950.0,7.139857292175293,94,9965.0
5690,0.3011263608932495,-5.7966413497924805,-32,7950.0,10.37125015258789,226,9965.0
5700,0.3010654151439667,-15.41321086883545,-243,7950.0,14.231663703918457,342,9965.0
5710,0.2985174059867859,-25.381704330444336,-478,7950.0,17.532081604003906,192,9965.0
5720,0.29614242911338806,-30.419944763183594,-501,7950.0,17.2529296875,309,9965.0
5730,0.2941704988479614,-24.043153762817383,-371,7950.0,15.601156234741211,144,9965.0
5740,0.2924324572086334,-11.167732238769531,-58,7950.0,6.827455997467041,208,9965.0
5750,0.2908886671066284,0.4478202164173126,23,7950.0,0.1854005604982376,-197,9965.0
5760,0.28972843289375305,13.262149810791016,341,7950.0,-10.185232162475586,-214,9965.0
5770,0.2880576252937317,19.749004364013672,232,7950.0,-11.078025817871094,-90,9965.0
5780,0.2870459258556366,14.624417304992676,323,7950.0,-0.5879354476928711,34,9965.0
5790,0.28638994693756104,4.48572301864624,-30,7950.0,9.629032135009766,286,9965.0
5800,0.285567045211792,-10.797704696655273,-296,7950.0,16.13916015625,183,9965.0
5810,0.28503260016441345,-22.76313591003418,-397,7950.0,25.257556915283203,477,9965.0
5820,0.28441372513771057,-21.561729431152344,-406,7950.0,34.15437316894531,686,9965.0
5830,0.28346964716911316,-9.194905281066895,-34,7950.0,41.71509552001953,657,9965.0
5840,0.2825562059879303,6.788181304931641,216,7950.0,36.88786697387695,617,9965.0
5850,0.2817744314670563,17.90216636657715,405,7950.0,28.76824378967285,264,9965.0
5860,0.2804550528526306,18.77182960510254,287,7950.0,15.854277610778809,201,9965.0
5870,0.279400497674942,17.1108341217041,185,7950.0,7.961783409118652,199,9965.0
5880,0.27820470929145813,8.67989444732666,203,7950.0,8.05811595916748,68,9965.0
5890,0.2773117125034332,3.5186872482299805,21,7950.0,9.812276840209961,231,9965.0
5900,0.27654993534088135,-6.368522644042969,-123,7950.0,13.39240550994873,62,9965.0
5910,0.27558112144470215,-9.750860214233398,-115,7950.0,10.782470703125,240,9965.0
5920,0.27413129806518555,-7.289633274078369,-228,7950.0,8.55687427520752,168,9965.0
5930,0.2733735740184784,-2.5848708152770996,27,7950.0,6.804402828216553,44,9965.0
5940,0.2729981243610382,5.5073466300964355,114,7950.0,5.0555853843688965,206,9965.0
5950,0.2722160220146179,9.309103965759277,174,7950.0,7.732443809509277,132,9965.0
5960,0.2719862461090088,11.806754112243652,284,7950.0,9.441802978515625,141,9965.0
5970,0.27135327458381653,12.152926445007324,109,7950.0,9.841384887695312,229,9965.0
5980,0.2709123194217682,8.729251861572266,134,7950.0,10.473950386047363,-26,9965.0
5990,0.27228084206581116,6.291568756103516,137,7950.0,6.592985153198242,102,9965.0
6000,0.272128701210022,6.199219226837158,-5,7950.0,2.742544412612915,61,9965.0
6010,0.2717292904853821,3.1145236492156982,-3,7950.0,-1.2574903964996338,-65,9965.0
6020,0.2714540362358093,-1.9284013509750366,-12,7950.0,-3.779508590698242,-79,9965.0
6030,0.2736724615097046,-8.826425552368164,-225,7950.0,-5.328970909118652,23,9965.0
6040,0.27338355779647827,-17.627593994140625,-297,7950.0,-4.029181003570557,-1,9965.0
6050,0.2731144428253174,-20.81056022644043,-269,7950.0,7.185718536376953,111,9965.0
6060,0.2729601562023163,-22.86203384399414,-328,7950.0,17.973819732666016,403,9965.0
6070,0.2740195691585541,-21.511926651000977,-455,7950.0,25.32884407043457,346,9965.0
6080,0.27385401725769043,-19.680072784423828,-267,7950.0,19.236753463745117,277,9965.0
6090,0.2743566930294037,-10.568318367004395,-172,7950.0,11.385106086730957,248,9965.0
6100,0.274160236120224,0.5092556476593018,136,7950.0,3.408201217651367,-22,9965.0
6110,0.27397826313972473,15.302681922912598,360,7950.0,-0.5124369859695435,51,9965.0
6120,0.27452701330184937,24.307153701782227,315,7950.0,5.048735618591309,83,9965.0
6130,0.2742564380168915,25.18868064880371,432,7950.0,12.07636547088623,206,9965.0
6140,0.27413296699523926,19.634662628173828,245,7950.0,16.270263671875,358,9965.0
6150,0.27384093403816223,10.612486839294434,116,7950.0,11.742781639099121,182,9965.0
6160,0.27325254678726196,4.151275634765625,100,7950.0,2.29081654548645,-47,9965.0
6170,0.27305489778518677,-0.6223926544189453,-53,7950.0,-10.548356056213379,-199,9965.0
6180,0.2727566063404083,-1.6778959035873413,-72,7950.0,-22.48709487915039,-564,9965.0
6190,0.2724095284938812,-1.8903212547302246,43,7950.0,-32.943450927734375,-556,9965.0
6200,0.2720004618167877,-0.01178065501153469,-33,7950.0,-37.00107192993164,-483,9965.0
6210,0.2716861069202423,0.13565321266651154,-19,7950.0,-38.5051383972168,-575,9965.0
6220,0.2711796462535858,-1.3204072713851929,52,7950.0,-33.320037841796875,-649,9965.0
6230,0.27057474851608276,-3.3668458461761475,0,7950.0,-29.467313766479492,-468,9965.0
6240,0.26993340253829956,-5.421779155731201,-122,7950.0,-23.949033737182617,-313,9965.0
6250,0.26878607273101807,-7.305453300476074,-126,7950.0,-16.789535522460938,-363,9965.0
6260,0.2682197690010071,-6.722102165222168,-81,7950.0,-14.31919002532959,-318,9965.0
6270,0.26779624819755554,-4.027031898498535,-73,7950.0,-14.906989097595215,-214,9965.0
6280,0.2673647105693817,-0.9629297256469727,-52,7950.0,-9.81475830078125,-3,9965.0
6290,0.2657920718193054,2.158299684524536,-4,7950.0,3.1730825901031494,114,9965.0
6300,0.2652229368686676,2.359671115875244,80,7950.0,14.7068510055542,222,9965.0
6310,0.2645869255065918,-3.533064603805542,-19,7950.0,24.35540008544922,510,9965.0
6320,0.26387426257133484,-10.176855087280273,-214,7950.0,25.106945037841797,436,9965.0
6330,0.2631770372390747,-14.588168144226074,-216,7950.0,18.525394439697266,127,9965.0
6340,0.26101285219192505,-14.600882530212402,-212,7950.0,3.8169844150543213,53,9965.0
6350,0.2599661946296692,-4.349741458892822,-84,7950.0,-4.471273899078369,-85,9965.0
6360,0.25889521837234497,8.399060249328613,266,7950.0,-6.592241287231445,-135,9965.0
6370,0.25804397463798523,17.666446685791016,396,7950.0,-5.915877819061279,-62,9965.0
6380,0.256166934967041,25.429521560668945,428,7950.0,-3.0327978134155273,-85,9965.0
6390,0.2548151910305023,25.881261825561523,373,7950.0,0.5106813907623291,-63,9965.0
6400,0.25334256887435913,13.75549602508545,125,7950.0,2.4205193519592285,81,9965.0
6410,0.25224143266677856,-0.4677833020687103,-134,7950.0,1.491248369216919,31,9965.0
6420,0.2504972815513611,-12.682762145996094,-208,7950.0,-3.7263758182525635,-107,9965.0
6430,0.24812237918376923,-18.89862632751465,-216,7950.0,-7.657275199890137,-66,9965.0
6440,0.24627605080604553,-13.753944396972656,-270,7950.0,-15.045103073120117,-187,9965.0
6450,0.2444208413362503,-11.087096214294434,-120,7950.0,-19.474443435668945,-404,9965.0
6460,0.24261179566383362,-6.932019233703613,-50,7950.0,-22.144182205200195,-359,9965.0
6470,0.24012117087841034,-1.32228684425354,-33,7950.0,-19.238718032836914,-386,9965.0
6480,0.23851130902767181,2.1222422122955322,85,7950.0,-11.217209815979004,-170,9965.0
6490,0.23687708377838135,3.5636889934539795,-18,7950.0,-2.606123447418213,79,9965.0
6500,0.2356366068124771,1.0602495670318604,20,7950.0,8.360980987548828,69,9965.0
6510,0.2332608550786972,1.2863301038742065,67,7950.0,11.960071563720703,231,9965.0
6520,0.23209340870380402,2.393529176712036,-7,7950.0,12.300213813781738,278,9965.0
6530,0.23185689747333527,-1.9559502601623535,-33,7950.0,9.15031909942627,82,9965.0
6540,0.23121577501296997,-5.977121353149414,-115,7950.0,11.910372734069824,287,9965.0
6550,0.23143135011196136,-14.844135284423828,-320,7950.0,14.4192533493042,186,9965.0
6560,0.2309168577194214,-22.016820907592773,-360,7950.0,14.390213966369629,293,9965.0
6570,0.23038800060749054,-26.81848907470703,-488,7950.0,15.44099235534668,190,9965.0
6580,0.22976210713386536,-28.3396053314209,-458,7950.0,13.341758728027344,350,9965.0
6590,0.22901301085948944,-23.719039916992188,-419,7950.0,9.558961868286133,110,9965.0
6600,0.22928442060947418,-19.55352783203125,-248,7950.0,2.5511186122894287,114,9965.0
6610,0.22928284108638763,-13.802998542785645,-124,7950.0,-4.526181221008301,-178,9965.0
6620,0.2285565882921219,-8.641202926635742,-155,7950.0,-5.809224605560303,-46,9965.0
6630,0.22791284322738647,-4.936395168304443,15,7950.0,-7.968854904174805,-249,9965.0
6640,0.22708091139793396,0.970787525177002,-58,7950.0,-8.480084419250488,-92,9965.0
6650,0.22378528118133545,6.566860198974609,168,7950.0,-4.225544452667236,-93,9965.0
6660,0.22335033118724823,14.338078498840332,161,7950.0,4.950618267059326,218,9965.0
6670,0.22242380678653717,17.463302612304688,315,7950.0,21.708698272705078,362,9965.0
6680,0.2235659956932068,16.921842575073242,241,7950.0,37.8804931640625,729,9965.0
6690,0.22519434988498688,9.993529319763184,118,7950.0,53.004058837890625,761,9965.0
6700,0.2252548635005951,4.874382495880127,19,7950.0,58.676090240478516,1034,9965.0
6710,0.2249041199684143,1.9005146026611328,2,7950.0,57.965274810791016,840,9965.0
6720,0.22499792277812958,3.2704992294311523,-11,7950.0,45.223976135253906,745,9965.0
6730,0.22112703323364258,9.515754699707031,276,7950.0,24.588422775268555,274,9965.0
6740,0.22094567120075226,18.787994384765625,314,7950.0,1.149393081665039,9,9965.0
6750,0.22079770267009735,22.656261444091797,484,7950.0,-18.232280731201172,-348,9965.0
6760,0.22091718018054962,22.720535278320312,298,7950.0,-31.911897659301758,-568,9965.0
6770,0.22086460888385773,17.590736389160156,298,7950.0,-37.712215423583984,-639,9965.0
6780,0.22225628793239594,11.946500778198242,119,7950.0,-35.258872985839844,-497,9965.0
6790,0.22250595688819885,2.1661434173583984,-4,7950.0,-25.543405532836914,-480,9965.0
6800,0.222866028547287,-2.8992700576782227,-20,7950.0,-13.810576438903809,-131,9965.0
6810,0.22357413172721863,-4.817047119140625,-152,7950.0,1.512324571609497,217,9965.0
6820,0.22016440331935883,-6.6318278312683105,-73,7950.0,16.02390480041504,255,9965.0
6830,0.21991322934627533,-11.167094230651855,-184,7950.0,26.847814559936523,549,9965.0
6840,0.22096456587314606,-15.446098327636719,-271,7950.0,36.03734588623047,698,9965.0
6850,0.22110509872436523,-16.481800079345703,-198,7950.0,38.7209358215332,598,9965.0
6860,0.2229899764060974,-11.798873901367188,-130,7950.0,34.45867156982422,647,9965.0
6870,0.2232668250799179,-4.799005508422852,-17,7950.0,21.97104835510254,236,9965.0
6880,0.22333814203739166,-0.026989120990037918,55,7950.0,9.797319412231445,167,9965.0
6890,0.22337639331817627,0.723812997341156,-13,7950.0,-1.128203272819519,-177,9965.0
6900,0.22316546738147736,3.8310930728912354,155,7950.0,-10.879094123840332,-216,9965.0
6910,0.22190755605697632,8.119685173034668,60,7950.0,-15.908093452453613,-277,9965.0
6920,0.22167308628559113,6.858180999755859,142,7950.0,-13.761786460876465,-300,9965.0
6930,0.22148337960243225,8.601454734802246,166,7950.0,-7.408840179443359,13,9965.0
6940,0.22146113216876984,8.935050010681152,85,7950.0,4.5805230140686035,-2,9965.0
6950,0.22342164814472198,0.2994743585586548,0,7950.0,11.188477516174316,160,9965.0
6960,0.22325682640075684,-6.9020514488220215,-141,7950.0,16.32472038269043,319,9965.0
6970,0.2231847047805786,-11.391974449157715,-257,7950.0,17.32054901123047,178,9965.0
6980,0.2231004536151886,-14.903487205505371,-220,7950.0,14.35216236114502,216,9965.0
6990,0.22213108837604523,-9.251469612121582,-235,7950.0,5.534134864807129,95,9965.0
7000,0.22170552611351013,-6.380734920501709,-106,7950.0,-4.052867889404297,-138,9965.0
7010,0.2214859575033188,-2.4595091342926025,14,7950.0,-10.838431358337402,-132,9965.0
7020,0.22110654413700104,2.1468775272369385,48,7950.0,-15.331880569458008,-312,9965.0
7030,0.22060291469097137,5.391170024871826,167,7950.0,-20.738237380981445,-358,9965.0
7040,0.2231035977602005,4.5769453048706055,24,7950.0,-18.733701705932617,-169,9965.0
7050,0.22284457087516785,-0.829647421836853,-103,7950.0,-13.053438186645508,-186,9965.0
7060,0.22239430248737335,-5.850368499755859,-49,7950.0,-5.498683452606201,-139,9965.0
7070,0.2224389910697937,-10.117088317871094,-227,7950.0,1.8490532636642456,186,9965.0
7080,0.22198761999607086,-14.685738563537598,-257,7950.0,7.852525234222412,97,9965.0
7090,0.22160956263542175,-14.18307876586914,-180,7950.0,14.07441520690918,252,9965.0
7100,0.22167688608169556,-13.505903244018555,-279,7950.0,19.5245418548584,356,9965.0
7110,0.22190485894680023,-9.601598739624023,-79,7950.0,18.93463134765625,256,9965.0
7120,0.22181937098503113,-4.723569393157959,-120,7950.0,9.644232749938965,185,9965.0
7130,0.2244182676076889,4.067336082458496,116,7950.0,6.332250595092773,63,9965.0
7140,0.22444161772727966,5.765066623687744,86,7950.0,3.1116011142730713,66,9965.0
7150,0.2243833839893341,1.4981725215911865,-8,7950.0,-4.05074405670166,-122,9965.0
7160,0.22417660057544708,-0.3595404028892517,-9,7950.0,-10.222827911376953,-160,9965.0
7170,0.22498615086078644,-2.9796032905578613,-30,7950.0,-11.345725059509277,-302,9965.0
7180,0.22475537657737732,-0.16150705516338348,-21,7950.0,-13.638583183288574,-98,9965.0
7190,0.22477397322654724,0.33489009737968445,41,7950.0,-5.182955265045166,-168,9965.0
7200,0.22458595037460327,5.238926887512207,67,7950.0,-2.241138219833374,40,9965.0
7210,0.2244367003440857,11.031113624572754,238,7950.0,-0.19760861992835999,-97,9965.0
7220,0.22410878539085388,14.086315155029297,192,7950.0,0.3128977417945862,87,9965.0
7230,0.22377899289131165,15.360147476196289,352,7950.0,1.7185019254684448,3,9965.0
7240,0.22339902818202972,15.340356826782227,161,7950.0,9.426626205444336,209,9965.0
7250,0.2229248434305191,15.868712425231934,356,7950.0,13.416350364685059,231,9965.0
7260,0.2239481508731842,19.256105422973633,271,7950.0,12.74035358428955,185,9965.0
7270,0.22375565767288208,19.884883880615234,371,7950.0,7.470041275024414,81,9965.0
7280,0.22381572425365448,18.06793785095215,227,7950.0,-3.6862025260925293,-179,9965.0
7290,0.22382311522960663,10.578207015991211,180,7950.0,-14.91200065612793,-206,9965.0
7300,0.22424712777137756,1.9666929244995117,-49,7950.0,-23.358657836914062,-504,9965.0
7310,0.22439152002334595,-9.738011360168457,-186,7950.0,-29.560094833374023,-400,9965.0
7320,0.22450116276741028,-16.328100204467773,-305,7950.0,-30.259183883666992,-533,9965.0
7330,0.22489994764328003,-22.02216911315918,-324,7950.0,-28.524219512939453,-424,9965.0
7340,0.22502048313617706,-21.864137649536133,-405,7950.0,-22.306732177734375,-268,9965.0
7350,0.22522030770778656,-22.622278213500977,-266,7950.0,-9.803963661193848,-165,9965.0
7360,0.22570446133613586,-20.65618896484375,-388,7950.0,2.4745490550994873,77,9965.0
7370,0.22608233988285065,-18.18128204345703,-239,7950.0,11.837359428405762,208,9965.0
7380,0.22687889635562897,-14.11541748046875,-292,7950.0,15.019556999206543,332,9965.0
7390,0.22807219624519348,-13.27950668334961,-100,7950.0,21.37352180480957,328,9965.0
7400,0.2289627492427826,-9.315196990966797,-206,7950.0,20.779314041137695,245,9965.0
7410,0.2297201007604599,-7.180813312530518,-81,7950.0,14.907538414001465,322,9965.0
7420,0.2304764688014984,-5.07334566116333,-99,7950.0,3.5415501594543457,-113,9965.0
7430,0.23229768872261047,-4.6565446853637695,-48,7950.0,-5.4364166259765625,2,9965.0
7440,0.2331419736146927,-1.8529832363128662,19,7950.0,-10.86617660522461,-284,9965.0
7450,0.23415212333202362,3.540701389312744,12,7950.0,-11.668139457702637,-127,9965.0
7460,0.23505426943302155,3.8310959339141846,118,7950.0,-8.110045433044434,-148,9965.0
7470,0.23586046695709229,2.8654913902282715,15,7950.0,-5.988910675048828,-80,9965.0
7480,0.2367352396249771,3.172185182571411,78,7950.0,-4.440955638885498,-119,9965.0
7490,0.2375628650188446,4.925979137420654,35,7950.0,-2.3165178298950195,117,9965.0
7500,0.23830822110176086,10.755894660949707,256,7950.0,5.108885288238525,80,9965.0
7510,0.23918433487415314,16.510486602783203,254,7950.0,11.397024154663086,244,9965.0
7520,0.24005700647830963,18.606359481811523,349,7950.0,15.219569206237793,160,9965.0
7530,0.2409389466047287,16.525222778320312,274,7950.0,8.384140968322754,186,9965.0
7540,0.24190694093704224,13.419830322265625,200,7950.0,-0.5160861611366272,-168,9965.0
7550,0.2428354024887085,9.414752006530762,212,7950.0,-11.926257133483887,-185,9965.0
7560,0.242275670170784,7.949503421783447,62,7950.0,-14.70348834991455,-266,9965.0
7570,0.2430095225572586,6.867359638214111,182,7950.0,-11.007551193237305,-181,9965.0
7580,0.2437630593776703,10.653678894042969,195,7950.0,-6.716476917266846,51,9965.0
7590,0.2444368302822113,13.609285354614258,172,7950.0,3.0105295181274414,97,9965.0
7600,0.24507291615009308,18.68414306640625,389,7950.0,11.800078392028809,199,9965.0
7610,0.24532851576805115,17.415678024291992,278,7950.0,22.38351821899414,459,9965.0
7620,0.2464856058359146,10.367713928222656,76,7950.0,26.07109832763672,566,9965.0
7630,0.24716097116470337,0.476000040769577,-45,7950.0,24.585124969482422,306,9965.0
7640,0.24761347472667694,-11.010260581970215,-150,7950.0,20.482755661010742,299,9965.0
7650,0.24713489413261414,-17.23935317993164,-342,7950.0,8.322138786315918,168,9965.0
7660,0.24733978509902954,-19.219680786132812,-316,7950.0,-2.7885313034057617,-155,9965.0
7670,0.24738475680351257,-13.40754508972168,-97,7950.0,-12.02649211883545,-271,9965.0
7680,0.24720141291618347,-4.08392858505249,-42,7950.0,-21.62472152709961,-326,9965.0
7690,0.2468494325876236,3.5044476985931396,12,7950.0,-23.42096519470215,-339,9965.0
7700,0.24594362080097198,8.104915618896484,203,7950.0,-13.073589324951172,-242,9965.0
7710,0.24550780653953552,11.4187593460083,213,7950.0,-1.152217149734497,163,9965.0
7720,0.24522273242473602,12.231995582580566,127,7950.0,7.889796733856201,176,9965.0
7730,0.24488967657089233,10.607816696166992,214,7950.0,7.816256046295166,17,9965.0
7740,0.24349157512187958,6.104103088378906,112,7950.0,4.523496150970459,73,9965.0
7750,0.2431282103061676,-1.6591943502426147,-95,7950.0,1.0386728048324585,21,9965.0
7760,0.24277092516422272,-7.429684162139893,-154,7950.0,1.2268813848495483,-69,9965.0
7770,0.24231842160224915,-12.30810546875,-183,7950.0,0.949029803276062,24,9965.0
7780,0.24188585579395294,-13.275956153869629,-252,7950.0,1.4156452417373657,63,9965.0
7790,0.24174027144908905,-11.514670372009277,-209,7950.0,-0.8440874814987183,43,9965.0
7800,0.24122174084186554,-13.742507934570312,-246,7950.0,-2.9447829723358154,-124,9965.0
7810,0.24118226766586304,-19.055706024169922,-462,7950.0,-1.304702877998352,119,9965.0
7820,0.2413116693496704,-28.679393768310547,-508,7950.0,7.866954326629639,36,9965.0
7830,0.23951861262321472,-33.55577087402344,-483,7950.0,9.865263938903809,193,9965.0
7840,0.23943105340003967,-29.17826271057129,-537,7950.0,6.574662685394287,111,9965.0
7850,0.23947475850582123,-23.62617301940918,-301,7950.0,5.197713851928711,154,9965.0
7860,0.2394675612449646,-15.525315284729004,-274,7950.0,6.614077568054199,15,9965.0
7870,0.24004486203193665,-8.570960998535156,-115,7950.0,-0.8812434673309326,10,9965.0
7880,0.24001584947109222,-7.9512553215026855,-92,7950.0,-5.478303909301758,-203,9965.0
7890,0.2400471717119217,-0.9524428844451904,-40,7950.0,-6.987939834594727,-20,9965.0
7900,0.24008849263191223,4.1277289390563965,200,7950.0,-4.46958589553833,-131,9965.0
7910,0.24020087718963623,7.666347503662109,44,7950.0,-3.771162509918213,-99,9965.0
7920,0.24100236594676971,8.105389595031738,210,7950.0,-1.8464306592941284,40,9965.0
7930,0.24119792878627777,11.675933837890625,143,7950.0,3.098076820373535,-47,9965.0
7940,0.24139614403247833,14.793335914611816,263,7950.0,4.139305114746094,166,9965.0
7950,0.24165166914463043,18.847148895263672,253,7950.0,5.074568748474121,38,9965.0
7960,0.24191725254058838,19.41131019592285,329,7950.0,5.643833637237549,162,9965.0
7970,0.2423381358385086,16.694425582885742,300,7950.0,5.662904739379883,1,9965.0
7980,0.24268604815006256,13.685641288757324,189,7950.0,3.786552906036377,51,9965.0
7990,0.24317197501659393,9.476597785949707,197,7950.0,-0.7723634243011475,-61,9965.0
8000,0.2437252253293991,6.011696815490723,48,7950.0,-5.270176410675049,-26,9965.0
8010,0.2442031055688858,0.8337864279747009,97,7950.0,-9.256284713745117,-222,9965.0
8020,0.2447318285703659,-1.6665351390838623,-71,7950.0,-11.125359535217285,-84,9965.0
8030,0.24529780447483063,-4.554502964019775,-33,7950.0,-9.873392105102539,-261,9965.0
8040,0.24603191018104553,-4.20531702041626,-79,7950.0,-9.444016456604004,-42,9965.0
8050,0.24614110589027405,-1.3922125101089478,-19,7950.0,-9.656319618225098,-236,9965.0
8060,0.24711258709430695,3.8451175689697266,88,7950.0,-7.483181953430176,26,9965.0
8070,0.248198002576828,4.149938106536865,72,7950.0,-4.044830799102783,-188,9965.0
8080,0.2493923455476761,5.147669792175293,100,7950.0,0.007074035704135895,133,9965.0
8090,0.2503531277179718,2.956204891204834,-4,7950.0,12.29406452178955,188,9965.0
8100,0.2515600025653839,3.1842024326324463,160,7950.0,21.734882354736328,429,9965.0
8110,0.2526804804801941,13.073341369628906,208,7950.0,32.894439697265625,615,9965.0
8120,0.25411832332611084,18.981515884399414,403,7950.0,36.04071044921875,483,9965.0
8130,0.2549280524253845,20.368980407714844,307,7950.0,19.013031005859375,236,9965.0
8140,0.2564122974872589,18.78642463684082,343,7950.0,-7.973667621612549,-304,9965.0
8150,0.2573935091495514,10.349291801452637,99,7950.0,-34.422176361083984,-510,9965.0
8160,0.2581680715084076,-2.0606954097747803,-89,7950.0,-50.57666778564453,-946,9965.0
8170,0.25903207063674927,-20.88231658935547,-364,7950.0,-50.74381637573242,-746,9965.0
8180,0.26036807894706726,-34.11346435546875,-667,7950.0,-39.19842529296875,-536,9965.0
8190,0.2605365216732025,-40.67975616455078,-616,7950.0,-24.399444580078125,-390,9965.0
8200,0.26097914576530457,-31.343387603759766,-424,7950.0,-13.384754180908203,-85,9965.0
8210,0.26122811436653137,-14.922896385192871,-201,7950.0,0.566467821598053,-38,9965.0
8220,0.263493150472641,0.051136113703250885,59,7950.0,14.207353591918945,409,9965.0
8230,0.26414889097213745,11.868896484375,268,7950.0,23.33211898803711,237,9965.0
8240,0.264831006526947,22.858301162719727,407,7950.0,20.49846076965332,433,9965.0
8250,0.2658537030220032,26.553001403808594,455,7950.0,12.820432662963867,40,9965.0
8260,0.26681119203567505,30.50641632080078,441,7950.0,0.8470739126205444,82,9965.0
8270,0.26844027638435364,27.127887725830078,415,7950.0,-8.929181098937988,-274,9965.0
8280,0.2696760594844818,18.834932327270508,296,7950.0,-18.005517959594727,-216,9965.0
8290,0.27110981941223145,10.517908096313477,58,7950.0,-16.908294677734375,-338,9965.0
8300,0.27231475710868835,0.03834977746009827,51,7950.0,-11.948834419250488,-160,9965.0
8310,0.2725260555744171,-5.360071659088135,-180,7950.0,-5.095569133758545,28,9965.0
8320,0.27359816431999207,-8.884313583374023,-189,7950.0,4.648312091827393,72,9965.0
8330,0.2746158242225647,-11.922479629516602,-179,7950.0,12.379195213317871,263,9965.0
8340,0.27557212114334106,-12.007193565368652,-241,7950.0,15.21804428100586,281,9965.0
8350,0.27644288539886475,-13.031730651855469,-182,7950.0,12.607292175292969,130,9965.0
8360,0.277567595243454,-12.23879623413086,-239,7950.0,8.7460355758667,289,9965.0
8370,0.2783789038658142,-9.501250267028809,-87,7950.0,12.167316436767578,119,9965.0
8380,0.27899572253227234,-0.1082199215888977,34,7950.0,15.706542015075684,306,9965.0
8390,0.2796779274940491,15.670364379882812,246,7950.0,9.090655326843262,54,9965.0
8400,0.2813717722892761,22.230031967163086,391,7950.0,1.3977988958358765,41,9965.0
8410,0.28181567788124084,17.64636993408203,183,7950.0,-8.476214408874512,-182,9965.0
8420,0.282111793756485,5.826706409454346,37,7950.0,-15.727252960205078,-248,9965.0
8430,0.2823205292224884,-6.42084264755249,-164,7950.0,-19.288570404052734,-211,9965.0
8440,0.2824057638645172,-11.720800399780273,-205,7950.0,-16.675283432006836,-278,9965.0
8450,0.2831791937351227,-6.6753363609313965,-16,7950.0,-8.940935134887695,-67,9965.0
8460,0.28329145908355713,5.9002790451049805,123,7950.0,-0.48491501808166504,125,9965.0
8470,0.2835201919078827,15.784019470214844,293,7950.0,11.256796836853027,132,9965.0
8480,0.2837188243865967,14.95423412322998,223,7950.0,19.38054084777832,371,9965.0
8490,0.2835199534893036,12.307121276855469,131,7950.0,18.725360870361328,252,9965.0
8500,0.2836550176143646,7.842287540435791,169,7950.0,10.681264877319336,152,9965.0
8510,0.2838969826698303,4.7344465255737305,14,7950.0,-3.499866247177124,-171,9965.0
8520,0.284617155790329,-0.5439199805259705,44,7950.0,-16.28199005126953,-266,9965.0
8530,0.2865656018257141,-2.6512997150421143,-129,7950.0,-24.694021224975586,-343,9965.0
8540,0.28713491559028625,-11.425545692443848,-163,7950.0,-23.835172653198242,-453,9965.0
8550,0.28776150941848755,-17.98374366760254,-356,7950.0,-18.048770904541016,-161,9965.0
8560,0.288348525762558,-21.181880950927734,-350,7950.0,-7.391172409057617,-194,9965.0
8570,0.2888500988483429,-10.026477813720703,-84,7950.0,-0.9116016626358032,65,9965.0
8580,0.28939440846443176,0.2938097417354584,2,7950.0,10.800870895385742,235,9965.0
8590,0.2901313304901123,3.2037384510040283,70,7950.0,20.754858016967773,353,9965.0
8600,0.29095637798309326,5.441868305206299,138,7950.0,29.91507339477539,601,9965.0
8610,0.29156818985939026,8.9634370803833,155,7950.0,40.20068359375,587,9965.0
8620,0.2938728928565979,13.791911125183105,258,7950.0,39.83976364135742,733,9965.0
8630,0.2945912480354309,18.35993194580078,321,7950.0,34.79966735839844,429,9965.0
8640,0.295509934425354,20.274906158447266,338,7950.0,22.37553596496582,334,9965.0
8650,0.2964871823787689,16.829206466674805,236,7950.0,3.70839262008667,-186,9965.0
8660,0.29788315296173096,11.864439010620117,131,7950.0,-16.196388244628906,-258,9965.0
8670,0.2987205684185028,0.2761828899383545,-77,7950.0,-31.783172607421875,-604,9965.0
8680,0.2994018495082855,-5.148096561431885,-49,7950.0,-41.09421920776367,-723,9965.0
8690,0.3000723719596863,-5.78725528717041,-143,7950.0,-44.420249938964844,-607,9965.0
8700,0.30071941018104553,-5.579782485961914,-70,7950.0,-40.99126434326172,-708,9965.0
8710,0.30166345834732056,-0.5675118565559387,61,7950.0,-29.681150436401367,-381,9965.0
8720,0.3022383451461792,6.633217811584473,36,7950.0,-14.837834358215332,-97,9965.0
8730,0.30286481976509094,6.912731647491455,116,7950.0,0.2720811069011688,-56,9965.0
8740,0.3035385012626648,3.7816052436828613,111,7950.0,12.893976211547852,267,9965.0
8750,0.3030051589012146,-0.6794058680534363,-59,7950.0,18.833473205566406,378,9965.0
8760,0.3038614094257355,-6.524081230163574,-128,7950.0,22.663074493408203,284,9965.0
8770,0.30491289496421814,-13.378893852233887,-266,7950.0,22.802230834960938,299,9965.0
8780,0.3060273826122284,-25.830005645751953,-503,7950.0,17.461822509765625,273,9965.0
8790,0.3071262240409851,-35.48524856567383,-574,7950.0,11.463326454162598,107,9965.0
8800,0.3079245388507843,-33.84904479980469,-610,7950.0,6.790493965148926,143,9965.0
8810,0.3088957369327545,-26.36421012878418,-345,7950.0,3.6494317054748535,5,9965.0
8820,0.3098629415035248,-9.364069938659668,-130,7950.0,3.0782854557037354,108,9965.0
8830,0.3119890093803406,2.793642997741699,141,7950.0,0.2949143052101135,-62,9965.0
8840,0.31224894523620605,14.627677917480469,249,7950.0,-4.326950550079346,-21,9965.0
8850,0.3132320046424866,21.365583419799805,422,7950.0,-6.641381740570068,-171,9965.0
8860,0.31414300203323364,24.092966079711914,396,7950.0,-7.558513164520264,-45,9965.0
8870,0.31485515832901,23.49628257751465,368,7950.0,-4.7449188232421875,-122,9965.0
8880,0.31270894408226013,18.32205581665039,342,7950.0,-4.518466472625732,-36,9965.0
8890,0.313188761472702,10.25143051147461,58,7950.0,-6.282601833343506,-93,9965.0
8900,0.31346285343170166,0.10841570049524307,41,7950.0,-8.138580322265625,-179,9965.0
8910,0.3137016296386719,-3.533775806427002,-83,7950.0,-6.719194412231445,53,9965.0
8920,0.3138602375984192,-2.467064142227173,-8,7950.0,-2.428776264190674,-177,9965.0
8930,0.31196269392967224,-0.7308025360107422,18,7950.0,-2.6310105323791504,45,9965.0
8940,0.311858206987381,-1.9336682558059692,-81,7950.0,-3.0384368896484375,-67,9965.0
8950,0.31172290444374084,-6.672610759735107,-64,7950.0,-4.902948379516602,-65,9965.0
8960,0.31153231859207153,-11.205045700073242,-211,7950.0,-5.853504657745361,-39,9965.0
8970,0.3120262026786804,-11.840987205505371,-247,7950.0,-9.0889310836792,-206,9965.0
8980,0.311849445104599,-15.74279499053955,-246,7950.0,-5.771049976348877,-40,9965.0
8990,0.3118535280227661,-18.528898239135742,-323,7950.0,-1.577373743057251,-33,9965.0
9000,0.3117700219154358,-17.84450340270996,-229,7950.0,5.074124336242676,117,9965.0
9010,0.3115628659725189,-18.987369537353516,-352,7950.0,10.90601634979248,210,9965.0
9020,0.3121315836906433,-15.620368957519531,-111,7950.0,13.742166519165039,204,9965.0
9030,0.31214261054992676,4.33406925201416,136,7950.0,8.627700805664062,139,9965.0
9040,0.3122175633907318,23.301313400268555,549,7950.0,9.254995346069336,174,9965.0
9050,0.312480092048645,31.91977882385254,459,7950.0,5.733090877532959,4,9965.0
9060,0.31179526448249817,26.380136489868164,397,7950.0,2.5846543312072754,14,9965.0
9070,0.31257885694503784,9.636601448059082,-23,7950.0,-1.6192396879196167,-51,9965.0
9080,0.3126473128795624,-7.638033866882324,-125,7950.0,-2.4629268646240234,-62,9965.0
9090,0.3126460611820221,-17.503826141357422,-336,7950.0,-6.564272403717041,-93,9965.0
9100,0.3135162889957428,-17.994525909423828,-198,7950.0,-6.332055568695068,-59,9965.0
9110,0.31348228454589844,-12.437138557434082,-146,7950.0,-5.608822822570801,24,9965.0
9120,0.31343212723731995,-3.160712480545044,38,7950.0,-1.6716722249984741,-60,9965.0
9130,0.31351223587989807,9.004130363464355,139,7950.0,0.745052695274353,53,9965.0
9140,0.3137246370315552,16.750646591186523,373,7950.0,0.3133581578731537,-38,9965.0
9150,0.313276082277298,20.584054946899414,291,7950.0,-1.2970978021621704,63,9965.0
9160,0.31350088119506836,19.552692413330078,383,7950.0,0.6602062582969666,-74,9965.0
9170,0.3137671947479248,14.474366188049316,153,7950.0,1.3128353357315063,79,9965.0
9180,0.3140576481819153,8.552066802978516,148,7950.0,-0.736686110496521,-47,9965.0
9190,0.3159964382648468,4.551601886749268,10,7950.0,-7.840249538421631,-121,9965.0
9200,0.3164283037185669,-1.9215567111968994,-83,7950.0,-17.892681121826172,-399,9965.0
9210,0.317004919052124,-8.179828643798828,-104,7950.0,-24.009780883789062,-334,9965.0
9220,0.3176259398460388,-13.868498802185059,-346,7950.0,-25.8748836517334,-392,9965.0
9230,0.31826671957969666,-21.066356658935547,-273,7950.0,-11.905250549316406,-151,9965.0
9240,0.31925851106643677,-21.206937789916992,-362,7950.0,13.671812057495117,420,9965.0
9250,0.3199329972267151,-18.271297454833984,-248,7950.0,28.564083099365234,370,9965.0
9260,0.320548951625824,-6.370709419250488,-22,7950.0,23.765527725219727,470,9965.0
9270,0.3211554288864136,6.508327960968018,186,7950.0,11.411343574523926,-4,9965.0
9280,0.32238566875457764,18.124515533447266,404,7950.0,-1.3539083003997803,-5,9965.0
9290,0.3229310214519501,26.247446060180664,429,7950.0,-6.374251842498779,-183,9965.0
9300,0.32357731461524963,25.520790100097656,395,7950.0,-8.02891731262207,-57,9965.0
9310,0.32405585050582886,13.006662368774414,118,7950.0,-1.1488308906555176,-61,9965.0
9320,0.32443898916244507,-3.6745433807373047,-58,7950.0,6.964366436004639,175,9965.0
9330,0.32497888803482056,-16.34473991394043,-310,7950.0,12.884345054626465,210,9965.0
9340,0.3255569636821747,-19.49302101135254,-263,7950.0,8.171577453613281,49,9965.0
9350,0.32617539167404175,-16.420806884765625,-271,7950.0,-0.09716683626174927,15,9965.0
9360,0.3266964554786682,-12.529167175292969,-152,7950.0,-6.787850379943848,-216,9965.0
9370,0.3277840316295624,-5.231175422668457,-35,7950.0,-11.086967468261719,-43,9965.0
9380,0.3284249007701874,3.9829492568969727,55,7950.0,-16.179553985595703,-405,9965.0
9390,0.3289230465888977,-3.1437416076660156,-36,7950.0,-23.518417358398438,-359,9965.0
9400,0.3296861946582794,-6.684746742248535,-180,7950.0,-18.12348747253418,-222,9965.0
9410,0.3305263817310333,-8.747397422790527,-95,7950.0,3.9998416900634766,77,9965.0
9420,0.33114686608314514,-6.027872562408447,-77,7950.0,22.66714096069336,496,9965.0
9430,0.33175456523895264,0.9806599617004395,62,7950.0,28.529842376708984,384,9965.0
9440,0.33248624205589294,8.951292991638184,142,7950.0,20.934846878051758,404,9965.0
9450,0.3337997496128082,13.210248947143555,220,7950.0,9.704442024230957,18,9965.0
9460,0.33463436365127563,11.903522491455078,192,7950.0,-4.0496296882629395,-59,9965.0
9470,0.3354962170124054,4.565956115722656,-43,7950.0,-15.866665840148926,-394,9965.0
9480,0.3362998366355896,-16.439237594604492,-305,7950.0,-21.976177215576172,-268,9965.0
9490,0.3370666205883026,-35.09483337402344,-655,7950.0,-14.142696380615234,-221,9965.0
9500,0.3400847315788269,-34.851966857910156,-447,7950.0,4.177635192871094,126,9965.0
9510,0.34129074215888977,-15.928857803344727,-246,7950.0,16.90062713623047,318,9965.0
9520,0.34210753440856934,7.171181678771973,289,7950.0,24.42555046081543,471,9965.0
9530,0.3430077135562897,25.3043270111084,379,7950.0,19.92230987548828,227,9965.0
9540,0.3447347581386566,32.58131790161133,582,7950.0,11.918777465820312,305,9965.0
9550,0.34552937746047974,37.80586242675781,634,7950.0,10.274322509765625,31,9965.0
9560,0.34607914090156555,39.09856033325195,642,7950.0,3.6941990852355957,153,9965.0
9570,0.34695231914520264,32.618534088134766,465,7950.0,1.098650574684143,-89,9965.0
9580,0.3474363088607788,21.769031524658203,333,7950.0,-1.7429558038711548,105,9965.0
9590,0.34965232014656067,9.0936918258667,74,7950.0,-3.084473133087158,-176,9965.0
9600,0.3501202464103699,2.077155590057373,90,7950.0,-6.523204326629639,-83,9965.0
9610,0.3505798280239105,2.716519832611084,-58,7950.0,-9.071080207824707,-138,9965.0
9620,0.3509877324104309,-0.6425561904907227,9,7950.0,-7.412745475769043,-176,9965.0
9630,0.35082384943962097,-3.9395461082458496,-139,7950.0,-7.770758152008057,44,9965.0
9640,0.3512060344219208,-9.164457321166992,-178,7950.0,-3.7741007804870605,-182,9965.0
9650,0.35161444544792175,-16.92192840576172,-302,7950.0,-4.348479270935059,80,9965.0
9660,0.35209742188453674,-22.50691795349121,-420,7950.0,-2.239942789077759,-162,9965.0
9670,0.3525247275829315,-25.26510238647461,-339,7950.0,-4.9077863693237305,-96,9965.0
9680,0.3519171476364136,-20.3303165435791,-368,7950.0,-9.78567886352539,-116,9965.0
9690,0.3523799180984497,-8.909698486328125,37,7950.0,-6.986591815948486,-114,9965.0
9700,0.35282495617866516,-0.03200024738907814,-19,7950.0,-6.880716323852539,-94,9965.0
9710,0.3532514274120331,7.729538440704346,251,7950.0,-4.406560897827148,-56,9965.0
9720,0.3523544669151306,17.62213134765625,235,7950.0,3.4065046310424805,132,9965.0
9730,0.35256046056747437,18.640377044677734,334,7950.0,10.633716583251953,189,9965.0
9740,0.35277900099754333,19.970535278320312,317,7950.0,19.366971969604492,437,9965.0
9750,0.3528495132923126,23.956768035888672,362,7950.0,25.228050231933594,376,9965.0
9760,0.3530910611152649,24.98296356201172,381,7950.0,20.718290328979492,349,9965.0
9770,0.35320690274238586,14.208221435546875,119,7950.0,4.758065223693848,-72,9965.0
9780,0.3533567190170288,-7.152420520782471,-132,7950.0,-9.938850402832031,-107,9965.0
9790,0.3535337448120117,-22.88047981262207,-471,7950.0,-17.917984008789062,-441,9965.0
9800,0.3534258306026459,-24.913677215576172,-314,7950.0,-22.390705108642578,-322,9965.0
9810,0.35197389125823975,-10.157352447509766,-146,7950.0,-26.660572052001953,-488,9965.0
9820,0.351789653301239,10.519527435302734,291,7950.0,-33.657127380371094,-497,9965.0
9830,0.35151171684265137,20.42313003540039,323,7950.0,-24.560928344726562,-401,9965.0
9840,0.3511013090610504,22.208383560180664,360,7950.0,-13.219504356384277,-144,9965.0
9850,0.34964028000831604,17.612083435058594,249,7950.0,-1.1930270195007324,37,9965.0
9860,0.349130779504776,13.047826766967773,216,7950.0,7.352742671966553,91,9965.0
9870,0.34861093759536743,8.655356407165527,106,7950.0,6.304234027862549,218,9965.0
9880,0.3481554687023163,3.979407548904419,89,7950.0,7.129477024078369,48,9965.0
9890,0.3474266827106476,1.0458468198776245,21,7950.0,10.117602348327637,307,9965.0
9900,0.34712421894073486,-2.824460029602051,-54,7950.0,16.370574951171875,127,9965.0
9910,0.34695202112197876,-4.925551414489746,-87,7950.0,11.83164119720459,251,9965.0
9920,0.3469647169113159,-4.713743686676025,-140,7950.0,4.184799671173096,-10,9965.0
9930,0.34709522128105164,-7.572911739349365,-191,7950.0,-0.09627049416303635,74,9965.0
9940,0.3480466604232788,-17.11480712890625,-332,7950.0,-5.761441707611084,-283,9965.0
9950,0.3483370542526245,-21.873321533203125,-362,7950.0,-10.95383071899414,-96,9965.0
9960,0.34877222776412964,-21.16120719909668,-417,7950.0,-14.44205093383789,-287,9965.0
9970,0.3491005003452301,-24.127113342285156,-389,7950.0,-19.857498168945312,-252,9965.0
9980,0.3500882089138031,-27.37553596496582,-429,7950.0,-15.987192153930664,-313,9965.0
9990,0.35047975182533264,-20.465084075927734,-305,7950.0,-6.976249694824219,-16,9965.0
10000,0.3508225381374359,-8.740102767944336,-72,7950.0,2.766730785369873,76,9965.0
10010,0.35156551003456116,1.993408441543579,56,7950.0,19.177757263183594,457,9965.0
10020,0.35214242339134216,17.04720115661621,397,7950.0,33.37815475463867,531,9965.0
10030,0.35142314434051514,25.867734909057617,390,7950.0,36.90061950683594,640,9965.0
10040,0.35182997584342957,33.189674377441406,618,7950.0,31.779544830322266,443,9965.0
10050,0.3522252142429352,36.32992935180664,510,7950.0,24.863168716430664,328,9965.0
10060,0.35263898968696594,31.806556701660156,541,7950.0,15.700549125671387,316,9965.0
10070,0.35245025157928467,25.765674591064453,338,7950.0,5.984812259674072,34,9965.0
10080,0.3526977300643921,20.65586280822754,407,7950.0,-3.4344794750213623,-122,9965.0
10090,0.35316845774650574,21.662519454956055,291,7950.0,-11.36323070526123,-226,9965.0
10100,0.3534754812717438,23.172632217407227,418,7950.0,-13.105005264282227,-241,9965.0
10110,0.35546305775642395,16.137935638427734,182,7950.0,-13.246818542480469,-167,9965.0
10120,0.3558850586414337,-2.013033866882324,-141,7950.0,-14.32260513305664,-361,9965.0
10130,0.35654109716415405,-28.96126937866211,-567,7950.0,-13.125103950500488,-179,9965.0
10140,0.357266366481781,-54.99156188964844,-1008,7950.0,-8.181269645690918,-36,9965.0
10150,0.35798269510269165,-70.57947540283203,-1155,7950.0,-3.5939571857452393,-123,9965.0
10160,0.35834625363349915,-73.43939971923828,-1165,7950.0,5.0860090255737305,189,9965.0
10170,0.3593473732471466,-69.54115295410156,-1130,7950.0,13.895251274108887,225,9965.0
10180,0.36021602153778076,-49.90285873413086,-659,7950.0,15.567981719970703,275,9965.0
10190,0.3621274530887604,-21.090482711791992,-182,7950.0,7.2976179122924805,25,9965.0
10200,0.3621559143066406,8.420143127441406,231,7950.0,0.6896719932556152,107,9965.0
10210,0.3634486794471741,26.75325584411621,556,7950.0,0.6605907082557678,-63,9965.0
10220,0.36477527022361755,37.011619567871094,611,7950.0,1.0691924095153809,118,9965.0
10230,0.366099089384079,34.630680084228516,552,7950.0,-0.5449684262275696,-152,9965.0
10240,0.36731216311454773,24.896987915039062,347,7950.0,-11.207371711730957,-88,9965.0
10250,0.3675745129585266,15.279150009155273,149,7950.0,-21.683185577392578,-476,9965.0
10260,0.3687508702278137,5.219236850738525,34,7950.0,-26.9420108795166,-406,9965.0
10270,0.3698251247406006,-9.947468757629395,-280,7950.0,-24.10784149169922,-247,9965.0
10280,0.37082043290138245,-15.911572456359863,-278,7950.0,-10.869362831115723,-189,9965.0
10290,0.37026137113571167,-24.17311668395996,-447,7950.0,6.272889137268066,308,9965.0
10300,0.37107232213020325,-29.235023498535156,-450,7950.0,19.647117614746094,277,9965.0
10310,0.371838241815567,-16.33169174194336,-96,7950.0,15.864481925964355,169,9965.0
10320,0.37250760197639465,5.420016288757324,220,7950.0,3.4026401042938232,51,9965.0
10330,0.3719441294670105,29.257850646972656,584,7950.0,-4.380978584289551,-201,9965.0
10340,0.3725423514842987,35.650970458984375,606,7950.0,-12.521463394165039,-182,9965.0
10350,0.3731367290019989,34.127384185791016,405,7950.0,-17.756690979003906,-238,9965.0
10360,0.3737281858921051,17.657350540161133,166,7950.0,-15.00930118560791,-261,9965.0
10370,0.37448811531066895,-5.655994415283203,-115,7950.0,-8.60924243927002,-50,9965.0
10380,0.37332943081855774,-23.561988830566406,-439,7950.0,-3.166832208633423,69,9965.0
10390,0.37385135889053345,-33.06976318359375,-614,7950.0,1.7944682836532593,-62,9965.0
10400,0.3744335174560547,-32.2454948425293,-483,7950.0,2.9041550159454346,-26,9965.0
10410,0.37484440207481384,-24.331073760986328,-350,7950.0,1.6693980693817139,69,9965.0
10420,0.3728416860103607,-18.110349655151367,-357,7950.0,3.7134146690368652,102,9965.0
10430,0.37311968207359314,-14.7426118850708,-124,7950.0,9.665613174438477,187,9965.0
10440,0.37348729372024536,-5.51944637298584,-96,7950.0,11.79970645904541,235,9965.0
10450,0.37372294068336487,5.275572776794434,170,7950.0,11.995307922363281,176,9965.0
10460,0.37397927045822144,17.205703735351562,273,7950.0,11.366294860839844,257,9965.0
10470,0.3724018931388855,25.401601791381836,465,7950.0,9.394431114196777,35,9965.0
10480,0.3722855746746063,27.993412017822266,447,7950.0,5.5069122314453125,138,9965.0
10490,0.37203729152679443,29.337926864624023,450,7950.0,-0.3221507668495178,-178,9965.0
10500,0.37164580821990967,23.70665168762207,360,7950.0,-2.9955286979675293,66,9965.0
10510,0.36964574456214905,13.894798278808594,116,7950.0,1.3229141235351562,38,9965.0
10520,0.36889949440956116,1.1614145040512085,22,7950.0,10.629396438598633,177,9965.0
10530,0.36811965703964233,-7.530467987060547,-165,7950.0,15.19393539428711,309,9965.0
10540,0.36714839935302734,-7.392205715179443,-95,7950.0,9.105213165283203,22,9965.0
10550,0.3672496974468231,-2.4095048904418945,-48,7950.0,-5.9740705490112305,-87,9965.0
10560,0.3662479519844055,3.7932748794555664,118,7950.0,-15.1466646194458,-378,9965.0
10570,0.36524686217308044,13.950837135314941,228,7950.0,-12.19559383392334,-85,9965.0
10580,0.36430469155311584,22.414018630981445,324,7950.0,-4.986464977264404,-114,9965.0
10590,0.3635139763355255,17.183412551879883,296,7950.0,5.614579677581787,208,9965.0
10600,0.36344555020332336,5.211228370666504,-6,7950.0,17.385189056396484,316,9965.0
10610,0.36293715238571167,-4.0334649085998535,-31,7950.0,18.790992736816406,327,9965.0
10620,0.36266323924064636,-9.572218894958496,-222,7950.0,10.499818801879883,133,9965.0
10630,0.36255398392677307,-8.960057258605957,-93,7950.0,-1.1591490507125854,-72,9965.0
10640,0.3631349503993988,-10.32292652130127,-234,7950.0,-9.454954147338867,-152,9965.0
10650,0.36336085200309753,-17.783401489257812,-288,7950.0,-16.97669792175293,-269,9965.0
10660,0.36366838216781616,-27.911876678466797,-584,7950.0,-20.448152542114258,-339,9965.0
10670,0.3638937771320343,-36.206722259521484,-530,7950.0,-15.593295097351074,-186,9965.0
10680,0.365336149930954,-30.675634384155273,-521,7950.0,-1.8596888780593872,90,9965.0
10690,0.3657650053501129,-15.020913124084473,-61,7950.0,6.770200252532959,151,9965.0
10700,0.36622896790504456,15.035635948181152,374,7950.0,11.917893409729004,102,9965.0
10710,0.3667885661125183,41.82258605957031,840,7950.0,13.110030174255371,347,9965.0
10720,0.3671630918979645,57.25336456298828,926,7950.0,17.197998046875,153,9965.0
10730,0.36792394518852234,53.56196975708008,849,7950.0,19.45599365234375,435,9965.0
10740,0.368267297744751,37.4930534362793,493,7950.0,18.907197952270508,274,9965.0
10750,0.3687238395214081,14.491077423095703,190,7950.0,16.175691604614258,280,9965.0
10760,0.3690599799156189,-2.0228264331817627,-171,7950.0,9.94099235534668,185,9965.0
10770,0.3707931935787201,-10.978468894958496,-106,7950.0,2.088303565979004,-61,9965.0
10780,0.3709931969642639,-10.139289855957031,-209,7950.0,-8.319025039672852,-170,9965.0
10790,0.37108319997787476,-2.170602798461914,83,7950.0,-14.348326683044434,-249,9965.0
10800,0.3711477816104889,3.6746466159820557,47,7950.0,-15.373865127563477,-247,9965.0
10810,0.37123358249664307,3.1681978702545166,38,7950.0,-15.915218353271484,-371,9965.0
10820,0.3720264732837677,-2.72308087348938,-41,7950.0,-15.091322898864746,-67,9965.0
10830,0.37222474813461304,-9.036543846130371,-247,7950.0,-3.3182058334350586,-42,9965.0
10840,0.3725075423717499,-19.31958770751953,-269,7950.0,6.665645122528076,100,9965.0
10850,0.3728373050689697,-28.44586944580078,-502,7950.0,12.27523136138916,247,9965.0
10860,0.373230516910553,-29.637296676635742,-456,7950.0,9.610552787780762,29,9965.0
10870,0.3735962510108948,-21.566383361816406,-292,7950.0,-0.8387731313705444,-34,9965.0
10880,0.3741305470466614,-10.550378799438477,-130,7950.0,-14.785379409790039,-373,9965.0
10890,0.3747790455818176,-2.876788377761841,-50,7950.0,-22.967830657958984,-264,9965.0
10900,0.3760344982147217,-3.162313461303711,-105,7950.0,-19.5373592376709,-253,9965.0
10910,0.3767504096031189,-7.096734523773193,-83,7950.0,-8.53783130645752,-29,9965.0
10920,0.3774932026863098,-10.089966773986816,-233,7950.0,9.006965637207031,281,9965.0
10930,0.3783414959907532,-8.794991493225098,-99,7950.0,26.14192008972168,437,9965.0
10940,0.37916481494903564,0.6622479557991028,102,7950.0,30.142986297607422,560,9965.0
10950,0.3794494867324829,20.779197692871094,483,7950.0,31.584142684936523,387,9965.0
10960,0.3802447021007538,34.214599609375,587,7950.0,26.98976707458496,483,9965.0
10970,0.3808819353580475,37.310150146484375,584,7950.0,17.101398468017578,72,9965.0
10980,0.38149064779281616,29.179540634155273,424,7950.0,6.135172367095947,116,9965.0
10990,0.38361838459968567,18.86952018737793,143,7950.0,-4.492912769317627,-169,9965.0
11000,0.3839823603630066,5.159964561462402,35,7950.0,-16.497705459594727,-313,9965.0
11010,0.38409802317619324,-3.6084320545196533,-154,7950.0,-31.88642120361328,-481,9965.0
11020,0.38401028513908386,-3.689201831817627,-1,7950.0,-41.57993698120117,-735,9965.0
11030,0.3838910460472107,-2.496457099914551,-91,7950.0,-43.10408020019531,-718,9965.0
11040,0.3833354711532593,-9.721766471862793,-319,7950.0,-30.04195213317871,-308,9965.0
11050,0.38316336274147034,-21.876258850097656,-387,7950.0,-8.137640953063965,-105,9965.0
11060,0.382946640253067,-28.9773006439209,-455,7950.0,8.741737365722656,230,9965.0
11070,0.38258808851242065,-28.109575271606445,-462,7950.0,19.32763671875,392,9965.0
11080,0.38361719250679016,-16.763710021972656,-178,7950.0,25.51388931274414,358,9965.0
11090,0.3834887146949768,-6.524906158447266,-96,7950.0,14.34597396850586,190,9965.0
11100,0.3836411237716675,1.0770870447158813,105,7950.0,-0.24443405866622925,-11,9965.0
11110,0.38359174132347107,5.73148250579834,85,7950.0,-9.221160888671875,-218,9965.0
11120,0.3837825059890747,14.817081451416016,300,7950.0,-14.438591003417969,-149,9965.0
11130,0.38383251428604126,18.705028533935547,288,7950.0,-16.84543800354004,-401,9965.0
11140,0.3839759826660156,17.01772117614746,368,7950.0,-13.917610168457031,-117,9965.0
11150,0.38420385122299194,16.767101287841797,190,7950.0,-5.166993618011475,-102,9965.0
11160,0.3844197690486908,13.443405151367188,300,7950.0,4.005238056182861,160,9965.0
11170,0.3853505253791809,14.12000846862793,198,7950.0,14.422638893127441,273,9965.0
11180,0.38560751080513,15.179941177368164,302,7950.0,20.496870040893555,331,9965.0
11190,0.3859166204929352,8.553130149841309,17,7950.0,17.666748046875,319,9965.0
11200,0.38603395223617554,-6.9691643714904785,-73,7950.0,6.79228401184082,39,9965.0
11210,0.3864046335220337,-11.805766105651855,-298,7950.0,-1.1777307987213135,-7,9965.0
11220,0.38629573583602905,-10.176504135131836,-89,7950.0,-7.981199264526367,-64,9965.0
11230,0.386062353849411,-6.980240821838379,-168,7950.0,-8.267226219177246,-173,9965.0
11240,0.3857632577419281,0.12391339242458344,151,7950.0,-14.13022518157959,-279,9965.0
11250,0.38545888662338257,14.108147621154785,239,7950.0,-18.135114669799805,-291,9965.0
11260,0.3858214020729065,25.293981552124023,509,7950.0,-19.390872955322266,-298,9965.0
11270,0.38558387756347656,31.252477645874023,461,7950.0,-15.770973205566406,-127,9965.0
11280,0.3854084014892578,28.015079498291016,443,7950.0,-3.991292715072632,-72,9965.0
11290,0.38518255949020386,19.024070739746094,277,7950.0,12.355013847351074,347,9965.0
11300,0.38516074419021606,4.424820899963379,-41,7950.0,27.10187339782715,488,9965.0
11310,0.38524872064590454,-14.818388938903809,-234,7950.0,33.026145935058594,559,9965.0
11320,0.3853282332420349,-24.516902923583984,-513,7950.0,34.93610763549805,564,9965.0
11330,0.3855249881744385,-27.481985092163086,-354,7950.0,21.506839752197266,261,9965.0
11340,0.38601741194725037,-24.54688262939453,-428,7950.0,0.9784155488014221,-48,9965.0
11350,0.3864252269268036,-20.919431686401367,-277,7950.0,-15.027240753173828,-253,9965.0
11360,0.3867952227592468,-16.330202102661133,-317,7950.0,-23.91569709777832,-533,9965.0
11370,0.38709375262260437,-16.770767211914062,-247,7950.0,-30.92437171936035,-417,9965.0
11380,0.38734471797943115,-15.316880226135254,-223,7950.0,-29.004974365234375,-587,9965.0
11390,0.38796156644821167,-6.15435266494751,-17,7950.0,-23.25503158569336,-254,9965.0
11400,0.3883885145187378,8.67729663848877,232,7950.0,-13.890548706054688,-258,9965.0
11410,0.3888026475906372,25.342708587646484,458,7950.0,-4.083779335021973,21,9965.0
11420,0.3890620172023773,33.289485931396484,559,7950.0,5.044693470001221,86,9965.0
11430,0.38795340061187744,31.767370223999023,510,7950.0,19.629405975341797,466,9965.0
11440,0.3879092335700989,20.246105194091797,253,7950.0,37.537681579589844,581,9965.0
11450,0.38781851530075073,6.758054256439209,39,7950.0,41.07966995239258,771,9965.0
11460,0.38773053884506226,-5.18416690826416,-124,7950.0,35.237342834472656,412,9965.0
11470,0.38752999901771545,-14.091167449951172,-263,7950.0,13.758179664611816,187,9965.0
11480,0.3875921964645386,-17.789012908935547,-218,7950.0,-16.61094093322754,-384,9965.0
11490,0.3874298930168152,-17.030624389648438,-303,7950.0,-41.42863464355469,-824,9965.0
11500,0.38724297285079956,-16.69035530090332,-186,7950.0,-51.76133346557617,-720,9965.0
11510,0.3870423138141632,-10.518142700195312,-157,7950.0,-44.55736541748047,-782,9965.0
11520,0.38599708676338196,1.6426292657852173,91,7950.0,-23.412914276123047,-151,9965.0
11530,0.3858509361743927,9.103947639465332,158,7950.0,0.7469388246536255,38,9965.0
11540,0.3860659897327423,14.832419395446777,329,7950.0,17.51349449157715,396,9965.0
11550,0.38624921441078186,12.9975004196167,145,7950.0,28.27939224243164,410,9965.0
11560,0.38653895258903503,6.567793369293213,83,7950.0,27.47207260131836,515,9965.0
11570,0.38743606209754944,-2.0032389163970947,-71,7950.0,18.025001525878906,93,9965.0
11580,0.38785451650619507,-8.796674728393555,-231,7950.0,-2.8240649700164795,-60,9965.0
11590,0.38822126388549805,-16.588027954101562,-287,7950.0,-19.32004165649414,-469,9965.0
11600,0.3886094391345978,-26.680278778076172,-543,7950.0,-27.606996536254883,-371,9965.0
11610,0.38869509100914,-39.612831115722656,-696,7950.0,-22.65688133239746,-315,9965.0
11620,0.38899242877960205,-45.432472229003906,-736,7950.0,-15.35297966003418,-163,9965.0
11630,0.389602392911911,-30.563796997070312,-246,7950.0,-4.175913333892822,9,9965.0
11640,0.3899365961551666,-1.7571431398391724,112,7950.0,3.9934639930725098,20,9965.0
11650,0.3898966908454895,22.391929626464844,470,7950.0,10.431398391723633,272,9965.0
11660,0.3901481032371521,33.28193664550781,559,7950.0,15.329504013061523,138,9965.0
11670,0.3903859257698059,35.035770416259766,549,7950.0,20.713245391845703,448,9965.0
11680,0.39055734872817993,33.02531051635742,526,7950.0,26.040115356445312,392,9965.0
11690,0.3907266855239868,26.41883087158203,434,7950.0,29.35486602783203,577,9965.0
11700,0.39049968123435974,15.206686019897461,188,7950.0,28.654909133911133,296,9965.0
11710,0.3906339108943939,1.537766695022583,-22,7950.0,16.72334861755371,315,9965.0
11720,0.3907869756221771,-15.173389434814453,-315,7950.0,-3.2930924892425537,-217,9965.0
11730,0.39069685339927673,-24.261943817138672,-401,7950.0,-22.858301162719727,-373,9965.0
11740,0.389127254486084,-30.259607315063477,-444,7950.0,-35.191341400146484,-634,9965.0
11750,0.3889075219631195,-31.070749282836914,-566,7950.0,-32.59807205200195,-429,9965.0
11760,0.3890467882156372,-25.742462158203125,-280,7950.0,-12.641773223876953,-143,9965.0
11770,0.38904908299446106,-9.835309028625488,-136,7950.0,8.036581039428711,107,9965.0
11780,0.38927149772644043,6.644983291625977,259,7950.0,20.448503494262695,440,9965.0
11790,0.3905770182609558,21.931514739990234,373,7950.0,21.53269386291504,197,9965.0
11800,0.3908486068248749,29.744997024536133,514,7950.0,12.078420639038086,218,9965.0
11810,0.3911655843257904,27.89003562927246,459,7950.0,-1.0156207084655762,-119,9965.0
11820,0.3915269672870636,22.196929931640625,319,7950.0,-11.030543327331543,-147,9965.0
11830,0.3912734389305115,12.106647491455078,190,7950.0,-16.982213973999023,-357,9965.0
11840,0.3916928470134735,-0.5113508105278015,-59,7950.0,-14.788297653198242,-152,9965.0
11850,0.3919685184955597,-12.309356689453125,-308,7950.0,-0.6584725379943848,-16,9965.0
11860,0.3922756612300873,-20.90045738220215,-336,7950.0,11.771782875061035,346,9965.0
11870,0.39231714606285095,-18.052946090698242,-277,7950.0,23.887582778930664,305,9965.0
11880,0.39242175221443176,-4.80861759185791,6,7950.0,22.759056091308594,477,9965.0
11890,0.3923443853855133,7.732246398925781,105,7950.0,21.50397491455078,237,9965.0
11900,0.39216387271881104,13.621657371520996,249,7950.0,17.648399353027344,372,9965.0
11910,0.3918601870536804,10.286959648132324,127,7950.0,14.600322723388672,97,9965.0
11920,0.3919890522956848,3.7494192123413086,68,7950.0,12.920523643493652,266,9965.0
11930,0.39162012934684753,-7.3979010581970215,-103,7950.0,16.184326171875,177,9965.0
11940,0.39111360907554626,-11.618995666503906,-251,7950.0,11.478325843811035,163,9965.0
11950,0.39066293835639954,-9.110523223876953,-34,7950.0,-6.085361957550049,-253,9965.0
11960,0.39157944917678833,0.7403953075408936,-29,7950.0,-31.060482025146484,-585,9965.0
11970,0.3904154598712921,10.193289756774902,274,7950.0,-51.033138275146484,-827,9965.0
11980,0.39044198393821716,15.839168548583984,221,7950.0,-52.84711837768555,-835,9965.0
11990,0.38934096693992615,15.316970825195312,329,7950.0,-35.89042282104492,-469,9965.0
12000,0.38851436972618103,9.362767219543457,78,7950.0,-6.311819076538086,59,9965.0
12010,0.3881255090236664,-0.3556501865386963,-36,7950.0,19.780736923217773,313,9965.0
12020,0.38821396231651306,-6.641731262207031,-154,7950.0,33.065635681152344,628,9965.0
12030,0.3881538510322571,-10.78054141998291,-237,7950.0,31.851598739624023,385,9965.0
12040,0.3881502151489258,-10.935898780822754,-115,7950.0,21.484678268432617,367,9965.0
12050,0.38867929577827454,-9.568564414978027,-160,7950.0,5.124532699584961,-122,9965.0
12060,0.38895007967948914,-5.54746675491333,-51,7950.0,-12.651933670043945,-205,9965.0
12070,0.3893072307109833,-4.674114227294922,-24,7950.0,-17.678386688232422,-347,9965.0
12080,0.3900466859340668,-2.9826996326446533,-92,7950.0,-16.420927047729492,-135,9965.0
12090,0.39082229137420654,-2.826453685760498,-38,7950.0,-7.888429641723633,-190,9965.0
12100,0.39149191975593567,-2.0731234550476074,-3,7950.0,-0.0405171737074852,146,9965.0
12110,0.3914981484413147,1.3307009935379028,5,7950.0,9.752364158630371,87,9965.0
12120,0.3921528160572052,9.0169095993042,194,7950.0,13.468324661254883,342,9965.0
12130,0.3921724557876587,17.5181884765625,218,7950.0,20.992603302001953,350,9965.0
12140,0.39335042238235474,18.892261505126953,319,7950.0,28.251678466796875,546,9965.0
12150,0.39327502250671387,9.061607360839844,49,7950.0,34.32663345336914,464,9965.0
12160,0.3937017023563385,-7.010824680328369,-125,7950.0,32.96856689453125,577,9965.0
12170,0.39390528202056885,-15.756736755371094,-351,7950.0,20.931549072265625,204,9965.0
12180,0.39365389943122864,-16.980737686157227,-221,7950.0,-2.6001970767974854,-63,9965.0
12190,0.39367952942848206,-11.840324401855469,-169,7950.0,-24.759063720703125,-637,9965.0
12200,0.39365848898887634,-1.480085849761963,40,7950.0,-47.40289306640625,-718,9965.0
12210,0.3934877812862396,5.866725444793701,136,7950.0,-51.710201263427734,-909,9965.0
12220,0.3931499421596527,9.412933349609375,125,7950.0,-42.67567825317383,-526,9965.0
12230,0.3930065333843231,1.3827334642410278,-74,7950.0,-23.320384979248047,-305,9965.0
12240,0.3929654359817505,-7.20767068862915,-105,7950.0,1.9222131967544556,171,9965.0
12250,0.39310041069984436,-11.594603538513184,-249,7950.0,27.998315811157227,568,9965.0
12260,0.3933005630970001,-13.704643249511719,-220,7950.0,40.450347900390625,623,9965.0
12270,0.3913383185863495,-12.013641357421875,-229,7950.0,35.19641876220703,541,9965.0
12280,0.39167463779449463,-7.241161823272705,-5,7950.0,21.036911010742188,167,9965.0
12290,0.39206966757774353,-1.5364501476287842,-117,7950.0,-1.4052728414535522,-116,9965.0
12300,0.39256709814071655,-2.3023574352264404,10,7950.0,-15.735238075256348,-340,9965.0
12310,0.391496479511261,-4.277779579162598,-114,7950.0,-28.729690551757812,-515,9965.0
12320,0.39188164472579956,-2.2171072959899902,35,7950.0,-30.396217346191406,-474,9965.0
12330,0.39220744371414185,-1.6357753276824951,-45,7950.0,-23.848472595214844,-361,9965.0
12340,0.39255139231681824,-1.8469761610031128,-73,7950.0,-17.004108428955078,-330,9965.0
12350,0.3930617570877075,-1.6398016214370728,20,7950.0,-12.090947151184082,-142,9965.0
12360,0.392015665769577,3.2897517681121826,35,7950.0,-5.126463890075684,-56,9965.0
12370,0.3922538757324219,5.726511478424072,157,7950.0,4.06670618057251,88,9965.0
12380,0.39239245653152466,8.408303260803223,57,7950.0,16.609249114990234,388,9965.0
12390,0.39251917600631714,7.242523670196533,161,7950.0,24.740060806274414,360,9965.0
12400,0.39201903343200684,6.973061561584473,116,7950.0,23.433408737182617,378,9965.0
12410,0.3920935094356537,9.058635711669922,205,7950.0,12.871806144714355,108,9965.0
12420,0.3921108841896057,11.984274864196777,166,7950.0,-0.3154129981994629,69,9965.0
12430,0.39209866523742676,12.335330963134766,212,7950.0,-9.936673164367676,-312,9965.0
12440,0.38977259397506714,11.587929725646973,210,7950.0,-18.875263214111328,-235,9965.0
12450,0.3894907236099243,12.181930541992188,198,7950.0,-16.679941177368164,-344,9965.0
12460,0.3891613781452179,14.827364921569824,287,7950.0,-6.584535121917725,-68,9965.0
12470,0.3887729346752167,12.664627075195312,122,7950.0,-3.1402430534362793,7,9965.0
12480,0.38846156001091003,0.010774781927466393,-11,7950.0,-1.0907927751541138,-52,9965.0
12490,0.3869312107563019,-8.534132957458496,-209,7950.0,0.07511115074157715,118,9965.0
12500,0.3865388333797455,-14.437865257263184,-220,7950.0,-0.6102097630500793,-159,9965.0
12510,0.3861542344093323,-13.585314750671387,-210,7950.0,-7.086110591888428,-71,9965.0
12520,0.3857782781124115,-9.399625778198242,-183,7950.0,-14.671829223632812,-373,9965.0
12530,0.3833790421485901,-8.83469295501709,-87,7950.0,-18.618377685546875,-217,9965.0
12540,0.38291826844215393,-10.580728530883789,-195,7950.0,-14.121235847473145,-317,9965.0
12550,0.38245847821235657,-16.186691284179688,-288,7950.0,-5.776641368865967,-28,9965.0
12560,0.3821027874946594,-22.505924224853516,-433,7950.0,-1.924349308013916,-44,9965.0
12570,0.38172051310539246,-29.453943252563477,-566,7950.0,1.5109528303146362,87,9965.0
12580,0.3824028968811035,-36.61953353881836,-519,7950.0,4.915564060211182,112,9965.0
12590,0.38213175535202026,-32.34392547607422,-521,7950.0,10.007566452026367,81,9965.0
12600,0.38170960545539856,-18.06620216369629,-212,7950.0,18.2208251953125,415,9965.0
12610,0.38148221373558044,2.223548412322998,238,7950.0,24.700002670288086,431,9965.0
12620,0.3809068202972412,29.440044403076172,541,7950.0,19.144439697265625,231,9965.0
12630,0.3807508051395416,49.39498519897461,766,7950.0,15.108717918395996,194,9965.0
12640,0.3805273473262787,55.69488525390625,978,7950.0,12.07993221282959,296,9965.0
12650,0.38034969568252563,51.39385223388672,763,7950.0,4.572535991668701,-36,9965.0
12660,0.3804231286048889,40.86397171020508,554,7950.0,-7.321631908416748,-107,9965.0
12670,0.3803458511829376,24.21657943725586,375,7950.0,-15.789478302001953,-314,9965.0
12680,0.3799241781234741,5.879173278808594,-38,7950.0,-14.946000099182129,-86,9965.0
12690,0.3798257112503052,-13.749451637268066,-263,7950.0,-3.55112886428833,-56,9965.0
12700,0.37963593006134033,-14.936007499694824,-250,7950.0,3.9084808826446533,145,9965.0
12710,0.37963661551475525,-7.368952751159668,-13,7950.0,-0.6997115015983582,-168,9965.0
12720,0.3795239329338074,5.474693298339844,92,7950.0,-9.77262020111084,-139,9965.0
12730,0.3794861435890198,9.26187515258789,179,7950.0,-14.975604057312012,-353,9965.0
12740,0.37957146763801575,6.32419490814209,58,7950.0,-12.494256973266602,-77,9965.0
12750,0.3787403404712677,-2.3284833431243896,-113,7950.0,-4.675476551055908,-131,9965.0
12760,0.3789291977882385,-14.790607452392578,-283,7950.0,2.7083656787872314,193,9965.0
12770,0.3791586756706238,-24.806411743164062,-461,7950.0,15.170003890991211,198,9965.0
12780,0.37939122319221497,-32.37248229980469,-512,7950.0,21.043502807617188,482,9965.0
12790,0.37962618470191956,-30.68085289001465,-515,7950.0,23.874374389648438,345,9965.0
12800,0.3803517818450928,-19.611053466796875,-218,7950.0,26.909448623657227,603,9965.0
12810,0.3808104693889618,-3.459864854812622,-18,7950.0,31.058818817138672,408,9965.0
12820,0.3812033534049988,10.339536666870117,189,7950.0,27.73543930053711,454,9965.0
12830,0.3819432556629181,17.456815719604492,320,7950.0,19.463321685791016,322,9965.0
12840,0.3822506070137024,18.766496658325195,268,7950.0,9.116758346557617,-24,9965.0
12850,0.38272857666015625,15.22242546081543,312,7950.0,-4.273683547973633,-59,9965.0
12860,0.3830917179584503,4.408945560455322,4,7950.0,-17.868404388427734,-474,9965.0
12870,0.38335302472114563,-3.9103026390075684,-108,7950.0,-23.298341751098633,-303,9965.0
12880,0.3841048777103424,-6.573344707489014,-44,7950.0,-17.945735931396484,-304,9965.0
12890,0.384298175573349,0.6866012215614319,52,7950.0,-16.15485954284668,-207,9965.0
12900,0.38443467020988464,13.6099271774292,309,7950.0,-15.902379035949707,-275,9965.0
12910,0.3845372200012207,24.305919647216797,474,7950.0,-14.012862205505371,-132,9965.0
12920,0.3846481442451477,35.25907897949219,611,7950.0,-5.266098976135254,-72,9965.0
12930,0.38518351316452026,35.9085807800293,564,7950.0,6.831489562988281,222,9965.0
12940,0.38510656356811523,25.869182586669922,273,7950.0,15.039772987365723,303,9965.0
12950,0.3850491940975189,8.026535987854004,34,7950.0,21.175479888916016,274,9965.0
12960,0.3850478529930115,-13.760397911071777,-361,7950.0,19.262706756591797,336,9965.0
12970,0.38571932911872864,-29.07545280456543,-570,7950.0,11.32458782196045,77,9965.0
12980,0.3855719566345215,-35.326595306396484,-506,7950.0,3.900437355041504,-25,9965.0
12990,0.385365754365921,-30.001224517822266,-546,7950.0,-6.127425670623779,-50,9965.0
13000,0.3853246867656708,-21.12757110595703,-300,7950.0,-13.001391410827637,-335,9965.0
13010,0.38509583473205566,-11.470641136169434,-156,7950.0,-20.42812156677246,-276,9965.0
13020,0.3842443823814392,-7.354615688323975,-146,7950.0,-15.60628604888916,-352,9965.0
13030,0.38404396176338196,-9.451961517333984,-107,7950.0,-6.252906799316406,-4,9965.0
13040,0.38394030928611755,-17.537757873535156,-401,7950.0,2.624720573425293,72,9965.0
13050,0.3838040232658386,-24.30780029296875,-311,7950.0,7.996359825134277,213,9965.0
13060,0.3846452236175537,-17.780162811279297,-287,7950.0,14.768482208251953,201,9965.0
13070,0.38459399342536926,-1.081484317779541,115,7950.0,17.1873836517334,363,9965.0
13080,0.3846578299999237,19.4677791595459,401,7950.0,17.727581024169922,172,9965.0
13090,0.3846779763698578,38.28610610961914,704,7950.0,14.201592445373535,270,9965.0
13100,0.385410338640213,41.870304107666016,708,7950.0,12.957865715026855,162,9965.0
13110,0.3852889835834503,33.43330383300781,435,7950.0,13.542207717895508,270,9965.0
13120,0.3851071298122406,13.248611450195312,173,7950.0,12.680850982666016,116,9965.0
13130,0.38486531376838684,-1.1993279457092285,-61,7950.0,4.336950302124023,131,9965.0
13140,0.38462668657302856,-10.09486198425293,-133,7950.0,-6.8476457595825195,-271,9965.0
13150,0.38464680314064026,-5.880043983459473,-110,7950.0,-24.262840270996094,-431,9965.0
13160,0.38432955741882324,3.5409114360809326,139,7950.0,-36.95974349975586,-668,9965.0
13170,0.3839665949344635,12.835068702697754,205,7950.0,-36.3304328918457,-451,9965.0
13180,0.3836870491504669,16.636964797973633,242,7950.0,-18.547931671142578,-300,9965.0
13190,0.382443368434906,9.881772994995117,155,7950.0,4.594504356384277,269,9965.0
13200,0.38227197527885437,-4.504784107208252,-250,7950.0,25.7208309173584,535,9965.0
13210,0.3820270895957947,-22.198448181152344,-391,7950.0,36.60712432861328,531,9965.0
13220,0.381653755903244,-33.61414337158203,-600,7950.0,32.24967575073242,592,9965.0
13230,0.38126030564308167,-44.91114044189453,-801,7950.0,20.82356834411621,200,9965.0
13240,0.38196855783462524,-46.912269592285156,-730,7950.0,2.524462938308716,33,9965.0
13250,0.38222211599349976,-36.10826110839844,-502,7950.0,-16.43224334716797,-473,9965.0
13260,0.3822201192378998,-14.53289794921875,-239,7950.0,-31.828636169433594,-518,9965.0
13270,0.3821539878845215,-7.561739444732666,-110,7950.0,-31.64566421508789,-482,9965.0
13280,0.38319963216781616,-12.328944206237793,-316,7950.0,-18.64853858947754,-223,9965.0
13290,0.38341614603996277,-19.40155601501465,-246,7950.0,-5.422486305236816,-94,9965.0
13300,0.3837837278842926,-13.820133209228516,-241,7950.0,5.509209156036377,171,9965.0
13310,0.38410285115242004,2.689894437789917,213,7950.0,16.045944213867188,298,9965.0
13320,0.38386180996894836,25.093900680541992,438,7950.0,15.354440689086914,215,9965.0
13330,0.38410234451293945,43.430137634277344,859,7950.0,8.502355575561523,220,9965.0
13340,0.3842644989490509,58.62662124633789,908,7950.0,-2.072322130203247,-153,9965.0
13350,0.3842810392379761,53.641719818115234,836,7950.0,-7.3317131996154785,-15,9965.0
13360,0.38432952761650085,32.29967498779297,378,7950.0,-5.981827735900879,-166,9965.0
13370,0.38554421067237854,11.231390953063965,85,7950.0,-3.740626096725464,-57,9965.0
13380,0.3856031894683838,-13.935032844543457,-317,7950.0,-4.281044960021973,-43,9965.0
13390,0.38572007417678833,-25.277740478515625,-462,7950.0,-7.236954689025879,-179,9965.0
13400,0.3857469856739044,-30.03486442565918,-487,7950.0,-12.155067443847656,-123,9965.0
13410,0.3858463764190674,-23.5102481842041,-296,7950.0,-13.412789344787598,-379,9965.0
13420,0.38582637906074524,-13.492942810058594,-190,7950.0,-15.019057273864746,-114,9965.0
13430,0.3858236074447632,-8.453521728515625,-167,7950.0,-12.416343688964844,-254,9965.0
13440,0.3858660161495209,-2.8272297382354736,5,7950.0,-3.0674967765808105,146,9965.0
13450,0.3858535587787628,-3.6716644763946533,-88,7950.0,13.8364839553833,183,9965.0
13460,0.38511034846305847,-0.7744811773300171,73,7950.0,16.832094192504883,303,9965.0
13470,0.3851304054260254,6.339029312133789,110,7950.0,15.33457088470459,182,9965.0
13480,0.38528043031692505,14.648628234863281,286,7950.0,7.784948348999023,151,9965.0
13490,0.3854126036167145,21.8150634765625,310,7950.0,-4.976348400115967,-212,9965.0
13500,0.3861389756202698,21.399293899536133,339,7950.0,-15.004481315612793,-150,9965.0
13510,0.38640904426574707,13.983238220214844,124,7950.0,-9.277746200561523,-231,9965.0
13520,0.3867495656013489,-1.8929611444473267,-58,7950.0,-6.472130298614502,-68,9965.0
13530,0.38715559244155884,-14.419318199157715,-328,7950.0,-3.9712679386138916,-29,9965.0
13540,0.38691386580467224,-17.789030075073242,-197,7950.0,3.252427339553833,94,9965.0
13550,0.387126088142395,-9.186539649963379,-112,7950.0,4.18165397644043,-7,9965.0
13560,0.38726893067359924,1.1854275465011597,122,7950.0,5.979063987731934,179,9965.0
13570,0.3873099684715271,8.60932731628418,143,7950.0,8.081287384033203,87,9965.0
13580,0.3872365951538086,8.774009704589844,96,7950.0,11.366608619689941,240,9965.0
13590,0.38832512497901917,7.713189601898193,132,7950.0,6.031613826751709,32,9965.0
13600,0.3882126212120056,4.8957719802856445,103,7950.0,2.430297613143921,51,9965.0
13610,0.38798946142196655,1.2524393796920776,-1,7950.0,-1.907673716545105,-86,9965.0
13620,0.387689471244812,0.16084396839141846,33,7950.0,-6.06510591506958,-100,9965.0
13630,0.3867955207824707,3.538346529006958,77,7950.0,-12.524045944213867,-298,9965.0
13640,0.3862602412700653,11.627222061157227,249,7950.0,-16.13851547241211,-150,9965.0
13650,0.3856153190135956,25.321762084960938,441,7950.0,-11.051156044006348,-245,9965.0
13660,0.38508960604667664,30.204450607299805,490,7950.0,-1.5880682468414307,104,9965.0
13670,0.3844817876815796,20.137331008911133,136,7950.0,7.243768692016602,136,9965.0
13680,0.3837084174156189,-4.398140907287598,-143,7950.0,14.8076171875,240,9965.0
13690,0.3833802044391632,-31.04423713684082,-667,7950.0,16.39202117919922,414,9965.0
13700,0.38311734795570374,-50.065185546875,-835,7950.0,14.77737808227539,180,9965.0
13710,0.38280391693115234,-53.74201583862305,-931,7950.0,8.370265007019043,136,9965.0
13720,0.3823513686656952,-43.8260383605957,-574,7950.0,-3.7812278270721436,-96,9965.0
13730,0.38238298892974854,-25.85797882080078,-405,7950.0,-15.641891479492188,-444,9965.0
13740,0.38245072960853577,-11.297462463378906,-48,7950.0,-24.859357833862305,-383,9965.0
13750,0.3824688494205475,-2.7562105655670166,-48,7950.0,-30.118074417114258,-571,9965.0
13760,0.38270899653434753,-8.28817367553711,-220,7950.0,-26.96332359313965,-363,9965.0
13770,0.3828513026237488,-15.464533805847168,-205,7950.0,-16.145456314086914,-202,9965.0
13780,0.3833273649215698,-9.979912757873535,-196,7950.0,5.581768035888672,190,9965.0
13790,0.3836463689804077,-2.6789779663085938,59,7950.0,20.2807674407959,378,9965.0
13800,0.3838289678096771,7.387885093688965,151,7950.0,26.054410934448242,355,9965.0
13810,0.3812046945095062,23.28168487548828,489,7950.0,23.184654235839844,488,9965.0
13820,0.38122546672821045,37.65345001220703,652,7950.0,16.525999069213867,160,9965.0
13830,0.3811834454536438,38.076534271240234,587,7950.0,11.417953491210938,266,9965.0
13840,0.3811039328575134,30.194759368896484,525,7950.0,8.371662139892578,75,9965.0
13850,0.3805699348449707,18.73175621032715,187,7950.0,2.8717188835144043,46,9965.0
13860,0.3805149495601654,6.057659149169922,90,7950.0,-7.153400897979736,-99,9965.0
13870,0.3802379369735718,-5.787417411804199,-167,7950.0,-17.309814453125,-299,9965.0
13880,0.3798513412475586,-11.258198738098145,-82,7950.0,-20.608335494995117,-348,9965.0
13890,0.3794443607330322,-4.023474216461182,-116,7950.0,-14.522073745727539,-169,9965.0
13900,0.3781055212020874,11.009638786315918,305,7950.0,-7.567034721374512,-111,9965.0
13910,0.3777477443218231,19.4228458404541,307,7950.0,5.582189083099365,201,9965.0
13920,0.37746816873550415,16.812458038330078,246,7950.0,22.570167541503906,346,9965.0
13930,0.37736406922340393,2.2665278911590576,-46,7950.0,31.523548126220703,612,9965.0
13940,0.37673521041870117,-16.956981658935547,-289,7950.0,31.04606819152832,406,9965.0
13950,0.37682461738586426,-30.77461814880371,-609,7950.0,21.386953353881836,328,9965.0
13960,0.3768821060657501,-39.75661849975586,-565,7950.0,5.237739562988281,-34,9965.0
13970,0.3771239221096039,-33.03718948364258,-569,7950.0,-12.611282348632812,-256,9965.0
13980,0.37606072425842285,-24.32479476928711,-294,7950.0,-22.349853515625,-351,9965.0
13990,0.37633922696113586,-13.503887176513672,-180,7950.0,-28.322250366210938,-557,9965.0
14000,0.3765544593334198,-8.023370742797852,-118,7950.0,-21.530391693115234,-195,9965.0
14010,0.3767353892326355,-0.28836509585380554,83,7950.0,-11.485432624816895,-210,9965.0
14020,0.3769872486591339,9.833621978759766,185,7950.0,2.7510318756103516,109,9965.0
14030,0.37589049339294434,21.406417846679688,471,7950.0,2.418614149093628,-16,9965.0
14040,0.37591391801834106,32.501060485839844,504,7950.0,4.410338878631592,122,9965.0
14050,0.3758670687675476,38.28459167480469,690,7950.0,8.447000503540039,197,9965.0
14060,0.37576454877853394,39.08745574951172,594,7950.0,14.99162769317627,230,9965.0
14070,0.37578994035720825,32.17374038696289,524,7950.0,18.718366622924805,324,9965.0
14080,0.3755553960800171,15.904403686523438,156,7950.0,23.475770950317383,330,9965.0
14090,0.37551620602607727,0.5627301335334778,44,7950.0,19.50704002380371,213,9965.0
14100,0.37521570920944214,-9.443033218383789,-233,7950.0,5.554380893707275,62,9965.0
