timestamp,kalman.stateZ,gyro.x,gyro.xRaw,gyro.xVariance,gyro.y,gyro.yRaw,gyro.yVariance
0,0.25161561369895935,0.12035713344812393,7,7014.0,-2.8524210453033447,-47,9979.0
10,0.25157642364501953,0.1589522510766983,5,7014.0,-2.8325066566467285,-39,9979.0
20,0.2515852153301239,0.04653172567486763,4,7014.0,-2.558445692062378,-46,9979.0
30,0.2515692114830017,0.006877528037875891,2,7014.0,-2.611367702484131,-37,9979.0
40,0.2515373229980469,-0.37375178933143616,-11,7014.0,-2.152914047241211,-35,9979.0
50,0.251365602016449,-0.04585816711187363,5,7014.0,-2.309551239013672,-42,9979.0
60,0.2513853907585144,0.6115921139717102,6,7014.0,-3.161947727203369,-55,9979.0
70,0.25139567255973816,-0.43686607480049133,19,7014.0,-2.625554084777832,-60,9979.0
80,0.25145724415779114,2.958979368209839,30,7014.0,-4.163173198699951,-64,9979.0
90,0.251701295375824,5.354755401611328,110,7014.0,-5.4644904136657715,-99,9979.0
100,0.25178197026252747,7.148823261260986,137,7014.0,-6.5207109451293945,-102,9979.0
110,0.25184166431427,6.621119499206543,200,7014.0,-5.30027961730957,-181,9979.0
120,0.25267353653907776,12.077102661132812,158,7014.0,-10.026546478271484,-95,9979.0
130,0.25303030014038086,9.754501342773438,182,7014.0,-8.185940742492676,-195,9979.0
140,0.2513071298599243,9.631770133972168,126,7014.0,-7.477297782897949,-69,9979.0
150,0.251412957906723,6.870981693267822,127,7014.0,-6.041943550109863,119,9979.0
160,0.25158771872520447,5.6735334396362305,165,7014.0,-1.5229054689407349,222,9979.0
170,0.25179898738861084,3.486514091491699,159,7014.0,2.435317039489746,290,9979.0
180,0.252390056848526,4.964141845703125,118,7014.0,2.714751720428467,226,9979.0
190,0.25259822607040405,2.542447805404663,-2,7014.0,5.3246870040893555,203,9979.0
200,0.25282084941864014,0.7709470987319946,-98,7014.0,4.202877998352051,40,9979.0
210,0.25302648544311523,0.18077972531318665,-146,7014.0,4.164083480834961,83,9979.0
220,0.25349000096321106,-3.1225955486297607,-29,7014.0,4.5741777420043945,-179,9979.0
230,0.25370731949806213,-4.566728115081787,27,7014.0,2.8848018646240234,-134,9979.0
240,0.25409433245658875,-0.4458479583263397,85,7014.0,0.36924147605895996,157,9979.0
250,0.25457677245140076,0.18879610300064087,-124,7014.0,3.254443883895874,33,9979.0
260,0.255070298910141,-0.2304469794034958,70,7014.0,1.911085605621338,-16,9979.0
270,0.25547316670417786,-0.1719357669353485,12,7014.0,2.5597352981567383,-18,9979.0
280,0.25579097867012024,2.404351234436035,6,7014.0,1.801382303237915,220,9979.0
290,0.25598055124282837,0.9514205455780029,-57,7014.0,4.112335205078125,-77,9979.0
300,0.25604963302612305,-0.07272051274776459,126,7014.0,3.2492709159851074,74,9979.0
310,0.25679388642311096,-0.05411483347415924,-97,7014.0,4.0189127922058105,91,9979.0
320,0.2567683458328247,-1.5173773765563965,-17,7014.0,5.19318962097168,33,9979.0
330,0.25671592354774475,-3.153710126876831,55,7014.0,3.9682881832122803,50,9979.0
340,0.2565758228302002,0.5056872367858887,-118,7014.0,2.350558280944824,143,9979.0
350,0.2573455572128296,-0.3838641345500946,73,7014.0,2.810445785522461,1,9979.0
360,0.25705111026763916,-0.8375922441482544,-47,7014.0,0.7097962498664856,205,9979.0
370,0.25670161843299866,0.5137889385223389,-35,7014.0,0.21084870398044586,-141,9979.0
380,0.2563379108905792,-0.5576746463775635,68,7014.0,1.207289457321167,-14,9979.0
390,0.2559320330619812,1.3601642847061157,-10,7014.0,-0.9933991432189941,159,9979.0
400,0.256597638130188,2.0210251808166504,10,7014.0,0.03242046758532524,-214,9979.0
410,0.25609850883483887,0.9118141531944275,27,7014.0,-0.6283688545227051,115,9979.0
420,0.2555694580078125,0.8502041101455688,-6,7014.0,-1.1464382410049438,-94,9979.0
430,0.25504136085510254,0.4026528596878052,20,7014.0,-2.5210843086242676,1,9979.0
440,0.2558627128601074,-0.8933934569358826,-42,7014.0,-0.4090386629104614,53,9979.0
450,0.25534266233444214,-1.399937629699707,76,7014.0,-0.9957200884819031,-157,9979.0
460,0.2548888623714447,0.031949155032634735,-103,7014.0,-0.40381255745887756,181,9979.0
470,0.25452786684036255,-2.4834420680999756,46,7014.0,2.188197612762451,-108,9979.0
480,0.2541958689689636,-0.940794050693512,-17,7014.0,4.256998062133789,93,9979.0
490,0.2554606795310974,-1.345163345336914,-21,7014.0,3.540242910385132,20,9979.0
500,0.2553350031375885,0.427489697933197,89,7014.0,4.064960479736328,196,9979.0
510,0.25521889328956604,1.0529584884643555,-140,7014.0,6.323530673980713,-3,9979.0
520,0.25509029626846313,2.1714253425598145,109,7014.0,1.8574178218841553,74,9979.0
530,0.2560189366340637,3.5278100967407227,49,7014.0,1.5570523738861084,7,9979.0
540,0.25591740012168884,1.3426576852798462,53,7014.0,2.4077088832855225,51,9979.0
550,0.2557303011417389,2.823000907897949,-64,7014.0,2.637716293334961,151,9979.0
560,0.25561240315437317,1.3562676906585693,135,7014.0,1.4935752153396606,-118,9979.0
570,0.2577306926250458,1.3928154706954956,-83,7014.0,2.1524100303649902,127,9979.0
580,0.2578001618385315,0.34604838490486145,7,7014.0,2.2892324924468994,-5,9979.0
590,0.2578834593296051,-1.5059683322906494,-9,7014.0,1.0929607152938843,97,9979.0
600,0.2579810619354248,-3.6867682933807373,-126,7014.0,1.1232852935791016,-197,9979.0
610,0.2580662965774536,-5.819008827209473,16,7014.0,-0.25380951166152954,95,9979.0
620,0.26009777188301086,-5.961141586303711,-148,7014.0,1.3875644207000732,-98,9979.0
630,0.26015228033065796,-3.851069450378418,-74,7014.0,-2.201341152191162,74,9979.0
640,0.2601500153541565,-2.8364102840423584,-52,7014.0,-2.4704883098602295,-26,9979.0
650,0.2601020038127899,-0.41165074706077576,121,7014.0,-1.044100284576416,-177,9979.0
660,0.2599169909954071,-2.20351505279541,-26,7014.0,-2.0191891193389893,-133,9979.0
670,0.2597702145576477,3.2500295639038086,41,7014.0,-2.6368472576141357,-151,9979.0
680,0.25970062613487244,1.374079704284668,5,7014.0,-2.320389747619629,6,9979.0
690,0.2596420347690582,2.0896224975585938,18,7014.0,1.2514724731445312,-34,9979.0
700,0.26097163558006287,2.305351734161377,120,7014.0,2.78515887260437,213,9979.0
710,0.2611055374145508,2.454535961151123,-120,7014.0,2.4421396255493164,-147,9979.0
720,0.2612738311290741,3.468780040740967,203,7014.0,0.5633679032325745,-19,9979.0
730,0.26143577694892883,1.871842861175537,-34,7014.0,1.4461723566055298,25,9979.0
740,0.2616397440433502,-0.05663162097334862,-25,7014.0,1.4577264785766602,3,9979.0
750,0.2620483934879303,-0.14772377908229828,-78,7014.0,-1.5532938241958618,146,9979.0
760,0.2622389793395996,-1.950402855873108,23,7014.0,-0.7483446598052979,-235,9979.0
770,0.2624581456184387,-2.0367791652679443,-21,7014.0,-4.556761264801025,112,9979.0
780,0.26260191202163696,-0.49805882573127747,-107,7014.0,-3.1446542739868164,-88,9979.0
790,0.2620636820793152,-1.634581208229065,18,7014.0,-1.2486964464187622,7,9979.0
800,0.2621880769729614,-0.6977738738059998,7,7014.0,0.5838581919670105,-43,9979.0
810,0.26252302527427673,2.124481201171875,66,7014.0,-0.9290661215782166,9,9979.0
820,0.26280683279037476,3.765537738800049,47,7014.0,-1.777722954750061,-34,9979.0
830,0.26320692896842957,1.6795412302017212,86,7014.0,-1.2885404825210571,8,9979.0
840,0.2630806565284729,1.8996814489364624,-2,7014.0,3.239042282104492,43,9979.0
850,0.2633979618549347,2.433093786239624,-36,7014.0,0.7910361289978027,-60,9979.0
860,0.2636806070804596,2.041790723800659,173,7014.0,-1.145372748374939,149,9979.0
870,0.2639714777469635,1.2115542888641357,-92,7014.0,-0.28415247797966003,-223,9979.0
880,0.2629990577697754,-0.7181566953659058,77,7014.0,-1.3607723712921143,138,9979.0
890,0.263111412525177,-1.3020755052566528,-133,7014.0,-2.0146877765655518,4,9979.0
900,0.263229638338089,-1.9548860788345337,2,7014.0,-3.4563095569610596,-158,9979.0
910,0.26338350772857666,-0.3226509392261505,-61,7014.0,-3.5254597663879395,43,9979.0
920,0.2613716721534729,-1.1756678819656372,103,7014.0,-2.2656173706054688,-134,9979.0
930,0.26140064001083374,-1.1940369606018066,-146,7014.0,-2.431796073913574,46,9979.0
940,0.2614125609397888,-1.0461326837539673,79,7014.0,-1.4585564136505127,-69,9979.0
950,0.2613954544067383,-1.6781606674194336,-54,7014.0,-0.9259750247001648,18,9979.0
960,0.2613934874534607,-0.8988831043243408,-41,7014.0,-1.4744540452957153,-152,9979.0
970,0.26077598333358765,0.20299547910690308,16,7014.0,-3.6286582946777344,107,9979.0
980,0.26074662804603577,-1.2321044206619263,43,7014.0,-2.5194571018218994,-56,9979.0
990,0.2607549726963043,-1.0378588438034058,-74,7014.0,-3.9004390239715576,113,9979.0
1000,0.2608337700366974,-3.419130325317383,-33,7014.0,-4.202641487121582,-48,9979.0
1010,0.26100069284439087,-2.576321601867676,-51,7014.0,-2.479276418685913,0,9979.0
1020,0.2611013650894165,-1.9882632493972778,-34,7014.0,-1.485243558883667,-228,9979.0
1030,0.26116490364074707,-0.1708391010761261,56,7014.0,-1.8994289636611938,209,9979.0
1040,0.2612248957157135,1.7006032466888428,-24,7014.0,1.889086365699768,-84,9979.0
1050,0.26129600405693054,0.9458308815956116,-6,7014.0,2.4915857315063477,146,9979.0
1060,0.26209619641304016,1.8567229509353638,-25,7014.0,4.805388450622559,9,9979.0
1070,0.26224616169929504,2.1314029693603516,107,7014.0,3.1708672046661377,236,9979.0
1080,0.26240065693855286,2.6340458393096924,-5,7014.0,3.761472702026367,-119,9979.0
1090,0.2625119090080261,0.12589851021766663,-22,7014.0,4.190720558166504,241,9979.0
1100,0.2627617120742798,1.1279202699661255,82,7014.0,-2.4595327377319336,-138,9979.0
1110,0.26283353567123413,1.0263415575027466,35,7014.0,-1.7256107330322266,-34,9979.0
1120,0.26291143894195557,0.4305104911327362,36,7014.0,-2.0547561645507812,-120,9979.0
1130,0.2630089521408081,1.7132948637008667,52,7014.0,-3.5437636375427246,170,9979.0
1140,0.26386502385139465,1.3073115348815918,46,7014.0,-3.4988138675689697,-241,9979.0
1150,0.2639949917793274,-0.25619012117385864,-92,7014.0,-1.9316667318344116,94,9979.0
1160,0.26409712433815,2.2869293689727783,82,7014.0,-3.2137210369110107,-215,9979.0
1170,0.26417914032936096,-0.05213095620274544,22,7014.0,-1.3298121690750122,6,9979.0
1180,0.2642265260219574,-0.1856399029493332,26,7014.0,-0.14122389256954193,-16,9979.0
1190,0.26385071873664856,-1.6322535276412964,-96,7014.0,-0.9314051270484924,242,9979.0
1200,0.26395779848098755,-0.6168529391288757,44,7014.0,-1.751064419746399,-129,9979.0
1210,0.2640729248523712,-3.969343900680542,-150,7014.0,3.0629043579101562,96,9979.0
1220,0.2641885280609131,-2.8253867626190186,-36,7014.0,1.7707043886184692,-28,9979.0
1230,0.2637898921966553,-3.416539430618286,-73,7014.0,2.0134267807006836,-5,9979.0
1240,0.26381462812423706,-2.416200637817383,16,7014.0,0.09481024742126465,-156,9979.0
1250,0.2638590335845947,-1.9857879877090454,-175,7014.0,1.7266632318496704,111,9979.0
1260,0.26397058367729187,-0.5698840022087097,176,7014.0,0.3972184956073761,-33,9979.0
1270,0.2620241641998291,2.090648651123047,-20,7014.0,0.8065045475959778,-61,9979.0
1280,0.26203763484954834,3.855259418487549,107,7014.0,-2.2424490451812744,-9,9979.0
1290,0.26203060150146484,3.237244129180908,0,7014.0,0.0389343798160553,117,9979.0
1300,0.26194998621940613,4.503309726715088,211,7014.0,-0.8003755807876587,10,9979.0
1310,0.2618263065814972,4.0979323387146,-156,7014.0,1.1809039115905762,18,9979.0
1320,0.26228442788124084,1.155808448791504,101,7014.0,0.5044179558753967,41,9979.0
1330,0.26227664947509766,0.6846914887428284,-33,7014.0,1.4503130912780762,-20,9979.0
1340,0.2622550129890442,0.9076172113418579,74,7014.0,0.6541895270347595,-25,9979.0
1350,0.26223045587539673,1.7605457305908203,-84,7014.0,1.808350682258606,-7,9979.0
1360,0.26173242926597595,1.9398983716964722,97,7014.0,0.8612935543060303,125,9979.0
1370,0.2617572546005249,-0.9632962942123413,-74,7014.0,2.726588726043701,-155,9979.0
1380,0.2616812288761139,-1.0497666597366333,-15,7014.0,0.3983366787433624,13,9979.0
1390,0.261614054441452,-2.2398548126220703,6,7014.0,0.6691693663597107,-57,9979.0
1400,0.2616012692451477,-0.8554494380950928,67,7014.0,-0.9368718266487122,222,9979.0
1410,0.26255202293395996,1.6022168397903442,-129,7014.0,0.3676605820655823,-136,9979.0
1420,0.2625671327114105,1.4161415100097656,128,7014.0,-3.5072011947631836,90,9979.0
1430,0.2626063823699951,0.9681218862533569,-32,7014.0,-1.6346344947814941,-30,9979.0
1440,0.2626039683818817,0.6468895673751831,13,7014.0,-0.39060258865356445,-77,9979.0
1450,0.26237383484840393,0.40460941195487976,-11,7014.0,1.177196979522705,-50,9979.0
1460,0.2623751759529114,-1.0079606771469116,60,7014.0,2.239778757095337,121,9979.0
1470,0.26239925622940063,-1.4221819639205933,-35,7014.0,4.552832126617432,-40,9979.0
1480,0.2624066174030304,-0.5147554874420166,-51,7014.0,1.2553404569625854,22,9979.0
1490,0.2624054551124573,-0.5157055854797363,29,7014.0,0.7985557317733765,6,9979.0
1500,0.2634885907173157,-2.3436062335968018,-73,7014.0,2.709479331970215,-24,9979.0
1510,0.2635747194290161,-1.3196477890014648,-12,7014.0,2.7145767211914062,-30,9979.0
1520,0.26364845037460327,0.5966480374336243,-111,7014.0,-0.5736938118934631,119,9979.0
1530,0.2637069523334503,-1.182939052581787,100,7014.0,-3.9098074436187744,-51,9979.0
1540,0.263508141040802,1.3377139568328857,-93,7014.0,-2.1235220432281494,-112,9979.0
1550,0.2637300491333008,-0.6920440793037415,33,7014.0,-0.41446179151535034,-7,9979.0
1560,0.263833224773407,-0.6831374764442444,-2,7014.0,4.296302795410156,24,9979.0
1570,0.2638758718967438,2.8346738815307617,120,7014.0,-0.13618594408035278,174,9979.0
1580,0.26513516902923584,1.8418971300125122,-79,7014.0,4.0360426902771,13,9979.0
1590,0.26517215371131897,2.54327130317688,-21,7014.0,3.8231711387634277,257,9979.0
1600,0.2651804983615875,1.3281233310699463,101,7014.0,3.626281261444092,-23,9979.0
1610,0.2651752233505249,2.136944532394409,-3,7014.0,0.47817251086235046,65,9979.0
1620,0.26519280672073364,2.0088393688201904,21,7014.0,0.12088559567928314,-93,9979.0
1630,0.2646957039833069,0.9632593989372253,-89,7014.0,-0.7728875279426575,160,9979.0
1640,0.2645964026451111,-0.347885400056839,148,7014.0,-1.2170443534851074,-57,9979.0
1650,0.2644980549812317,0.11759287863969803,-171,7014.0,-2.5315043926239014,-53,9979.0
1660,0.26444268226623535,-3.019655704498291,5,7014.0,0.4435148239135742,15,9979.0
1670,0.26654598116874695,0.1320391148328781,26,7014.0,-0.8253524899482727,-82,9979.0
1680,0.266597718000412,-1.306369423866272,127,7014.0,1.1693860292434692,42,9979.0
1690,0.26667627692222595,1.0234562158584595,-114,7014.0,-1.7725849151611328,-202,9979.0
1700,0.26676127314567566,-1.3390533924102783,-11,7014.0,2.926482915878296,300,9979.0
1710,0.2661450505256653,-2.1609058380126953,-30,7014.0,1.3502250909805298,-48,9979.0
1720,0.2661886215209961,-2.245297908782959,-55,7014.0,1.2796396017074585,46,9979.0
1730,0.2662256360054016,-0.5417966842651367,-34,7014.0,0.40909796953201294,-98,9979.0
1740,0.2662339508533478,0.3454798460006714,-107,7014.0,-0.14749526977539062,116,9979.0
1750,0.2662304937839508,-0.4863176941871643,160,7014.0,-1.0570151805877686,173,9979.0
1760,0.26536810398101807,-0.2928510010242462,-184,7014.0,1.105825424194336,-36,9979.0
1770,0.2655264735221863,-2.4451348781585693,51,7014.0,-0.2518930435180664,111,9979.0
1780,0.26562801003456116,-0.3244853913784027,-59,7014.0,1.3131922483444214,-37,9979.0
1790,0.26576873660087585,-0.5750914812088013,47,7014.0,-0.9799573421478271,58,9979.0
1800,0.26542043685913086,1.5753698348999023,3,7014.0,-0.8519071936607361,-251,9979.0
1810,0.2653367817401886,0.8152651190757751,11,7014.0,1.1039305925369263,191,9979.0
1820,0.2652607262134552,0.34724342823028564,124,7014.0,0.06161424517631531,-62,9979.0
1830,0.26518526673316956,0.43502262234687805,-1,7014.0,0.3235994875431061,51,9979.0
1840,0.26543372869491577,0.425921767950058,66,7014.0,-2.427157163619995,-25,9979.0
1850,0.2653653919696808,1.6749520301818848,-109,7014.0,-4.568758010864258,-71,9979.0
1860,0.265252023935318,-3.6799733638763428,61,7014.0,-7.365711212158203,162,9979.0
1870,0.26516732573509216,-1.9441754817962646,-160,7014.0,1.7965779304504395,-146,9979.0
1880,0.2651296555995941,-7.230987071990967,-73,7014.0,-0.46152111887931824,90,9979.0
1890,0.2642473578453064,-4.946096420288086,-40,7014.0,2.2816505432128906,-3,9979.0
1900,0.2641422152519226,-1.645694613456726,25,7014.0,3.8847768306732178,225,9979.0
1910,0.26406213641166687,3.000606060028076,105,7014.0,2.649137496948242,-57,9979.0
1920,0.2641068398952484,0.08421646803617477,-193,7014.0,3.6180579662323,18,9979.0
1930,0.2644147276878357,1.2746707201004028,173,7014.0,4.754014492034912,82,9979.0
1940,0.2643512189388275,0.6372898817062378,82,7014.0,1.881651520729065,-158,9979.0
1950,0.264289915561676,0.36953261494636536,74,7014.0,0.38894253969192505,37,9979.0
1960,0.2642463445663452,3.0966176986694336,38,7014.0,-0.43589767813682556,-137,9979.0
1970,0.26418638229370117,2.2047271728515625,-4,7014.0,-2.409336805343628,71,9979.0
1980,0.26485246419906616,3.029834032058716,243,7014.0,-5.307518482208252,16,9979.0
1990,0.264790415763855,-0.7013946771621704,-99,7014.0,-4.159304618835449,-147,9979.0
2000,0.26470088958740234,0.5398156046867371,-30,7014.0,-4.205804347991943,12,9979.0
2010,0.264604389667511,-0.04536348581314087,-7,7014.0,-2.1760165691375732,-71,9979.0
2020,0.26588043570518494,-1.067595362663269,113,7014.0,-0.25806888937950134,131,9979.0
2030,0.2658868432044983,1.7830069065093994,-147,7014.0,1.8202775716781616,-145,9979.0
2040,0.26590344309806824,-0.1873721480369568,108,7014.0,3.9787237644195557,156,9979.0
2050,0.2659241855144501,-0.13497066497802734,-52,7014.0,5.537217140197754,118,9979.0
2060,0.26596882939338684,0.252399206161499,-7,7014.0,4.820169925689697,110,9979.0
2070,0.26687461137771606,-1.973727822303772,-48,7014.0,5.133016109466553,86,9979.0
2080,0.26690417528152466,-0.30395328998565674,-97,7014.0,1.5888983011245728,-173,9979.0
2090,0.2670076787471771,-4.05951452255249,162,7014.0,0.794391930103302,170,9979.0
2100,0.26716679334640503,-1.8902161121368408,-95,7014.0,-3.6089518070220947,-186,9979.0
2110,0.2671642303466797,-3.0939781665802,-58,7014.0,-6.730043888092041,-165,9979.0
2120,0.26737523078918457,-5.4085373878479,-94,7014.0,-7.198950290679932,-106,9979.0
2130,0.26756927371025085,-3.534975290298462,8,7014.0,-6.955057621002197,118,9979.0
2140,0.2676403522491455,-4.524344444274902,-3,7014.0,-2.091862678527832,-174,9979.0
2150,0.2682420611381531,1.2714272737503052,-173,7014.0,0.40397554636001587,19,9979.0
2160,0.2683679461479187,-1.0838178396224976,75,7014.0,0.7773457765579224,63,9979.0
2170,0.2684537470340729,-1.1077357530593872,-55,7014.0,4.926492214202881,68,9979.0
2180,0.2685401141643524,-1.5560027360916138,50,7014.0,4.807845592498779,101,9979.0
2190,0.2686004042625427,2.1156160831451416,-73,7014.0,3.6333649158477783,-47,9979.0
2200,0.2707710564136505,1.048280954360962,42,7014.0,2.6102523803710938,271,9979.0
2210,0.2713724672794342,3.8243486881256104,164,7014.0,2.3130862712860107,-38,9979.0
2220,0.27148398756980896,5.078619003295898,-64,7014.0,1.938323736190796,33,9979.0
2230,0.2715434730052948,4.319326400756836,63,7014.0,1.4481337070465088,60,9979.0
2240,0.2710544764995575,3.7209644317626953,-5,7014.0,3.431553602218628,-14,9979.0
2250,0.271108478307724,3.32747483253479,235,7014.0,-0.536355197429657,31,9979.0
2260,0.2711610198020935,8.204401016235352,138,7014.0,1.201646089553833,-256,9979.0
2270,0.27117469906806946,7.5473713874816895,-6,7014.0,0.3780774474143982,190,9979.0
2280,0.26951631903648376,3.638423204421997,192,7014.0,-0.3576710820198059,9,9979.0
2290,0.26937440037727356,2.256711959838867,5,7014.0,0.3600148856639862,26,9979.0
2300,0.26923251152038574,0.3827550709247589,66,7014.0,0.2361687868833542,-51,9979.0
2310,0.26908886432647705,-1.1840695142745972,-148,7014.0,0.3177174925804138,-97,9979.0
2320,0.2690323293209076,-1.1172012090682983,74,7014.0,-3.705723762512207,134,9979.0
2330,0.2693062126636505,-1.705078125,1,7014.0,-0.46556994318962097,-196,9979.0
2340,0.26921725273132324,0.5609392523765564,-50,7014.0,-0.9856262803077698,41,9979.0
2350,0.26912859082221985,2.900355815887451,86,7014.0,-0.5427072644233704,-21,9979.0
2360,0.2689734995365143,4.073414325714111,-77,7014.0,1.9702730178833008,52,9979.0
2370,0.2692408561706543,2.0291783809661865,151,7014.0,-0.9520703554153442,130,9979.0
2380,0.2692028880119324,0.2882814407348633,-36,7014.0,0.7674463987350464,-202,9979.0
2390,0.269138902425766,2.2715280055999756,-99,7014.0,-1.0919100046157837,89,9979.0
2400,0.26902246475219727,-4.603971481323242,-26,7014.0,0.3709847331047058,-27,9979.0
2410,0.2688682973384857,2.4566726684570312,-55,7014.0,-0.07332492619752884,108,9979.0
2420,0.26919156312942505,-1.9323999881744385,65,7014.0,0.39699500799179077,-13,9979.0
2430,0.2691105008125305,-3.7638299465179443,-128,7014.0,1.2007886171340942,-278,9979.0
2440,0.2690424919128418,-1.7875642776489258,-13,7014.0,0.30842912197113037,73,9979.0
2450,0.26898056268692017,-4.160551071166992,25,7014.0,-0.8328973650932312,-58,9979.0
2460,0.26937469840049744,-1.8962749242782593,-101,7014.0,-2.48728084564209,-33,9979.0
2470,0.26940107345581055,-1.6388657093048096,93,7014.0,-2.47078013420105,6,9979.0
2480,0.269493043422699,-0.25454071164131165,-111,7014.0,0.6521003246307373,-136,9979.0
2490,0.269527405500412,0.05107022449374199,-84,7014.0,1.7539677619934082,220,9979.0
2500,0.27017951011657715,0.667172372341156,149,7014.0,1.2038053274154663,-3,9979.0
2510,0.27035999298095703,1.9612127542495728,-60,7014.0,0.4861898124217987,-92,9979.0
2520,0.2705334424972534,-1.295973300933838,12,7014.0,0.5915859937667847,-11,9979.0
2530,0.2707032859325409,0.2135891616344452,-20,7014.0,0.7542327642440796,-178,9979.0
2540,0.2709226906299591,-4.973252296447754,-38,7014.0,1.0239089727401733,-121,9979.0
2550,0.27115222811698914,-3.1060400009155273,113,7014.0,6.890961170196533,17,9979.0
2560,0.2713363766670227,-1.7746471166610718,-113,7014.0,1.738106369972229,-3,9979.0
2570,0.2715234160423279,-2.9794323444366455,-15,7014.0,-1.0785456895828247,4,9979.0
2580,0.27173104882240295,-0.4870193302631378,-52,7014.0,-0.04962731525301933,-107,9979.0
2590,0.27125704288482666,2.2904250621795654,-7,7014.0,-2.4866623878479004,-56,9979.0
2600,0.27138563990592957,2.501596212387085,233,7014.0,-2.4541211128234863,-137,9979.0
2610,0.2715044617652893,2.47184419631958,-118,7014.0,-1.0260928869247437,-116,9979.0
2620,0.27160200476646423,2.9422361850738525,85,7014.0,-2.665545701980591,15,9979.0
2630,0.2717292308807373,3.590550184249878,34,7014.0,0.2977638840675354,-45,9979.0
2640,0.2715733051300049,5.42349100112915,75,7014.0,0.01103441696614027,181,9979.0
2650,0.2716993987560272,4.975157260894775,105,7014.0,2.2425739765167236,-31,9979.0
2660,0.2718324661254883,-1.2078003883361816,-60,7014.0,-5.685991287231445,-88,9979.0
2670,0.27199071645736694,-5.027521133422852,-38,7014.0,2.200690746307373,185,9979.0
2680,0.272924542427063,-4.97573184967041,-112,7014.0,4.156700134277344,55,9979.0
2690,0.273098349571228,-6.702697277069092,-30,7014.0,1.9758386611938477,168,9979.0
2700,0.2732546925544739,-5.877015113830566,-247,7014.0,3.5781445503234863,-89,9979.0
2710,0.2734698951244354,-5.044912338256836,-45,7014.0,2.422834634780884,233,9979.0
2720,0.2726060748100281,-5.390411853790283,-62,7014.0,-1.0529931783676147,-91,9979.0
2730,0.2727029025554657,-3.0166406631469727,-66,7014.0,-1.7610644102096558,-95,9979.0
2740,0.27282053232192993,-3.0335681438446045,-26,7014.0,-2.108440399169922,45,9979.0
2750,0.27289846539497375,1.5389413833618164,-63,7014.0,-5.042782783508301,-185,9979.0
2760,0.2729402482509613,1.4883476495742798,41,7014.0,-4.201993942260742,101,9979.0
2770,0.27378958463668823,0.021100809797644615,57,7014.0,-2.232121467590332,-222,9979.0
2780,0.2738400399684906,1.5152474641799927,-44,7014.0,1.4744889736175537,-27,9979.0
2790,0.2739323675632477,-2.4665770530700684,51,7014.0,2.0544514656066895,19,9979.0
2800,0.2739775478839874,1.7917513847351074,11,7014.0,-1.183165192604065,-68,9979.0
2810,0.2743578553199768,2.13535213470459,135,7014.0,-1.6425238847732544,189,9979.0
2820,0.2743723392486572,2.387104034423828,176,7014.0,0.2647736966609955,-111,9979.0
2830,0.27439945936203003,0.961711585521698,-91,7014.0,4.030811309814453,73,9979.0
2840,0.27442553639411926,2.758035898208618,78,7014.0,4.32449197769165,94,9979.0
2850,0.2744970917701721,3.3920440673828125,30,7014.0,0.7243248820304871,-45,9979.0
2860,0.2754268944263458,3.010895013809204,83,7014.0,-0.6694439649581909,89,9979.0
2870,0.2761169970035553,2.5953941345214844,122,7014.0,-0.25679418444633484,-116,9979.0
2880,0.2762807011604309,1.7771070003509521,-144,7014.0,-1.0619984865188599,-161,9979.0
2890,0.2763710021972656,1.5219166278839111,100,7014.0,-1.5898489952087402,103,9979.0
2900,0.27668142318725586,-0.12688739597797394,72,7014.0,-0.019897442311048508,-29,9979.0
2910,0.2769675552845001,2.023905038833618,74,7014.0,1.5084809064865112,97,9979.0
2920,0.277132123708725,0.0820617601275444,159,7014.0,0.9473193883895874,14,9979.0
2930,0.2772553861141205,1.8234643936157227,-177,7014.0,0.5919585227966309,-78,9979.0
2940,0.2768430709838867,-0.511916995048523,47,7014.0,-1.967295527458191,218,9979.0
2950,0.2770293653011322,1.4476170539855957,129,7014.0,2.1659531593322754,1,9979.0
2960,0.277268648147583,2.716554641723633,4,7014.0,1.8702309131622314,72,9979.0
2970,0.277471661567688,3.2110543251037598,145,7014.0,5.141213893890381,110,9979.0
2980,0.2776895761489868,3.9884676933288574,-56,7014.0,5.895507335662842,-18,9979.0
2990,0.277625173330307,4.111232757568359,88,7014.0,3.232451915740967,258,9979.0
3000,0.2778007984161377,1.0202577114105225,236,7014.0,7.389308452606201,50,9979.0
3010,0.2779553532600403,2.129913330078125,23,7014.0,5.891516208648682,-7,9979.0
3020,0.2781142294406891,0.7109070420265198,63,7014.0,-2.096067190170288,-19,9979.0
3030,0.2774711549282074,-2.6205811500549316,-84,7014.0,-0.09262304753065109,-197,9979.0
3040,0.277663916349411,1.3427478075027466,-23,7014.0,-0.9414843916893005,149,9979.0
3050,0.27776825428009033,-6.287457466125488,179,7014.0,-4.257035255432129,-70,9979.0
3060,0.2780778110027313,-5.5753173828125,-185,7014.0,-4.025249004364014,-184,9979.0
3070,0.2782430052757263,-4.964502811431885,-50,7014.0,-4.426077365875244,-2,9979.0
3080,0.27829504013061523,-5.694661617279053,-95,7014.0,0.43546706438064575,-135,9979.0
3090,0.27841466665267944,-1.7452837228775024,-117,7014.0,0.7714250683784485,95,9979.0
3100,0.2786376178264618,-1.484968900680542,157,7014.0,1.274237871170044,160,9979.0
3110,0.27881526947021484,3.652310609817505,38,7014.0,3.5274574756622314,-135,9979.0
3120,0.278646320104599,1.0574746131896973,1,7014.0,3.389786720275879,59,9979.0
3130,0.2788126766681671,-1.3944754600524902,41,7014.0,4.94175910949707,107,9979.0
3140,0.27895617485046387,-0.4555523991584778,-77,7014.0,0.1832607090473175,-59,9979.0
3150,0.2790586054325104,-1.718553066253662,60,7014.0,-1.8147015571594238,199,9979.0
3160,0.27920982241630554,-5.017552375793457,8,7014.0,-4.994998931884766,-180,9979.0
3170,0.2797379791736603,-2.3795390129089355,-179,7014.0,-5.996138095855713,-394,9979.0
3180,0.28001782298088074,3.358286142349243,32,7014.0,-6.100116729736328,71,9979.0
3190,0.28020986914634705,1.4482066631317139,-21,7014.0,-6.989494323730469,-133,9979.0
3200,0.28033676743507385,-0.9721416234970093,4,7014.0,-4.21691370010376,-161,9979.0
3210,0.2791505753993988,0.8006269335746765,192,7014.0,-2.0263257026672363,25,9979.0
3220,0.2792309522628784,3.3319714069366455,-49,7014.0,2.8330180644989014,-217,9979.0
3230,0.27932193875312805,0.715111494064331,16,7014.0,3.1537909507751465,53,9979.0
3240,0.2794216573238373,1.6699092388153076,55,7014.0,3.4706838130950928,-28,9979.0
3250,0.2797645032405853,2.957395076751709,-26,7014.0,-0.27318692207336426,-17,9979.0
3260,0.2799086272716522,4.754180431365967,174,7014.0,-0.17991343140602112,111,9979.0
3270,0.28003039956092834,4.941185474395752,220,7014.0,-5.636868000030518,-279,9979.0
3280,0.2801748216152191,2.090426206588745,-120,7014.0,-4.295002460479736,-183,9979.0
3290,0.2803438901901245,2.1051688194274902,-33,7014.0,1.0469322204589844,-8,9979.0
3300,0.28093627095222473,3.0723114013671875,-56,7014.0,-2.25514554977417,-70,9979.0
3310,0.28118377923965454,1.830811619758606,131,7014.0,-2.207110643386841,112,9979.0
3320,0.281440794467926,0.01467493362724781,-3,7014.0,-0.706642746925354,60,9979.0
3330,0.28165799379348755,2.4901676177978516,-27,7014.0,3.36110520362854,-84,9979.0
3340,0.28282153606414795,0.10157014429569244,73,7014.0,3.2361528873443604,91,9979.0
3350,0.283070832490921,-0.835939884185791,-32,7014.0,2.391834020614624,21,9979.0
3360,0.28335314989089966,-2.0136709213256836,17,7014.0,-1.7913585901260376,-125,9979.0
3370,0.2836475372314453,-1.528030514717102,161,7014.0,-3.0688154697418213,170,9979.0
3380,0.28371065855026245,-3.7052953243255615,-151,7014.0,-8.086639404296875,-347,9979.0
3390,0.28399893641471863,-1.8460201025009155,19,7014.0,-3.723142385482788,42,9979.0
3400,0.2842937707901001,-4.5061235427856445,14,7014.0,-3.225459575653076,-23,9979.0
3410,0.28457584977149963,-0.5164774656295776,-101,7014.0,0.9008005857467651,40,9979.0
3420,0.2848374843597412,-3.901763439178467,120,7014.0,2.224085807800293,184,9979.0
3430,0.28436705470085144,-1.522531270980835,-68,7014.0,4.326399803161621,-90,9979.0
3440,0.2846183180809021,1.4368916749954224,-141,7014.0,1.8302383422851562,-92,9979.0
3450,0.2849019765853882,1.412664771080017,45,7014.0,2.4144606590270996,76,9979.0
3460,0.28516894578933716,2.135659694671631,-6,7014.0,1.2174044847488403,-54,9979.0
3470,0.28620320558547974,1.7283724546432495,73,7014.0,-1.5236753225326538,99,9979.0
3480,0.2865593731403351,0.48626357316970825,121,7014.0,-1.8462274074554443,119,9979.0
3490,0.2869042754173279,-0.14680783450603485,-222,7014.0,-5.517890453338623,-177,9979.0
3500,0.28722599148750305,-0.9262341856956482,-22,7014.0,-2.627812623977661,-3,9979.0
3510,0.2876362204551697,-3.5633108615875244,-63,7014.0,-0.6370797157287598,-90,9979.0
3520,0.2877446711063385,-2.1993119716644287,-35,7014.0,-2.666900634765625,72,9979.0
3530,0.2881053686141968,-4.68255090713501,159,7014.0,-0.03641928732395172,-25,9979.0
3540,0.2884863615036011,-3.8878090381622314,-93,7014.0,4.545248508453369,-120,9979.0
3550,0.2889169752597809,-3.444105863571167,-43,7014.0,-3.20809006690979,17,9979.0
3560,0.28818994760513306,-5.522989749908447,-11,7014.0,-2.184964418411255,-80,9979.0
3570,0.288205087184906,-2.703888416290283,-131,7014.0,-3.206625461578369,0,9979.0
3580,0.2888730466365814,-2.064849615097046,148,7014.0,-4.708723545074463,33,9979.0
3590,0.2888505458831787,1.2203847169876099,-49,7014.0,0.10794647783041,-244,9979.0
3600,0.29020950198173523,0.38294440507888794,-64,7014.0,-5.9518656730651855,-122,9979.0
3610,0.2902086675167084,3.3229172229766846,136,7014.0,-4.389256954193115,-19,9979.0
3620,0.2905648350715637,2.2137370109558105,12,7014.0,-2.3683197498321533,-40,9979.0
3630,0.2909030020236969,3.4004151821136475,97,7014.0,-3.6458418369293213,120,9979.0
3640,0.2912372946739197,0.17156217992305756,77,7014.0,-0.3300245702266693,193,9979.0
3650,0.29173988103866577,0.8962416052818298,-210,7014.0,1.9387542009353638,65,9979.0
3660,0.292049765586853,1.664981484413147,56,7014.0,0.5180494785308838,110,9979.0
3670,0.29236629605293274,2.3444623947143555,-5,7014.0,3.013002872467041,-30,9979.0
3680,0.29268547892570496,2.4559226036071777,118,7014.0,0.3285723626613617,1,9979.0
3690,0.2921985685825348,4.119381904602051,200,7014.0,-1.3757188320159912,-128,9979.0
3700,0.29221925139427185,-0.6748648881912231,-150,7014.0,-3.202629804611206,-63,9979.0
3710,0.29274168610572815,3.860891103744507,127,7014.0,-0.058379147201776505,66,9979.0
3720,0.292770117521286,4.601950168609619,201,7014.0,-4.865664958953857,-121,9979.0
3730,0.2932787835597992,3.5823705196380615,52,7014.0,-2.72056245803833,-50,9979.0
3740,0.29274579882621765,3.9290101528167725,112,7014.0,-3.5602424144744873,106,9979.0
3750,0.29319125413894653,1.7953505516052246,7,7014.0,1.590826153755188,64,9979.0
3760,0.2932024300098419,5.049139976501465,-91,7014.0,1.9593579769134521,134,9979.0
3770,0.29341763257980347,0.6273504495620728,159,7014.0,-2.8125462532043457,67,9979.0
3780,0.2930004596710205,6.422882556915283,60,7014.0,2.682602643966675,45,9979.0
3790,0.29313477873802185,4.022640705108643,-3,7014.0,4.8455939292907715,229,9979.0
3800,0.29321277141571045,2.843198776245117,114,7014.0,6.0000176429748535,121,9979.0
3810,0.293288916349411,1.838495135307312,-121,7014.0,5.946699142456055,92,9979.0
3820,0.2935931384563446,-2.848068952560425,-81,7014.0,3.061793327331543,62,9979.0
3830,0.29367488622665405,-2.6743416786193848,97,7014.0,2.539644718170166,140,9979.0
3840,0.2937254309654236,1.1665244102478027,-81,7014.0,-1.9466841220855713,-147,9979.0
3850,0.2938089668750763,-1.574258804321289,39,7014.0,0.09222076088190079,32,9979.0
3860,0.29391881823539734,-0.564882218837738,62,7014.0,-0.41304686665534973,-66,9979.0
3870,0.29482436180114746,-1.5602695941925049,-186,7014.0,3.4147582054138184,-132,9979.0
3880,0.2950376868247986,-4.663264751434326,36,7014.0,3.5188918113708496,116,9979.0
3890,0.29525312781333923,-2.1711039543151855,10,7014.0,3.2672157287597656,-9,9979.0
3900,0.2954367399215698,-4.937854766845703,-80,7014.0,0.8030844330787659,-12,9979.0
3910,0.29575666785240173,-2.337590217590332,57,7014.0,2.654449939727783,109,9979.0
3920,0.29591885209083557,0.6748058795928955,83,7014.0,0.14261935651302338,-166,9979.0
3930,0.29606151580810547,1.340391755104065,-51,7014.0,-2.3720037937164307,-133,9979.0
3940,0.29623058438301086,-0.8883076906204224,21,7014.0,-1.471993088722229,141,9979.0
3950,0.29656147956848145,-1.5289130210876465,-61,7014.0,1.1382160186767578,-19,9979.0
3960,0.2956714332103729,-4.570770263671875,-45,7014.0,4.678606033325195,63,9979.0
3970,0.29583966732025146,-6.843578338623047,-29,7014.0,4.366298198699951,162,9979.0
3980,0.2960125505924225,0.3991572856903076,-224,7014.0,3.8664345741271973,-91,9979.0
3990,0.29620617628097534,-2.3169078826904297,-54,7014.0,0.5990646481513977,-158,9979.0
4000,0.2954821288585663,-5.126005172729492,56,7014.0,3.6413300037384033,183,9979.0
4010,0.2956242859363556,-3.1270289421081543,-117,7014.0,3.165438652038574,15,9979.0
4020,0.2957533001899719,-1.1460304260253906,18,7014.0,-1.6522358655929565,75,9979.0
4030,0.29600656032562256,-2.373823404312134,77,7014.0,-3.2708985805511475,-88,9979.0
4040,0.2979494333267212,0.14348620176315308,-214,7014.0,-3.191910743713379,-117,9979.0
4050,0.29819366335868835,3.7960364818573,20,7014.0,-7.869682788848877,144,9979.0
4060,0.2983876168727875,-2.3535690307617188,132,7014.0,0.05686451122164726,-2,9979.0
4070,0.29858529567718506,1.1178032159805298,-29,7014.0,-0.6571488976478577,36,9979.0
4080,0.298808753490448,-0.6350758671760559,15,7014.0,0.35887059569358826,196,9979.0
4090,0.30020126700401306,-1.6715892553329468,34,7014.0,3.1095058917999268,-8,9979.0
4100,0.3005348742008209,-0.20102782547473907,-212,7014.0,10.131631851196289,-21,9979.0
4110,0.30090880393981934,2.801682233810425,16,7014.0,4.587604522705078,184,9979.0
4120,0.30127695202827454,2.852874279022217,100,7014.0,3.1027135848999023,35,9979.0
4130,0.30137303471565247,0.8723485469818115,-22,7014.0,4.592583656311035,-10,9979.0
4140,0.30170202255249023,0.7982457280158997,121,7014.0,1.707275152206421,126,9979.0
4150,0.30205637216567993,1.8907045125961304,215,7014.0,-0.9004344344139099,-62,9979.0
4160,0.30242571234703064,5.570873737335205,-37,7014.0,-7.450368404388428,-419,9979.0
4170,0.30285128951072693,2.713425636291504,-25,7014.0,0.1501874178647995,-82,9979.0
4180,0.30481886863708496,-1.4178237915039062,47,7014.0,-1.1410040855407715,-38,9979.0
4190,0.3051784038543701,-1.4663317203521729,-61,7014.0,1.181772232055664,-52,9979.0
4200,0.3055439293384552,0.1465461552143097,54,7014.0,1.7756803035736084,240,9979.0
4210,0.30592504143714905,1.082046389579773,263,7014.0,7.830411911010742,117,9979.0
4220,0.3061634600162506,-1.417062520980835,-47,7014.0,5.1134843826293945,-109,9979.0
4230,0.30656662583351135,-2.5528173446655273,-14,7014.0,8.61430549621582,132,9979.0
4240,0.3070034086704254,-1.712272047996521,35,7014.0,3.938035249710083,24,9979.0
4250,0.3074618875980377,1.4164974689483643,-15,7014.0,1.355427622795105,-56,9979.0
4260,0.307158499956131,1.4654523134231567,20,7014.0,2.1600801944732666,204,9979.0
4270,0.30760353803634644,2.5144834518432617,188,7014.0,-1.404350757598877,31,9979.0
4280,0.30797654390335083,3.510796070098877,-62,7014.0,0.2989917993545532,-138,9979.0
4290,0.3083399534225464,-0.14545635879039764,-113,7014.0,3.4741854667663574,93,9979.0
4300,0.3087027072906494,0.7457435727119446,60,7014.0,2.767948865890503,147,9979.0
4310,0.3086138367652893,1.752748966217041,-9,7014.0,2.7505316734313965,-145,9979.0
4320,0.30887359380722046,-0.28509119153022766,-91,7014.0,3.221615791320801,228,9979.0
4330,0.3092639744281769,0.6347766518592834,278,7014.0,2.11403489112854,36,9979.0
4340,0.30951830744743347,0.4903228282928467,-53,7014.0,2.5526764392852783,25,9979.0
4350,0.3105802536010742,-1.4342749118804932,-64,7014.0,-0.1731063574552536,80,9979.0
4360,0.3110235929489136,-4.077873229980469,19,7014.0,0.4078339636325836,130,9979.0
4370,0.31124699115753174,-3.5580554008483887,-156,7014.0,1.232183814048767,-159,9979.0
4380,0.3114364445209503,-2.996946096420288,-50,7014.0,-2.464125633239746,89,9979.0
4390,0.3116007447242737,4.0221686363220215,233,7014.0,-1.706810474395752,25,9979.0
4400,0.3126688301563263,0.26049545407295227,75,7014.0,-2.2798988819122314,-187,9979.0
4410,0.3129122257232666,4.77608060836792,49,7014.0,-1.1078014373779297,-35,9979.0
4420,0.3131365478038788,5.730308532714844,95,7014.0,-2.870391845703125,46,9979.0
4430,0.3134221136569977,0.34382978081703186,53,7014.0,0.652700662612915,-138,9979.0
4440,0.3150356411933899,3.214026689529419,-161,7014.0,0.19410447776317596,-33,9979.0
4450,0.31540974974632263,-2.557359457015991,98,7014.0,1.2241644859313965,190,9979.0
4460,0.3158147633075714,0.15252865850925446,-19,7014.0,-0.5573548674583435,-50,9979.0
4470,0.3162141740322113,-2.146284818649292,-136,7014.0,0.3990672528743744,65,9979.0
4480,0.31674090027809143,-4.418500900268555,82,7014.0,1.7895187139511108,179,9979.0
4490,0.31711119413375854,-0.5848507285118103,1,7014.0,-0.522738516330719,114,9979.0
4500,0.31745263934135437,2.2647864818573,-104,7014.0,1.9662710428237915,-96,9979.0
4510,0.3177642524242401,-0.630535900592804,14,7014.0,7.695262432098389,109,9979.0
4520,0.3180599808692932,-0.4455006420612335,52,7014.0,-1.1344523429870605,-64,9979.0
4530,0.3186110556125641,3.314640760421753,-74,7014.0,-4.399584770202637,-102,9979.0
4540,0.31891772150993347,0.2904556691646576,1,7014.0,-5.158778667449951,128,9979.0
4550,0.31921204924583435,-1.564186930656433,31,7014.0,-3.0898635387420654,-116,9979.0
4560,0.3195123076438904,-0.6210742592811584,-147,7014.0,-8.304590225219727,-142,9979.0
4570,0.31989046931266785,-3.201293706893921,12,7014.0,-7.969735145568848,15,9979.0
4580,0.3202325403690338,-1.9006091356277466,-55,7014.0,2.6526896953582764,27,9979.0
4590,0.32059618830680847,0.9928443431854248,-81,7014.0,3.3298840522766113,-83,9979.0
4600,0.32096177339553833,2.498206853866577,129,7014.0,4.98815393447876,118,9979.0
4610,0.32131949067115784,3.713305950164795,110,7014.0,9.280869483947754,152,9979.0
4620,0.3221645951271057,3.988314628601074,-12,7014.0,4.2771196365356445,-44,9979.0
4630,0.32253095507621765,5.990076541900635,111,7014.0,2.973466396331787,48,9979.0
4640,0.32282754778862,4.813284873962402,127,7014.0,0.3708483874797821,24,9979.0
4650,0.32313352823257446,3.4455459117889404,-79,7014.0,-4.491438388824463,-267,9979.0
4660,0.32371288537979126,3.450028896331787,135,7014.0,-9.427810668945312,16,9979.0
4670,0.3240845501422882,-2.1438918113708496,113,7014.0,-6.998320579528809,-118,9979.0
4680,0.3244648575782776,-2.266529083251953,-123,7014.0,-9.720576286315918,-222,9979.0
4690,0.32481032609939575,-3.735320806503296,-43,7014.0,-3.9723494052886963,-90,9979.0
4700,0.3262309730052948,-2.8556106090545654,204,7014.0,1.2730135917663574,45,9979.0
4710,0.3266424834728241,3.5516457557678223,-50,7014.0,1.9537009000778198,-115,9979.0
4720,0.32701975107192993,0.6705056428909302,13,7014.0,4.698753356933594,158,9979.0
4730,0.32739290595054626,0.4006171226501465,117,7014.0,6.615199565887451,38,9979.0
4740,0.32772502303123474,2.721447229385376,-59,7014.0,6.003009796142578,-37,9979.0
4750,0.3288120925426483,2.6033194065093994,41,7014.0,8.762502670288086,203,9979.0
4760,0.3291507065296173,2.0477821826934814,309,7014.0,-3.7149932384490967,41,9979.0
4770,0.3295069932937622,0.6712035536766052,-22,7014.0,0.7960043549537659,-139,9979.0
4780,0.32984277606010437,2.805457592010498,5,7014.0,-4.662659645080566,35,9979.0
4790,0.330819308757782,0.4540175497531891,140,7014.0,-2.66243839263916,28,9979.0
4800,0.3312550485134125,-4.003662586212158,-134,7014.0,5.964311122894287,-302,9979.0
4810,0.33161622285842896,-3.2449183464050293,-106,7014.0,-2.6811106204986572,-76,9979.0
4820,0.33190780878067017,-5.622368335723877,-39,7014.0,-2.5878124237060547,-57,9979.0
4830,0.3322089910507202,-4.894469261169434,-159,7014.0,-1.6582071781158447,-175,9979.0
4840,0.3312356472015381,-4.730355739593506,-156,7014.0,0.006112296134233475,256,9979.0
4850,0.3314795196056366,-1.4008458852767944,237,7014.0,-3.645822763442993,45,9979.0
4860,0.3317594528198242,-4.260565280914307,-72,7014.0,0.7140880227088928,-49,9979.0
4870,0.33206018805503845,0.42593643069267273,2,7014.0,-0.4872770309448242,123,9979.0
4880,0.3306191563606262,-0.24920162558555603,87,7014.0,2.3205580711364746,94,9979.0
4890,0.3308432996273041,0.004101884085685015,-67,7014.0,1.4529683589935303,-180,9979.0
4900,0.3311556279659271,0.429029256105423,-112,7014.0,1.7394828796386719,68,9979.0
4910,0.3313455581665039,-1.1396702527999878,66,7014.0,-3.7444281578063965,23,9979.0
4920,0.33096107840538025,-2.6321020126342773,-23,7014.0,-1.7038367986679077,-147,9979.0
4930,0.33116522431373596,-2.0945520401000977,-130,7014.0,-3.2118539810180664,64,9979.0
4940,0.3314262926578522,-0.42416033148765564,169,7014.0,-6.994546413421631,-51,9979.0
4950,0.331577867269516,-2.031189441680908,-64,7014.0,-2.4532244205474854,-243,9979.0
4960,0.33198443055152893,-6.35135555267334,-126,7014.0,-2.282559633255005,-178,9979.0
4970,0.33210477232933044,-4.693017482757568,18,7014.0,-5.410314083099365,-5,9979.0
4980,0.33233240246772766,-3.968305826187134,-67,7014.0,-5.275845050811768,-168,9979.0
4990,0.33258554339408875,2.5994343757629395,-131,7014.0,-4.669959545135498,-202,9979.0
5000,0.3328269422054291,-0.6909428238868713,-2,7014.0,-5.934453964233398,-14,9979.0
5010,0.3334391415119171,-1.4651442766189575,47,7014.0,-3.759326696395874,-92,9979.0
5020,0.3337472975254059,2.0548791885375977,-47,7014.0,-0.3041672110557556,-117,9979.0
5030,0.33403250575065613,0.7658453583717346,114,7014.0,0.012392598204314709,177,9979.0
5040,0.3343159258365631,-1.5951029062271118,98,7014.0,1.826991319656372,123,9979.0
5050,0.33458778262138367,-5.034919738769531,-38,7014.0,7.693715572357178,-68,9979.0
5060,0.33425334095954895,-2.31955885887146,-105,7014.0,1.3903332948684692,153,9979.0
5070,0.33451351523399353,-4.100997447967529,92,7014.0,2.196413278579712,208,9979.0
5080,0.33477169275283813,1.9545255899429321,122,7014.0,-5.973512649536133,426,9979.0
5090,0.3350341320037842,-7.049137115478516,-121,7014.0,3.496199131011963,-167,9979.0
5100,0.33437448740005493,-1.3668889999389648,6,7014.0,-0.28481292724609375,124,9979.0
5110,0.334577739238739,3.721254587173462,151,7014.0,-0.9886101484298706,91,9979.0
5120,0.33476898074150085,4.652334213256836,25,7014.0,3.60357403755188,-126,9979.0
5130,0.3349553942680359,5.0544610023498535,-14,7014.0,-0.049652211368083954,67,9979.0
5140,0.3350844383239746,0.05829605460166931,127,7014.0,0.3361746668815613,275,9979.0
5150,0.3353630006313324,3.3390426635742188,92,7014.0,0.6804983019828796,1,9979.0
5160,0.3356764614582062,1.805637001991272,71,7014.0,-0.9339615702629089,-72,9979.0
5170,0.3359505832195282,1.809008240699768,155,7014.0,-0.271570086479187,115,9979.0
5180,0.33635008335113525,4.194255352020264,61,7014.0,2.7983195781707764,81,9979.0
5190,0.33593276143074036,2.0920844078063965,-142,7014.0,0.45084384083747864,-246,9979.0
5200,0.336418479681015,3.667173147201538,107,7014.0,2.1625876426696777,77,9979.0
5210,0.33690208196640015,0.16595204174518585,98,7014.0,3.290008306503296,185,9979.0
5220,0.3370797336101532,-0.2602090537548065,-17,7014.0,4.650200366973877,16,9979.0
5230,0.3356497287750244,1.9398577213287354,-4,7014.0,4.125070095062256,-96,9979.0
5240,0.33579713106155396,0.8033856749534607,192,7014.0,8.563532829284668,212,9979.0
5250,0.336016982793808,1.2638908624649048,104,7014.0,5.536823749542236,244,9979.0
5260,0.3370014727115631,-2.1832046508789062,-107,7014.0,7.428706645965576,7,9979.0
5270,0.33724430203437805,-1.512627124786377,-8,7014.0,1.3112674951553345,125,9979.0
5280,0.3378697633743286,1.862448811531067,69,7014.0,-3.0899109840393066,-11,9979.0
5290,0.33817756175994873,7.235815525054932,155,7014.0,0.6310779452323914,-155,9979.0
5300,0.3384826183319092,8.322152137756348,-103,7014.0,-7.725668430328369,-245,9979.0
5310,0.3388439118862152,-1.9965111017227173,143,7014.0,-4.96641731262207,-29,9979.0
5320,0.33839571475982666,3.6413865089416504,273,7014.0,-7.0487236976623535,-137,9979.0
5330,0.3387111723423004,1.0790051221847534,15,7014.0,-1.9005868434906006,-140,9979.0
5340,0.33905962109565735,1.1565296649932861,-32,7014.0,-1.3358709812164307,-143,9979.0
5350,0.33939918875694275,1.087221622467041,58,7014.0,3.3365087509155273,381,9979.0
5360,0.33981114625930786,-4.567263126373291,-28,7014.0,6.736835956573486,239,9979.0
5370,0.34048134088516235,-6.127992630004883,-168,7014.0,10.08016586303711,86,9979.0
5380,0.3408639430999756,-5.461524486541748,-38,7014.0,3.189619302749634,64,9979.0
5390,0.3411913812160492,-6.29054069519043,33,7014.0,1.8440272808074951,15,9979.0
5400,0.3417772352695465,-3.1902718544006348,-52,7014.0,-1.743604302406311,-66,9979.0
5410,0.3413373827934265,7.273159027099609,-49,7014.0,-7.076805114746094,-159,9979.0
5420,0.34162694215774536,8.485432624816895,231,7014.0,-7.700891017913818,-88,9979.0
5430,0.3417835235595703,7.379216194152832,129,7014.0,-6.136322975158691,-146,9979.0
5440,0.3421497344970703,-2.817427635192871,-213,7014.0,-3.5838935375213623,-203,9979.0
5450,0.34291934967041016,-17.647502899169922,-217,7014.0,-2.0156991481781006,165,9979.0
5460,0.343057781457901,-18.5930233001709,-234,7014.0,1.8275887966156006,151,9979.0
5470,0.34329545497894287,-22.18833351135254,-446,7014.0,2.2362475395202637,-31,9979.0
5480,0.3434509038925171,-24.17775535583496,-499,7014.0,3.146998405456543,-63,9979.0
5490,0.3436678647994995,-21.633136749267578,-228,7014.0,6.8935980796813965,225,9979.0
5500,0.3455750346183777,-25.93798065185547,-299,7014.0,4.32210636138916,370,9979.0
5510,0.3458135426044464,-11.053071975708008,-58,7014.0,13.399520874023438,-185,9979.0
5520,0.34602999687194824,-2.9804723262786865,-294,7014.0,0.9061720371246338,-269,9979.0
5530,0.34624218940734863,-1.1856638193130493,103,7014.0,-5.683762073516846,98,9979.0
5540,0.3466512858867645,2.9274022579193115,195,7014.0,-5.160409927368164,-13,9979.0
5550,0.3468092978000641,3.311399221420288,7,7014.0,-7.41402006149292,-213,9979.0
5560,0.3469241261482239,4.653548717498779,-6,7014.0,-9.227714538574219,-114,9979.0
5570,0.3470115661621094,6.101099967956543,118,7014.0,-10.117635726928711,67,9979.0
5580,0.34741318225860596,1.0272877216339111,147,7014.0,-3.7180168628692627,-63,9979.0
5590,0.34771251678466797,-2.7649986743927,-174,7014.0,-2.4456183910369873,-126,9979.0
5600,0.3479164242744446,-8.443000793457031,-138,7014.0,3.544480562210083,189,9979.0
5610,0.34813159704208374,-8.260956764221191,-44,7014.0,6.557361125946045,215,9979.0
5620,0.34823572635650635,-5.727548599243164,-153,7014.0,8.366601943969727,70,9979.0
5630,0.34912627935409546,1.0504082441329956,-199,7014.0,12.84719181060791,-14,9979.0
5640,0.34939154982566833,-0.4768170118331909,-21,7014.0,3.0883970260620117,131,9979.0
5650,0.34957465529441833,-2.2478363513946533,22,7014.0,-0.39345642924308777,-28,9979.0
5660,0.34962740540504456,-6.11014461517334,-238,7014.0,-5.013533115386963,-155,9979.0
5670,0.3511006832122803,-15.044929504394531,-369,7014.0,-4.784075736999512,-54,9979.0
5680,0.3512972891330719,-14.37253475189209,-225,7014.0,-1.584687352180481,169,9979.0
5690,0.35143640637397766,-19.374713897705078,-123,7014.0,-4.3737921714782715,-90,9979.0
5700,0.35161688923835754,-15.252999305725098,-225,7014.0,-5.884281158447266,-106,9979.0
5710,0.3522043526172638,-8.388806343078613,-104,7014.0,5.480340957641602,249,9979.0
5720,0.354356050491333,0.4800379276275635,193,7014.0,4.816610813140869,174,9979.0
5730,0.3547195792198181,9.50383186340332,125,7014.0,3.203031063079834,14,9979.0
5740,0.3550330102443695,10.691884994506836,79,7014.0,5.841963291168213,-145,9979.0
5750,0.3553886413574219,11.738753318786621,78,7014.0,8.110931396484375,232,9979.0
5760,0.3554311692714691,2.63978910446167,95,7014.0,6.259605884552002,56,9979.0
5770,0.35579386353492737,-0.7489219307899475,-50,7014.0,2.554946184158325,-100,9979.0
5780,0.3561558127403259,-3.1861236095428467,-227,7014.0,-2.0608270168304443,-2,9979.0
5790,0.3564887046813965,-1.7877689599990845,16,7014.0,-1.564740538597107,54,9979.0
5800,0.3573026657104492,-3.287764549255371,-60,7014.0,-4.762370586395264,-152,9979.0
5810,0.3577757775783539,-3.441391944885254,-94,7014.0,-5.490138530731201,-148,9979.0
5820,0.3582727313041687,-1.8907800912857056,116,7014.0,-1.7448896169662476,223,9979.0
5830,0.35879749059677124,5.407179832458496,10,7014.0,4.787684917449951,-47,9979.0
5840,0.35935142636299133,7.443121910095215,68,7014.0,5.520045757293701,-210,9979.0
5850,0.36044350266456604,4.244906425476074,137,7014.0,3.5371744632720947,103,9979.0
5860,0.36101454496383667,5.3395795822143555,90,7014.0,3.1098129749298096,90,9979.0
5870,0.3615258038043976,5.7423176765441895,-29,7014.0,1.122953176498413,-301,9979.0
5880,0.3620486557483673,1.0565358400344849,139,7014.0,0.3481307625770569,23,9979.0
5890,0.36155757308006287,2.6927428245544434,-24,7014.0,-0.8999452590942383,-148,9979.0
5900,0.3620559275150299,-0.2138041853904724,-50,7014.0,-1.2262223958969116,132,9979.0
5910,0.3625573515892029,-0.8511777520179749,260,7014.0,-0.2415851652622223,43,9979.0
5920,0.3630165159702301,1.0913265943527222,-53,7014.0,0.1463375985622406,-135,9979.0
5930,0.36346572637557983,0.20908868312835693,14,7014.0,-2.640963554382324,22,9979.0
5940,0.3640865683555603,-0.038589734584093094,132,7014.0,-1.0448294878005981,201,9979.0
5950,0.36450159549713135,4.242085933685303,-30,7014.0,1.9774013757705688,-73,9979.0
5960,0.3649088144302368,4.523508071899414,135,7014.0,-3.8766860961914062,162,9979.0
5970,0.36533641815185547,6.629934310913086,160,7014.0,0.6763221025466919,-80,9979.0
5980,0.3646528124809265,4.208693504333496,-47,7014.0,0.43163684010505676,35,9979.0
5990,0.3650556802749634,-0.6289851069450378,143,7014.0,-1.0468740463256836,86,9979.0
6000,0.3653945028781891,-0.33879202604293823,-72,7014.0,-2.8176121711730957,-168,9979.0
6010,0.3657197952270508,-0.6270480155944824,-113,7014.0,-1.977700114250183,32,9979.0
6020,0.36524471640586853,-4.266977310180664,-8,7014.0,1.395978569984436,-32,9979.0
6030,0.365465372800827,-0.8862070441246033,-111,7014.0,3.4638965129852295,-97,9979.0
6040,0.3657136857509613,2.4777746200561523,54,7014.0,5.024787425994873,365,9979.0
6050,0.3659544289112091,5.477027893066406,267,7014.0,3.395848512649536,5,9979.0
6060,0.366134911775589,8.274231910705566,38,7014.0,6.336145877838135,120,9979.0
6070,0.36535823345184326,5.8122735023498535,135,7014.0,0.9141917824745178,121,9979.0
6080,0.3654853403568268,8.594253540039062,175,7014.0,2.922849178314209,20,9979.0
6090,0.36560267210006714,11.540934562683105,43,7014.0,2.4093403816223145,65,9979.0
6100,0.36553508043289185,11.499306678771973,189,7014.0,1.1034929752349854,194,9979.0
6110,0.3650192320346832,5.12117862701416,202,7014.0,7.224785327911377,102,9979.0
6120,0.36509421467781067,7.1769328117370605,44,7014.0,9.711276054382324,147,9979.0
6130,0.3650911748409271,7.665667533874512,181,7014.0,9.37275218963623,322,9979.0
6140,0.3651082515716553,3.55965256690979,118,7014.0,7.8869547843933105,59,9979.0
6150,0.3654692471027374,0.8093174695968628,-27,7014.0,3.123823642730713,-116,9979.0
6160,0.3654926121234894,4.86315393447876,-2,7014.0,6.346855163574219,128,9979.0
6170,0.36565062403678894,2.477085828781128,128,7014.0,-0.3215099275112152,-11,9979.0
6180,0.3657270073890686,4.823296070098877,31,7014.0,-0.029026126489043236,-179,9979.0
6190,0.36587247252464294,3.497532844543457,-22,7014.0,-0.7594301700592041,-18,9979.0
6200,0.36525076627731323,9.833614349365234,209,7014.0,-5.5681047439575195,148,9979.0
6210,0.36536917090415955,11.919849395751953,237,7014.0,-5.757934093475342,-172,9979.0
6220,0.3655923306941986,8.549129486083984,84,7014.0,-2.9100940227508545,-21,9979.0
6230,0.3657359778881073,6.829794406890869,144,7014.0,-0.38237351179122925,172,9979.0
6240,0.36597907543182373,3.368622064590454,219,7014.0,2.5520434379577637,69,9979.0
6250,0.36613988876342773,9.744979858398438,49,7014.0,10.477622032165527,-4,9979.0
6260,0.3663158416748047,8.419160842895508,199,7014.0,-0.013953986577689648,-51,9979.0
6270,0.36648282408714294,4.279599666595459,189,7014.0,4.152032852172852,97,9979.0
6280,0.36661672592163086,2.7238614559173584,-10,7014.0,2.7806320190429688,-112,9979.0
6290,0.3652465343475342,0.7649033069610596,-124,7014.0,0.26094114780426025,48,9979.0
6300,0.3652966022491455,-0.299078106880188,73,7014.0,-3.3428595066070557,174,9979.0
6310,0.36542293429374695,-3.7203075885772705,-16,7014.0,-8.608046531677246,-201,9979.0
6320,0.36549121141433716,-5.034572124481201,-179,7014.0,-5.093127727508545,-123,9979.0
6330,0.3653152883052826,-6.705226898193359,-17,7014.0,-6.913618087768555,-4,9979.0
6340,0.3653241991996765,-2.5695576667785645,56,7014.0,-7.0316081047058105,-241,9979.0
6350,0.3653971552848816,-0.9447354078292847,-71,7014.0,-4.267260551452637,-228,9979.0
6360,0.365416944026947,3.712830066680908,-49,7014.0,-3.9377150535583496,-77,9979.0
6370,0.3654513359069824,0.9297475814819336,55,7014.0,1.5805405378341675,83,9979.0
6380,0.3640826940536499,2.8633391857147217,-72,7014.0,2.5787837505340576,107,9979.0
6390,0.36400607228279114,-1.533312201499939,-2,7014.0,5.114214897155762,58,9979.0
6400,0.3640715479850769,0.28181809186935425,102,7014.0,-1.5652798414230347,-3,9979.0
6410,0.3641016185283661,-3.1175856590270996,149,7014.0,-3.1266157627105713,-87,9979.0
6420,0.36447179317474365,2.6137843132019043,-56,7014.0,2.8932437896728516,-53,9979.0
6430,0.3645714521408081,0.20202574133872986,38,7014.0,6.092118263244629,97,9979.0
6440,0.36468449234962463,2.197084903717041,-38,7014.0,5.813047885894775,146,9979.0
6450,0.3648212254047394,0.9942325353622437,-114,7014.0,1.3263885974884033,-103,9979.0
6460,0.3653574585914612,1.250226378440857,95,7014.0,-1.0045294761657715,-204,9979.0
6470,0.3656010329723358,1.8447458744049072,299,7014.0,-3.2892556190490723,-77,9979.0
6480,0.36588597297668457,-1.888956904411316,59,7014.0,-2.173210382461548,6,9979.0
6490,0.3662046790122986,3.8503382205963135,-187,7014.0,-2.996533155441284,-111,9979.0
6500,0.36652782559394836,0.5479031801223755,21,7014.0,-3.360675573348999,-34,9979.0
6510,0.3658445179462433,-1.9633172750473022,38,7014.0,-1.8633733987808228,85,9979.0
6520,0.3661158084869385,-2.34293270111084,-106,7014.0,-2.0216422080993652,-104,9979.0
6530,0.36637091636657715,-0.4553912281990051,-105,7014.0,1.8675862550735474,99,9979.0
6540,0.36663147807121277,-1.3103868961334229,157,7014.0,-1.0523223876953125,233,9979.0
6550,0.3677014708518982,-2.2633345127105713,56,7014.0,6.3272175788879395,-76,9979.0
6560,0.3679544925689697,-8.571069717407227,-163,7014.0,2.9975152015686035,35,9979.0
6570,0.36818891763687134,-1.2268717288970947,4,7014.0,2.805713176727295,69,9979.0
6580,0.36840131878852844,0.43310025334358215,71,7014.0,-2.342271089553833,-40,9979.0
6590,0.3664667010307312,3.184936046600342,-46,7014.0,-6.916593074798584,-264,9979.0
6600,0.3665013611316681,3.271121025085449,47,7014.0,-7.746828079223633,70,9979.0
6610,0.3665255308151245,-2.209207534790039,11,7014.0,-6.3983988761901855,50,9979.0
6620,0.36657315492630005,2.7146925926208496,66,7014.0,-6.4187703132629395,-254,9979.0
6630,0.3666144907474518,-2.748502492904663,-164,7014.0,-0.3018459975719452,1,9979.0
6640,0.3671775460243225,-4.5341033935546875,-18,7014.0,1.458426594734192,120,9979.0
6650,0.3671792447566986,-0.7213085889816284,27,7014.0,0.7581976652145386,137,9979.0
6660,0.3671409785747528,-3.9723851680755615,-224,7014.0,7.582467079162598,128,9979.0
6670,0.3670659363269806,-2.881596088409424,31,7014.0,1.4382140636444092,118,9979.0
6680,0.3666621446609497,-0.6654003858566284,1,7014.0,3.0217883586883545,188,9979.0
6690,0.36653000116348267,-6.136301517486572,-94,7014.0,-1.785915732383728,-55,9979.0
6700,0.36635062098503113,-1.1708083152770996,-153,7014.0,-2.4871742725372314,-61,9979.0
6710,0.36609598994255066,-2.2295613288879395,-38,7014.0,-11.739828109741211,-35,9979.0
6720,0.3658498525619507,-3.110093355178833,63,7014.0,-7.759097576141357,-105,9979.0
6730,0.3648630976676941,-3.1213908195495605,-37,7014.0,-6.876014232635498,-189,9979.0
6740,0.36458757519721985,-3.8976693153381348,-222,7014.0,-2.2149558067321777,-65,9979.0
6750,0.36430293321609497,-0.9525319337844849,-28,7014.0,-1.564859390258789,88,9979.0
6760,0.36400988698005676,-3.8168160915374756,-15,7014.0,3.3729939460754395,147,9979.0
6770,0.3654279410839081,-4.304069995880127,-75,7014.0,8.85393238067627,5,9979.0
6780,0.3652413487434387,-1.116659164428711,-154,7014.0,4.460346221923828,-81,9979.0
6790,0.3650730848312378,-0.29613110423088074,-50,7014.0,6.001112461090088,149,9979.0
6800,0.3649373948574066,-3.5340068340301514,-33,7014.0,7.867754936218262,268,9979.0
6810,0.3656730651855469,-6.014962673187256,-30,7014.0,0.6778036952018738,-27,9979.0
6820,0.36566340923309326,-7.071523666381836,-143,7014.0,1.869277834892273,-69,9979.0
6830,0.36567312479019165,-6.712984085083008,-150,7014.0,-1.9413830041885376,-30,9979.0
6840,0.36571407318115234,-6.510439395904541,-22,7014.0,-5.473971366882324,126,9979.0
6850,0.3657955825328827,-2.2180397510528564,188,7014.0,-11.29294204711914,-87,9979.0
6860,0.36715811491012573,5.8151984214782715,46,7014.0,1.0725065469741821,27,9979.0
6870,0.36732572317123413,2.3623735904693604,-136,7014.0,-5.389644622802734,-113,9979.0
6880,0.36749622225761414,0.9539183974266052,6,7014.0,-3.9820423126220703,74,9979.0
6890,0.3676728308200836,-2.6252477169036865,21,7014.0,-0.05994763597846031,111,9979.0
6900,0.3687237799167633,0.7072251439094543,-39,7014.0,6.208282470703125,-32,9979.0
6910,0.3690095543861389,-0.1168278306722641,-67,7014.0,5.2649736404418945,-99,9979.0
6920,0.36931008100509644,-0.008790325373411179,-19,7014.0,4.926178932189941,199,9979.0
6930,0.36963385343551636,-3.904022216796875,29,7014.0,5.489828586578369,90,9979.0
6940,0.3699595034122467,2.6530745029449463,27,7014.0,-0.5965389609336853,-117,9979.0
6950,0.3702951669692993,-1.16893470287323,-43,7014.0,-1.0318654775619507,-115,9979.0
6960,0.37060287594795227,0.602440595626831,96,7014.0,-2.685274362564087,163,9979.0
6970,0.3709043860435486,4.627634048461914,265,7014.0,-6.044253349304199,-90,9979.0
6980,0.3711821436882019,2.3959922790527344,-72,7014.0,-2.747549057006836,-250,9979.0
6990,0.372626394033432,-1.721985101699829,-120,7014.0,0.0496082603931427,-64,9979.0
7000,0.3729541301727295,-0.8746073246002197,21,7014.0,0.2918272018432617,197,9979.0
7010,0.37325480580329895,-1.2575849294662476,-34,7014.0,6.460150718688965,-49,9979.0
7020,0.3735361695289612,1.0696378946304321,-177,7014.0,3.611922025680542,92,9979.0
7030,0.37548547983169556,-5.090843677520752,45,7014.0,16.008522033691406,378,9979.0
7040,0.3758109211921692,5.157279968261719,117,7014.0,7.989022254943848,-24,9979.0
7050,0.3761148750782013,1.0607503652572632,-17,7014.0,-3.0906078815460205,-206,9979.0
7060,0.37637728452682495,2.2766647338867188,7,7014.0,-5.946700096130371,-29,9979.0
7070,0.376607745885849,0.7827531099319458,-43,7014.0,-3.3423097133636475,-152,9979.0
7080,0.3753529191017151,1.972256064414978,-81,7014.0,-3.892054796218872,-265,9979.0
7090,0.3754621148109436,5.115220546722412,148,7014.0,-1.6655329465866089,95,9979.0
7100,0.3755680322647095,5.449090003967285,168,7014.0,-4.115964412689209,73,9979.0
7110,0.37561842799186707,3.0197885036468506,-73,7014.0,-0.32485654950141907,-14,9979.0
7120,0.37577539682388306,0.5507815480232239,23,7014.0,1.3222037553787231,5,9979.0
7130,0.3758228123188019,3.429069757461548,83,7014.0,5.873533248901367,74,9979.0
7140,0.3758319914340973,6.9370951652526855,-8,7014.0,4.457831859588623,-79,9979.0
7150,0.3757926821708679,4.25855827331543,85,7014.0,7.033718109130859,163,9979.0
7160,0.37576040625572205,-2.155040740966797,14,7014.0,4.943406581878662,15,9979.0
7170,0.3746364116668701,-0.18746042251586914,-119,7014.0,5.470793724060059,-55,9979.0
7180,0.37457138299942017,-4.154378414154053,-14,7014.0,2.7634949684143066,217,9979.0
7190,0.3745229244232178,-1.294464111328125,154,7014.0,1.8703886270523071,-62,9979.0
7200,0.37448132038116455,2.2683982849121094,-70,7014.0,-3.518505334854126,-122,9979.0
7210,0.3761937618255615,-0.4780268669128418,39,7014.0,-3.7642757892608643,36,9979.0
7220,0.37620654702186584,-1.428908348083496,47,7014.0,-1.2110759019851685,-107,9979.0
7230,0.3762257993221283,0.2626383304595947,-120,7014.0,-3.283336877822876,-138,9979.0
7240,0.3762291669845581,2.1528096199035645,77,7014.0,-2.9890785217285156,108,9979.0
7250,0.3777189552783966,1.1512703895568848,180,7014.0,-4.857903957366943,-26,9979.0
7260,0.3778645098209381,-0.4499940574169159,-96,7014.0,1.7623915672302246,-17,9979.0
7270,0.3780325651168823,-2.5966477394104004,-17,7014.0,0.4560173451900482,168,9979.0
7280,0.3781873285770416,-0.5162755250930786,115,7014.0,1.529994010925293,74,9979.0
7290,0.3783710300922394,-0.786884069442749,-186,7014.0,0.2437664270401001,-167,9979.0
7300,0.37804174423217773,-1.1739633083343506,-80,7014.0,6.578249931335449,91,9979.0
7310,0.3782261908054352,0.20401591062545776,116,7014.0,2.6135928630828857,-73,9979.0
7320,0.3783778250217438,1.4787827730178833,-30,7014.0,7.784850597381592,-69,9979.0
7330,0.37853220105171204,3.0245985984802246,-4,7014.0,1.0578678846359253,147,9979.0
7340,0.38004636764526367,-1.3277047872543335,134,7014.0,4.347804546356201,141,9979.0
7350,0.38029393553733826,3.093294620513916,13,7014.0,-0.3058331310749054,-145,9979.0
7360,0.38053783774375916,2.1275134086608887,-6,7014.0,-0.8172422051429749,-48,9979.0
7370,0.38076895475387573,1.7294800281524658,99,7014.0,-3.4082205295562744,-61,9979.0
7380,0.3809969127178192,0.1336580067873001,-22,7014.0,-1.4856915473937988,-217,9979.0
7390,0.3812190592288971,2.1375255584716797,-116,7014.0,-1.3300775289535522,13,9979.0
7400,0.38141104578971863,1.2628682851791382,104,7014.0,-2.273984909057617,28,9979.0
7410,0.38158097863197327,-1.0317679643630981,-75,7014.0,-1.269963264465332,-90,9979.0
7420,0.38176655769348145,-2.136384963989258,-68,7014.0,1.874655842781067,189,9979.0
7430,0.38246291875839233,-4.650767803192139,149,7014.0,3.0212881565093994,78,9979.0
7440,0.382703959941864,-3.8971643447875977,-126,7014.0,6.602115154266357,-52,9979.0
7450,0.3829804062843323,-0.0077207013964653015,-15,7014.0,5.236753940582275,66,9979.0
7460,0.38327836990356445,-1.3022657632827759,29,7014.0,0.9587629437446594,-62,9979.0
7470,0.38412782549858093,0.6182253360748291,-73,7014.0,-1.7686715126037598,-181,9979.0
7480,0.38443824648857117,-1.262376308441162,19,7014.0,-2.1153314113616943,88,9979.0
7490,0.38475704193115234,-1.3286733627319336,132,7014.0,-3.2257351875305176,154,9979.0
7500,0.385076642036438,1.3671954870224,-64,7014.0,-5.361441135406494,-245,9979.0
7510,0.3854038715362549,0.7532548308372498,3,7014.0,-5.930030822753906,17,9979.0
7520,0.38761064410209656,-0.07535476982593536,147,7014.0,-3.026373863220215,-67,9979.0
7530,0.3880472183227539,5.17796516418457,-23,7014.0,-1.274783730506897,-172,9979.0
7540,0.38847672939300537,2.7430968284606934,-13,7014.0,5.844592571258545,-11,9979.0
7550,0.3889230191707611,-0.7033172845840454,-18,7014.0,6.364563941955566,8,9979.0
7560,0.3888073265552521,-3.3191635608673096,-177,7014.0,7.365436553955078,96,9979.0
7570,0.3891986906528473,-3.688382863998413,-80,7014.0,2.085800886154175,22,9979.0
7580,0.3895769417285919,-4.327746868133545,-39,7014.0,6.980750560760498,-67,9979.0
7590,0.3900265693664551,-1.4500097036361694,-108,7014.0,0.9807233810424805,9,9979.0
7600,0.39030760526657104,-2.2209980487823486,33,7014.0,-0.8529643416404724,12,9979.0
7610,0.3892838954925537,-3.7957499027252197,-188,7014.0,-1.542399525642395,-136,9979.0
7620,0.38961511850357056,-6.249574184417725,-194,7014.0,-0.888209342956543,227,9979.0
7630,0.38988879323005676,-4.858377933502197,-14,7014.0,-4.736970901489258,-44,9979.0
7640,0.39014720916748047,-5.4294352531433105,-111,7014.0,-0.8947963714599609,16,9979.0
7650,0.3898002505302429,-4.367477893829346,32,7014.0,1.6227978467941284,88,9979.0
7660,0.38993769884109497,-6.469237804412842,-141,7014.0,8.060867309570312,-230,9979.0
7670,0.3900715112686157,-9.383435249328613,-196,7014.0,-2.6752583980560303,79,9979.0
7680,0.39021632075309753,-9.998154640197754,-54,7014.0,4.740714073181152,-37,9979.0
7690,0.39017006754875183,-4.181154727935791,-134,7014.0,0.4907042682170868,37,9979.0
7700,0.3902114927768707,-2.393876791000366,39,7014.0,1.684109091758728,171,9979.0
7710,0.3902856111526489,-0.7049729824066162,-232,7014.0,4.186360836029053,-117,9979.0
7720,0.3903828263282776,4.392601013183594,60,7014.0,-1.7827723026275635,22,9979.0
7730,0.39044108986854553,3.6323792934417725,38,7014.0,0.11092658340930939,21,9979.0
7740,0.3898971378803253,2.679612874984741,51,7014.0,0.43453770875930786,-105,9979.0
7750,0.3899146616458893,3.158278465270996,202,7014.0,-0.9661917090415955,163,9979.0
7760,0.38990554213523865,0.1671646535396576,-96,7014.0,-0.2121388018131256,-30,9979.0
7770,0.3898794949054718,1.0196568965911865,-32,7014.0,-0.2815890908241272,159,9979.0
7780,0.38953083753585815,0.5017644166946411,6,7014.0,-0.33330386877059937,-98,9979.0
7790,0.38953208923339844,-0.7605149149894714,-156,7014.0,0.2923819124698639,-183,9979.0
7800,0.38953712582588196,-1.903062343597412,141,7014.0,-0.7805690169334412,82,9979.0
7810,0.3895333409309387,-3.605015754699707,-79,7014.0,-0.5065141320228577,-147,9979.0
7820,0.38852831721305847,-1.7628684043884277,-24,7014.0,-2.86421275138855,57,9979.0
7830,0.3884616196155548,-0.20076216757297516,104,7014.0,-0.28817930817604065,-117,9979.0
7840,0.388389527797699,1.1115378141403198,-182,7014.0,2.877455472946167,9,9979.0
7850,0.3883498013019562,-0.6195752024650574,51,7014.0,-1.1761552095413208,73,9979.0
7860,0.38835033774375916,1.6629126071929932,7,7014.0,1.0406275987625122,-41,9979.0
7870,0.38823920488357544,0.8340770602226257,-19,7014.0,0.6898633241653442,137,9979.0
7880,0.38826316595077515,-0.23355916142463684,178,7014.0,1.589829683303833,21,9979.0
7890,0.38830193877220154,0.3750852644443512,-70,7014.0,-2.0690605640411377,-187,9979.0
7900,0.3883872926235199,-0.09013282507658005,25,7014.0,-1.7543333768844604,60,9979.0
7910,0.38869333267211914,1.1345840692520142,15,7014.0,1.5779354572296143,-68,9979.0
7920,0.3888136148452759,2.1358351707458496,-79,7014.0,-1.5142016410827637,-11,9979.0
7930,0.38895758986473083,1.8573609590530396,146,7014.0,-1.9118201732635498,104,9979.0
7940,0.3891264498233795,3.081057071685791,69,7014.0,1.6913727521896362,-79,9979.0
7950,0.38928326964378357,2.292187213897705,35,7014.0,5.119935035705566,184,9979.0
7960,0.39008644223213196,2.262911558151245,113,7014.0,4.304340839385986,28,9979.0
7970,0.39025700092315674,1.8186278343200684,-102,7014.0,3.477985143661499,-39,9979.0
7980,0.3904457688331604,5.954360485076904,88,7014.0,1.3930573463439941,149,9979.0
7990,0.3906656503677368,4.045436859130859,55,7014.0,2.5654714107513428,0,9979.0
8000,0.3917955458164215,3.5699050426483154,-23,7014.0,0.6782123446464539,90,9979.0
8010,0.3920363187789917,1.6114511489868164,222,7014.0,-2.2645246982574463,-19,9979.0
8020,0.3923213481903076,0.4482608437538147,-59,7014.0,1.9204611778259277,-126,9979.0
8030,0.39255306124687195,-0.6489067077636719,10,7014.0,-2.0030531883239746,45,9979.0
8040,0.39126116037368774,-1.1840381622314453,4,7014.0,-0.3364655077457428,-162,9979.0
8050,0.39131125807762146,0.8724828362464905,-37,7014.0,2.960153818130493,52,9979.0
8060,0.3913968503475189,-1.2191627025604248,166,7014.0,-2.6141738891601562,28,9979.0
8070,0.39141079783439636,-0.8905420303344727,-21,7014.0,-1.8188414573669434,-20,9979.0
8080,0.3913600444793701,0.8843175768852234,36,7014.0,-0.5662075877189636,66,9979.0
8090,0.3911660313606262,-0.45461413264274597,-42,7014.0,1.2003170251846313,-138,9979.0
8100,0.3911265730857849,-1.0779916048049927,-134,7014.0,3.896721839904785,32,9979.0
8110,0.3910951316356659,-4.117480278015137,18,7014.0,4.682509899139404,99,9979.0
8120,0.39100396633148193,1.3112181425094604,-31,7014.0,4.281228065490723,27,9979.0
8130,0.39092400670051575,3.4514312744140625,124,7014.0,1.1689931154251099,204,9979.0
8140,0.3907938003540039,4.715014457702637,130,7014.0,2.8891584873199463,-74,9979.0
8150,0.390641450881958,4.414358615875244,-91,7014.0,-3.5174055099487305,-80,9979.0
8160,0.39047765731811523,0.24873848259449005,33,7014.0,-2.831753969192505,3,9979.0
8170,0.3903425633907318,-1.410645604133606,-62,7014.0,-3.5813326835632324,-127,9979.0
8180,0.3896755874156952,-2.948321580886841,-95,7014.0,-3.5816402435302734,107,9979.0
8190,0.3895231783390045,-3.1202988624572754,116,7014.0,-5.243802547454834,11,9979.0
8200,0.38933703303337097,-3.5265390872955322,-115,7014.0,-1.320137619972229,-30,9979.0
8210,0.3891112506389618,-2.867771625518799,25,7014.0,1.5570603609085083,158,9979.0
8220,0.3892624080181122,-2.0647199153900146,-64,7014.0,3.8709805011749268,-141,9979.0
8230,0.38912564516067505,-2.3685977458953857,-177,7014.0,3.8365519046783447,77,9979.0
8240,0.3889833986759186,-3.403768539428711,92,7014.0,-1.9067022800445557,18,9979.0
8250,0.3888413608074188,-0.9348937273025513,-39,7014.0,-0.033598802983760834,-82,9979.0
8260,0.38923874497413635,-0.04961548000574112,-5,7014.0,-2.3067233562469482,159,9979.0
8270,0.3891501724720001,-0.22358179092407227,154,7014.0,-1.3157926797866821,-20,9979.0
8280,0.3891015946865082,3.3623831272125244,-99,7014.0,-5.76260232925415,-136,9979.0
8290,0.3890785276889801,-1.8542019128799438,-2,7014.0,-4.058953285217285,-12,9979.0
8300,0.38908642530441284,-0.2741245925426483,-108,7014.0,-3.008056163787842,-179,9979.0
8310,0.3903111517429352,0.1914842128753662,111,7014.0,-0.4462941288948059,105,9979.0
8320,0.3904285728931427,0.6663718223571777,76,7014.0,-3.899286985397339,-16,9979.0
8330,0.3906196355819702,0.11118757724761963,-63,7014.0,2.217010498046875,38,9979.0
8340,0.39079874753952026,0.39069807529449463,107,7014.0,3.082270383834839,135,9979.0
8350,0.39177411794662476,-2.8356666564941406,-128,7014.0,7.716968536376953,-94,9979.0
8360,0.39197444915771484,2.639461040496826,40,7014.0,3.091064929962158,16,9979.0
8370,0.39220190048217773,-3.5340051651000977,-66,7014.0,4.047988414764404,89,9979.0
8380,0.39247027039527893,-1.5071353912353516,-21,7014.0,4.10983943939209,-34,9979.0
8390,0.3927397131919861,-2.291776180267334,78,7014.0,-0.6986808776855469,250,9979.0
8400,0.394710898399353,-2.017974376678467,-135,7014.0,0.06990177184343338,-186,9979.0
8410,0.39508283138275146,0.987409234046936,4,7014.0,-4.443270683288574,20,9979.0
8420,0.395483136177063,-1.0391896963119507,-37,7014.0,-2.880319118499756,-156,9979.0
8430,0.3958752155303955,-1.4706716537475586,-28,7014.0,-4.204322338104248,-52,9979.0
8440,0.3947221338748932,-1.2412607669830322,87,7014.0,-3.938438892364502,-182,9979.0
8450,0.39500683546066284,-1.4093188047409058,-98,7014.0,-1.8848377466201782,16,9979.0
8460,0.39529114961624146,-0.1937263011932373,39,7014.0,-1.066153883934021,-18,9979.0
8470,0.39555633068084717,0.25147581100463867,-108,7014.0,2.0267527103424072,43,9979.0
8480,0.3946811258792877,-2.075068950653076,100,7014.0,7.530691146850586,203,9979.0
8490,0.39475488662719727,-3.7740776538848877,-60,7014.0,1.7064127922058105,-142,9979.0
8500,0.3947782516479492,-1.974834680557251,-6,7014.0,3.9134182929992676,132,9979.0
8510,0.3948148488998413,2.219707727432251,41,7014.0,2.3524820804595947,0,9979.0
8520,0.3948401212692261,3.9666879177093506,-29,7014.0,4.354179859161377,226,9979.0
8530,0.395260214805603,3.3915882110595703,208,7014.0,5.214995861053467,243,9979.0
8540,0.3952258229255676,6.737302303314209,32,7014.0,3.923856019973755,-58,9979.0
8550,0.39517027139663696,4.255044460296631,54,7014.0,3.3755123615264893,88,9979.0
8560,0.3951246440410614,3.9999027252197266,50,7014.0,-0.09905678033828735,-114,9979.0
8570,0.3937714099884033,1.5608774423599243,-104,7014.0,-2.145608901977539,95,9979.0
8580,0.3935357630252838,0.251133531332016,168,7014.0,-3.4202516078948975,-5,9979.0
8590,0.3932923972606659,1.1495110988616943,-93,7014.0,2.4387409687042236,-165,9979.0
8600,0.3930244743824005,-1.884149432182312,-40,7014.0,-3.821744680404663,9,9979.0
8610,0.3927241265773773,-2.2792742252349854,5,7014.0,-1.5067064762115479,-103,9979.0
8620,0.39333033561706543,-1.2762281894683838,-106,7014.0,-3.985787868499756,-127,9979.0
8630,0.39304158091545105,-0.9862992763519287,9,7014.0,-4.965946674346924,169,9979.0
8640,0.3927404582500458,-1.569554090499878,94,7014.0,-0.38796842098236084,-129,9979.0
8650,0.39242425560951233,3.4781289100646973,-52,7014.0,-2.3876261711120605,-32,9979.0
8660,0.38993409276008606,-2.118195056915283,10,7014.0,2.4833662509918213,79,9979.0
8670,0.38950687646865845,1.65709388256073,48,7014.0,-3.813176393508911,-183,9979.0
8680,0.3890966475009918,0.03337143361568451,-174,7014.0,-2.5708510875701904,-31,9979.0
8690,0.38873136043548584,1.39601731300354,73,7014.0,-3.2020857334136963,97,9979.0
8700,0.38784220814704895,0.5962952971458435,119,7014.0,1.2707886695861816,-2,9979.0
8710,0.38747885823249817,0.18694573640823364,-99,7014.0,3.4724180698394775,44,9979.0
8720,0.38712963461875916,0.8115456104278564,66,7014.0,0.49098217487335205,122,9979.0
8730,0.38683557510375977,0.5900953412055969,119,7014.0,0.22950564324855804,-71,9979.0
8740,0.3865245580673218,1.405490517616272,-98,7014.0,2.542278289794922,-159,9979.0
8750,0.38517943024635315,3.0818560123443604,-3,7014.0,-1.2859963178634644,-169,9979.0
8760,0.38480713963508606,2.886772632598877,147,7014.0,-2.9562432765960693,-104,9979.0
8770,0.38446125388145447,0.645516574382782,-29,7014.0,-1.7508286237716675,-109,9979.0
8780,0.38410937786102295,1.3837361335754395,-64,7014.0,-4.766225814819336,112,9979.0
8790,0.38411808013916016,3.3577091693878174,231,7014.0,0.24351556599140167,46,9979.0
8800,0.3837950527667999,2.3027126789093018,-32,7014.0,-6.063901901245117,-158,9979.0
8810,0.38345640897750854,2.762953281402588,18,7014.0,-2.873826742172241,-37,9979.0
8820,0.38311922550201416,1.1551642417907715,87,7014.0,-3.1981492042541504,93,9979.0
8830,0.38279062509536743,0.5071926116943359,-57,7014.0,1.5373338460922241,-109,9979.0
8840,0.3821358382701874,0.1845078021287918,-86,7014.0,4.065180778503418,148,9979.0
8850,0.38184577226638794,-2.412282943725586,93,7014.0,1.5147860050201416,52,9979.0
8860,0.3816131353378296,-1.9088287353515625,-108,7014.0,3.8178558349609375,-14,9979.0
8870,0.38134852051734924,-4.436221599578857,-68,7014.0,0.6499887704849243,169,9979.0
8880,0.37972018122673035,-3.6041178703308105,121,7014.0,0.27453458309173584,-53,9979.0
8890,0.3794170916080475,0.12975960969924927,0,7014.0,5.388775825500488,-2,9979.0
8900,0.3791200518608093,-2.0782270431518555,-122,7014.0,-0.13319985568523407,-29,9979.0
8910,0.3788428008556366,-3.497093677520752,20,7014.0,-1.6571331024169922,-51,9979.0
8920,0.3787746727466583,-1.0141409635543823,-75,7014.0,-4.600448131561279,-227,9979.0
8930,0.3785966634750366,-0.3862612843513489,-48,7014.0,-3.6962597370147705,74,9979.0
8940,0.37843748927116394,5.369195461273193,220,7014.0,-2.436986207962036,-184,9979.0
8950,0.3782995045185089,3.4427928924560547,-22,7014.0,-2.08786940574646,-142,9979.0
8960,0.37817373871803284,-0.5489650368690491,-6,7014.0,1.1981501579284668,29,9979.0
8970,0.37798070907592773,-0.8170084953308105,-64,7014.0,-0.1955174058675766,-91,9979.0
8980,0.3778837025165558,-1.9280279874801636,-142,7014.0,-0.6742103099822998,-157,9979.0
8990,0.3778494894504547,-4.4395432472229,141,7014.0,-0.4868167042732239,160,9979.0
9000,0.37783074378967285,-2.114893913269043,-53,7014.0,0.665519118309021,21,9979.0
9010,0.3782775402069092,-3.599069356918335,-42,7014.0,-2.465205192565918,-55,9979.0
9020,0.3783250153064728,-1.2312930822372437,48,7014.0,-1.9777430295944214,-67,9979.0
9030,0.3784158527851105,-0.007387698628008366,-119,7014.0,-1.4814273118972778,-107,9979.0
9040,0.37848901748657227,-1.185190200805664,34,7014.0,-7.687358856201172,170,9979.0
9050,0.3785542845726013,-1.827380895614624,55,7014.0,1.2672611474990845,-73,9979.0
9060,0.3784077763557434,-6.624176502227783,-153,7014.0,0.21540464460849762,41,9979.0
9070,0.37843209505081177,-6.95517110824585,-75,7014.0,4.051794528961182,133,9979.0
9080,0.37840473651885986,-6.0632405281066895,-130,7014.0,3.39518404006958,-101,9979.0
9090,0.3784126043319702,-4.382359027862549,-89,7014.0,1.1456379890441895,202,9979.0
9100,0.37905189394950867,-5.041522979736328,172,7014.0,4.860814571380615,103,9979.0
9110,0.37911170721054077,-4.210082530975342,-82,7014.0,8.499131202697754,-64,9979.0
9120,0.37916022539138794,1.093456506729126,-18,7014.0,1.1146267652511597,126,9979.0
9130,0.37925389409065247,0.4111451208591461,42,7014.0,-1.6471372842788696,-61,9979.0
9140,0.37809091806411743,1.3250082731246948,-30,7014.0,-1.5939151048660278,-8,9979.0
9150,0.3781069815158844,3.993743896484375,144,7014.0,-8.506729125976562,-27,9979.0
9160,0.3781561553478241,3.9542016983032227,106,7014.0,-2.65664005279541,-253,9979.0
9170,0.37818533182144165,5.753448009490967,-107,7014.0,-2.7966036796569824,59,9979.0
9180,0.37818536162376404,4.944042205810547,306,7014.0,0.3282165825366974,65,9979.0
9190,0.3768366873264313,6.365950584411621,104,7014.0,-1.8757959604263306,-47,9979.0
9200,0.37674781680107117,4.748845100402832,79,7014.0,1.3010729551315308,125,9979.0
9210,0.3767476975917816,3.932891845703125,38,7014.0,1.0151221752166748,-135,9979.0
9220,0.37671613693237305,0.894403874874115,-91,7014.0,-1.2990437746047974,10,9979.0
9230,0.37714698910713196,-2.494137763977051,124,7014.0,5.827552318572998,137,9979.0
9240,0.3770892024040222,1.8220335245132446,37,7014.0,-1.7711098194122314,-86,9979.0
9250,0.3770391047000885,0.45757177472114563,17,7014.0,-4.881923675537109,-53,9979.0
9260,0.3769887685775757,-1.164697289466858,-20,7014.0,-8.825860977172852,-248,9979.0
9270,0.3769359588623047,0.5495952367782593,-64,7014.0,-10.223993301391602,-95,9979.0
9280,0.3768728971481323,2.3848135471343994,140,7014.0,-9.088227272033691,-97,9979.0
9290,0.37679824233055115,4.599978446960449,47,7014.0,-2.6583473682403564,-62,9979.0
9300,0.37671151757240295,5.233132839202881,121,7014.0,2.6905434131622314,163,9979.0
9310,0.3765932619571686,4.1783952713012695,79,7014.0,8.205404281616211,3,9979.0
9320,0.37660089135169983,-0.5808579325675964,16,7014.0,9.771743774414062,292,9979.0
9330,0.3764960765838623,-0.9974730610847473,84,7014.0,11.053983688354492,190,9979.0
9340,0.3764224052429199,1.8291412591934204,5,7014.0,10.309706687927246,152,9979.0
9350,0.3763495981693268,0.26081687211990356,155,7014.0,4.732168674468994,112,9979.0
9360,0.3753809928894043,1.6298538446426392,-88,7014.0,0.08238101750612259,-201,9979.0
9370,0.37533342838287354,0.7830839157104492,25,7014.0,-3.35703706741333,12,9979.0
9380,0.37531334161758423,-1.5912107229232788,-47,7014.0,2.0480527877807617,23,9979.0
9390,0.37528160214424133,0.745297908782959,-25,7014.0,2.6545326709747314,109,9979.0
9400,0.37521669268608093,-0.3023189604282379,129,7014.0,4.470807075500488,17,9979.0
9410,0.3738088011741638,4.049477577209473,-90,7014.0,1.845431923866272,-18,9979.0
9420,0.3737443685531616,1.0660908222198486,59,7014.0,-0.15361370146274567,105,9979.0
9430,0.37371814250946045,3.683084487915039,110,7014.0,1.45404052734375,-15,9979.0
9440,0.3736095428466797,1.9331390857696533,19,7014.0,3.423243761062622,66,9979.0
9450,0.373309850692749,3.6878390312194824,173,7014.0,2.000673770904541,-3,9979.0
9460,0.3733246922492981,5.7938714027404785,8,7014.0,4.208688259124756,-68,9979.0
9470,0.3733367621898651,7.151985168457031,149,7014.0,3.2452785968780518,228,9979.0
9480,0.3733947277069092,6.572033405303955,199,7014.0,4.174368381500244,-70,9979.0
9490,0.37343358993530273,6.542582035064697,0,7014.0,1.6247127056121826,-23,9979.0
9500,0.3732733726501465,3.8151071071624756,117,7014.0,1.5920629501342773,39,9979.0
9510,0.3732975125312805,4.605597019195557,-21,7014.0,6.197904586791992,67,9979.0
9520,0.3732931315898895,1.7240501642227173,244,7014.0,4.795991897583008,235,9979.0
9530,0.37321212887763977,5.503644943237305,38,7014.0,7.09114408493042,-94,9979.0
9540,0.3738686144351959,2.8975071907043457,-60,7014.0,6.00670051574707,184,9979.0
9550,0.37389057874679565,1.9013692140579224,161,7014.0,4.5007405281066895,68,9979.0
9560,0.37396568059921265,2.991132974624634,-13,7014.0,2.3296914100646973,45,9979.0
9570,0.37402451038360596,2.0979580879211426,117,7014.0,0.46852025389671326,98,9979.0
9580,0.3740222752094269,4.639360427856445,-40,7014.0,-1.119160771369934,-217,9979.0
9590,0.374083936214447,2.122518301010132,162,7014.0,-1.1233702898025513,118,9979.0
9600,0.37410682439804077,1.4884551763534546,-99,7014.0,-3.9295401573181152,-49,9979.0
9610,0.3741292655467987,-3.6409599781036377,-20,7014.0,-4.263914585113525,-9,9979.0
9620,0.37413907051086426,-4.335043430328369,-194,7014.0,-5.529609203338623,-179,9979.0
9630,0.3732619285583496,-6.2537760734558105,-101,7014.0,-6.27161979675293,-112,9979.0
9640,0.3732631206512451,-8.83641529083252,-32,7014.0,-3.2435920238494873,33,9979.0
9650,0.3733539283275604,-5.066007137298584,-123,7014.0,0.8408340215682983,47,9979.0
9660,0.37343713641166687,-2.8693788051605225,15,7014.0,2.278291702270508,-29,9979.0
9670,0.3745267391204834,-0.9230908751487732,-173,7014.0,7.344081878662109,237,9979.0
9680,0.37462079524993896,-3.5179316997528076,68,7014.0,9.171765327453613,186,9979.0
9690,0.37472331523895264,-3.4161524772644043,-78,7014.0,5.683095932006836,64,9979.0
9700,0.3748456835746765,-3.5259780883789062,-16,7014.0,2.6904051303863525,115,9979.0
9710,0.3749745786190033,-3.9826579093933105,-134,7014.0,2.9190797805786133,-146,9979.0
9720,0.3755168914794922,-2.890598773956299,-42,7014.0,-4.580145359039307,75,9979.0
9730,0.3756577968597412,-8.358028411865234,10,7014.0,0.18346478044986725,13,9979.0
9740,0.37580615282058716,-5.945472240447998,-151,7014.0,-3.7174124717712402,4,9979.0
9750,0.375986248254776,-7.474494934082031,-64,7014.0,-3.864362955093384,-97,9979.0
9760,0.37494486570358276,-6.063151836395264,-284,7014.0,-3.8217520713806152,-65,9979.0
9770,0.37500816583633423,-9.219952583312988,-24,7014.0,-3.6321449279785156,205,9979.0
9780,0.3750407099723816,-7.494626045227051,-162,7014.0,-2.3043103218078613,-92,9979.0
9790,0.3751140534877777,-6.729381084442139,-109,7014.0,-3.1309940814971924,21,9979.0
9800,0.3755207359790802,-6.457662582397461,-159,7014.0,-0.2258756011724472,-176,9979.0
9810,0.3755890130996704,-6.029722213745117,-24,7014.0,-0.5770208239555359,225,9979.0
9820,0.3756050765514374,-6.3666605949401855,60,7014.0,-0.5251171588897705,-102,9979.0
9830,0.37555360794067383,-6.027075290679932,-125,7014.0,4.348016738891602,76,9979.0
9840,0.3755702078342438,-3.4556758403778076,-49,7014.0,7.393615245819092,44,9979.0
9850,0.3732185661792755,-2.448235273361206,-163,7014.0,5.675900936126709,156,9979.0
9860,0.3732070326805115,-4.574286460876465,108,7014.0,3.2771055698394775,66,9979.0
9870,0.3729226589202881,-6.159559726715088,-197,7014.0,5.570328235626221,-105,9979.0
9880,0.37292754650115967,-4.651332855224609,-74,7014.0,0.8731537461280823,100,9979.0
9890,0.37232863903045654,-4.225942134857178,-53,7014.0,-3.043977975845337,-129,9979.0
9900,0.37231889367103577,-3.847712993621826,-62,7014.0,-4.211392879486084,5,9979.0
9910,0.3722023069858551,-4.661340713500977,13,7014.0,-5.499788761138916,-142,9979.0
9920,0.37203100323677063,-2.3453502655029297,-184,7014.0,-4.514229774475098,-100,9979.0
9930,0.371808797121048,-0.37568262219429016,77,7014.0,-7.4440813064575195,87,9979.0
9940,0.37136930227279663,-0.4342872202396393,-21,7014.0,-3.0653042793273926,-132,9979.0
9950,0.37120985984802246,-0.33881676197052,-13,7014.0,-1.2333191633224487,40,9979.0
9960,0.3709145188331604,0.26559048891067505,47,7014.0,0.5874036550521851,-40,9979.0
9970,0.3709177076816559,1.951162338256836,-102,7014.0,0.9740259051322937,77,9979.0
9980,0.36949828267097473,3.454846143722534,169,7014.0,1.0106464624404907,61,9979.0
9990,0.36949899792671204,1.0114680528640747,-43,7014.0,-0.908241331577301,-116,9979.0
10000,0.3691672682762146,-0.3919372856616974,-12,7014.0,1.0987586975097656,87,9979.0
10010,0.36916762590408325,-0.1647380143404007,1,7014.0,-2.186300277709961,-216,9979.0
10020,0.3688787519931793,2.0665478706359863,22,7014.0,-4.210758209228516,89,9979.0
10030,0.3688817024230957,1.4066258668899536,160,7014.0,-4.928390026092529,-138,9979.0
10040,0.36888599395751953,5.589098930358887,-20,7014.0,-5.394564151763916,-76,9979.0
10050,0.3688797950744629,1.754564642906189,89,7014.0,-1.8023604154586792,-77,9979.0
10060,0.36894071102142334,2.9859864711761475,-102,7014.0,-1.6269851922988892,-100,9979.0
10070,0.3693811893463135,0.6688123345375061,63,7014.0,-3.399549722671509,146,9979.0
10080,0.3694693446159363,0.9833537340164185,-9,7014.0,-0.10475653409957886,-28,9979.0
10090,0.36964282393455505,1.653530478477478,63,7014.0,-1.190114140510559,143,9979.0
10100,0.36988911032676697,4.123313903808594,19,7014.0,2.965803623199463,-124,9979.0
10110,0.3700912296772003,3.0202763080596924,50,7014.0,2.4798691272735596,157,9979.0
10120,0.37034082412719727,3.950594902038574,82,7014.0,3.9541594982147217,132,9979.0
10130,0.37059974670410156,2.0174052715301514,5,7014.0,4.711003303527832,221,9979.0
10140,0.37088990211486816,-0.9709430932998657,17,7014.0,3.8549439907073975,-139,9979.0
10150,0.37123265862464905,-5.924118518829346,-164,7014.0,2.1971545219421387,140,9979.0
10160,0.3717374801635742,-5.122421741485596,20,7014.0,1.241317629814148,14,9979.0
10170,0.37206801772117615,-2.7048325538635254,-39,7014.0,1.8610912561416626,77,9979.0
10180,0.37237972021102905,-1.8068653345108032,102,7014.0,1.2039103507995605,-62,9979.0
10190,0.3726867437362671,-0.733476459980011,-166,7014.0,-0.41317495703697205,77,9979.0
10200,0.37263163924217224,-2.230241537094116,192,7014.0,1.578938364982605,31,9979.0
10210,0.37297582626342773,-0.7090022563934326,-48,7014.0,-0.10581936687231064,-49,9979.0
10220,0.37333279848098755,3.090587615966797,38,7014.0,-0.04337817803025246,3,9979.0
10230,0.3737027049064636,1.5566375255584717,152,7014.0,-2.8652496337890625,-9,9979.0
10240,0.3732765316963196,2.5741724967956543,40,7014.0,0.4543452262878418,-81,9979.0
10250,0.3735441565513611,3.119466781616211,5,7014.0,-4.272164344787598,-160,9979.0
10260,0.37387707829475403,1.5443236827850342,78,7014.0,2.2865140438079834,65,9979.0
10270,0.37416157126426697,4.964406967163086,37,7014.0,-0.5365481376647949,31,9979.0
10280,0.37444984912872314,6.053064346313477,73,7014.0,-0.18512384593486786,18,9979.0
10290,0.37443795800209045,5.234541416168213,174,7014.0,0.7427830100059509,114,9979.0
10300,0.37464916706085205,2.9994606971740723,-1,7014.0,2.0956294536590576,-208,9979.0
10310,0.3747991919517517,-0.6683775782585144,-29,7014.0,-0.46395713090896606,-174,9979.0
10320,0.3749046325683594,-0.5450621247291565,-26,7014.0,2.343669891357422,-37,9979.0
10330,0.37421727180480957,-1.3184444904327393,58,7014.0,6.674756050109863,180,9979.0
10340,0.3741875886917114,-4.00628137588501,-182,7014.0,1.5320217609405518,-85,9979.0
10350,0.3741901218891144,-3.5168018341064453,39,7014.0,4.025590419769287,130,9979.0
10360,0.3742403984069824,-3.003525495529175,-44,7014.0,0.8233121633529663,-33,9979.0
10370,0.3743225634098053,1.3343876600265503,7,7014.0,-1.2872731685638428,77,9979.0
10380,0.37383708357810974,4.556828022003174,38,7014.0,-3.1802074909210205,-69,9979.0
10390,0.3738304078578949,3.4416799545288086,172,7014.0,-5.767691612243652,-69,9979.0
10400,0.37378689646720886,4.807478427886963,-57,7014.0,-4.238127708435059,-183,9979.0
10410,0.37374576926231384,1.4770861864089966,141,7014.0,-0.5263772010803223,50,9979.0
10420,0.37421295046806335,2.220458507537842,-26,7014.0,-1.3198593854904175,-75,9979.0
10430,0.3742636740207672,2.2843716144561768,75,7014.0,-2.12959885597229,-2,9979.0
10440,0.3743492364883423,1.5622378587722778,-46,7014.0,1.9457508325576782,-40,9979.0
10450,0.3744646906852722,1.0118361711502075,165,7014.0,0.07702072709798813,24,9979.0
10460,0.3743363916873932,2.616882801055908,-78,7014.0,1.1380140781402588,-43,9979.0
10470,0.37435418367385864,2.531982898712158,80,7014.0,0.8207259178161621,80,9979.0
10480,0.37437716126441956,2.2076029777526855,-26,7014.0,2.2844300270080566,67,9979.0
10490,0.374403178691864,-0.2686602771282196,119,7014.0,1.5936537981033325,-70,9979.0
10500,0.3744872510433197,0.21890407800674438,-195,7014.0,1.1189498901367188,27,9979.0
10510,0.3747681677341461,-1.3224191665649414,56,7014.0,-0.6501796245574951,82,9979.0
10520,0.3749229907989502,-0.8131929039955139,-5,7014.0,-2.533751964569092,-45,9979.0
10530,0.3750796318054199,-0.6223009824752808,80,7014.0,-0.02796212211251259,-85,9979.0
10540,0.37521108984947205,0.8148276805877686,-105,7014.0,-1.6378127336502075,15,9979.0
10550,0.37253543734550476,-0.18758244812488556,155,7014.0,1.4860215187072754,7,9979.0
10560,0.3724837601184845,2.198184013366699,-88,7014.0,0.74000084400177,32,9979.0
10570,0.3724628686904907,-0.03993740677833557,47,7014.0,4.671426773071289,20,9979.0
10580,0.3724709451198578,0.7120482921600342,-64,7014.0,0.15479132533073425,91,9979.0
10590,0.37381747364997864,-0.6170535683631897,106,7014.0,1.125474452972412,-139,9979.0
10600,0.37390661239624023,0.6970517635345459,-111,7014.0,-1.115082859992981,58,9979.0
10610,0.37395745515823364,2.4173107147216797,119,7014.0,-2.748366117477417,-11,9979.0
10620,0.373993843793869,0.0018739873776212335,28,7014.0,-3.320491313934326,14,9979.0
10630,0.3740217983722687,0.8284395337104797,86,7014.0,-2.098419666290283,-177,9979.0
10640,0.3751944899559021,3.632070779800415,-67,7014.0,-1.481969952583313,101,9979.0
10650,0.3752894103527069,2.225032091140747,133,7014.0,0.2993835508823395,-63,9979.0
10660,0.37542667984962463,2.1228556632995605,-9,7014.0,2.139058828353882,85,9979.0
10670,0.37560415267944336,-0.36429718136787415,-57,7014.0,4.413678169250488,-51,9979.0
10680,0.37586233019828796,0.15262047946453094,-25,7014.0,2.523186683654785,269,9979.0
10690,0.37595999240875244,-4.581835746765137,-95,7014.0,2.657252550125122,-75,9979.0
10700,0.3759864568710327,-7.651874542236328,-73,7014.0,0.4920569956302643,-23,9979.0
10710,0.375973641872406,-4.654932975769043,-87,7014.0,-0.17586028575897217,-58,9979.0
10720,0.37595075368881226,-5.906886100769043,-17,7014.0,-2.8345439434051514,-11,9979.0
10730,0.37637218832969666,-4.802740573883057,-140,7014.0,-3.837562322616577,-211,9979.0
10740,0.376406192779541,-2.077205181121826,-35,7014.0,-6.336032867431641,40,9979.0
10750,0.3764432668685913,0.44854840636253357,63,7014.0,-5.807004451751709,-242,9979.0
10760,0.37646350264549255,2.200183629989624,67,7014.0,-4.0200018882751465,-7,9979.0
10770,0.3770408630371094,2.586151599884033,-58,7014.0,-2.026719093322754,-84,9979.0
10780,0.37697190046310425,1.5952097177505493,171,7014.0,0.2883935272693634,147,9979.0
10790,0.3768705129623413,3.508206844329834,-10,7014.0,0.290015310049057,8,9979.0
10800,0.3767823278903961,1.0838876962661743,59,7014.0,5.284643173217773,60,9979.0
10810,0.3767264187335968,2.3557989597320557,-141,7014.0,2.6770687103271484,67,9979.0
10820,0.37759700417518616,-1.0844119787216187,102,7014.0,1.0076395273208618,69,9979.0
10830,0.37761589884757996,-2.7980425357818604,-135,7014.0,-1.5258073806762695,-45,9979.0
10840,0.37761759757995605,-4.6926589012146,-62,7014.0,-1.681334376335144,1,9979.0
10850,0.37758901715278625,-2.931792736053467,-31,7014.0,-2.682868480682373,-5,9979.0
10860,0.3777005970478058,-5.496781349182129,-138,7014.0,-2.837646722793579,-98,9979.0
10870,0.3775970935821533,0.7097564339637756,-32,7014.0,-2.5095407962799072,-94,9979.0
10880,0.37754252552986145,-0.18255554139614105,11,7014.0,-2.5637102127075195,1,9979.0
10890,0.37749946117401123,-1.2456152439117432,59,7014.0,-0.22123929858207703,143,9979.0
10900,0.37841153144836426,0.8664374947547913,-86,7014.0,2.8409011363983154,-48,9979.0
10910,0.3783721923828125,1.9814026355743408,28,7014.0,2.5143728256225586,76,9979.0
10920,0.37827831506729126,0.1687057912349701,10,7014.0,3.220705986022949,17,9979.0
10930,0.3781370222568512,0.8776978850364685,53,7014.0,2.9308526515960693,146,9979.0
10940,0.3779790699481964,1.1797873973846436,-74,7014.0,1.2339829206466675,-57,9979.0
10950,0.37906333804130554,-1.0748661756515503,75,7014.0,0.1380746215581894,85,9979.0
10960,0.37895023822784424,0.17713485658168793,-17,7014.0,0.8364750742912292,-59,9979.0
10970,0.37885189056396484,-0.6692740321159363,44,7014.0,-1.831554889678955,11,9979.0
10980,0.3787759244441986,0.9853373765945435,-166,7014.0,-1.6954408884048462,-111,9979.0
10990,0.37804368138313293,-1.5252361297607422,135,7014.0,1.7643307447433472,94,9979.0
11000,0.37788763642311096,-1.3732658624649048,-30,7014.0,3.0709667205810547,-4,9979.0
11010,0.3777032792568207,1.2768853902816772,106,7014.0,6.139798164367676,71,9979.0
11020,0.3774823844432831,4.2663984298706055,-104,7014.0,7.350095272064209,106,9979.0
11030,0.3771725296974182,0.9136193990707397,154,7014.0,4.790299415588379,147,9979.0
11040,0.37701353430747986,2.5955278873443604,-6,7014.0,3.742224931716919,13,9979.0
11050,0.37692737579345703,1.3593131303787231,137,7014.0,-2.110522747039795,104,9979.0
11060,0.376859575510025,3.6914288997650146,-94,7014.0,-1.1300779581069946,-181,9979.0
11070,0.3767901659011841,2.6467509269714355,91,7014.0,-4.366644859313965,123,9979.0
11080,0.3760019540786743,1.5823835134506226,-27,7014.0,-0.674479067325592,-67,9979.0
11090,0.3757898211479187,-3.4855306148529053,93,7014.0,-1.0805792808532715,-52,9979.0
11100,0.3755257725715637,1.0576201677322388,-106,7014.0,-4.807382583618164,-176,9979.0
11110,0.3752698004245758,0.0930141806602478,46,7014.0,0.4292302131652832,-49,9979.0
11120,0.3758009076118469,-4.487004280090332,-114,7014.0,3.186400890350342,162,9979.0
11130,0.37569165229797363,-2.2973220348358154,123,7014.0,1.531291127204895,42,9979.0
11140,0.37557584047317505,1.9454681873321533,-88,7014.0,1.9405603408813477,12,9979.0
11150,0.37540820240974426,4.380234718322754,47,7014.0,1.5984783172607422,50,9979.0
11160,0.3751882314682007,1.9699275493621826,-85,7014.0,7.169244289398193,185,9979.0
11170,0.3764097988605499,-1.1727172136306763,78,7014.0,5.54246187210083,115,9979.0
11180,0.3762148320674896,2.541440486907959,-101,7014.0,3.437840461730957,60,9979.0
11190,0.3760743737220764,1.5235050916671753,58,7014.0,-1.9663232564926147,-18,9979.0
11200,0.3759484589099884,0.007061084266752005,-109,7014.0,-1.2052744626998901,33,9979.0
11210,0.3750832676887512,3.0859899520874023,186,7014.0,-2.316187620162964,-45,9979.0
11220,0.3748273551464081,2.24672794342041,-41,7014.0,-6.124332427978516,-105,9979.0
11230,0.3745221495628357,1.4671993255615234,70,7014.0,-5.1415228843688965,-123,9979.0
11240,0.3741854429244995,-0.10773756355047226,-141,7014.0,-4.01608419418335,-17,9979.0
11250,0.37315115332603455,-3.620631456375122,117,7014.0,1.867706060409546,113,9979.0
11260,0.3728664815425873,-0.7318230867385864,-32,7014.0,-0.5448712110519409,60,9979.0
11270,0.372580885887146,-3.1624274253845215,28,7014.0,4.6202778816223145,-49,9979.0
11280,0.37234920263290405,-3.0400774478912354,-143,7014.0,5.178781986236572,115,9979.0
11290,0.3721199333667755,-4.913542747497559,-53,7014.0,5.297943592071533,144,9979.0
11300,0.37108850479125977,-4.071192741394043,-100,7014.0,4.648386001586914,-54,9979.0
11310,0.3707279860973358,-6.462022304534912,32,7014.0,2.772296667098999,-26,9979.0
11320,0.370366632938385,-3.7745273113250732,-113,7014.0,-1.1666210889816284,-123,9979.0
11330,0.37000346183776855,-5.052373886108398,-46,7014.0,-3.2904703617095947,-86,9979.0
11340,0.36860501766204834,-4.551708698272705,-170,7014.0,-3.543605327606201,76,9979.0
11350,0.3681427240371704,-2.9708304405212402,114,7014.0,1.9160652160644531,-58,9979.0
11360,0.36764097213745117,-0.3390797972679138,-93,7014.0,-0.6497669816017151,-55,9979.0
11370,0.3671177625656128,-1.0048307180404663,22,7014.0,-2.9732563495635986,-73,9979.0
11380,0.36660051345825195,-1.348298192024231,-165,7014.0,-2.4803683757781982,-102,9979.0
11390,0.3658656179904938,0.9439648389816284,82,7014.0,-3.796143054962158,95,9979.0
11400,0.3654346764087677,-0.8750884532928467,-42,7014.0,-2.0853211879730225,13,9979.0
11410,0.3650544583797455,-1.685284972190857,36,7014.0,-0.4399467706680298,40,9979.0
11420,0.36467763781547546,-0.37713369727134705,-81,7014.0,0.15517857670783997,-147,9979.0
11430,0.3637528121471405,-1.0413353443145752,11,7014.0,-0.15084947645664215,118,9979.0
11440,0.3632875084877014,-0.6065212488174438,-17,7014.0,0.22449703514575958,-35,9979.0
11450,0.36289453506469727,-1.372477412223816,90,7014.0,-2.445561408996582,117,9979.0
11460,0.362505167722702,-0.6814411282539368,-185,7014.0,-2.002227783203125,-181,9979.0
11470,0.36284205317497253,-3.754031181335449,2,7014.0,-4.114787578582764,-27,9979.0
11480,0.362517386674881,-4.102999687194824,-100,7014.0,-0.3756103217601776,-12,9979.0
11490,0.3621586263179779,-2.618894100189209,6,7014.0,-4.430752754211426,26,9979.0
11500,0.36178290843963623,-3.8625075817108154,-82,7014.0,-3.5353810787200928,-99,9979.0
11510,0.3614492118358612,-3.621885061264038,-141,7014.0,-3.60146427154541,-183,9979.0
11520,0.3622981011867523,-4.149855613708496,-29,7014.0,-1.8671444654464722,-38,9979.0
11530,0.36207160353660583,-1.4642575979232788,-2,7014.0,-1.979781150817871,-102,9979.0
11540,0.36181625723838806,-1.770631194114685,77,7014.0,1.5292161703109741,191,9979.0
11550,0.36156174540519714,-1.3915432691574097,-136,7014.0,-0.24679943919181824,-142,9979.0
11560,0.36121124029159546,2.1031792163848877,93,7014.0,-3.3102848529815674,-1,9979.0
11570,0.36104679107666016,2.4698262214660645,-61,7014.0,0.07295545935630798,-190,9979.0
11580,0.36091527342796326,3.936753749847412,236,7014.0,-6.116562843322754,-77,9979.0
11590,0.36077943444252014,6.956186294555664,-17,7014.0,-3.7760376930236816,-115,9979.0
11600,0.3606311082839966,1.4111418724060059,67,7014.0,-3.0122578144073486,-51,9979.0
11610,0.3621772229671478,4.474734306335449,-49,7014.0,-3.135291576385498,-147,9979.0
11620,0.3620702028274536,-0.05550270155072212,137,7014.0,1.560926079750061,111,9979.0
11630,0.36198437213897705,1.9205257892608643,-94,7014.0,2.568776845932007,-16,9979.0
11640,0.3619523048400879,-1.5559990406036377,0,7014.0,-2.8730430603027344,46,9979.0
11650,0.3607792258262634,-2.472019672393799,-105,7014.0,2.7578744888305664,-72,9979.0
11660,0.36065614223480225,-3.2426323890686035,174,7014.0,1.979813575744629,104,9979.0
11670,0.36046651005744934,-1.7625014781951904,-76,7014.0,6.2474188804626465,5,9979.0
11680,0.3602263331413269,-1.4759432077407837,-19,7014.0,2.126133918762207,58,9979.0
11690,0.3607470691204071,-0.3125455379486084,-38,7014.0,1.7697018384933472,-93,9979.0
11700,0.36059892177581787,2.545011043548584,115,7014.0,1.2479649782180786,183,9979.0
11710,0.36049169301986694,0.8741236329078674,35,7014.0,1.0016885995864868,11,9979.0
11720,0.3603873550891876,3.1663026809692383,17,7014.0,0.5530943870544434,71,9979.0
11730,0.36029839515686035,2.381901264190674,35,7014.0,1.2352588176727295,-12,9979.0
11740,0.3613291084766388,2.807987689971924,58,7014.0,-1.2526888847351074,118,9979.0
11750,0.3613845407962799,0.8970937728881836,75,7014.0,-0.8575108647346497,70,9979.0
11760,0.3614773154258728,0.6990445256233215,-72,7014.0,-0.39222773909568787,87,9979.0
11770,0.3615718483924866,3.5073492527008057,101,7014.0,-3.7948286533355713,-35,9979.0
11780,0.3629194498062134,2.101517677307129,27,7014.0,-1.2299597263336182,61,9979.0
11790,0.36302563548088074,0.4003896415233612,68,7014.0,1.8974831104278564,123,9979.0
11800,0.3631291389465332,1.9221211671829224,-122,7014.0,3.1963329315185547,85,9979.0
11810,0.3632684051990509,-1.0884501934051514,76,7014.0,4.972903251647949,64,9979.0
11820,0.3633900582790375,-0.49500587582588196,-103,7014.0,0.3453373312950134,13,9979.0
11830,0.3629927337169647,-1.5290379524230957,48,7014.0,-0.1671210676431656,-60,9979.0
11840,0.3631080389022827,-1.604062557220459,-104,7014.0,-1.4922282695770264,-31,9979.0
11850,0.3631989061832428,-1.165244698524475,174,7014.0,-1.1772381067276,21,9979.0
11860,0.3632842004299164,0.7702850103378296,-72,7014.0,-0.20871588587760925,-62,9979.0
11870,0.363631010055542,3.2917861938476562,79,7014.0,-1.3844971656799316,4,9979.0
11880,0.3638100326061249,5.421147346496582,16,7014.0,-0.21238669753074646,-11,9979.0
11890,0.3640197515487671,5.606293201446533,199,7014.0,-2.929356813430786,46,9979.0
11900,0.3642203211784363,6.760281085968018,-35,7014.0,-1.1572226285934448,-73,9979.0
11910,0.3649871051311493,5.950575351715088,165,7014.0,-0.96827632188797,96,9979.0
11920,0.365117609500885,6.5214972496032715,106,7014.0,-0.027904678136110306,-27,9979.0
11930,0.36523404717445374,5.771331310272217,148,7014.0,1.115832805633545,39,9979.0
11940,0.36537274718284607,5.92811918258667,-72,7014.0,3.464961290359497,56,9979.0
11950,0.3655794858932495,4.605556964874268,185,7014.0,0.9633265137672424,95,9979.0
11960,0.3638477623462677,1.0489226579666138,-8,7014.0,0.9186237454414368,-47,9979.0
11970,0.363922119140625,0.5158240795135498,39,7014.0,-0.31579744815826416,-118,9979.0
11980,0.3639390766620636,0.0470106266438961,-159,7014.0,-4.877351760864258,-60,9979.0
11990,0.36389851570129395,-1.7453244924545288,146,7014.0,-4.648708343505859,-73,9979.0
12000,0.36272794008255005,0.3182535469532013,-42,7014.0,-5.9988112449646,-83,9979.0
12010,0.36252522468566895,2.652092218399048,95,7014.0,-3.7962288856506348,-118,9979.0
12020,0.36233997344970703,1.9461643695831299,-35,7014.0,-2.809267997741699,37,9979.0
12030,0.3621780574321747,0.30388692021369934,113,7014.0,-0.08635489642620087,-150,9979.0
12040,0.3620133399963379,1.8071115016937256,-61,7014.0,-4.087106227874756,-5,9979.0
12050,0.3602308928966522,0.04107936471700668,-22,7014.0,-0.20637749135494232,-161,9979.0
12060,0.3599208891391754,0.6208223104476929,-43,7014.0,-3.967515707015991,187,9979.0
12070,0.35956040024757385,-1.9474127292633057,-28,7014.0,0.6970927119255066,-199,9979.0
12080,0.35917341709136963,-2.1143622398376465,-78,7014.0,-3.6651575565338135,-49,9979.0
12090,0.35807615518569946,1.359331727027893,-6,7014.0,-1.1551463603973389,-71,9979.0
12100,0.35767319798469543,2.0760598182678223,25,7014.0,0.28312957286834717,137,9979.0
12110,0.3572794497013092,5.238057613372803,-27,7014.0,2.3376221656799316,-112,9979.0
12120,0.35692641139030457,2.521641254425049,65,7014.0,2.5644989013671875,48,9979.0
12130,0.3559795320034027,3.1547091007232666,-33,7014.0,0.6332727074623108,-85,9979.0
12140,0.3555789887905121,0.7564569711685181,137,7014.0,-1.632338285446167,98,9979.0
12150,0.35515928268432617,2.261042594909668,-101,7014.0,-6.439637184143066,-215,9979.0
12160,0.35479381680488586,-2.1413564682006836,-40,7014.0,-6.826319694519043,-35,9979.0
12170,0.35445472598075867,-4.362414360046387,-150,7014.0,-2.5274407863616943,-30,9979.0
12180,0.35369327664375305,-6.34491491317749,21,7014.0,-1.8149621486663818,140,9979.0
12190,0.35338857769966125,-5.263288974761963,-198,7014.0,3.2593040466308594,-170,9979.0
12200,0.35309070348739624,-5.473344326019287,-89,7014.0,3.830875873565674,20,9979.0
12210,0.35279330611228943,-6.349124431610107,-115,7014.0,7.649593353271484,51,9979.0
12220,0.3519153594970703,-3.2792656421661377,30,7014.0,6.382933139801025,144,9979.0
12230,0.35161659121513367,-1.3125360012054443,3,7014.0,9.57795238494873,-8,9979.0
12240,0.35134753584861755,-3.409639835357666,-120,7014.0,5.333820343017578,137,9979.0
12250,0.3511435389518738,-4.501446723937988,-54,7014.0,1.7890961170196533,-64,9979.0
12260,0.35092517733573914,-2.7581117153167725,-69,7014.0,-2.39695143699646,56,9979.0
12270,0.3514985144138336,-3.2598061561584473,119,7014.0,-7.532356262207031,-139,9979.0
12280,0.3513146638870239,0.4063289761543274,-146,7014.0,-4.882558822631836,-98,9979.0
12290,0.3511727750301361,-1.933413028717041,-21,7014.0,-7.33607816696167,-49,9979.0
12300,0.3510659635066986,-3.440150260925293,-156,7014.0,-4.537482738494873,-27,9979.0
12310,0.3517608344554901,-2.9156739711761475,105,7014.0,-4.568671226501465,-29,9979.0
12320,0.35171636939048767,1.4341858625411987,-98,7014.0,-2.335801601409912,-97,9979.0
12330,0.35164955258369446,-2.02186918258667,-78,7014.0,5.689259052276611,176,9979.0
12340,0.3515743315219879,-1.1410343647003174,-77,7014.0,6.7912821769714355,118,9979.0
12350,0.35166871547698975,-4.724995136260986,118,7014.0,13.028675079345703,227,9979.0
12360,0.3515620231628418,-0.5033349990844727,-137,7014.0,4.152841567993164,61,9979.0
12370,0.3514898419380188,-2.588265895843506,-3,7014.0,3.6458334922790527,100,9979.0
12380,0.35136672854423523,-3.684903383255005,-91,7014.0,1.13211190700531,-186,9979.0
12390,0.3511927127838135,-3.821216583251953,-12,7014.0,-3.6492760181427,164,9979.0
12400,0.35013237595558167,-0.19015228748321533,68,7014.0,-6.695384979248047,-190,9979.0
12410,0.3499164581298828,-0.35978907346725464,-35,7014.0,-3.4015285968780518,-21,9979.0
12420,0.3497268557548523,1.8839401006698608,58,7014.0,-4.35250186920166,-141,9979.0
12430,0.34953418374061584,6.114370822906494,17,7014.0,-5.207060813903809,64,9979.0
12440,0.35075661540031433,2.216637372970581,176,7014.0,3.3672468662261963,7,9979.0
12450,0.3506111800670624,4.799234390258789,34,7014.0,2.3740453720092773,63,9979.0
12460,0.3504694104194641,6.470067024230957,138,7014.0,2.5687592029571533,43,9979.0
12470,0.3503440320491791,4.736886978149414,-46,7014.0,4.5710978507995605,120,9979.0
12480,0.35020872950553894,2.09852933883667,176,7014.0,5.972491264343262,144,9979.0
12490,0.3499544560909271,1.8849209547042847,-17,7014.0,1.947955846786499,25,9979.0
12500,0.3497408330440521,-2.378509283065796,30,7014.0,2.6901280879974365,22,9979.0
12510,0.3494899570941925,-2.4310553073883057,-183,7014.0,-1.410634160041809,-76,9979.0
12520,0.3492330312728882,-3.523557186126709,-5,7014.0,0.03786974772810936,-1,9979.0
12530,0.35021665692329407,-3.3950932025909424,-103,7014.0,-4.609580039978027,-127,9979.0
12540,0.3501100540161133,-3.425929069519043,47,7014.0,-5.8618574142456055,-12,9979.0
12550,0.34998658299446106,-2.538479804992676,-105,7014.0,0.8547523617744446,-156,9979.0
12560,0.3498300313949585,-0.5419257283210754,-25,7014.0,1.2125093936920166,109,9979.0
12570,0.3497852385044098,1.1263054609298706,41,7014.0,1.7984856367111206,-84,9979.0
12580,0.3496165871620178,1.7321224212646484,10,7014.0,5.173526287078857,338,9979.0
12590,0.3494685888290405,2.096237897872925,161,7014.0,3.1267495155334473,-70,9979.0
12600,0.34930554032325745,3.9788424968719482,19,7014.0,6.167580604553223,61,9979.0
12610,0.3490804135799408,0.9773448705673218,70,7014.0,6.090326309204102,251,9979.0
12620,0.3479824364185333,-0.5352912545204163,-153,7014.0,4.713990211486816,177,9979.0
12630,0.34764644503593445,-1.9893996715545654,94,7014.0,4.108757019042969,160,9979.0
12640,0.3473132252693176,-1.964247703552246,-84,7014.0,5.1598052978515625,96,9979.0
12650,0.3470354676246643,-2.0643720626831055,60,7014.0,4.2055816650390625,276,9979.0
12660,0.3464268445968628,-5.014425754547119,-140,7014.0,4.906130313873291,-20,9979.0
12670,0.3460436165332794,-0.28240546584129333,-46,7014.0,1.0492205619812012,146,9979.0
12680,0.34565046429634094,-3.033834457397461,-59,7014.0,1.0356121063232422,-77,9979.0
12690,0.3452821671962738,-2.1055567264556885,-116,7014.0,-3.7500109672546387,64,9979.0
12700,0.34491175413131714,-3.085148572921753,76,7014.0,-5.223515510559082,-107,9979.0
12710,0.3462097644805908,-2.391280174255371,-133,7014.0,-7.044450759887695,-146,9979.0
12720,0.3459036648273468,-5.416107654571533,-50,7014.0,-3.6151018142700195,-22,9979.0
12730,0.34556615352630615,-2.458571195602417,-131,7014.0,-2.139885663986206,-128,9979.0
12740,0.3452150225639343,-1.8825409412384033,163,7014.0,-2.094189167022705,187,9979.0
12750,0.3449050486087799,1.7883824110031128,-14,7014.0,5.091567516326904,55,9979.0
12760,0.34453102946281433,-2.3657827377319336,63,7014.0,4.33286714553833,164,9979.0
12770,0.3441431522369385,-0.71051424741745,-58,7014.0,7.065580368041992,75,9979.0
12780,0.34373849630355835,1.9185597896575928,-77,7014.0,-0.9292216300964355,59,9979.0
12790,0.3439914882183075,3.084834098815918,39,7014.0,6.366244792938232,133,9979.0
12800,0.3436066508293152,1.1157976388931274,-89,7014.0,5.406606674194336,-64,9979.0
12810,0.3432077467441559,0.7359704971313477,226,7014.0,0.8838297724723816,203,9979.0
12820,0.34287357330322266,-3.5609803199768066,-90,7014.0,1.1278172731399536,-39,9979.0
12830,0.3425517678260803,-3.275176525115967,-6,7014.0,3.057682752609253,117,9979.0
12840,0.34242719411849976,-1.5026979446411133,-24,7014.0,4.354798316955566,-44,9979.0
12850,0.34215235710144043,0.18376535177230835,-169,7014.0,4.208050727844238,29,9979.0
12860,0.34187525510787964,1.7185178995132446,63,7014.0,0.08424664288759232,44,9979.0
12870,0.34160491824150085,-3.045172691345215,-67,7014.0,-0.6584736108779907,-171,9979.0
12880,0.3415868282318115,-0.7097512483596802,-20,7014.0,-4.327147960662842,-31,9979.0
12890,0.34129706025123596,-1.825762152671814,-16,7014.0,-6.476682186126709,-228,9979.0
12900,0.3410091996192932,0.36145663261413574,-158,7014.0,-9.944790840148926,-22,9979.0
12910,0.3407312333583832,0.011145971715450287,28,7014.0,-3.5349771976470947,-54,9979.0
12920,0.34044092893600464,0.07829829305410385,-103,7014.0,-2.2326347827911377,-113,9979.0
12930,0.34114325046539307,-3.257246732711792,-16,7014.0,2.789620876312256,119,9979.0
12940,0.34087005257606506,-5.353633403778076,4,7014.0,3.5479438304901123,-58,9979.0
12950,0.3405733108520508,-3.1280977725982666,-207,7014.0,5.866622447967529,219,9979.0
12960,0.3403421938419342,-6.6901655197143555,-43,7014.0,6.0745038986206055,88,9979.0
12970,0.34046897292137146,-4.909067153930664,-237,7014.0,5.650322914123535,-97,9979.0
12980,0.3402370810508728,-1.5503085851669312,-58,7014.0,1.033219337463379,198,9979.0
12990,0.340089350938797,2.9184069633483887,172,7014.0,5.272703647613525,35,9979.0
13000,0.3399387001991272,3.250354528427124,80,7014.0,-0.08038529008626938,-86,9979.0
13010,0.33984991908073425,6.349019527435303,138,7014.0,-1.3662712574005127,41,9979.0
13020,0.3397213816642761,10.396270751953125,213,7014.0,-2.88253116607666,-138,9979.0
13030,0.3396546244621277,12.362324714660645,77,7014.0,-5.19099235534668,-140,9979.0
13040,0.3395656943321228,9.476203918457031,233,7014.0,-7.88093376159668,-14,9979.0
13050,0.33948028087615967,6.471726417541504,87,7014.0,-4.228025436401367,-101,9979.0
13060,0.3396148383617401,4.196565628051758,84,7014.0,-2.2564494609832764,138,9979.0
13070,0.3395528197288513,1.4900833368301392,34,7014.0,-1.1205371618270874,-150,9979.0
13080,0.33946624398231506,0.9269415140151978,-67,7014.0,-2.999701738357544,-4,9979.0
13090,0.3393356502056122,-1.083029866218567,-10,7014.0,-0.5955153107643127,38,9979.0
13100,0.3391572833061218,-3.044206142425537,-147,7014.0,5.140873908996582,51,9979.0
13110,0.3390254080295563,-2.2687759399414062,70,7014.0,5.963260173797607,236,9979.0
13120,0.33890536427497864,-2.0975699424743652,-13,7014.0,6.388246536254883,-4,9979.0
13130,0.33881333470344543,0.13597214221954346,-31,7014.0,6.191957473754883,154,9979.0
13140,0.3386947512626648,1.5323179960250854,81,7014.0,3.3872880935668945,158,9979.0
13150,0.3399257957935333,5.044707775115967,-27,7014.0,1.6248451471328735,-73,9979.0
13160,0.3398906886577606,5.4079718589782715,194,7014.0,-3.428950071334839,102,9979.0
13170,0.33991360664367676,3.3178632259368896,177,7014.0,-2.164851665496826,-251,9979.0
13180,0.33988046646118164,4.3253092765808105,30,7014.0,-3.536860466003418,-69,9979.0
13190,0.3403390645980835,3.284158945083618,116,7014.0,-2.7457222938537598,-66,9979.0
13200,0.3403299152851105,6.3149285316467285,-20,7014.0,-3.6403629779815674,-125,9979.0
13210,0.3403061628341675,3.2140283584594727,67,7014.0,-3.6196112632751465,146,9979.0
13220,0.34011954069137573,3.2438223361968994,48,7014.0,-2.6318166255950928,-82,9979.0
13230,0.33926478028297424,5.08283805847168,-13,7014.0,0.7069997787475586,61,9979.0
13240,0.33910462260246277,7.30936861038208,128,7014.0,-0.04853469878435135,-13,9979.0
13250,0.338957816362381,6.747849941253662,28,7014.0,3.750559091567993,-59,9979.0
13260,0.33885061740875244,10.23085880279541,405,7014.0,4.435626029968262,152,9979.0
13270,0.33873850107192993,8.858565330505371,142,7014.0,6.617715835571289,145,9979.0
13280,0.33870577812194824,9.071637153625488,30,7014.0,2.9129207134246826,41,9979.0
13290,0.3385792076587677,5.533087253570557,153,7014.0,4.278669834136963,-9,9979.0
13300,0.33859583735466003,3.5891122817993164,-99,7014.0,-2.762376546859741,-77,9979.0
13310,0.33856508135795593,3.027427911758423,173,7014.0,-10.441303253173828,-10,9979.0
13320,0.339157372713089,-0.6119519472122192,61,7014.0,-2.7703206539154053,-187,9979.0
13330,0.3392282724380493,1.119340181350708,14,7014.0,-6.905819892883301,-15,9979.0
13340,0.3392932713031769,-0.3731572926044464,85,7014.0,-2.638221263885498,-159,9979.0
13350,0.33937183022499084,2.281935453414917,-156,7014.0,0.6839566826820374,35,9979.0
13360,0.33943474292755127,4.271030902862549,84,7014.0,-0.10667340457439423,93,9979.0
13370,0.340603232383728,1.7823878526687622,19,7014.0,3.037785530090332,1,9979.0
13380,0.3407334089279175,1.036712408065796,134,7014.0,4.1147990226745605,193,9979.0
13390,0.34089183807373047,2.112103223800659,-90,7014.0,4.952179908752441,-41,9979.0
13400,0.34107497334480286,2.53102970123291,52,7014.0,1.9835340976715088,42,9979.0
13410,0.34034663438796997,1.060660481452942,31,7014.0,5.425405502319336,60,9979.0
13420,0.3404824435710907,-1.0223585367202759,-25,7014.0,3.164295196533203,44,9979.0
13430,0.3406004309654236,-3.56689190864563,15,7014.0,1.0195780992507935,91,9979.0
13440,0.3407728672027588,-1.9260458946228027,-161,7014.0,-0.8600332736968994,-25,9979.0
13450,0.3405602276325226,-1.9153214693069458,146,7014.0,-2.535414695739746,20,9979.0
13460,0.3407030999660492,2.578967332839966,58,7014.0,1.3214136362075806,-29,9979.0
13470,0.34079962968826294,4.485813140869141,104,7014.0,-0.13232405483722687,67,9979.0
13480,0.34087419509887695,6.222706317901611,39,7014.0,-1.090261459350586,-216,9979.0
13490,0.3409535884857178,5.805023670196533,125,7014.0,-6.705932140350342,23,9979.0
13500,0.3398756980895996,2.985440254211426,59,7014.0,-3.879882574081421,-50,9979.0
13510,0.3399433493614197,-0.48108309507369995,-28,7014.0,-3.294384479522705,-79,9979.0
13520,0.340038537979126,-3.0903046131134033,-11,7014.0,-2.2421858310699463,-173,9979.0
13530,0.3400908410549164,-2.6651692390441895,-178,7014.0,-11.467482566833496,-222,9979.0
13540,0.340416818857193,-8.097285270690918,-51,7014.0,1.9520970582962036,-7,9979.0
13550,0.3403630554676056,-4.4202704429626465,-102,7014.0,3.5284767150878906,169,9979.0
13560,0.34032976627349854,-4.303077697753906,149,7014.0,4.138726711273193,-72,9979.0
13570,0.34033137559890747,-7.235347747802734,-143,7014.0,4.330934047698975,-55,9979.0
13580,0.34035754203796387,-4.645651817321777,-52,7014.0,1.6741163730621338,16,9979.0
13590,0.3389904797077179,-2.6851682662963867,-170,7014.0,1.4676008224487305,-18,9979.0
13600,0.33887979388237,-6.292821884155273,7,7014.0,-1.2530275583267212,117,9979.0
13610,0.3387584686279297,-3.8635804653167725,-97,7014.0,-3.3404054641723633,-149,9979.0
13620,0.338654100894928,-3.3856985569000244,-26,7014.0,-5.87544584274292,-33,9979.0
13630,0.3387264311313629,0.37027686834335327,-81,7014.0,-4.172072887420654,-213,9979.0
13640,0.33869868516921997,-1.7416762113571167,-9,7014.0,-4.647058010101318,100,9979.0
13650,0.33866679668426514,-4.682229518890381,20,7014.0,-3.6527810096740723,-114,9979.0
13660,0.33863526582717896,-1.6361463069915771,-24,7014.0,-1.605506181716919,31,9979.0
13670,0.3383733928203583,-3.291527271270752,58,7014.0,-3.6919748783111572,-157,9979.0
13680,0.33833804726600647,-0.42411109805107117,-157,7014.0,5.471879005432129,117,9979.0
13690,0.33830028772354126,-2.3061814308166504,27,7014.0,2.4986562728881836,42,9979.0
13700,0.338228315114975,-0.991657018661499,-64,7014.0,-1.1298413276672363,-3,9979.0
13710,0.3381770849227905,-2.3606128692626953,130,7014.0,-1.363366723060608,22,9979.0
13720,0.33687955141067505,-1.8241732120513916,-149,7014.0,-2.4623866081237793,-112,9979.0
13730,0.33687153458595276,-2.642613410949707,-31,7014.0,-4.7823896408081055,-66,9979.0
13740,0.33690184354782104,-4.282161235809326,-167,7014.0,-3.481717109680176,-112,9979.0
13750,0.3369430601596832,-4.785937786102295,29,7014.0,-4.148648738861084,87,9979.0
13760,0.33578091859817505,-3.8858416080474854,-81,7014.0,-4.860561847686768,-172,9979.0
13770,0.33570346236228943,-3.1613121032714844,-25,7014.0,-5.707159042358398,7,9979.0
13780,0.33567264676094055,-3.7865684032440186,-152,7014.0,-6.456849575042725,-211,9979.0
13790,0.3356977105140686,-4.521536827087402,-38,7014.0,2.203882932662964,147,9979.0
13800,0.3346615433692932,0.2737925052642822,-14,7014.0,4.303585529327393,64,9979.0
13810,0.33468905091285706,0.010818378068506718,22,7014.0,-0.5601220726966858,150,9979.0
13820,0.33473142981529236,-0.8529689908027649,-19,7014.0,-1.5078922510147095,-256,9979.0
13830,0.3346984088420868,2.875473976135254,56,7014.0,-1.3252625465393066,134,9979.0
13840,0.33467626571655273,-1.9984761476516724,-61,7014.0,5.44904899597168,-15,9979.0
13850,0.3339809775352478,-4.939550399780273,36,7014.0,1.9891961812973022,108,9979.0
13860,0.3341580629348755,-5.9732985496521,-119,7014.0,1.1865793466567993,-182,9979.0
13870,0.3343191146850586,-8.496971130371094,-178,7014.0,-2.5799427032470703,18,9979.0
13880,0.3343927562236786,-8.164779663085938,-187,7014.0,-3.1553266048431396,-143,9979.0
13890,0.33429786562919617,-6.763493537902832,-39,7014.0,-4.365809917449951,79,9979.0
13900,0.3343200981616974,-7.338778495788574,-144,7014.0,-3.2407877445220947,-28,9979.0
13910,0.3343648314476013,-7.188928127288818,-75,7014.0,0.24262788891792297,122,9979.0
13920,0.33449652791023254,-4.184167385101318,-246,7014.0,2.7494425773620605,18,9979.0
13930,0.3346695303916931,-8.922325134277344,-53,7014.0,0.7491825222969055,80,9979.0
13940,0.3350317180156708,-6.623096466064453,-140,7014.0,-0.1955280601978302,37,9979.0
13950,0.3353191316127777,-7.80069637298584,5,7014.0,3.7697994709014893,13,9979.0
13960,0.335620254278183,-7.212498188018799,-264,7014.0,2.342801332473755,20,9979.0
13970,0.335907518863678,-6.48471736907959,-43,7014.0,3.3446409702301025,28,9979.0
13980,0.3359344005584717,-2.6992361545562744,-65,7014.0,-0.48178938031196594,-4,9979.0
13990,0.3362440764904022,-2.8058021068573,-73,7014.0,-1.6336783170700073,-83,9979.0
14000,0.3365810811519623,-2.4917490482330322,-31,7014.0,-2.6698291301727295,4,9979.0
14010,0.3369520604610443,-1.8791223764419556,0,7014.0,0.4493780732154846,21,9979.0
14020,0.33721014857292175,-2.5833849906921387,-4,7014.0,-2.4777328968048096,-104,9979.0
14030,0.3376234471797943,0.6468319892883301,-58,7014.0,-0.33193570375442505,-121,9979.0
14040,0.3380349576473236,0.20117811858654022,112,7014.0,-0.6594100594520569,170,9979.0
14050,0.3383781909942627,-0.02743235044181347,-24,7014.0,1.9880226850509644,11,9979.0
14060,0.33866557478904724,-1.584981918334961,-12,7014.0,-1.569063425064087,59,9979.0
14070,0.3374096155166626,2.843280792236328,-38,7014.0,1.9894872903823853,86,9979.0
14080,0.3375154733657837,-0.2925231158733368,120,7014.0,3.787059783935547,111,9979.0
14090,0.3376373052597046,-1.5893359184265137,-123,7014.0,2.878664493560791,39,9979.0
14100,0.3377716541290283,-3.209994077682495,-15,7014.0,5.089112281799316,55,9979.0
14110,0.3379700183868408,-1.6744638681411743,-69,7014.0,1.7618221044540405,81,9979.0
14120,0.33804747462272644,-3.8680219650268555,64,7014.0,2.752476930618286,-113,9979.0
14130,0.33806151151657104,0.5634216070175171,-130,7014.0,-1.694841742515564,36,9979.0
14140,0.33800655603408813,-1.24045991897583,21,7014.0,-1.7703783512115479,-66,9979.0
14150,0.335185706615448,1.404059886932373,-18,7014.0,-1.478987455368042,99,9979.0
14160,0.33493536710739136,2.092851400375366,95,7014.0,-3.007364511489868,-202,9979.0
14170,0.33471208810806274,3.1204495429992676,-50,7014.0,-0.3743804693222046,-3,9979.0
14180,0.33448898792266846,4.770135402679443,181,7014.0,-1.5640242099761963,62,9979.0
14190,0.3343804180622101,6.518336772918701,150,7014.0,1.5964909791946411,38,9979.0
