timestamp,kalman.stateZ,gyro.x,gyro.xRaw,gyro.xVariance,gyro.y,gyro.yRaw,gyro.yVariance
0,0.3084103763103485,-1.4938966035842896,-15,7489.0,5.001705169677734,56,7565.0
10,0.3086467683315277,0.9058706164360046,34,7489.0,-0.44242388010025024,-30,7565.0
20,0.3087148666381836,4.513457298278809,85,7489.0,-5.674625873565674,-112,7565.0
30,0.30873292684555054,6.14967679977417,105,7489.0,-10.1301851272583,-187,7565.0
40,0.3100254237651825,5.045921325683594,80,7489.0,-14.231952667236328,-247,7565.0
50,0.3101426661014557,3.4876437187194824,41,7489.0,-15.495007514953613,-251,7565.0
60,0.31023359298706055,-1.3152574300765991,-41,7489.0,-12.462615013122559,-188,7565.0
70,0.31033873558044434,-4.631308555603027,-93,7489.0,-8.007688522338867,-111,7565.0
80,0.31038492918014526,-6.289864540100098,-100,7489.0,-3.5147736072540283,-29,7565.0
90,0.31044554710388184,-4.913051128387451,-64,7489.0,0.043569426983594894,6,7565.0
100,0.31050270795822144,-1.0887690782546997,5,7489.0,0.5254233479499817,10,7565.0
110,0.3105679750442505,2.769939661026001,52,7489.0,-0.5065373182296753,-16,7565.0
120,0.31064093112945557,4.2675347328186035,73,7489.0,-3.5245745182037354,-71,7565.0
130,0.3098314106464386,4.1544976234436035,62,7489.0,-6.325462341308594,-127,7565.0
140,0.3099144399166107,1.3034738302230835,-5,7489.0,-9.652953147888184,-182,7565.0
150,0.31004154682159424,-2.893965005874634,-59,7489.0,-13.274580001831055,-232,7565.0
160,0.310245156288147,-4.278665065765381,-76,7489.0,-16.11724090576172,-276,7565.0
170,0.31038519740104675,-4.312498569488525,-60,7489.0,-19.177265167236328,-330,7565.0
180,0.30882716178894043,-2.9178483486175537,-24,7489.0,-21.63482093811035,-373,7565.0
190,0.3089057207107544,1.5243608951568604,32,7489.0,-26.878662109375,-490,7565.0
200,0.3089101314544678,4.5380072593688965,102,7489.0,-35.41996765136719,-653,7565.0
210,0.30903181433677673,6.404598712921143,90,7489.0,-45.3737678527832,-789,7565.0
220,0.30988937616348267,10.25352954864502,160,7489.0,-55.39840316772461,-1001,7565.0
230,0.30987271666526794,8.39956283569336,168,7489.0,-64.89173126220703,-1074,7565.0
240,0.3097813129425049,8.607646942138672,128,7489.0,-66.11853790283203,-1047,7565.0
250,0.3100404441356659,9.062918663024902,107,7489.0,-58.21860122680664,-870,7565.0
260,0.3098115026950836,6.913379669189453,62,7489.0,-47.748416900634766,-734,7565.0
270,0.3103443384170532,0.7857239842414856,-74,7489.0,-37.7331428527832,-541,7565.0
280,0.3100050985813141,-4.845152854919434,-204,7489.0,-21.864503860473633,-225,7565.0
290,0.3105601668357849,-12.544642448425293,-221,7489.0,-5.371184825897217,-32,7565.0
300,0.31038880348205566,-15.856912612915039,-165,7489.0,8.147170066833496,111,7565.0
310,0.31018000841140747,-5.583877086639404,-91,7489.0,8.751981735229492,98,7565.0
320,0.31009820103645325,5.554849624633789,139,7489.0,2.384816884994507,-36,7565.0
330,0.3100280165672302,14.745213508605957,256,7489.0,-14.641536712646484,-213,7565.0
340,0.31002724170684814,19.049358367919922,395,7489.0,-22.546646118164062,-490,7565.0
350,0.31094926595687866,21.165512084960938,297,7489.0,-39.67985916137695,-619,7565.0
360,0.31125015020370483,15.808847427368164,259,7489.0,-52.42280197143555,-1028,7565.0
370,0.3114750385284424,11.209543228149414,121,7489.0,-67.7402572631836,-1060,7565.0
380,0.3119778335094452,-2.2505345344543457,-31,7489.0,-78.51568603515625,-1321,7565.0
390,0.3119741380214691,-11.753503799438477,-256,7489.0,-88.61695098876953,-1586,7565.0
400,0.3117399215698242,-18.467626571655273,-319,7489.0,-95.15370178222656,-1553,7565.0
410,0.3114754855632782,-17.62708282470703,-328,7489.0,-87.17279052734375,-1203,7565.0
420,0.3122412860393524,-11.982874870300293,-162,7489.0,-55.66012954711914,-650,7565.0
430,0.3129183053970337,-4.050281524658203,-71,7489.0,-14.53830623626709,162,7565.0
440,0.31882935762405396,10.53450870513916,162,7489.0,32.067073822021484,884,7565.0
450,0.3198791444301605,16.987470626831055,217,7489.0,75.55736541748047,1499,7565.0
460,0.32027706503868103,20.222286224365234,201,7489.0,102.85127258300781,1868,7565.0
470,0.32106471061706543,2.117814540863037,-27,7489.0,111.68941497802734,1840,7565.0
480,0.3199358582496643,-4.887827396392822,-180,7489.0,110.43512725830078,1867,7565.0
490,0.31975165009498596,-10.83205509185791,-259,7489.0,98.75865936279297,1689,7565.0
500,0.3209780752658844,-10.339373588562012,-192,7489.0,69.00911712646484,1141,7565.0
510,0.320812463760376,-2.1182594299316406,18,7489.0,26.992517471313477,355,7565.0
520,0.32164785265922546,4.397078037261963,131,7489.0,-16.192546844482422,-465,7565.0
530,0.3185080289840698,5.64321756362915,114,7489.0,-58.316566467285156,-1112,7565.0
540,0.31917986273765564,1.965041160583496,11,7489.0,-89.61278533935547,-1518,7565.0
550,0.3199576437473297,-4.593288898468018,-63,7489.0,-108.33660888671875,-1813,7565.0
560,0.32065755128860474,-8.450020790100098,-52,7489.0,-120.43598937988281,-2149,7565.0
570,0.3195604383945465,-2.091280937194824,18,7489.0,-126.21696472167969,-2252,7565.0
580,0.32156166434288025,-4.307209014892578,-18,7489.0,-129.23817443847656,-2006,7565.0
590,0.3214606046676636,1.1521625518798828,88,7489.0,-112.08183288574219,-1579,7565.0
600,0.3220348060131073,11.83394718170166,281,7489.0,-72.87538146972656,-1080,7565.0
610,0.3233131766319275,21.076740264892578,309,7489.0,-18.388099670410156,89,7565.0
620,0.32971668243408203,10.71269702911377,139,7489.0,46.87788391113281,978,7565.0
630,0.33220070600509644,2.730088472366333,-15,7489.0,112.85884857177734,2105,7565.0
640,0.3339769244194031,-4.742687225341797,-123,7489.0,155.97735595703125,2756,7565.0
650,0.3358375132083893,-3.979870557785034,-17,7489.0,177.3183135986328,3066,7565.0
660,0.3330482542514801,0.35525691509246826,-50,7489.0,179.05075073242188,3082,7565.0
670,0.33361658453941345,1.1556857824325562,-69,7489.0,166.27191162109375,2737,7565.0
680,0.333619624376297,-0.8437603116035461,-116,7489.0,133.99197387695312,2070,7565.0
690,0.33322441577911377,-0.2966073155403137,-36,7489.0,86.6556167602539,1165,7565.0
700,0.3273085951805115,-3.2170557975769043,36,7489.0,28.674701690673828,114,7565.0
710,0.3274992108345032,-5.323263168334961,-45,7489.0,-25.07004165649414,-764,7565.0
720,0.3289295732975006,-5.003812313079834,-3,7489.0,-69.52483367919922,-1521,7565.0
730,0.3314637839794159,-4.0428948402404785,69,7489.0,-111.85427856445312,-2177,7565.0
740,0.3326059877872467,0.432817280292511,64,7489.0,-146.29197692871094,-2677,7565.0
750,0.32766270637512207,-2.1545352935791016,11,7489.0,-173.94189453125,-2879,7565.0
760,0.3286646008491516,-3.4599223136901855,-32,7489.0,-171.39002990722656,-2734,7565.0
770,0.32991164922714233,3.783252239227295,140,7489.0,-149.30540466308594,-2355,7565.0
780,0.33271095156669617,11.637227058410645,180,7489.0,-112.84942626953125,-1344,7565.0
790,0.32900649309158325,7.319180965423584,106,7489.0,-56.82761001586914,-561,7565.0
800,0.33069944381713867,1.95455002784729,3,7489.0,0.42357632517814636,372,7565.0
810,0.3316785395145416,-1.0054354667663574,-25,7489.0,52.870849609375,1090,7565.0
820,0.3329119384288788,-2.82846999168396,-111,7489.0,95.93191528320312,1921,7565.0
830,0.3329174518585205,-4.624729156494141,-80,7489.0,123.17839813232422,2144,7565.0
840,0.33157941699028015,-6.691171169281006,-65,7489.0,137.044189453125,2280,7565.0
850,0.33118492364883423,-5.109593868255615,-108,7489.0,131.6253204345703,2089,7565.0
860,0.331013560295105,-2.5960450172424316,-50,7489.0,109.52230834960938,1685,7565.0
870,0.3326163589954376,-3.6087257862091064,18,7489.0,78.94828796386719,1022,7565.0
880,0.32467377185821533,-4.918456554412842,-134,7489.0,36.454986572265625,351,7565.0
890,0.3248613476753235,-9.106022834777832,-185,7489.0,-11.647061347961426,-425,7565.0
900,0.32525840401649475,-14.333197593688965,-175,7489.0,-58.2492561340332,-1350,7565.0
910,0.3256743848323822,-9.58557415008545,-159,7489.0,-106.1357650756836,-1976,7565.0
920,0.3229072690010071,-11.032573699951172,-143,7489.0,-144.07505798339844,-2587,7565.0
930,0.3235178589820862,-9.846556663513184,-231,7489.0,-162.39820861816406,-2586,7565.0
940,0.3240426778793335,-8.192756652832031,45,7489.0,-143.48843383789062,-2214,7565.0
950,0.3265799880027771,6.498717784881592,150,7489.0,-115.9161148071289,-1722,7565.0
960,0.32640236616134644,17.887298583984375,308,7489.0,-76.26882934570312,-993,7565.0
970,0.32827380299568176,25.028583526611328,456,7489.0,-23.243228912353516,-311,7565.0
980,0.32954102754592896,23.4934139251709,314,7489.0,24.29958724975586,754,7565.0
990,0.3304632008075714,17.620216369628906,209,7489.0,70.8603744506836,1350,7565.0
1000,0.33139505982398987,3.0456655025482178,-28,7489.0,110.80147552490234,1952,7565.0
1010,0.3319196403026581,-10.083796501159668,-185,7489.0,137.18699645996094,2124,7565.0
1020,0.33207592368125916,-18.75002098083496,-366,7489.0,144.4136505126953,2280,7565.0
1030,0.3332270085811615,-21.476213455200195,-397,7489.0,136.0564727783203,2076,7565.0
1040,0.33341163396835327,-14.961750984191895,-184,7489.0,109.67408752441406,1587,7565.0
1050,0.32651790976524353,-15.61426830291748,-180,7489.0,73.3880386352539,833,7565.0
1060,0.32752570509910583,-10.057493209838867,-43,7489.0,24.4180850982666,94,7565.0
1070,0.3289295732975006,-0.056885115802288055,55,7489.0,-26.003116607666016,-770,7565.0
1080,0.3303080201148987,9.883615493774414,153,7489.0,-78.80904388427734,-1596,7565.0
1090,0.33279937505722046,10.966449737548828,180,7489.0,-125.97724914550781,-2184,7565.0
1100,0.3272545039653778,5.070116996765137,-3,7489.0,-149.51318359375,-2323,7565.0
1110,0.329051673412323,-5.192795753479004,-168,7489.0,-152.5607452392578,-2358,7565.0
1120,0.33007994294166565,-11.6400785446167,-145,7489.0,-124.27494049072266,-1744,7565.0
1130,0.3303126096725464,-3.0754082202911377,-29,7489.0,-90.6032485961914,-1265,7565.0
1140,0.3295735716819763,-2.1351206302642822,22,7489.0,-45.04859924316406,-614,7565.0
1150,0.3302299380302429,-2.6289334297180176,-76,7489.0,3.9841420650482178,206,7565.0
1160,0.33098870515823364,5.791991233825684,149,7489.0,49.74724197387695,1145,7565.0
1170,0.331946462392807,10.155022621154785,184,7489.0,96.7916259765625,1762,7565.0
1180,0.33237722516059875,13.431230545043945,274,7489.0,122.36441802978516,1984,7565.0
1190,0.3313218355178833,13.68781566619873,193,7489.0,130.48487854003906,2118,7565.0
1200,0.33142274618148804,5.046248435974121,103,7489.0,131.41201782226562,1892,7565.0
1210,0.3309938907623291,-5.506185054779053,-74,7489.0,117.95492553710938,1685,7565.0
1220,0.33004674315452576,-12.802998542785645,-219,7489.0,90.44271087646484,1359,7565.0
1230,0.32544681429862976,-18.041513442993164,-291,7489.0,52.51795196533203,757,7565.0
1240,0.3264397382736206,-14.266846656799316,-267,7489.0,6.198058128356934,16,7565.0
1250,0.3269002437591553,-5.762292385101318,-94,7489.0,-38.54093551635742,-785,7565.0
1260,0.3282302916049957,6.701315879821777,98,7489.0,-81.76556396484375,-1530,7565.0
1270,0.3232419490814209,16.021682739257812,260,7489.0,-118.68834686279297,-2055,7565.0
1280,0.32404521107673645,9.399179458618164,103,7489.0,-133.0322265625,-2115,7565.0
1290,0.32487931847572327,-2.1481826305389404,-83,7489.0,-131.6353302001953,-2094,7565.0
1300,0.3250860571861267,-7.389395236968994,-190,7489.0,-111.91449737548828,-1521,7565.0
1310,0.32570621371269226,-3.4944708347320557,-11,7489.0,-81.16006469726562,-975,7565.0
1320,0.32860010862350464,3.9572551250457764,112,7489.0,-41.46067810058594,-466,7565.0
1330,0.32943519949913025,13.593328475952148,360,7489.0,16.147966384887695,463,7565.0
1340,0.3301531672477722,26.252559661865234,497,7489.0,70.84192657470703,1270,7565.0
1350,0.3314799964427948,34.857513427734375,512,7489.0,113.46819305419922,2070,7565.0
1360,0.33161959052085876,28.66405487060547,371,7489.0,133.30494689941406,2367,7565.0
1370,0.33135733008384705,0.20310819149017334,-233,7489.0,133.85011291503906,2185,7565.0
1380,0.33103883266448975,-35.36661148071289,-728,7489.0,119.4530258178711,1991,7565.0
1390,0.3307492136955261,-48.61445617675781,-812,7489.0,86.1257553100586,990,7565.0
1400,0.3321601450443268,-46.548492431640625,-629,7489.0,40.6295166015625,300,7565.0
1410,0.3262561857700348,-32.226280212402344,-504,7489.0,-8.49532413482666,-210,7565.0
1420,0.32618069648742676,-9.908775329589844,51,7489.0,-44.542503356933594,-998,7565.0
1430,0.3266574740409851,11.751043319702148,264,7489.0,-70.84028625488281,-1290,7565.0
1440,0.32723239064216614,21.400516510009766,440,7489.0,-84.3921890258789,-1562,7565.0
1450,0.3225618302822113,26.848276138305664,363,7489.0,-96.73860168457031,-1469,7565.0
1460,0.32283449172973633,15.803627014160156,114,7489.0,-98.95376586914062,-1560,7565.0
1470,0.32298845052719116,1.3010339736938477,-29,7489.0,-84.03596496582031,-1006,7565.0
1480,0.32451945543289185,1.4555097818374634,110,7489.0,-49.36911392211914,-628,7565.0
1490,0.3252401649951935,8.460451126098633,87,7489.0,-15.882452011108398,-229,7565.0
1500,0.3262489438056946,13.03675651550293,274,7489.0,11.525079727172852,420,7565.0
1510,0.3266355097293854,23.955141067504883,440,7489.0,49.04734420776367,992,7565.0
1520,0.3266921043395996,24.7669620513916,263,7489.0,83.8341293334961,1564,7565.0
1530,0.32677510380744934,8.282047271728516,-42,7489.0,106.4805908203125,1908,7565.0
1540,0.32604268193244934,-13.198274612426758,-317,7489.0,110.82280731201172,1937,7565.0
1550,0.32563164830207825,-23.11176300048828,-463,7489.0,101.19727325439453,1642,7565.0
1560,0.32462865114212036,-14.474990844726562,-54,7489.0,78.06776428222656,1083,7565.0
1570,0.3257834315299988,3.5341179370880127,251,7489.0,50.53421401977539,570,7565.0
1580,0.32266733050346375,26.531465530395508,444,7489.0,25.345169067382812,427,7565.0
1590,0.32204800844192505,33.59209442138672,523,7489.0,7.205631732940674,68,7565.0
1600,0.3224588632583618,27.956825256347656,394,7489.0,-12.315855979919434,-245,7565.0
1610,0.3230213224887848,14.446699142456055,83,7489.0,-36.85275650024414,-847,7565.0
1620,0.32332903146743774,-5.259962558746338,-132,7489.0,-68.6115493774414,-1302,7565.0
1630,0.3213750422000885,-26.69354248046875,-508,7489.0,-97.52257537841797,-1734,7565.0
1640,0.32176026701927185,-48.764801025390625,-854,7489.0,-110.82201385498047,-1942,7565.0
1650,0.3219180703163147,-65.6606216430664,-1115,7489.0,-105.36515808105469,-1763,7565.0
1660,0.321792870759964,-66.79279327392578,-977,7489.0,-85.85259246826172,-1176,7565.0
1670,0.3201034665107727,-50.093833923339844,-770,7489.0,-44.330997467041016,-441,7565.0
1680,0.3195159435272217,-21.191133499145508,-169,7489.0,-0.8254673480987549,287,7565.0
1690,0.32131636142730713,12.610817909240723,262,7489.0,43.77827072143555,1011,7565.0
1700,0.3224087953567505,36.47574996948242,704,7489.0,83.740966796875,1635,7565.0
1710,0.3244536519050598,57.71322250366211,1077,7489.0,102.57826232910156,1674,7565.0
1720,0.32416200637817383,60.36902618408203,988,7489.0,106.86702728271484,1706,7565.0
1730,0.32426369190216064,52.74655532836914,862,7489.0,96.55152893066406,1296,7565.0
1740,0.32329481840133667,29.907777786254883,434,7489.0,70.66698455810547,1017,7565.0
1750,0.3225690722465515,-1.8288278579711914,-120,7489.0,37.8752326965332,362,7565.0
1760,0.31983503699302673,-17.07920265197754,-417,7489.0,2.440701961517334,-44,7565.0
1770,0.31979572772979736,-26.968616485595703,-544,7489.0,-34.484981536865234,-707,7565.0
1780,0.3204347491264343,-22.608501434326172,-273,7489.0,-71.30799102783203,-1433,7565.0
1790,0.32113105058670044,-16.195253372192383,-193,7489.0,-95.04308319091797,-1611,7565.0
1800,0.32033824920654297,-11.47986888885498,-61,7489.0,-109.70551300048828,-1999,7565.0
1810,0.3212929964065552,-1.8892236948013306,-31,7489.0,-128.3009033203125,-2032,7565.0
1820,0.3220128118991852,-4.107751369476318,-138,7489.0,-124.45421600341797,-1971,7565.0
1830,0.32272961735725403,-14.821404457092285,-339,7489.0,-101.1015625,-1518,7565.0
1840,0.323175847530365,-23.980369567871094,-333,7489.0,-59.37549591064453,-867,7565.0
1850,0.32645705342292786,-28.48714256286621,-477,7489.0,-14.554584503173828,-166,7565.0
1860,0.32736238837242126,-33.41438674926758,-596,7489.0,36.2876091003418,958,7565.0
1870,0.3293178379535675,-33.145164489746094,-489,7489.0,86.209716796875,1744,7565.0
1880,0.3309312164783478,-24.79925537109375,-423,7489.0,124.59394073486328,2300,7565.0
1890,0.333615243434906,-11.883423805236816,-93,7489.0,147.4621124267578,2456,7565.0
1900,0.3345351815223694,7.060619354248047,201,7489.0,141.3081817626953,2264,7565.0
1910,0.33492210507392883,31.117462158203125,654,7489.0,122.53291320800781,1743,7565.0
1920,0.33475977182388306,53.22039031982422,1058,7489.0,80.87344360351562,1059,7565.0
1930,0.329434871673584,71.6222152709961,1191,7489.0,26.6540470123291,352,7565.0
1940,0.3301210403442383,76.42638397216797,1132,7489.0,-20.422527313232422,-569,7565.0
1950,0.33028820157051086,58.48272705078125,862,7489.0,-57.11621856689453,-1205,7565.0
1960,0.3304695188999176,22.568988800048828,168,7489.0,-84.4338607788086,-1533,7565.0
1970,0.3263610899448395,-17.833839416503906,-340,7489.0,-103.04774475097656,-1771,7565.0
1980,0.3260248601436615,-43.53890609741211,-768,7489.0,-103.06596374511719,-1738,7565.0
1990,0.32548627257347107,-45.46866226196289,-656,7489.0,-82.43453216552734,-1299,7565.0
2000,0.3252887725830078,-34.699913024902344,-499,7489.0,-52.87308883666992,-905,7565.0
2010,0.3251723349094391,-16.278457641601562,-221,7489.0,-24.70998764038086,-88,7565.0
2020,0.3248468339443207,-4.406228065490723,0,7489.0,14.792661666870117,571,7565.0
2030,0.32534196972846985,14.642433166503906,276,7489.0,55.0803108215332,1281,7565.0
2040,0.32591933012008667,31.250370025634766,549,7489.0,88.84932708740234,1745,7565.0
2050,0.3260714113712311,32.05907440185547,433,7489.0,110.77838897705078,1946,7565.0
2060,0.3244837820529938,23.34581184387207,296,7489.0,118.47393798828125,2043,7565.0
2070,0.3244808316230774,3.382873296737671,-194,7489.0,106.21797943115234,1781,7565.0
2080,0.324007511138916,-30.98099136352539,-630,7489.0,88.79781341552734,1164,7565.0
2090,0.3234647810459137,-54.93174743652344,-917,7489.0,58.95961380004883,719,7565.0
2100,0.32475924491882324,-51.52806091308594,-770,7489.0,5.423702716827393,-188,7565.0
2110,0.3219199776649475,-33.79932403564453,-487,7489.0,-52.00422668457031,-1317,7565.0
2120,0.3225632607936859,-8.537761688232422,80,7489.0,-101.77071380615234,-1864,7565.0
2130,0.32316896319389343,18.31763458251953,335,7489.0,-138.52249145507812,-2346,7565.0
2140,0.3231150209903717,44.28912353515625,826,7489.0,-159.56585693359375,-2705,7565.0
2150,0.3213880658149719,63.19984436035156,1042,7489.0,-156.83908081054688,-2538,7565.0
2160,0.3201408386230469,68.54633331298828,1155,7489.0,-130.24459838867188,-1889,7565.0
2170,0.3191952109336853,58.178565979003906,963,7489.0,-91.83287811279297,-1399,7565.0
2180,0.32217520475387573,39.00193405151367,478,7489.0,-53.37018966674805,-583,7565.0
2190,0.3259795010089874,4.295385837554932,-58,7489.0,-9.837692260742188,181,7565.0
2200,0.3263992369174957,-19.770240783691406,-566,7489.0,38.041481018066406,851,7565.0
2210,0.32691559195518494,-47.84018325805664,-928,7489.0,79.9801254272461,1483,7565.0
2220,0.32646045088768005,-63.41698455810547,-1041,7489.0,108.58056640625,1698,7565.0
2230,0.3265000283718109,-63.853240966796875,-1077,7489.0,113.88835906982422,1820,7565.0
2240,0.3292003273963928,-65.8617172241211,-1157,7489.0,108.93013000488281,1801,7565.0
2250,0.32868438959121704,-59.47151565551758,-823,7489.0,91.41580200195312,1369,7565.0
2260,0.32792165875434875,-37.34732437133789,-376,7489.0,66.57839965820312,1033,7565.0
2270,0.3301142752170563,-7.422791481018066,-77,7489.0,44.954254150390625,741,7565.0
2280,0.3264492452144623,12.286855697631836,275,7489.0,20.999954223632812,82,7565.0
2290,0.3269166350364685,29.967819213867188,613,7489.0,-15.325019836425781,-360,7565.0
2300,0.3282698392868042,46.01642990112305,757,7489.0,-50.477725982666016,-851,7565.0
2310,0.32903751730918884,54.804115295410156,975,7489.0,-76.86671447753906,-1448,7565.0
2320,0.3256838321685791,58.60996627807617,950,7489.0,-96.6224136352539,-1804,7565.0
2330,0.32634472846984863,57.81847381591797,982,7489.0,-107.9671859741211,-1777,7565.0
2340,0.32665663957595825,53.52300262451172,960,7489.0,-98.56873321533203,-1624,7565.0
2350,0.32953575253486633,43.868133544921875,565,7489.0,-67.31189727783203,-949,7565.0
2360,0.3300471305847168,16.91189956665039,169,7489.0,-22.22092628479004,-184,7565.0
2370,0.3305053412914276,-12.502382278442383,-351,7489.0,20.49906349182129,622,7565.0
2380,0.33181196451187134,-41.696571350097656,-740,7489.0,60.978736877441406,1353,7565.0
2390,0.33251282572746277,-46.659706115722656,-820,7489.0,99.47696685791016,1811,7565.0
2400,0.333298921585083,-47.68657684326172,-733,7489.0,126.59510803222656,2320,7565.0
2410,0.33165568113327026,-36.903499603271484,-602,7489.0,139.5151824951172,2305,7565.0
2420,0.3313539922237396,-24.78830909729004,-462,7489.0,137.38209533691406,2282,7565.0
2430,0.33311519026756287,-12.127802848815918,-101,7489.0,115.97834014892578,1731,7565.0
2440,0.3320150375366211,-4.3924689292907715,35,7489.0,97.3578872680664,1568,7565.0
2450,0.33049964904785156,3.669144868850708,-1,7489.0,57.32374954223633,698,7565.0
2460,0.3256973326206207,5.771119594573975,123,7489.0,6.802680969238281,-112,7565.0
2470,0.3268938660621643,7.835897445678711,108,7489.0,-46.0150032043457,-1011,7565.0
2480,0.3284044861793518,9.72910213470459,264,7489.0,-90.14472198486328,-1673,7565.0
2490,0.3297289311885834,11.842935562133789,135,7489.0,-121.1109619140625,-2023,7565.0
2500,0.3273696005344391,7.255913734436035,100,7489.0,-143.0245819091797,-2415,7565.0
2510,0.3277920186519623,4.4070563316345215,35,7489.0,-157.20849609375,-2579,7565.0
2520,0.32828202843666077,9.75906753540039,218,7489.0,-158.0151824951172,-2576,7565.0
2530,0.3280569911003113,19.32028579711914,308,7489.0,-143.75936889648438,-2324,7565.0
2540,0.3275086581707001,23.870336532592773,411,7489.0,-113.49554443359375,-1530,7565.0
2550,0.329351544380188,18.238943099975586,276,7489.0,-68.31421661376953,-801,7565.0
2560,0.33052006363868713,0.3466949760913849,-52,7489.0,-15.783275604248047,68,7565.0
2570,0.33089685440063477,-15.35106086730957,-350,7489.0,43.90665817260742,964,7565.0
2580,0.33216115832328796,-30.542774200439453,-525,7489.0,99.04251098632812,1763,7565.0
2590,0.3347109258174896,-36.65377426147461,-565,7489.0,129.46286010742188,2106,7565.0
2600,0.33459410071372986,-33.13505935668945,-543,7489.0,144.0937042236328,2339,7565.0
2610,0.33391281962394714,-27.167821884155273,-306,7489.0,143.43896484375,2198,7565.0
2620,0.33339688181877136,-10.981836318969727,-45,7489.0,125.74856567382812,1949,7565.0
2630,0.3293728530406952,4.589739799499512,5,7489.0,88.85066986083984,1211,7565.0
2640,0.32811975479125977,13.163305282592773,362,7489.0,40.01787185668945,347,7565.0
2650,0.32750242948532104,15.937037467956543,266,7489.0,-12.775378227233887,-333,7565.0
2660,0.3281170427799225,17.60833740234375,171,7489.0,-59.299171447753906,-1168,7565.0
2670,0.329770565032959,8.323758125305176,156,7489.0,-95.58222198486328,-1764,7565.0
2680,0.32401296496391296,-1.2948169708251953,-81,7489.0,-116.50927734375,-1980,7565.0
2690,0.3245353698730469,-10.415413856506348,-129,7489.0,-125.02050018310547,-2091,7565.0
2700,0.3250476121902466,-10.821053504943848,-226,7489.0,-135.51589965820312,-2105,7565.0
2710,0.32468998432159424,-1.2512420415878296,118,7489.0,-134.39599609375,-2142,7565.0
2720,0.32803604006767273,20.32248878479004,407,7489.0,-129.7271270751953,-2042,7565.0
2730,0.32913511991500854,29.369766235351562,474,7489.0,-108.97348022460938,-1605,7565.0
2740,0.32945364713668823,22.577743530273438,317,7489.0,-68.0357437133789,-765,7565.0
2750,0.3309054374694824,1.2200368642807007,-44,7489.0,-3.7086527347564697,436,7565.0
2760,0.3338252604007721,-15.174942016601562,-304,7489.0,64.64065551757812,1463,7565.0
2770,0.3391075134277344,-26.24416732788086,-522,7489.0,121.0643310546875,2175,7565.0
2780,0.3404218554496765,-29.330135345458984,-385,7489.0,158.24581909179688,2739,7565.0
2790,0.3415054380893707,-21.80371856689453,-271,7489.0,183.22215270996094,2972,7565.0
2800,0.34277772903442383,-10.441864967346191,-8,7489.0,194.11209106445312,3169,7565.0
2810,0.3368692100048065,2.769239664077759,98,7489.0,188.30331420898438,2964,7565.0
2820,0.33608853816986084,8.597596168518066,225,7489.0,166.312744140625,2616,7565.0
2830,0.334687203168869,9.973899841308594,55,7489.0,128.92425537109375,2015,7565.0
2840,0.33733195066452026,10.018118858337402,175,7489.0,80.1642837524414,1018,7565.0
2850,0.32819655537605286,9.312902450561523,132,7489.0,18.911022186279297,121,7565.0
2860,0.32777324318885803,7.125935077667236,262,7489.0,-38.209068298339844,-1056,7565.0
2870,0.32971206307411194,9.62675952911377,195,7489.0,-96.7980728149414,-1843,7565.0
2880,0.3308134973049164,9.871176719665527,78,7489.0,-149.7023468017578,-2549,7565.0
2890,0.33288758993148804,15.856484413146973,349,7489.0,-190.7803955078125,-3207,7565.0
2900,0.32918673753738403,23.32390785217285,270,7489.0,-209.7691192626953,-3399,7565.0
2910,0.32949763536453247,14.058960914611816,178,7489.0,-212.2113800048828,-3378,7565.0
2920,0.334756076335907,-1.0991288423538208,-151,7489.0,-188.0571746826172,-2714,7565.0
2930,0.3344491124153137,-10.996359825134277,-170,7489.0,-136.89093017578125,-1864,7565.0
2940,0.3323251008987427,-12.878585815429688,-263,7489.0,-71.74497985839844,-838,7565.0
2950,0.3325253129005432,-13.621761322021484,-263,7489.0,-3.6346588134765625,175,7565.0
2960,0.33474433422088623,-16.641040802001953,-248,7489.0,63.65581130981445,1297,7565.0
2970,0.3354237377643585,-14.645161628723145,-181,7489.0,131.0899658203125,2341,7565.0
2980,0.33931833505630493,-9.427753448486328,-184,7489.0,181.7140350341797,3246,7565.0
2990,0.3402528464794159,-0.13314571976661682,-30,7489.0,205.8326416015625,3391,7565.0
3000,0.34074950218200684,0.18353824317455292,-86,7489.0,204.70614624023438,3277,7565.0
3010,0.34052032232284546,-1.4720505475997925,5,7489.0,182.6891632080078,2711,7565.0
3020,0.33931535482406616,-3.5275213718414307,-43,7489.0,144.33546447753906,2257,7565.0
3030,0.32994067668914795,-5.25690221786499,-167,7489.0,94.69898223876953,1358,7565.0
3040,0.3322862684726715,-4.101428508758545,-15,7489.0,25.65948486328125,40,7565.0
3050,0.3323071599006653,-1.3939993381500244,-12,7489.0,-56.958641052246094,-1286,7565.0
3060,0.33397379517555237,1.8146284818649292,55,7489.0,-122.8150405883789,-2291,7565.0
3070,0.32960012555122375,5.18563175201416,120,7489.0,-155.44468688964844,-2530,7565.0
3080,0.3304121494293213,10.087363243103027,149,7489.0,-154.70501708984375,-2595,7565.0
3090,0.3312687575817108,13.755515098571777,278,7489.0,-137.1702423095703,-2222,7565.0
3100,0.3312753736972809,8.369932174682617,81,7489.0,-106.2584228515625,-1764,7565.0
3110,0.3320295810699463,1.5027953386306763,-13,7489.0,-69.31269073486328,-939,7565.0
3120,0.3294191062450409,-10.376615524291992,-234,7489.0,-23.434322357177734,-96,7565.0
3130,0.3304823637008667,-22.667695999145508,-473,7489.0,30.53603744506836,841,7565.0
3140,0.33082887530326843,-24.467390060424805,-350,7489.0,75.07547760009766,1522,7565.0
3150,0.331552118062973,-9.53072738647461,-125,7489.0,98.53155517578125,1738,7565.0
3160,0.3283103108406067,5.449857234954834,111,7489.0,108.88822937011719,1988,7565.0
3170,0.3290438950061798,13.60635757446289,132,7489.0,105.63449096679688,1754,7565.0
3180,0.3287230134010315,14.352004051208496,232,7489.0,92.09049987792969,1333,7565.0
3190,0.3286328911781311,6.781853199005127,126,7489.0,68.69242095947266,918,7565.0
3200,0.32454055547714233,2.0091335773468018,-63,7489.0,29.314006805419922,250,7565.0
3210,0.32477983832359314,-2.3197989463806152,-55,7489.0,-22.1048583984375,-541,7565.0
3220,0.3258713185787201,-3.634678363800049,36,7489.0,-63.86415100097656,-1196,7565.0
3230,0.3266078531742096,8.65417766571045,177,7489.0,-83.66596984863281,-1638,7565.0
3240,0.3270704448223114,14.879921913146973,355,7489.0,-94.32354736328125,-1584,7565.0
3250,0.3235621750354767,18.058462142944336,224,7489.0,-81.30818176269531,-1144,7565.0
3260,0.32285356521606445,10.505663871765137,147,7489.0,-60.71651840209961,-832,7565.0
3270,0.3227955400943756,0.2807786166667938,-19,7489.0,-33.63811492919922,-391,7565.0
3280,0.32072800397872925,-5.956276893615723,-146,7489.0,-8.178325653076172,95,7565.0
3290,0.32238903641700745,-8.169456481933594,-164,7489.0,16.943986892700195,466,7565.0
3300,0.320321649312973,-11.438464164733887,-304,7489.0,40.39198684692383,767,7565.0
3310,0.32029372453689575,-17.59335708618164,-293,7489.0,57.36659622192383,1106,7565.0
3320,0.3191832900047302,-21.281375885009766,-365,7489.0,63.33340072631836,1008,7565.0
3330,0.3182109296321869,-24.126304626464844,-398,7489.0,56.393367767333984,882,7565.0
3340,0.3181300163269043,-17.197908401489258,-194,7489.0,37.75361251831055,356,7565.0
3350,0.3169858455657959,-7.707326412200928,-29,7489.0,10.606863975524902,103,7565.0
3360,0.316509485244751,2.601653575897217,6,7489.0,-15.486710548400879,-370,7565.0
3370,0.31695839762687683,12.060123443603516,266,7489.0,-40.31589126586914,-874,7565.0
3380,0.3156043291091919,19.619470596313477,404,7489.0,-59.315345764160156,-1090,7565.0
3390,0.31565776467323303,11.852933883666992,137,7489.0,-61.90080642700195,-903,7565.0
3400,0.3154642581939697,-11.408782958984375,-325,7489.0,-49.84284591674805,-641,7565.0
3410,0.31591302156448364,-22.6961669921875,-456,7489.0,-25.139028549194336,-106,7565.0
3420,0.3160313069820404,-25.636943817138672,-447,7489.0,2.740442991256714,267,7565.0
3430,0.3193086087703705,-16.78447723388672,-264,7489.0,14.103604316711426,302,7565.0
3440,0.31962332129478455,0.3552643656730652,131,7489.0,32.46131134033203,689,7565.0
3450,0.3196813464164734,16.157007217407227,404,7489.0,57.48420715332031,920,7565.0
3460,0.319524884223938,29.05904197692871,609,7489.0,74.59251403808594,1179,7565.0
3470,0.32108521461486816,40.426414489746094,702,7489.0,85.95275115966797,1488,7565.0
3480,0.3206096589565277,39.894287109375,592,7489.0,81.0437240600586,1307,7565.0
3490,0.31974923610687256,27.383872985839844,243,7489.0,63.570533752441406,949,7565.0
3500,0.32016319036483765,9.560044288635254,81,7489.0,39.47252655029297,521,7565.0
3510,0.32007914781570435,-9.186539649963379,-163,7489.0,12.474947929382324,78,7565.0
3520,0.31944984197616577,-13.15897274017334,-204,7489.0,-8.886152267456055,-186,7565.0
3530,0.31938543915748596,-11.382782936096191,-220,7489.0,-26.85395050048828,-427,7565.0
3540,0.31919005513191223,-11.640619277954102,-173,7489.0,-42.36942672729492,-923,7565.0
3550,0.31891748309135437,-18.01218032836914,-254,7489.0,-60.87792205810547,-1059,7565.0
3560,0.3183220624923706,-15.526511192321777,-313,7489.0,-82.0837173461914,-1412,7565.0
3570,0.31797710061073303,-18.27368927001953,-350,7489.0,-88.01447296142578,-1241,7565.0
3580,0.3185488283634186,-20.18424415588379,-338,7489.0,-71.93245697021484,-1028,7565.0
3590,0.31863531470298767,-3.1816391944885254,-40,7489.0,-38.656959533691406,-425,7565.0
3600,0.3201896846294403,10.690550804138184,184,7489.0,4.618823528289795,341,7565.0
3610,0.32056286931037903,24.09544563293457,431,7489.0,41.74725341796875,781,7565.0
3620,0.32091742753982544,36.44410705566406,761,7489.0,62.80075454711914,961,7565.0
3630,0.3208538293838501,36.08800506591797,544,7489.0,65.17253875732422,1072,7565.0
3640,0.32038864493370056,24.826736450195312,410,7489.0,66.76044464111328,1025,7565.0
3650,0.32066914439201355,14.488359451293945,194,7489.0,62.81355667114258,951,7565.0
3660,0.3202720582485199,-0.8811126351356506,-85,7489.0,56.34164047241211,982,7565.0
3670,0.3192036747932434,-19.1138973236084,-404,7489.0,37.94318771362305,564,7565.0
3680,0.3188181221485138,-36.543975830078125,-673,7489.0,14.334268569946289,31,7565.0
3690,0.31920334696769714,-38.4886360168457,-522,7489.0,-14.856110572814941,-379,7565.0
3700,0.318588525056839,-31.03173828125,-523,7489.0,-40.35224533081055,-654,7565.0
3710,0.31791502237319946,-19.494848251342773,-230,7489.0,-60.597679138183594,-1167,7565.0
3720,0.31772497296333313,-4.412631511688232,-18,7489.0,-75.33856964111328,-1301,7565.0
3730,0.3186820149421692,8.180580139160156,199,7489.0,-90.9195327758789,-1428,7565.0
3740,0.3191848397254944,20.653947830200195,332,7489.0,-100.3093490600586,-1551,7565.0
3750,0.319128155708313,21.80638885498047,263,7489.0,-86.04991149902344,-1286,7565.0
3760,0.3194115459918976,8.493480682373047,122,7489.0,-68.1611099243164,-1112,7565.0
3770,0.31977197527885437,-6.69981050491333,-69,7489.0,-39.41557312011719,-640,7565.0
3780,0.3230491578578949,-10.423660278320312,-192,7489.0,-2.4471263885498047,41,7565.0
3790,0.3235875070095062,-11.037335395812988,-115,7489.0,36.003929138183594,761,7565.0
3800,0.32404887676239014,-8.136311531066895,8,7489.0,69.04338836669922,1188,7565.0
3810,0.3246020972728729,-7.861420154571533,-74,7489.0,88.91554260253906,1375,7565.0
3820,0.3251199424266815,-7.458990573883057,-103,7489.0,93.2134780883789,1533,7565.0
3830,0.32551249861717224,-8.627891540527344,-21,7489.0,83.49977111816406,1341,7565.0
3840,0.325172483921051,-3.768634796142578,-159,7489.0,62.44156265258789,923,7565.0
3850,0.3245335519313812,3.0421361923217773,159,7489.0,33.41090393066406,296,7565.0
3860,0.32245171070098877,15.120428085327148,240,7489.0,1.4303736686706543,26,7565.0
3870,0.32217493653297424,28.837535858154297,568,7489.0,-30.165998458862305,-754,7565.0
3880,0.3217877745628357,41.94300842285156,717,7489.0,-56.602787017822266,-932,7565.0
3890,0.3212326765060425,37.102420806884766,568,7489.0,-68.04248809814453,-1093,7565.0
3900,0.3205520808696747,19.12114906311035,143,7489.0,-74.3988037109375,-1292,7565.0
3910,0.31971704959869385,-9.169553756713867,-296,7489.0,-69.85462951660156,-1171,7565.0
3920,0.3194131851196289,-35.39027786254883,-645,7489.0,-51.35017395019531,-678,7565.0
3930,0.3191567361354828,-62.58872604370117,-1009,7489.0,-17.68465805053711,-253,7565.0
3940,0.3190024197101593,-72.87138366699219,-1133,7489.0,11.527932167053223,252,7565.0
3950,0.3219338357448578,-55.57508850097656,-784,7489.0,39.01201629638672,916,7565.0
3960,0.32263046503067017,-17.311307907104492,-81,7489.0,77.2317123413086,1531,7565.0
3970,0.32318440079689026,34.143253326416016,682,7489.0,104.72041320800781,1672,7565.0
3980,0.3237708806991577,71.80014038085938,1383,7489.0,111.20709991455078,1674,7565.0
3990,0.32537543773651123,82.84624481201172,1290,7489.0,92.47416687011719,1538,7565.0
4000,0.32482320070266724,74.72090911865234,1165,7489.0,72.37117767333984,1017,7565.0
4010,0.3244577944278717,52.656776428222656,704,7489.0,47.84124755859375,499,7565.0
4020,0.32431668043136597,23.642505645751953,308,7489.0,10.305952072143555,87,7565.0
4030,0.32494670152664185,-4.070560455322266,-295,7489.0,-29.010822296142578,-765,7565.0
4040,0.32245704531669617,-30.356338500976562,-533,7489.0,-66.96602630615234,-1258,7565.0
4050,0.32204774022102356,-47.29909133911133,-809,7489.0,-95.62067413330078,-1684,7565.0
4060,0.3214556574821472,-57.35795974731445,-1050,7489.0,-107.05498504638672,-1614,7565.0
4070,0.3214004933834076,-53.55473709106445,-852,7489.0,-102.84982299804688,-1539,7565.0
4080,0.3219121992588043,-36.11929702758789,-481,7489.0,-94.33211517333984,-1600,7565.0
4090,0.32158932089805603,-15.936348915100098,-103,7489.0,-80.42713165283203,-1280,7565.0
4100,0.3215651214122772,-0.479574978351593,129,7489.0,-57.4414176940918,-716,7565.0
4110,0.3235839903354645,5.924814224243164,226,7489.0,-19.096858978271484,-104,7565.0
4120,0.32425999641418457,12.335261344909668,329,7489.0,19.982742309570312,442,7565.0
4130,0.3267822861671448,21.20614242553711,353,7489.0,52.08251190185547,1002,7565.0
4140,0.3283771872520447,29.83896255493164,503,7489.0,89.4780044555664,1569,7565.0
4150,0.32960760593414307,35.603660583496094,751,7489.0,118.96942901611328,1830,7565.0
4160,0.3308485746383667,47.6355094909668,719,7489.0,126.57804870605469,2045,7565.0
4170,0.329023540019989,43.801578521728516,642,7489.0,126.1230697631836,2105,7565.0
4180,0.32837575674057007,25.982404708862305,205,7489.0,116.46624755859375,1897,7565.0
4190,0.328612744808197,-2.3321430683135986,-236,7489.0,92.35847473144531,1404,7565.0
4200,0.33074042201042175,-24.06731605529785,-424,7489.0,50.88471221923828,483,7565.0
4210,0.331201434135437,-37.9172248840332,-703,7489.0,-1.7371565103530884,-205,7565.0
4220,0.32707130908966064,-42.232757568359375,-715,7489.0,-47.91563415527344,-982,7565.0
4230,0.327725887298584,-34.509578704833984,-461,7489.0,-82.01603698730469,-1553,7565.0
4240,0.3272598683834076,-15.453739166259766,-209,7489.0,-103.56095123291016,-1518,7565.0
4250,0.3273676335811615,1.9779071807861328,153,7489.0,-108.6211929321289,-1929,7565.0
4260,0.32388192415237427,9.062356948852539,139,7489.0,-108.42264556884766,-1784,7565.0
4270,0.3236980438232422,8.818620681762695,235,7489.0,-101.72676086425781,-1726,7565.0
4280,0.32521453499794006,8.991722106933594,152,7489.0,-93.0797348022461,-1544,7565.0
4290,0.3254367411136627,8.61606216430664,28,7489.0,-79.54966735839844,-1261,7565.0
4300,0.3250553011894226,-1.2123545408248901,62,7489.0,-57.710872650146484,-939,7565.0
4310,0.3256855309009552,-11.215415954589844,-154,7489.0,-21.779396057128906,-419,7565.0
4320,0.32718726992607117,-21.246421813964844,-393,7489.0,14.664969444274902,276,7565.0
4330,0.32796454429626465,-19.667850494384766,-359,7489.0,52.32683563232422,1051,7565.0
4340,0.32914888858795166,-22.22646141052246,-340,7489.0,87.21317291259766,1607,7565.0
4350,0.3297297954559326,-23.128114700317383,-271,7489.0,112.09867858886719,1717,7565.0
4360,0.330430805683136,-20.196990966796875,-236,7489.0,109.56591033935547,1793,7565.0
4370,0.3304877281188965,-13.900306701660156,-172,7489.0,96.0595474243164,1435,7565.0
4380,0.33055824041366577,-10.040303230285645,-204,7489.0,76.6375503540039,1166,7565.0
4390,0.32562166452407837,-5.720179080963135,-25,7489.0,55.479698181152344,687,7565.0
4400,0.3261586129665375,5.351661205291748,51,7489.0,21.35555648803711,217,7565.0
4410,0.32590872049331665,15.871660232543945,285,7489.0,-16.10769271850586,-333,7565.0
4420,0.3258063495159149,22.493450164794922,376,7489.0,-50.26573181152344,-1019,7565.0
4430,0.32331418991088867,27.98674774169922,449,7489.0,-82.175048828125,-1487,7565.0
4440,0.3231852054595947,27.98899269104004,517,7489.0,-110.08741760253906,-1871,7565.0
4450,0.322907418012619,31.064054489135742,389,7489.0,-130.0347137451172,-2001,7565.0
4460,0.32240036129951477,26.662710189819336,440,7489.0,-126.60340881347656,-1993,7565.0
4470,0.3217901885509491,16.43956184387207,249,7489.0,-109.92786407470703,-1730,7565.0
4480,0.3246682286262512,-1.8212422132492065,-112,7489.0,-75.08232116699219,-1120,7565.0
4490,0.32385116815567017,-18.00242805480957,-343,7489.0,-21.023378372192383,-164,7565.0
4500,0.3268042206764221,-27.288000106811523,-470,7489.0,38.29966354370117,957,7565.0
4510,0.3284591734409332,-27.42276382446289,-374,7489.0,89.16007995605469,1654,7565.0
4520,0.32964909076690674,-21.55129623413086,-177,7489.0,123.00746154785156,2060,7565.0
4530,0.32970428466796875,-11.743444442749023,-174,7489.0,146.79457092285156,2408,7565.0
4540,0.32987135648727417,-0.8549882173538208,72,7489.0,157.22296142578125,2488,7565.0
4550,0.32954898476600647,3.793766975402832,82,7489.0,144.88320922851562,2368,7565.0
4560,0.325606107711792,10.723958015441895,227,7489.0,107.77107238769531,1361,7565.0
4570,0.3274749219417572,16.76750946044922,300,7489.0,50.444034576416016,754,7565.0
4580,0.3274238407611847,19.088241577148438,292,7489.0,-0.37078720331192017,-329,7565.0
4590,0.3279980421066284,14.847939491271973,292,7489.0,-43.75587844848633,-828,7565.0
4600,0.3292090892791748,9.94088363647461,-5,7489.0,-82.4931640625,-1506,7565.0
4610,0.32570648193359375,-3.2165300846099854,7,7489.0,-116.08572387695312,-2112,7565.0
4620,0.32635051012039185,-9.915383338928223,-186,7489.0,-144.60128784179688,-2477,7565.0
4630,0.32679545879364014,-11.405000686645508,-225,7489.0,-165.9828643798828,-2625,7565.0
4640,0.3262194097042084,-14.896756172180176,-290,7489.0,-158.42703247070312,-2450,7565.0
4650,0.3277917206287384,-16.402889251708984,-353,7489.0,-131.53814697265625,-1882,7565.0
4660,0.3293786644935608,-9.077720642089844,-155,7489.0,-88.83634948730469,-1015,7565.0
4670,0.3302905857563019,0.9488103985786438,104,7489.0,-27.586082458496094,41,7565.0
4680,0.3323551416397095,11.027583122253418,251,7489.0,40.48448181152344,1154,7565.0
4690,0.3344324827194214,19.9898738861084,353,7489.0,103.9598617553711,2058,7565.0
4700,0.3352494239807129,28.70657730102539,437,7489.0,150.10186767578125,2701,7565.0
4710,0.3358133137226105,28.74683380126953,393,7489.0,171.66207885742188,2905,7565.0
4720,0.335665225982666,12.087841033935547,97,7489.0,168.92926025390625,2521,7565.0
4730,0.3373909592628479,-15.825082778930664,-328,7489.0,148.3763885498047,2235,7565.0
4740,0.33136820793151855,-29.654747009277344,-581,7489.0,105.48848724365234,1403,7565.0
4750,0.330860435962677,-39.42155456542969,-607,7489.0,49.33275604248047,453,7565.0
4760,0.33226799964904785,-30.089336395263672,-448,7489.0,-5.821391582489014,-307,7565.0
4770,0.3337976634502411,-13.753091812133789,-168,7489.0,-52.24966812133789,-1231,7565.0
4780,0.3350716233253479,-2.4665205478668213,126,7489.0,-92.2768783569336,-1775,7565.0
4790,0.32911062240600586,10.250840187072754,153,7489.0,-130.2972412109375,-2280,7565.0
4800,0.3301190733909607,18.098085403442383,350,7489.0,-163.34619140625,-2788,7565.0
4810,0.3319390118122101,18.81689453125,193,7489.0,-180.26528930664062,-2916,7565.0
4820,0.333233118057251,12.102526664733887,234,7489.0,-180.0118408203125,-2901,7565.0
4830,0.3300779163837433,12.20056438446045,246,7489.0,-160.14520263671875,-2476,7565.0
4840,0.33017808198928833,10.499491691589355,164,7489.0,-120.04460906982422,-1631,7565.0
4850,0.3339096009731293,5.851280689239502,53,7489.0,-62.64561462402344,-542,7565.0
4860,0.33673426508903503,-6.171194076538086,-153,7489.0,3.75467586517334,429,7565.0
4870,0.34065452218055725,-14.334579467773438,-254,7489.0,67.69495391845703,1227,7565.0
4880,0.342898428440094,-16.880573272705078,-319,7489.0,117.45709228515625,1939,7565.0
4890,0.34452807903289795,-15.273345947265625,-234,7489.0,151.60890197753906,2473,7565.0
4900,0.34565702080726624,-12.15280532836914,-99,7489.0,164.6481170654297,2560,7565.0
4910,0.3464822769165039,-8.983307838439941,-127,7489.0,156.50111389160156,2470,7565.0
4920,0.3398572504520416,-6.331178665161133,-96,7489.0,132.66835021972656,1957,7565.0
4930,0.3400658071041107,-6.110873222351074,-115,7489.0,94.28195190429688,1413,7565.0
4940,0.3423847556114197,-4.800520420074463,-84,7489.0,52.689762115478516,732,7565.0
4950,0.3431309759616852,-9.013060569763184,-101,7489.0,14.102716445922852,-17,7565.0
4960,0.33335644006729126,-8.943310737609863,-146,7489.0,-33.392398834228516,-835,7565.0
4970,0.3345479965209961,-6.08743143081665,-45,7489.0,-79.03761291503906,-1527,7565.0
4980,0.33577224612236023,-2.715627670288086,-76,7489.0,-114.85916137695312,-1989,7565.0
4990,0.3372306525707245,-0.7361584901809692,-23,7489.0,-130.4550018310547,-2084,7565.0
5000,0.33120858669281006,10.436864852905273,213,7489.0,-117.94747161865234,-1736,7565.0
5010,0.33229783177375793,24.27281951904297,463,7489.0,-90.53012084960938,-1369,7565.0
5020,0.33432936668395996,29.313020706176758,470,7489.0,-52.30512619018555,-659,7565.0
5030,0.33529382944107056,22.37807273864746,377,7489.0,-3.895472764968872,1,7565.0
5040,0.3372166156768799,14.38614559173584,175,7489.0,46.17771530151367,861,7565.0
5050,0.3356906771659851,9.218517303466797,142,7489.0,87.23785400390625,1669,7565.0
5060,0.3362372815608978,6.808075904846191,93,7489.0,119.23087310791016,2065,7565.0
5070,0.33663421869277954,0.18256430327892303,-97,7489.0,134.26853942871094,2330,7565.0
5080,0.33598947525024414,-6.137180328369141,-162,7489.0,132.27186584472656,2064,7565.0
5090,0.32897859811782837,-13.910796165466309,-159,7489.0,113.97689819335938,1740,7565.0
5100,0.33035868406295776,-20.88384246826172,-404,7489.0,81.58104705810547,1271,7565.0
5110,0.32997259497642517,-25.579910278320312,-448,7489.0,51.3726692199707,576,7565.0
5120,0.3295304775238037,-17.884479522705078,-276,7489.0,2.437199592590332,-284,7565.0
5130,0.3307252824306488,-10.048297882080078,-185,7489.0,-44.90982437133789,-941,7565.0
5140,0.3273724913597107,1.2515454292297363,-6,7489.0,-110.64753723144531,-2031,7565.0
5150,0.32873234152793884,7.74448299407959,228,7489.0,-147.02444458007812,-2682,7565.0
5160,0.32988569140434265,13.658324241638184,260,7489.0,-153.49444580078125,-2471,7565.0
5170,0.3306162655353546,14.992228507995605,283,7489.0,-137.20001220703125,-2056,7565.0
5180,0.3312440812587738,5.233851909637451,14,7489.0,-101.44476318359375,-1400,7565.0
5190,0.3315640687942505,6.509258270263672,165,7489.0,-58.072845458984375,-587,7565.0
5200,0.3322588801383972,10.42807388305664,152,7489.0,-2.265772581100464,180,7565.0
5210,0.3337300717830658,15.788722038269043,211,7489.0,39.62987518310547,917,7565.0
5220,0.3332505226135254,7.284048557281494,149,7489.0,82.2184066772461,1449,7565.0
5230,0.3335375487804413,1.1786818504333496,-52,7489.0,105.53434753417969,1775,7565.0
5240,0.3336464464664459,-8.389723777770996,-194,7489.0,117.27606964111328,2011,7565.0
5250,0.3333991467952728,-19.140975952148438,-368,7489.0,112.92179870605469,1759,7565.0
5260,0.3330274820327759,-23.399097442626953,-375,7489.0,86.53656005859375,1192,7565.0
5270,0.32905930280685425,-21.81035804748535,-356,7489.0,46.87785339355469,530,7565.0
5280,0.3291020393371582,-16.381389617919922,-234,7489.0,5.366763591766357,-153,7565.0
5290,0.32968056201934814,-5.133153438568115,28,7489.0,-42.04408264160156,-1048,7565.0
5300,0.3309955298900604,10.226958274841309,208,7489.0,-90.94084930419922,-1807,7565.0
5310,0.32449662685394287,18.883928298950195,334,7489.0,-115.30269622802734,-1787,7565.0
5320,0.3246200382709503,22.611595153808594,233,7489.0,-106.86790466308594,-1473,7565.0
5330,0.32459157705307007,5.380518913269043,28,7489.0,-89.15435028076172,-1216,7565.0
5340,0.32514142990112305,0.3337346315383911,-99,7489.0,-62.53589630126953,-677,7565.0
5350,0.3260481655597687,-4.216554641723633,-101,7489.0,-19.679224014282227,124,7565.0
5360,0.3262598514556885,-2.9520227909088135,-34,7489.0,22.596616744995117,709,7565.0
5370,0.32647955417633057,1.9557751417160034,19,7489.0,54.21784210205078,1131,7565.0
5380,0.32662975788116455,6.401529788970947,77,7489.0,79.05067443847656,1509,7565.0
5390,0.3262656033039093,5.773974418640137,120,7489.0,97.82260131835938,1675,7565.0
5400,0.3255894184112549,5.849306583404541,72,7489.0,101.47369384765625,1463,7565.0
5410,0.32493507862091064,3.5475525856018066,111,7489.0,89.76376342773438,1356,7565.0
5420,0.32403042912483215,-1.3219621181488037,-47,7489.0,61.18852615356445,898,7565.0
5430,0.3243880271911621,-5.9362897872924805,-190,7489.0,28.233381271362305,293,7565.0
5440,0.32376062870025635,-11.127413749694824,-130,7489.0,-4.3415117263793945,-232,7565.0
5450,0.32213354110717773,-11.270751953125,-246,7489.0,-36.35573196411133,-631,7565.0
5460,0.3228110373020172,-11.240394592285156,-173,7489.0,-60.8648796081543,-1091,7565.0
5470,0.3235360085964203,-3.732497215270996,50,7489.0,-87.61358642578125,-1700,7565.0
5480,0.324637234210968,4.556008338928223,73,7489.0,-106.06127166748047,-1784,7565.0
5490,0.32101866602897644,4.320713520050049,-67,7489.0,-100.44715881347656,-1462,7565.0
5500,0.32171931862831116,0.525672197341919,39,7489.0,-72.61134338378906,-1057,7565.0
5510,0.32307758927345276,0.5794251561164856,5,7489.0,-40.46805953979492,-451,7565.0
5520,0.32411205768585205,8.845900535583496,164,7489.0,4.562841892242432,476,7565.0
5530,0.3264123201370239,22.92945098876953,422,7489.0,56.034542083740234,1265,7565.0
5540,0.32794180512428284,33.0975227355957,510,7489.0,104.06532287597656,1874,7565.0
5550,0.3283853828907013,34.8765869140625,477,7489.0,135.2292938232422,2407,7565.0
5560,0.3288719654083252,27.594457626342773,383,7489.0,142.36009216308594,2360,7565.0
5570,0.3288213014602661,12.928909301757812,100,7489.0,133.4775848388672,2005,7565.0
5580,0.3256089389324188,-4.080577850341797,-12,7489.0,104.26052856445312,1478,7565.0
5590,0.3271028995513916,-19.51741600036621,-491,7489.0,54.48678207397461,710,7565.0
5600,0.3266669809818268,-34.88559341430664,-615,7489.0,2.602113962173462,-244,7565.0
5610,0.3268427848815918,-40.59121322631836,-708,7489.0,-43.229461669921875,-797,7565.0
5620,0.32529550790786743,-35.87294006347656,-553,7489.0,-76.74752044677734,-1447,7565.0
5630,0.32487642765045166,-27.042964935302734,-313,7489.0,-100.72708892822266,-1725,7565.0
5640,0.3253162205219269,-16.06419563293457,-217,7489.0,-110.8160171508789,-1860,7565.0
5650,0.3251780569553375,-2.216219425201416,12,7489.0,-119.25060272216797,-1844,7565.0
5660,0.32341453433036804,12.626068115234375,206,7489.0,-111.41494750976562,-1748,7565.0
5670,0.3232859671115875,22.35647964477539,340,7489.0,-69.53641510009766,-914,7565.0
5680,0.3248455226421356,27.773088455200195,530,7489.0,-21.889421463012695,-205,7565.0
5690,0.32500627636909485,26.038829803466797,413,7489.0,14.64266300201416,337,7565.0
5700,0.32557594776153564,13.5265531539917,158,7489.0,54.73756790161133,948,7565.0
5710,0.3275788128376007,11.75270938873291,228,7489.0,86.57945251464844,1528,7565.0
5720,0.32755550742149353,9.426669120788574,261,7489.0,104.84221649169922,1700,7565.0
5730,0.3270798623561859,3.96175479888916,70,7489.0,113.59465026855469,1686,7565.0
5740,0.3266197741031647,2.0203909873962402,11,7489.0,101.94377136230469,1774,7565.0
5750,0.32299140095710754,-4.335360050201416,-181,7489.0,78.94176483154297,1002,7565.0
5760,0.32383930683135986,-11.637001991271973,-116,7489.0,33.467647552490234,387,7565.0
5770,0.32323533296585083,-14.356152534484863,-310,7489.0,-14.357637405395508,-433,7565.0
5780,0.32291293144226074,-14.474125862121582,-166,7489.0,-54.948020935058594,-1065,7565.0
5790,0.3234376907348633,-16.094913482666016,-309,7489.0,-88.50408172607422,-1501,7565.0
5800,0.32137513160705566,-15.25782585144043,-303,7489.0,-102.62824249267578,-1727,7565.0
5810,0.32107388973236084,-22.934568405151367,-323,7489.0,-103.04342651367188,-1704,7565.0
5820,0.32092154026031494,-20.216039657592773,-354,7489.0,-103.03504943847656,-1581,7565.0
5830,0.3208620846271515,-10.920875549316406,-132,7489.0,-99.1695785522461,-1534,7565.0
5840,0.3207871913909912,-1.695605754852295,-27,7489.0,-73.45801544189453,-1030,7565.0
5850,0.32110658288002014,1.5347599983215332,-27,7489.0,-29.61029052734375,-291,7565.0
5860,0.3218059837818146,2.6656992435455322,68,7489.0,3.5177483558654785,226,7565.0
5870,0.3224027156829834,-0.29530075192451477,81,7489.0,33.13314437866211,716,7565.0
5880,0.32449033856391907,6.560507774353027,247,7489.0,69.78231811523438,1065,7565.0
5890,0.3251999318599701,24.797893524169922,518,7489.0,88.67621612548828,1409,7565.0
5900,0.32535144686698914,38.201900482177734,588,7489.0,97.0115737915039,1598,7565.0
5910,0.32523253560066223,33.77531051635742,517,7489.0,99.86067962646484,1646,7565.0
5920,0.32569319009780884,16.90709114074707,132,7489.0,87.57711029052734,1501,7565.0
5930,0.3236543536186218,-4.056550979614258,-149,7489.0,69.49401092529297,901,7565.0
5940,0.3233969807624817,-21.582441329956055,-423,7489.0,44.684043884277344,566,7565.0
5950,0.3233652114868164,-30.470407485961914,-434,7489.0,12.688552856445312,-42,7565.0
5960,0.3233111798763275,-26.423980712890625,-415,7489.0,-20.867008209228516,-561,7565.0
5970,0.3216521441936493,-21.65387725830078,-282,7489.0,-51.798370361328125,-933,7565.0
5980,0.32202622294425964,-11.323874473571777,-242,7489.0,-75.08590698242188,-1403,7565.0
5990,0.32235488295555115,-3.0495691299438477,47,7489.0,-91.31855773925781,-1599,7565.0
6000,0.3230600357055664,1.0374603271484375,8,7489.0,-108.11846160888672,-1801,7565.0
6010,0.32375025749206543,10.396848678588867,183,7489.0,-115.3442611694336,-1683,7565.0
6020,0.3239734172821045,28.783924102783203,582,7489.0,-99.51122283935547,-1463,7565.0
6030,0.3247300386428833,38.52177810668945,619,7489.0,-64.29739379882812,-762,7565.0
6040,0.32619231939315796,35.18342208862305,454,7489.0,-19.731786727905273,1,7565.0
6050,0.3286631107330322,16.706607818603516,97,7489.0,22.460987091064453,770,7565.0
6060,0.3299165964126587,-6.824400901794434,-239,7489.0,63.292991638183594,1408,7565.0
6070,0.3317743241786957,-25.543569564819336,-495,7489.0,94.60304260253906,1880,7565.0
6080,0.333109587430954,-34.866294860839844,-687,7489.0,119.76730346679688,1987,7565.0
6090,0.33381387591362,-32.178932189941406,-620,7489.0,132.30088806152344,2305,7565.0
6100,0.3295440077781677,-28.912673950195312,-417,7489.0,134.4309844970703,2155,7565.0
6110,0.3291240334510803,-16.66473388671875,-136,7489.0,119.95186614990234,1763,7565.0
6120,0.3286590278148651,-0.40441372990608215,142,7489.0,83.24446105957031,1173,7565.0
6130,0.3304332196712494,13.092848777770996,203,7489.0,35.61366271972656,388,7565.0
6140,0.3301156759262085,18.5699462890625,360,7489.0,-15.928030014038086,-512,7565.0
6150,0.3261778950691223,18.9852352142334,218,7489.0,-66.13333129882812,-1128,7565.0
6160,0.32744988799095154,13.27934455871582,128,7489.0,-101.5732192993164,-1849,7565.0
6170,0.32769688963890076,3.2460715770721436,29,7489.0,-132.52378845214844,-2395,7565.0
6180,0.3281083106994629,-11.8509521484375,-216,7489.0,-155.9142303466797,-2638,7565.0
6190,0.3247506618499756,-21.49007797241211,-356,7489.0,-167.3893585205078,-2668,7565.0
6200,0.3249471187591553,-23.578174591064453,-377,7489.0,-151.68069458007812,-2330,7565.0
6210,0.3276745080947876,-21.20753288269043,-286,7489.0,-116.56709289550781,-1759,7565.0
6220,0.32733070850372314,-8.129129409790039,-122,7489.0,-72.24271392822266,-955,7565.0
6230,0.32919546961784363,3.710240364074707,143,7489.0,-17.98907470703125,-37,7565.0
6240,0.3311549127101898,18.849246978759766,431,7489.0,35.549583435058594,739,7565.0
6250,0.33305737376213074,25.271696090698242,528,7489.0,90.51838684082031,1569,7565.0
6260,0.3351250886917114,23.18162727355957,387,7489.0,135.83456420898438,2238,7565.0
6270,0.3370424509048462,14.434563636779785,148,7489.0,172.6262664794922,2830,7565.0
6280,0.3369942009449005,0.09534971415996552,-43,7489.0,189.24044799804688,3156,7565.0
6290,0.33897680044174194,-15.482050895690918,-320,7489.0,184.03042602539062,2985,7565.0
6300,0.33947423100471497,-24.46588897705078,-569,7489.0,159.99703979492188,2613,7565.0
6310,0.3394908010959625,-27.055017471313477,-411,7489.0,116.61050415039062,1459,7565.0
6320,0.33224132657051086,-21.499378204345703,-285,7489.0,57.746986389160156,721,7565.0
6330,0.33505457639694214,-10.341732025146484,-188,7489.0,-3.515108585357666,-360,7565.0
6340,0.3362976014614105,2.7987160682678223,101,7489.0,-66.28067016601562,-1365,7565.0
6350,0.33901917934417725,11.711132049560547,188,7489.0,-129.2952423095703,-2350,7565.0
6360,0.34136220812797546,13.003171920776367,211,7489.0,-181.63771057128906,-3198,7565.0
6370,0.33602768182754517,21.22319984436035,309,7489.0,-211.7597198486328,-3472,7565.0
6380,0.33626312017440796,20.544795989990234,413,7489.0,-197.47457885742188,-3188,7565.0
6390,0.33588701486587524,19.83846664428711,300,7489.0,-166.7006378173828,-2680,7565.0
6400,0.3344975411891937,17.76787757873535,333,7489.0,-128.7680206298828,-1930,7565.0
6410,0.3312486410140991,14.386767387390137,260,7489.0,-74.89895629882812,-991,7565.0
6420,0.33351773023605347,4.195314407348633,-4,7489.0,-12.261394500732422,45,7565.0
6430,0.33374667167663574,-5.65962553024292,-172,7489.0,54.144100189208984,1223,7565.0
6440,0.33462679386138916,-14.70991325378418,-328,7489.0,110.12299346923828,2077,7565.0
6450,0.33441436290740967,-17.479854583740234,-337,7489.0,144.32516479492188,2436,7565.0
6460,0.3336627781391144,-8.867050170898438,-38,7489.0,147.35391235351562,2236,7565.0
6470,0.3333795666694641,-3.760756492614746,8,7489.0,127.87228393554688,1982,7565.0
6480,0.33307141065597534,-0.7189043760299683,-46,7489.0,97.51752471923828,1480,7565.0
6490,0.3331941068172455,-8.72336483001709,-158,7489.0,58.035858154296875,625,7565.0
6500,0.3275164067745209,-24.005420684814453,-448,7489.0,12.70578384399414,156,7565.0
6510,0.32786232233047485,-32.545555114746094,-549,7489.0,-32.199920654296875,-899,7565.0
6520,0.32931146025657654,-25.435518264770508,-305,7489.0,-82.77565002441406,-1481,7565.0
6530,0.33142682909965515,-9.061556816101074,-150,7489.0,-120.26344299316406,-1958,7565.0
6540,0.3270750939846039,4.850914478302002,151,7489.0,-125.0876693725586,-2088,7565.0
6550,0.3292357325553894,12.498909950256348,178,7489.0,-116.47515869140625,-1929,7565.0
6560,0.3313569724559784,9.77979564666748,110,7489.0,-94.8309326171875,-1418,7565.0
6570,0.33471837639808655,0.622510552406311,55,7489.0,-42.146732330322266,-621,7565.0
6580,0.3400377929210663,2.5188353061676025,-3,7489.0,7.908533573150635,308,7565.0
6590,0.34394073486328125,2.1538236141204834,20,7489.0,54.55463790893555,1186,7565.0
6600,0.34827300906181335,0.5124643445014954,48,7489.0,94.3815689086914,1717,7565.0
6610,0.3518034815788269,7.36941385269165,330,7489.0,125.9969711303711,2046,7565.0
6620,0.35490185022354126,25.542490005493164,591,7489.0,134.53466796875,2171,7565.0
6630,0.3545685112476349,46.721839904785156,851,7489.0,122.81828308105469,1861,7565.0
6640,0.3563701808452606,53.073631286621094,787,7489.0,91.19330596923828,1508,7565.0
6650,0.35781338810920715,45.460140228271484,717,7489.0,61.83253479003906,856,7565.0
6660,0.360535204410553,41.32036590576172,681,7489.0,28.12428092956543,204,7565.0
6670,0.35541781783103943,23.761253356933594,368,7489.0,-8.629191398620605,-504,7565.0
6680,0.35586491227149963,3.0235331058502197,-52,7489.0,-52.97673797607422,-975,7565.0
6690,0.3570290803909302,-19.902389526367188,-356,7489.0,-88.55669403076172,-1582,7565.0
6700,0.3569161295890808,-30.88042449951172,-632,7489.0,-109.59310150146484,-1677,7565.0
6710,0.3569035530090332,-33.920169830322266,-604,7489.0,-103.4241943359375,-1508,7565.0
6720,0.35234007239341736,-34.41197204589844,-590,7489.0,-85.25056457519531,-1238,7565.0
6730,0.35059332847595215,-33.38246536254883,-503,7489.0,-59.39543533325195,-661,7565.0
6740,0.34854835271835327,-26.306610107421875,-411,7489.0,-27.206438064575195,-97,7565.0
6750,0.3468639850616455,-20.249725341796875,-322,7489.0,10.155559539794922,594,7565.0
6760,0.34561142325401306,-17.18754005432129,-226,7489.0,51.789058685302734,1044,7565.0
6770,0.3432653844356537,-12.2811918258667,-160,7489.0,76.04542541503906,1435,7565.0
6780,0.33991721272468567,-4.693111896514893,-83,7489.0,93.92313385009766,1659,7565.0
6790,0.3360694348812103,0.0815647542476654,86,7489.0,96.88570404052734,1466,7565.0
6800,0.33170604705810547,1.35574209690094,-82,7489.0,85.15160369873047,1405,7565.0
6810,0.325920045375824,0.5999139547348022,130,7489.0,55.59211730957031,586,7565.0
6820,0.32067492604255676,1.633234977722168,30,7489.0,10.858119010925293,106,7565.0
6830,0.3159184157848358,2.8292059898376465,135,7489.0,-35.90516662597656,-840,7565.0
6840,0.3112810254096985,-1.7241754531860352,-92,7489.0,-79.35848999023438,-1576,7565.0
6850,0.3034107983112335,1.0041658878326416,79,7489.0,-111.61735534667969,-1883,7565.0
6860,0.29760822653770447,8.026504516601562,139,7489.0,-132.73294067382812,-2304,7565.0
6870,0.2911919951438904,18.720684051513672,381,7489.0,-144.35231018066406,-2212,7565.0
6880,0.28110191226005554,26.231761932373047,411,7489.0,-138.57965087890625,-2282,7565.0
6890,0.27221450209617615,35.202449798583984,682,7489.0,-130.57574462890625,-2161,7565.0
6900,0.27044761180877686,46.14533615112305,790,7489.0,-110.47730255126953,-1595,7565.0
6910,0.26825910806655884,41.56991195678711,554,7489.0,-70.35273742675781,-863,7565.0
6920,0.266558974981308,30.779342651367188,513,7489.0,-10.712779998779297,-24,7565.0
6930,0.26523709297180176,11.7228422164917,118,7489.0,37.9703254699707,933,7565.0
6940,0.26366403698921204,-14.470373153686523,-436,7489.0,90.7252197265625,1760,7565.0
6950,0.2587534487247467,-43.053043365478516,-786,7489.0,139.8120880126953,2373,7565.0
6960,0.25896018743515015,-63.26581573486328,-1120,7489.0,172.56866455078125,2965,7565.0
6970,0.2583818733692169,-73.39957427978516,-1169,7489.0,178.48782348632812,2873,7565.0
6980,0.25218507647514343,-75.89645385742188,-1285,7489.0,159.7962188720703,2419,7565.0
6990,0.25176993012428284,-66.87316131591797,-1044,7489.0,124.72846221923828,1886,7565.0
7000,0.2514117658138275,-44.77246856689453,-626,7489.0,84.63280487060547,1204,7565.0
7010,0.2514633238315582,-19.28803253173828,-231,7489.0,37.98360824584961,440,7565.0
7020,0.24853862822055817,5.853845119476318,219,7489.0,-1.118251919746399,-124,7565.0
7030,0.24911464750766754,30.283042907714844,594,7489.0,-21.24541664123535,-399,7565.0
7040,0.25019875168800354,41.26517868041992,785,7489.0,-25.39221954345703,-287,7565.0
7050,0.25213825702667236,48.940345764160156,844,7489.0,-15.607819557189941,-210,7565.0
7060,0.25484132766723633,45.23101806640625,695,7489.0,1.9360053539276123,38,7565.0
7070,0.25255081057548523,37.39585494995117,646,7489.0,19.937482833862305,484,7565.0
7080,0.2553642690181732,29.908742904663086,347,7489.0,42.23193359375,748,7565.0
7090,0.25850778818130493,15.06407642364502,264,7489.0,61.89310836791992,1129,7565.0
7100,0.2618429958820343,-0.1830478459596634,-109,7489.0,86.79633331298828,1495,7565.0
7110,0.2629619538784027,0.39570745825767517,95,7489.0,115.5880355834961,2108,7565.0
7120,0.2663162350654602,7.616457939147949,84,7489.0,137.6643524169922,2228,7565.0
7130,0.2690674662590027,10.519681930541992,160,7489.0,143.55990600585938,2374,7565.0
7140,0.2715776860713959,10.616772651672363,136,7489.0,128.72802734375,1991,7565.0
7150,0.2737487256526947,15.645697593688965,327,7489.0,96.5707015991211,1347,7565.0
7160,0.2762259244918823,21.073373794555664,343,7489.0,69.96470642089844,1024,7565.0
7170,0.2782035768032074,22.4830379486084,343,7489.0,42.28885269165039,624,7565.0
7180,0.27980470657348633,13.175020217895508,252,7489.0,8.033716201782227,107,7565.0
7190,0.281607449054718,7.418872356414795,84,7489.0,-29.587669372558594,-772,7565.0
7200,0.28277039527893066,0.7003827691078186,-7,7489.0,-56.59199523925781,-981,7565.0
7210,0.28405606746673584,2.5441319942474365,89,7489.0,-75.03240203857422,-1341,7565.0
7220,0.2850619852542877,2.7455530166625977,-20,7489.0,-81.29388427734375,-1285,7565.0
7230,0.28578981757164,7.55481481552124,233,7489.0,-78.93041229248047,-1347,7565.0
7240,0.2876228392124176,17.93000602722168,308,7489.0,-69.54118347167969,-1083,7565.0
7250,0.2879429757595062,19.41716957092285,302,7489.0,-62.849639892578125,-1017,7565.0
7260,0.28877153992652893,16.173315048217773,305,7489.0,-51.10757827758789,-754,7565.0
7270,0.28940123319625854,9.297449111938477,87,7489.0,-32.57833480834961,-349,7565.0
7280,0.29039719700813293,-5.516711235046387,-233,7489.0,-6.545076847076416,95,7565.0
7290,0.2919648289680481,-15.727996826171875,-216,7489.0,25.185510635375977,532,7565.0
7300,0.2930229902267456,-18.070144653320312,-296,7489.0,56.78973388671875,1145,7565.0
7310,0.29357245564460754,-15.231132507324219,-292,7489.0,79.15184783935547,1360,7565.0
7320,0.29331281781196594,-11.278608322143555,-49,7489.0,80.3990478515625,1181,7565.0
7330,0.2937147915363312,2.4202089309692383,42,7489.0,61.55023956298828,884,7565.0
7340,0.29342910647392273,5.60791540145874,68,7489.0,42.94677734375,618,7565.0
7350,0.2929377853870392,-2.1930246353149414,-117,7489.0,23.574352264404297,205,7565.0
7360,0.2926304340362549,-6.375644683837891,-111,7489.0,0.30892980098724365,-34,7565.0
7370,0.29175084829330444,-8.537829399108887,-135,7489.0,-23.671276092529297,-525,7565.0
7380,0.29246607422828674,-8.183560371398926,-144,7489.0,-40.339637756347656,-622,7565.0
7390,0.29134735465049744,-2.518199920654297,83,7489.0,-45.17999267578125,-815,7565.0
7400,0.28995585441589355,3.6798946857452393,42,7489.0,-42.55600357055664,-615,7565.0
7410,0.28864586353302,5.634777545928955,189,7489.0,-37.61271667480469,-679,7565.0
7420,0.28889200091362,7.461878299713135,83,7489.0,-40.093685150146484,-686,7565.0
7430,0.2876266837120056,-0.659578263759613,-71,7489.0,-41.78828048706055,-675,7565.0
7440,0.2864837050437927,-14.265995979309082,-271,7489.0,-37.031864166259766,-600,7565.0
7450,0.28503280878067017,-18.64241600036621,-369,7489.0,-32.02824783325195,-536,7565.0
7460,0.2834373712539673,-25.319122314453125,-357,7489.0,-36.28620910644531,-650,7565.0
7470,0.2827947437763214,-23.007461547851562,-425,7489.0,-35.69948196411133,-504,7565.0
7480,0.28135842084884644,-17.081209182739258,-145,7489.0,-30.471389770507812,-456,7565.0
7490,0.2801097631454468,-0.6168138384819031,-12,7489.0,-9.487706184387207,-7,7565.0
7500,0.2797386348247528,7.285408020019531,159,7489.0,22.613405227661133,513,7565.0
7510,0.2795892655849457,9.255597114562988,103,7489.0,41.877498626708984,621,7565.0
7520,0.27892082929611206,7.592093467712402,101,7489.0,51.42585754394531,937,7565.0
7530,0.2780383825302124,11.110634803771973,247,7489.0,43.13602066040039,650,7565.0
7540,0.27751070261001587,10.599032402038574,104,7489.0,20.863367080688477,248,7565.0
7550,0.27659517526626587,2.365056276321411,-43,7489.0,6.899758338928223,-25,7565.0
7560,0.2760370969772339,-6.7094244956970215,-163,7489.0,-6.203175067901611,-186,7565.0
7570,0.2751118242740631,-11.647893905639648,-181,7489.0,-28.959482192993164,-377,7565.0
7580,0.27432364225387573,-11.20763111114502,-103,7489.0,-37.47027587890625,-666,7565.0
7590,0.2731659412384033,-3.1698498725891113,-44,7489.0,-41.680335998535156,-876,7565.0
7600,0.2724331319332123,-0.17662541568279266,-92,7489.0,-55.53709030151367,-895,7565.0
7610,0.27164778113365173,-2.664522886276245,-23,7489.0,-66.87789154052734,-1054,7565.0
7620,0.2707613408565521,0.9397268891334534,20,7489.0,-69.37731170654297,-1139,7565.0
7630,0.27033644914627075,12.034880638122559,231,7489.0,-53.83824157714844,-790,7565.0
7640,0.26824942231178284,22.5245304107666,473,7489.0,-32.171173095703125,-403,7565.0
7650,0.2687046527862549,28.661527633666992,413,7489.0,-10.83000659942627,-83,7565.0
7660,0.2685329020023346,29.223798751831055,562,7489.0,8.018169403076172,294,7565.0
7670,0.2686917185783386,24.680660247802734,312,7489.0,36.27352523803711,615,7565.0
7680,0.266525536775589,15.93755054473877,257,7489.0,65.0053939819336,1286,7565.0
7690,0.26671892404556274,14.885649681091309,308,7489.0,86.82414245605469,1413,7565.0
7700,0.2670505940914154,12.840373992919922,83,7489.0,88.18980407714844,1268,7565.0
7710,0.267090380191803,2.6285855770111084,-24,7489.0,66.37459564208984,1008,7565.0
7720,0.26803892850875854,-6.06464958190918,-137,7489.0,34.20960998535156,492,7565.0
7730,0.2709932327270508,-20.92222785949707,-348,7489.0,-1.1338380575180054,-159,7565.0
7740,0.27133724093437195,-24.496854782104492,-352,7489.0,-44.4437255859375,-959,7565.0
7750,0.2716539204120636,-18.561559677124023,-291,7489.0,-90.77589416503906,-1682,7565.0
7760,0.27198630571365356,-10.747166633605957,-177,7489.0,-118.79701232910156,-2099,7565.0
7770,0.2737849950790405,-2.110980987548828,-46,7489.0,-120.0291976928711,-1830,7565.0
7780,0.27410897612571716,3.6569223403930664,117,7489.0,-100.83112335205078,-1555,7565.0
7790,0.2753015160560608,2.715066432952881,34,7489.0,-76.10067749023438,-1200,7565.0
7800,0.2757827341556549,-1.1510062217712402,31,7489.0,-47.9062614440918,-601,7565.0
7810,0.2788996994495392,-1.3558204174041748,-67,7489.0,-10.151188850402832,8,7565.0
7820,0.2769526541233063,-0.26823893189430237,54,7489.0,24.417278289794922,538,7565.0
7830,0.2789919078350067,0.5289347767829895,-97,7489.0,47.981292724609375,754,7565.0
7840,0.2807007431983948,-1.3098926544189453,48,7489.0,60.49087905883789,1108,7565.0
7850,0.2818203568458557,-4.932714462280273,-128,7489.0,72.92138671875,1136,7565.0
7860,0.28202518820762634,-4.007027626037598,-117,7489.0,82.57637786865234,1418,7565.0
7870,0.2838047742843628,-0.33756864070892334,94,7489.0,81.21266174316406,1315,7565.0
7880,0.2857266664505005,6.793405532836914,62,7489.0,63.04262924194336,760,7565.0
7890,0.287683367729187,1.659912109375,-39,7489.0,36.34696578979492,498,7565.0
7900,0.2892751097679138,-10.677800178527832,-189,7489.0,13.351799964904785,156,7565.0
7910,0.2907629609107971,-15.201606750488281,-218,7489.0,2.3341445922851562,-74,7565.0
7920,0.292238712310791,-13.555108070373535,-182,7489.0,-0.4627282917499542,11,7565.0
7930,0.29336634278297424,-1.2743595838546753,76,7489.0,0.8984131813049316,-8,7565.0
7940,0.2941684424877167,8.251842498779297,85,7489.0,3.0398261547088623,131,7565.0
7950,0.2946687936782837,10.323844909667969,232,7489.0,11.016067504882812,199,7565.0
7960,0.29532983899116516,13.808557510375977,164,7489.0,8.209997177124023,181,7565.0
7970,0.2959929406642914,13.133025169372559,266,7489.0,5.4809675216674805,75,7565.0
7980,0.29647746682167053,9.281878471374512,134,7489.0,5.391778945922852,71,7565.0
7990,0.2960969805717468,11.404444694519043,261,7489.0,-3.2420313358306885,-164,7565.0
8000,0.29651176929473877,12.369072914123535,136,7489.0,-10.704302787780762,-128,7565.0
8010,0.29664626717567444,7.500430583953857,72,7489.0,-15.023392677307129,-375,7565.0
8020,0.29675525426864624,1.4184134006500244,-12,7489.0,-16.924203872680664,-352,7565.0
8030,0.297031968832016,-5.580268859863281,-131,7489.0,-14.132375717163086,-148,7565.0
8040,0.295757919549942,-12.85159969329834,-172,7489.0,-0.3179698884487152,-31,7565.0
8050,0.29589664936065674,-7.422067165374756,24,7489.0,16.813396453857422,478,7565.0
8060,0.29569876194000244,4.00547456741333,26,7489.0,41.012359619140625,876,7565.0
8070,0.2954438328742981,2.7065012454986572,-40,7489.0,61.66720199584961,994,7565.0
8080,0.29444968700408936,-5.735302448272705,-101,7489.0,73.45152282714844,1298,7565.0
8090,0.29383161664009094,-16.243427276611328,-334,7489.0,69.19022369384766,983,7565.0
8100,0.29391705989837646,-31.82986068725586,-609,7489.0,47.85454177856445,782,7565.0
8110,0.2930067479610443,-39.17096710205078,-588,7489.0,29.889455795288086,391,7565.0
8120,0.29101765155792236,-33.127105712890625,-463,7489.0,9.130064964294434,-84,7565.0
8130,0.29000839591026306,-4.645525932312012,-6,7489.0,-22.949058532714844,-502,7565.0
8140,0.28934600949287415,19.06511116027832,425,7489.0,-44.46891403198242,-690,7565.0
8150,0.28879308700561523,33.69663619995117,607,7489.0,-52.88302230834961,-977,7565.0
8160,0.28805238008499146,37.85664367675781,550,7489.0,-54.630462646484375,-994,7565.0
8170,0.2883099913597107,33.18093490600586,529,7489.0,-49.320106506347656,-689,7565.0
8180,0.2880746126174927,20.741254806518555,190,7489.0,-37.253196716308594,-678,7565.0
8190,0.2876642942428589,1.5967968702316284,-5,7489.0,-27.214330673217773,-342,7565.0
8200,0.28742948174476624,-11.74998950958252,-306,7489.0,-22.77330207824707,-431,7565.0
8210,0.2902727723121643,-19.00980567932129,-258,7489.0,-15.13762092590332,-157,7565.0
8220,0.29065921902656555,-23.171735763549805,-444,7489.0,6.128058433532715,291,7565.0
8230,0.29107046127319336,-25.211341857910156,-305,7489.0,34.1106071472168,682,7565.0
8240,0.29151636362075806,-16.827783584594727,-243,7489.0,44.508731842041016,604,7565.0
8250,0.2913849353790283,-4.538596153259277,15,7489.0,34.479957580566406,391,7565.0
8260,0.291797935962677,14.881988525390625,428,7489.0,14.3117094039917,145,7565.0
8270,0.29247593879699707,27.353540420532227,376,7489.0,-5.603892803192139,-236,7565.0
8280,0.29303646087646484,17.84551239013672,113,7489.0,-29.564634323120117,-584,7565.0
8290,0.2939273715019226,-12.299013137817383,-248,7489.0,-57.48532485961914,-946,7565.0
8300,0.29631057381629944,-30.841686248779297,-613,7489.0,-72.12671661376953,-1230,7565.0
8310,0.29661256074905396,-39.121055603027344,-704,7489.0,-73.7247085571289,-1082,7565.0
8320,0.2969611883163452,-34.88872146606445,-476,7489.0,-55.102210998535156,-825,7565.0
8330,0.2971544563770294,-24.43390464782715,-439,7489.0,-25.78776741027832,-237,7565.0
8340,0.29810863733291626,-17.31346321105957,-169,7489.0,0.5957896113395691,99,7565.0
8350,0.29933974146842957,-5.945959568023682,-112,7489.0,19.066322326660156,282,7565.0
8360,0.3001374304294586,5.856424331665039,122,7489.0,21.165353775024414,337,7565.0
8370,0.30110207200050354,16.51782989501953,406,7489.0,6.012223720550537,14,7565.0
8380,0.3022856116294861,27.93853759765625,629,7489.0,-13.17573070526123,-390,7565.0
8390,0.3033323884010315,43.65656280517578,736,7489.0,-16.633522033691406,-169,7565.0
8400,0.3045472800731659,52.68146514892578,975,7489.0,-2.8132662773132324,-38,7565.0
8410,0.30576398968696594,57.453453063964844,860,7489.0,9.907414436340332,239,7565.0
8420,0.30698224902153015,51.684844970703125,768,7489.0,12.13029670715332,197,7565.0
8430,0.310745507478714,40.40277099609375,582,7489.0,20.688535690307617,412,7565.0
8440,0.31187188625335693,26.41023063659668,328,7489.0,31.37583351135254,444,7565.0
8450,0.3125269114971161,-1.0876944065093994,-158,7489.0,36.1497917175293,662,7565.0
8460,0.31393441557884216,-27.626388549804688,-498,7489.0,34.77061462402344,449,7565.0
8470,0.3177322745323181,-42.63199234008789,-743,7489.0,18.051794052124023,259,7565.0
8480,0.3186098337173462,-49.85100173950195,-750,7489.0,-8.964305877685547,-292,7565.0
8490,0.3195134997367859,-43.08645248413086,-714,7489.0,-31.352575302124023,-526,7565.0
8500,0.32042884826660156,-28.667205810546875,-307,7489.0,-41.239356994628906,-727,7565.0
8510,0.3213413953781128,-13.687972068786621,-266,7489.0,-42.674007415771484,-626,7565.0
8520,0.3223520517349243,-5.4705095291137695,-4,7489.0,-33.422061920166016,-448,7565.0
8530,0.3233891725540161,-2.2256410121917725,-38,7489.0,-17.28106689453125,-170,7565.0
8540,0.3241409361362457,-3.9729042053222656,-1,7489.0,-2.025395154953003,68,7565.0
8550,0.3250280022621155,-4.280226707458496,-105,7489.0,8.602924346923828,265,7565.0
8560,0.32545018196105957,-3.9314467906951904,-21,7489.0,20.70774269104004,368,7565.0
8570,0.3260793089866638,-0.7606363892555237,61,7489.0,35.42311477661133,766,7565.0
8580,0.326551616191864,9.748404502868652,150,7489.0,37.93649673461914,570,7565.0
8590,0.32684823870658875,17.718435287475586,331,7489.0,34.622833251953125,590,7565.0
8600,0.327116996049881,17.525936126708984,211,7489.0,19.346864700317383,278,7565.0
8610,0.32712018489837646,3.8872365951538086,102,7489.0,10.840788841247559,109,7565.0
8620,0.32679393887519836,-9.635263442993164,-240,7489.0,1.347899317741394,53,7565.0
8630,0.32648271322250366,-16.146568298339844,-269,7489.0,-3.577937364578247,-193,7565.0
8640,0.3259958028793335,-18.71753692626953,-288,7489.0,-6.884910583496094,-9,7565.0
8650,0.32534968852996826,-10.114997863769531,-83,7489.0,-15.640535354614258,-296,7565.0
8660,0.32441458106040955,8.530757904052734,283,7489.0,-32.889732360839844,-639,7565.0
8670,0.32339876890182495,23.83993911743164,391,7489.0,-44.54008102416992,-667,7565.0
8680,0.32223036885261536,27.138643264770508,453,7489.0,-41.84503173828125,-666,7565.0
8690,0.32105889916419983,13.887465476989746,136,7489.0,-36.27256393432617,-599,7565.0
8700,0.32186925411224365,0.8995459675788879,-109,7489.0,-25.889020919799805,-283,7565.0
8710,0.3209177255630493,-8.921134948730469,-160,7489.0,-10.409928321838379,-64,7565.0
8720,0.3200080394744873,-15.40261173248291,-288,7489.0,2.1648941040039062,-62,7565.0
8730,0.318875253200531,-27.473569869995117,-473,7489.0,4.218471527099609,86,7565.0
8740,0.31806737184524536,-30.814476013183594,-565,7489.0,8.265118598937988,246,7565.0
8750,0.31709203124046326,-33.73157501220703,-545,7489.0,19.385622024536133,272,7565.0
8760,0.3161954879760742,-32.67190170288086,-569,7489.0,19.848020553588867,414,7565.0
8770,0.3152587413787842,-28.97233009338379,-451,7489.0,20.927087783813477,278,7565.0
8780,0.3157314956188202,-19.855745315551758,-287,7489.0,17.730924606323242,293,7565.0
8790,0.3148738741874695,-1.0467194318771362,110,7489.0,7.39979887008667,114,7565.0
8800,0.3141382932662964,7.249884128570557,46,7489.0,4.245741844177246,-20,7565.0
8810,0.31330904364585876,9.262249946594238,192,7489.0,3.723663091659546,105,7565.0
8820,0.3125094473361969,14.531161308288574,330,7489.0,-0.5549748539924622,-76,7565.0
8830,0.3143087923526764,20.6409969329834,251,7489.0,-7.059577465057373,-213,7565.0
8840,0.31370118260383606,17.250890731811523,329,7489.0,-17.36665153503418,-209,7565.0
8850,0.31323128938674927,14.199149131774902,192,7489.0,-18.73734474182129,-385,7565.0
8860,0.3128053843975067,0.7414481043815613,-94,7489.0,-13.807029724121094,-119,7565.0
8870,0.3125544488430023,-8.594644546508789,-93,7489.0,-5.555840492248535,-119,7565.0
8880,0.3123394846916199,-8.051630020141602,-199,7489.0,-7.321359634399414,-155,7565.0
8890,0.31227821111679077,-17.1711483001709,-253,7489.0,-11.613073348999023,-109,7565.0
8900,0.3124641180038452,-26.67106819152832,-554,7489.0,-9.548845291137695,-255,7565.0
8910,0.31390976905822754,-30.73097038269043,-443,7489.0,-0.12424761801958084,187,7565.0
8920,0.3143068552017212,-25.73489761352539,-366,7489.0,16.645774841308594,323,7565.0
8930,0.3149891495704651,-15.627620697021484,-226,7489.0,27.18552017211914,445,7565.0
8940,0.3155664801597595,7.324142932891846,265,7489.0,31.875078201293945,632,7565.0
8950,0.3163306713104248,32.3842887878418,709,7489.0,24.76007843017578,319,7565.0
8960,0.3189377188682556,53.51222610473633,871,7489.0,15.782342910766602,151,7565.0
8970,0.31988245248794556,55.649837493896484,867,7489.0,6.22852087020874,152,7565.0
8980,0.32055094838142395,41.37820053100586,667,7489.0,0.8036651611328125,-42,7565.0
8990,0.32118451595306396,22.5299015045166,209,7489.0,-0.5943247675895691,-135,7565.0
9000,0.321612685918808,5.748048305511475,71,7489.0,-1.6869336366653442,42,7565.0
9010,0.3220825493335724,-5.836655139923096,-101,7489.0,-7.318098068237305,-221,7565.0
9020,0.3225288689136505,-7.365565299987793,-138,7489.0,-16.646085739135742,-304,7565.0
9030,0.32297083735466003,-4.416489124298096,13,7489.0,-21.45372200012207,-357,7565.0
9040,0.3233826160430908,-1.5997833013534546,2,7489.0,-25.838403701782227,-516,7565.0
9050,0.323113352060318,-0.9086647033691406,21,7489.0,-32.31414794921875,-481,7565.0
9060,0.32358601689338684,1.0327924489974976,-10,7489.0,-44.35456848144531,-797,7565.0
9070,0.3239843249320984,6.4568352699279785,184,7489.0,-41.45259475708008,-607,7565.0
9080,0.32457205653190613,19.60472297668457,269,7489.0,-8.318320274353027,92,7565.0
9090,0.3265785872936249,27.21683692932129,529,7489.0,23.441850662231445,432,7565.0
9100,0.32746246457099915,27.020618438720703,418,7489.0,45.26219177246094,951,7565.0
9110,0.3280029296875,26.403335571289062,380,7489.0,69.48394012451172,1116,7565.0
9120,0.3284611403942108,21.12888526916504,333,7489.0,85.62156677246094,1481,7565.0
9130,0.3301770091056824,15.486513137817383,171,7489.0,85.78538513183594,1358,7565.0
9140,0.33030974864959717,7.654112339019775,136,7489.0,72.71605682373047,1175,7565.0
9150,0.3306351900100708,0.8267280459403992,-84,7489.0,53.689754486083984,694,7565.0
9160,0.3314023017883301,-7.300693988800049,-104,7489.0,23.244997024536133,261,7565.0
9170,0.33208733797073364,-11.133593559265137,-151,7489.0,-13.21897029876709,-587,7565.0
9180,0.33112144470214844,-14.030594825744629,-239,7489.0,-52.64445114135742,-954,7565.0
9190,0.3311837911605835,-12.44579029083252,-134,7489.0,-80.19123840332031,-1407,7565.0
9200,0.331078439950943,-11.489078521728516,-196,7489.0,-83.8134536743164,-1238,7565.0
9210,0.33142024278640747,-19.87267303466797,-414,7489.0,-69.57951354980469,-1134,7565.0
9220,0.3282606303691864,-32.227169036865234,-502,7489.0,-48.82431411743164,-640,7565.0
9230,0.3279478847980499,-36.97288131713867,-662,7489.0,-27.68938636779785,-290,7565.0
9240,0.3286284804344177,-36.02792739868164,-509,7489.0,-8.535918235778809,-92,7565.0
9250,0.32902514934539795,-23.71197509765625,-297,7489.0,15.517510414123535,491,7565.0
9260,0.33007702231407166,-8.835991859436035,94,7489.0,39.339115142822266,649,7565.0
9270,0.3266582190990448,15.533873558044434,427,7489.0,51.490482330322266,934,7565.0
9280,0.3270546495914459,32.84785079956055,496,7489.0,52.380367279052734,803,7565.0
9290,0.32724717259407043,34.31502151489258,562,7489.0,53.11732864379883,971,7565.0
9300,0.3277933895587921,25.913455963134766,279,7489.0,52.95929718017578,700,7565.0
9310,0.32456904649734497,14.159662246704102,257,7489.0,33.213314056396484,460,7565.0
9320,0.32477447390556335,13.975724220275879,218,7489.0,6.179606914520264,-20,7565.0
9330,0.32445263862609863,17.16729164123535,361,7489.0,-14.212268829345703,-338,7565.0
9340,0.32409173250198364,17.442838668823242,194,7489.0,-23.526628494262695,-331,7565.0
9350,0.3237745761871338,8.349540710449219,117,7489.0,-25.404621124267578,-560,7565.0
9360,0.321729451417923,-2.231239080429077,-106,7489.0,-28.88047981262207,-442,7565.0
9370,0.32138144969940186,-10.61788558959961,-179,7489.0,-27.23963165283203,-454,7565.0
9380,0.3210466504096985,-20.525224685668945,-392,7489.0,-24.953502655029297,-422,7565.0
9390,0.3207053244113922,-31.382429122924805,-661,7489.0,-21.265174865722656,-254,7565.0
9400,0.31942424178123474,-40.735836029052734,-625,7489.0,-14.255258560180664,-254,7565.0
9410,0.3193646967411041,-43.0793342590332,-636,7489.0,-9.604695320129395,-127,7565.0
9420,0.3194190263748169,-35.0562858581543,-582,7489.0,2.9494264125823975,143,7565.0
9430,0.31947895884513855,-23.561471939086914,-271,7489.0,15.261029243469238,250,7565.0
9440,0.3181631863117218,-6.9990386962890625,-137,7489.0,21.67078971862793,474,7565.0
9450,0.31872132420539856,3.6982200145721436,134,7489.0,32.035987854003906,534,7565.0
9460,0.319306343793869,14.966638565063477,217,7489.0,44.78897476196289,844,7565.0
9470,0.31971684098243713,14.4042329788208,261,7489.0,43.42770004272461,578,7565.0
9480,0.3202698230743408,-0.03338582068681717,-114,7489.0,28.79738998413086,358,7565.0
9490,0.31946349143981934,-8.525306701660156,-69,7489.0,6.171990871429443,83,7565.0
9500,0.31980568170547485,-3.2077388763427734,-60,7489.0,-11.211186408996582,-403,7565.0
9510,0.31995490193367004,0.41777554154396057,19,7489.0,-28.702455520629883,-426,7565.0
9520,0.320281058549881,3.2901530265808105,138,7489.0,-38.983619689941406,-669,7565.0
9530,0.31910091638565063,7.0277509689331055,43,7489.0,-40.997711181640625,-707,7565.0
9540,0.3191666305065155,2.7346179485321045,96,7489.0,-35.3554801940918,-555,7565.0
9550,0.31916746497154236,-2.7491657733917236,-185,7489.0,-25.44244956970215,-366,7565.0
9560,0.3192363977432251,-5.9731621742248535,-33,7489.0,-18.02357292175293,-225,7565.0
9570,0.3181111216545105,-5.851746559143066,-159,7489.0,-4.363201141357422,-68,7565.0
9580,0.31858956813812256,-8.396339416503906,-110,7489.0,1.239894151687622,21,7565.0
9590,0.3185621201992035,-20.745393753051758,-441,7489.0,1.7766677141189575,-12,7565.0
9600,0.31940826773643494,-30.09900665283203,-496,7489.0,4.090620517730713,223,7565.0
9610,0.3192001283168793,-23.267292022705078,-262,7489.0,19.186429977416992,322,7565.0
9620,0.31967082619667053,-4.968276023864746,-78,7489.0,31.134883880615234,573,7565.0
9630,0.31985601782798767,10.755237579345703,277,7489.0,36.462318420410156,690,7565.0
9640,0.3209773302078247,23.421756744384766,431,7489.0,30.099645614624023,450,7565.0
9650,0.32110387086868286,33.26344680786133,570,7489.0,23.046293258666992,261,7565.0
9660,0.3231637179851532,40.26369094848633,658,7489.0,16.182323455810547,337,7565.0
9670,0.3237134516239166,30.73211669921875,544,7489.0,11.81265640258789,109,7565.0
9680,0.32434597611427307,21.548561096191406,265,7489.0,8.585681915283203,6,7565.0
9690,0.3248841464519501,14.813916206359863,165,7489.0,-2.8686904907226562,-35,7565.0
9700,0.32538118958473206,12.88939094543457,242,7489.0,-16.55976676940918,-276,7565.0
9710,0.3262767493724823,3.6140527725219727,-58,7489.0,-28.210081100463867,-591,7565.0
9720,0.32654356956481934,-6.847132682800293,-232,7489.0,-45.0852165222168,-797,7565.0
9730,0.326834499835968,-14.611862182617188,-149,7489.0,-59.18021011352539,-907,7565.0
9740,0.3267515301704407,-5.345225811004639,-109,7489.0,-59.180763244628906,-1022,7565.0
9750,0.32752734422683716,2.8810946941375732,102,7489.0,-57.16889572143555,-817,7565.0
9760,0.3275113105773926,4.662752151489258,84,7489.0,-54.0988655090332,-969,7565.0
9770,0.3278547525405884,5.223426342010498,82,7489.0,-44.29734420776367,-581,7565.0
9780,0.3281077742576599,6.369661808013916,88,7489.0,-28.277809143066406,-413,7565.0
9790,0.32812967896461487,10.08358383178711,283,7489.0,-0.5108363032341003,106,7565.0
9800,0.32878026366233826,18.665178298950195,411,7489.0,24.135892868041992,479,7565.0
9810,0.32956016063690186,25.737783432006836,485,7489.0,52.34159469604492,1010,7565.0
9820,0.33030247688293457,19.94795799255371,194,7489.0,78.830322265625,1407,7565.0
9830,0.3308406472206116,8.178714752197266,23,7489.0,92.22339630126953,1549,7565.0
9840,0.3302363455295563,-1.4424139261245728,-67,7489.0,87.0383529663086,1273,7565.0
9850,0.3303075432777405,-2.6125025749206543,-27,7489.0,70.28396606445312,1016,7565.0
9860,0.33043670654296875,3.9803335666656494,116,7489.0,40.21617126464844,615,7565.0
9870,0.33161264657974243,-3.2248635292053223,-80,7489.0,4.34890604019165,-204,7565.0
9880,0.33248865604400635,-19.328006744384766,-474,7489.0,-41.22976303100586,-1011,7565.0
9890,0.3329542279243469,-36.13003158569336,-615,7489.0,-76.60498046875,-1339,7565.0
9900,0.3330322504043579,-44.479095458984375,-703,7489.0,-90.46112060546875,-1481,7565.0
9910,0.33317846059799194,-45.56401062011719,-755,7489.0,-82.07730102539062,-1312,7565.0
9920,0.33318445086479187,-42.16106033325195,-631,7489.0,-63.204524993896484,-818,7565.0
9930,0.33103668689727783,-38.21488952636719,-643,7489.0,-39.2162971496582,-637,7565.0
9940,0.3314896821975708,-32.0158576965332,-528,7489.0,-13.260232925415039,74,7565.0
9950,0.3321256637573242,-34.25019073486328,-576,7489.0,15.97460651397705,333,7565.0
9960,0.3323317766189575,-34.39686965942383,-516,7489.0,30.091312408447266,624,7565.0
9970,0.33103320002555847,-17.056901931762695,-144,7489.0,41.02597427368164,811,7565.0
9980,0.3314322829246521,5.968379020690918,384,7489.0,43.51634216308594,690,7565.0
9990,0.33189237117767334,44.43009567260742,874,7489.0,46.73908615112305,761,7565.0
10000,0.3325016498565674,73.37751007080078,1310,7489.0,45.80892562866211,826,7565.0
10010,0.3332274854183197,86.56659698486328,1467,7489.0,46.671634674072266,736,7565.0
10020,0.33347469568252563,78.71036529541016,1177,7489.0,34.67444610595703,368,7565.0
10030,0.3332504332065582,46.1767692565918,523,7489.0,23.02485466003418,339,7565.0
10040,0.33456045389175415,13.286481857299805,67,7489.0,4.225411415100098,-12,7565.0
10050,0.3344823122024536,-17.98508644104004,-415,7489.0,-18.646732330322266,-552,7565.0
10060,0.3342808485031128,-38.724761962890625,-792,7489.0,-42.285423278808594,-750,7565.0
10070,0.33455872535705566,-46.7265739440918,-650,7489.0,-56.940189361572266,-994,7565.0
10080,0.3345371186733246,-40.784149169921875,-695,7489.0,-50.00096130371094,-724,7565.0
10090,0.3346497118473053,-37.074928283691406,-611,7489.0,-37.90777587890625,-570,7565.0
10100,0.33445611596107483,-34.25762176513672,-611,7489.0,-26.514759063720703,-431,7565.0
10110,0.3345164358615875,-34.04814910888672,-514,7489.0,-13.771293640136719,-53,7565.0
10120,0.3348342180252075,-34.152923583984375,-593,7489.0,5.873268127441406,133,7565.0
10130,0.33531463146209717,-32.00178527832031,-550,7489.0,26.31879425048828,511,7565.0
10140,0.3335001766681671,-23.801185607910156,-272,7489.0,32.8187370300293,605,7565.0
10150,0.33377742767333984,2.033061981201172,186,7489.0,31.33108901977539,412,7565.0
10160,0.33409789204597473,36.09893035888672,633,7489.0,16.88579750061035,196,7565.0
10170,0.3345506191253662,56.49872970581055,962,7489.0,16.560232162475586,412,7565.0
10180,0.3348289132118225,66.27718353271484,1137,7489.0,17.524381637573242,216,7565.0
10190,0.336956262588501,58.73027420043945,867,7489.0,22.762096405029297,320,7565.0
10200,0.33732548356056213,40.84193801879883,606,7489.0,21.559707641601562,401,7565.0
10210,0.3373609185218811,17.5117130279541,113,7489.0,19.929964065551758,208,7565.0
10220,0.3377087116241455,-7.9828619956970215,-179,7489.0,18.20627212524414,403,7565.0
10230,0.3376768231391907,-25.337421417236328,-498,7489.0,10.556513786315918,54,7565.0
10240,0.3374851942062378,-24.9904727935791,-446,7489.0,-6.712091445922852,-168,7565.0
10250,0.3374273478984833,-17.913938522338867,-200,7489.0,-28.878877639770508,-572,7565.0
10260,0.3373952805995941,-14.2697172164917,-307,7489.0,-41.96204376220703,-762,7565.0
10270,0.3372918367385864,-17.974557876586914,-287,7489.0,-46.973915100097656,-702,7565.0
10280,0.3352423310279846,-16.10284423828125,-244,7489.0,-49.95030212402344,-922,7565.0
10290,0.33500388264656067,-7.275930404663086,-43,7489.0,-48.94069290161133,-678,7565.0
10300,0.33478856086730957,0.08714669942855835,-50,7489.0,-39.8906135559082,-625,7565.0
10310,0.33468225598335266,0.9283526539802551,110,7489.0,-23.96039581298828,-306,7565.0
10320,0.33202508091926575,-4.457468032836914,-159,7489.0,-3.8421571254730225,39,7565.0
10330,0.33215761184692383,-6.154637813568115,-91,7489.0,16.978687286376953,317,7565.0
10340,0.33204805850982666,-0.1180567517876625,48,7489.0,36.88187026977539,753,7565.0
10350,0.3318103551864624,11.919503211975098,238,7489.0,54.15293884277344,860,7565.0
10360,0.3312271237373352,21.91349983215332,410,7489.0,61.55265808105469,1153,7565.0
10370,0.33105039596557617,20.2268009185791,249,7489.0,62.50279235839844,907,7565.0
10380,0.3306432366371155,7.780648708343506,26,7489.0,53.29878616333008,848,7565.0
10390,0.32993826270103455,-4.6158246994018555,-67,7489.0,37.7348747253418,536,7565.0
10400,0.3295508027076721,-14.716351509094238,-290,7489.0,14.19210147857666,21,7565.0
10410,0.3296080529689789,-19.929637908935547,-378,7489.0,-14.699947357177734,-335,7565.0
10420,0.329204797744751,-23.214815139770508,-317,7489.0,-44.66990280151367,-800,7565.0
10430,0.32881593704223633,-21.30646514892578,-351,7489.0,-66.40435028076172,-1245,7565.0
10440,0.3282468914985657,-14.190522193908691,-230,7489.0,-78.32755279541016,-1150,7565.0
10450,0.3288341164588928,-11.021875381469727,-207,7489.0,-69.15430450439453,-1167,7565.0
10460,0.3286794126033783,-13.29110050201416,-205,7489.0,-55.863399505615234,-811,7565.0
10470,0.3283592462539673,-17.940338134765625,-393,7489.0,-43.81291580200195,-598,7565.0
10480,0.3283013105392456,-21.702856063842773,-293,7489.0,-29.000946044921875,-335,7565.0
10490,0.3286369740962982,-17.13694953918457,-321,7489.0,13.981143951416016,517,7565.0
10500,0.3273174464702606,-6.007456302642822,27,7489.0,51.560176849365234,1009,7565.0
10510,0.3276444375514984,-0.613381564617157,39,7489.0,80.16259765625,1418,7565.0
10520,0.3279186189174652,9.409564971923828,143,7489.0,81.32440185546875,1223,7565.0
10530,0.3283548057079315,15.686837196350098,284,7489.0,77.32915496826172,1248,7565.0
10540,0.32905998826026917,7.084169864654541,101,7489.0,63.407249450683594,839,7565.0
10550,0.3292980194091797,-6.484469890594482,-231,7489.0,40.063140869140625,455,7565.0
10560,0.32958492636680603,-17.409828186035156,-253,7489.0,15.958395004272461,193,7565.0
10570,0.33028215169906616,-18.072772979736328,-266,7489.0,-8.453303337097168,-305,7565.0
10580,0.33071598410606384,-11.855228424072266,-241,7489.0,-31.012264251708984,-577,7565.0
10590,0.3326254189014435,-7.880361557006836,-101,7489.0,-43.898616790771484,-683,7565.0
10600,0.33296534419059753,-8.318708419799805,-218,7489.0,-51.75917434692383,-916,7565.0
10610,0.33345767855644226,-8.622353553771973,-257,7489.0,-42.208866119384766,-504,7565.0
10620,0.3338332176208496,-14.295960426330566,-265,7489.0,-23.206302642822266,-269,7565.0
10630,0.3349936902523041,-20.193742752075195,-293,7489.0,-11.437347412109375,-85,7565.0
10640,0.33576151728630066,-21.000593185424805,-383,7489.0,-4.938441276550293,-15,7565.0
10650,0.3367241322994232,-15.231428146362305,-67,7489.0,-2.692007064819336,-96,7565.0
10660,0.33770743012428284,-3.4045844078063965,-28,7489.0,13.70245361328125,357,7565.0
10670,0.34052565693855286,6.533470153808594,180,7489.0,28.485990524291992,492,7565.0
10680,0.34190282225608826,18.299301147460938,346,7489.0,34.776187896728516,604,7565.0
10690,0.34316927194595337,16.338367462158203,152,7489.0,49.028987884521484,906,7565.0
10700,0.3446882963180542,3.414917230606079,-6,7489.0,50.44257736206055,718,7565.0
10710,0.34603434801101685,-10.037111282348633,-223,7489.0,46.332359313964844,720,7565.0
10720,0.34650933742523193,-20.449556350708008,-431,7489.0,35.41911697387695,484,7565.0
10730,0.3481084406375885,-21.420888900756836,-339,7489.0,18.24565315246582,312,7565.0
10740,0.34940069913864136,-9.017800331115723,-140,7489.0,-7.298828125,-241,7565.0
10750,0.35027313232421875,-0.5505335927009583,-20,7489.0,-27.603666305541992,-431,7565.0
10760,0.35039272904396057,4.68169641494751,26,7489.0,-41.705570220947266,-748,7565.0
10770,0.35081982612609863,-0.9803673624992371,17,7489.0,-51.92825698852539,-854,7565.0
10780,0.3511955440044403,-4.378946304321289,-131,7489.0,-46.4085807800293,-596,7565.0
10790,0.35152456164360046,0.7459796667098999,71,7489.0,-30.384931564331055,-514,7565.0
10800,0.3502565622329712,17.951946258544922,330,7489.0,-20.370960235595703,-322,7565.0
10810,0.3503068685531616,26.94577407836914,432,7489.0,-8.696499824523926,-23,7565.0
10820,0.3505067825317383,27.066082000732422,404,7489.0,-3.9456419944763184,-71,7565.0
10830,0.350507915019989,22.746936798095703,426,7489.0,-17.007246017456055,-387,7565.0
10840,0.3504432737827301,23.813901901245117,326,7489.0,-17.532222747802734,-179,7565.0
10850,0.34978601336479187,9.038412094116211,110,7489.0,8.891020774841309,324,7565.0
10860,0.3498793840408325,-0.8376302719116211,-111,7489.0,40.44321060180664,830,7565.0
10870,0.3498707115650177,-14.147502899169922,-274,7489.0,54.26054763793945,867,7565.0
10880,0.34953415393829346,-13.574317932128906,-104,7489.0,56.891048431396484,885,7565.0
10890,0.34866854548454285,2.466249942779541,15,7489.0,54.302528381347656,933,7565.0
10900,0.34813404083251953,6.67156457901001,157,7489.0,41.032466888427734,545,7565.0
10910,0.3470829427242279,2.5567867755889893,-107,7489.0,10.2037992477417,109,7565.0
10920,0.34651631116867065,-5.542350769042969,-142,7489.0,-27.5214900970459,-609,7565.0
10930,0.34562262892723083,-15.933425903320312,-298,7489.0,-53.88998794555664,-927,7565.0
10940,0.3456284701824188,-16.936052322387695,-226,7489.0,-54.44335174560547,-886,7565.0
10950,0.34459567070007324,-10.573108673095703,-199,7489.0,-47.21904373168945,-613,7565.0
10960,0.3434935510158539,1.0812941789627075,29,7489.0,-31.33782196044922,-430,7565.0
10970,0.34253644943237305,5.91016149520874,151,7489.0,-19.525390625,-250,7565.0
10980,0.34247106313705444,21.277503967285156,478,7489.0,-14.756551742553711,-339,7565.0
10990,0.34189170598983765,27.8455810546875,370,7489.0,-13.094315528869629,-24,7565.0
11000,0.341384619474411,9.964757919311523,79,7489.0,7.838531494140625,86,7565.0
11010,0.3410780429840088,-18.666288375854492,-420,7489.0,19.183040618896484,422,7565.0
11020,0.3428003489971161,-42.27421951293945,-754,7489.0,25.07803726196289,382,7565.0
11030,0.34246110916137695,-31.152372360229492,-377,7489.0,28.308168411254883,516,7565.0
11040,0.34196096658706665,-9.202240943908691,142,7489.0,25.489105224609375,368,7565.0
11050,0.3418322205543518,30.416921615600586,589,7489.0,15.472479820251465,78,7565.0
11060,0.3417072296142578,52.542240142822266,964,7489.0,-2.3494246006011963,-14,7565.0
11070,0.3415378928184509,57.8509521484375,984,7489.0,-10.340768814086914,-212,7565.0
11080,0.3410360515117645,47.73234939575195,580,7489.0,-11.16635513305664,-159,7565.0
11090,0.3403589129447937,26.807035446166992,397,7489.0,-11.38888931274414,-136,7565.0
11100,0.34054216742515564,7.648826599121094,-2,7489.0,-10.83150577545166,-245,7565.0
11110,0.3400406837463379,-9.505095481872559,-145,7489.0,-13.569930076599121,-178,7565.0
11120,0.339487224817276,-16.791812896728516,-402,7489.0,-16.64803123474121,-277,7565.0
11130,0.33894985914230347,-23.713491439819336,-335,7489.0,-10.653563499450684,-57,7565.0
11140,0.3384212553501129,-23.56724739074707,-367,7489.0,-5.156158924102783,-158,7565.0
11150,0.33808693289756775,-16.131256103515625,-239,7489.0,-2.450963258743286,24,7565.0
11160,0.33871808648109436,-6.4265899658203125,-5,7489.0,0.49448418617248535,0,7565.0
11170,0.3386695981025696,1.2532720565795898,-16,7489.0,1.715227723121643,7,7565.0
11180,0.33878248929977417,2.874926805496216,102,7489.0,8.105178833007812,284,7565.0
11190,0.3389260172843933,10.844136238098145,256,7489.0,12.936644554138184,144,7565.0
11200,0.33839306235313416,19.467857360839844,270,7489.0,7.311676025390625,159,7565.0
11210,0.3386024832725525,24.35881805419922,505,7489.0,14.102471351623535,407,7565.0
11220,0.3386920392513275,28.682004928588867,386,7489.0,30.283815383911133,466,7565.0
11230,0.33876150846481323,27.230318069458008,404,7489.0,38.944129943847656,696,7565.0
11240,0.3385768234729767,22.331392288208008,382,7489.0,36.02581787109375,527,7565.0
11250,0.3389908969402313,13.182195663452148,94,7489.0,26.367225646972656,216,7565.0
11260,0.33906614780426025,2.4315648078918457,25,7489.0,8.892064094543457,72,7565.0
11270,0.33889833092689514,-5.033735752105713,-54,7489.0,-0.5532394051551819,-129,7565.0
11280,0.33855339884757996,-7.18060302734375,-157,7489.0,-5.528013706207275,-69,7565.0
11290,0.33814719319343567,-3.2623400688171387,3,7489.0,-14.343612670898438,-335,7565.0
11300,0.33772292733192444,-5.454169273376465,-137,7489.0,-33.14000701904297,-701,7565.0
11310,0.33738192915916443,-22.120391845703125,-472,7489.0,-50.21321487426758,-781,7565.0
11320,0.3370869755744934,-31.705930709838867,-561,7489.0,-46.12211608886719,-782,7565.0
11330,0.3364904522895813,-27.481603622436523,-476,7489.0,-32.62617874145508,-375,7565.0
11340,0.336227685213089,-23.662952423095703,-363,7489.0,-13.264735221862793,-228,7565.0
11350,0.3368302285671234,-17.75253677368164,-391,7489.0,3.962951421737671,241,7565.0
11360,0.336966335773468,-23.70591163635254,-312,7489.0,22.840341567993164,431,7565.0
11370,0.3370833098888397,-15.129131317138672,-230,7489.0,46.467708587646484,766,7565.0
11380,0.33741500973701477,6.4634318351745605,312,7489.0,52.70646667480469,921,7565.0
11390,0.3378967046737671,42.77247619628906,908,7489.0,44.5813102722168,636,7565.0
11400,0.33813387155532837,63.403045654296875,1036,7489.0,34.65526580810547,397,7565.0
11410,0.3382512331008911,70.32432556152344,1010,7489.0,26.16722869873047,475,7565.0
11420,0.3395008146762848,53.649959564208984,814,7489.0,17.962047576904297,222,7565.0
11430,0.3398832380771637,24.13275718688965,147,7489.0,5.6869215965271,93,7565.0
11440,0.34029892086982727,-10.34575366973877,-355,7489.0,-14.048376083374023,-319,7565.0
11450,0.34030142426490784,-38.73223876953125,-774,7489.0,-31.960695266723633,-639,7565.0
11460,0.34161290526390076,-56.46816635131836,-919,7489.0,-43.36785888671875,-651,7565.0
11470,0.3417724072933197,-58.77457809448242,-992,7489.0,-41.992897033691406,-748,7565.0
11480,0.3421315848827362,-49.49397659301758,-739,7489.0,-35.32088088989258,-399,7565.0
11490,0.34233716130256653,-34.525474548339844,-491,7489.0,-20.045316696166992,-424,7565.0
11500,0.3433834910392761,-17.921669006347656,-274,7489.0,-13.5730562210083,-128,7565.0
11510,0.3431471884250641,-7.293557643890381,-13,7489.0,-2.662226438522339,-67,7565.0
11520,0.34400737285614014,-1.9006818532943726,-113,7489.0,7.294116020202637,195,7565.0
11530,0.3448784351348877,-3.106605291366577,-22,7489.0,20.000925064086914,345,7565.0
11540,0.3457399010658264,-10.258696556091309,-255,7489.0,19.551979064941406,248,7565.0
11550,0.3470892012119293,-10.975817680358887,-162,7489.0,20.86564064025879,416,7565.0
11560,0.34793785214424133,-3.8504998683929443,30,7489.0,25.487773895263672,353,7565.0
11570,0.34873226284980774,17.247638702392578,318,7489.0,21.826583862304688,331,7565.0
11580,0.3495508134365082,34.8568229675293,680,7489.0,12.247983932495117,230,7565.0
11590,0.3523029088973999,42.30701446533203,631,7489.0,9.17344856262207,64,7565.0
11600,0.3529067933559418,40.08842468261719,690,7489.0,4.970296382904053,116,7565.0
11610,0.3531884253025055,37.608943939208984,511,7489.0,-2.4606945514678955,-93,7565.0
11620,0.35324257612228394,26.78970718383789,377,7489.0,-15.201687812805176,-363,7565.0
11630,0.35484978556632996,1.4436075687408447,-195,7489.0,-31.027395248413086,-515,7565.0
11640,0.35463687777519226,-20.540264129638672,-330,7489.0,-32.421878814697266,-589,7565.0
11650,0.35471412539482117,-26.35710334777832,-419,7489.0,-34.50048828125,-551,7565.0
11660,0.35482093691825867,-33.829803466796875,-640,7489.0,-31.46599006652832,-398,7565.0
11670,0.35472676157951355,-35.87315368652344,-548,7489.0,-11.392929077148438,-197,7565.0
11680,0.35348233580589294,-27.547386169433594,-392,7489.0,2.180816411972046,204,7565.0
11690,0.3537737727165222,-14.00289249420166,-248,7489.0,18.960609436035156,296,7565.0
11700,0.3538954555988312,-5.7080302238464355,-22,7489.0,24.139068603515625,385,7565.0
11710,0.3540177345275879,-6.020577430725098,-229,7489.0,22.64784812927246,404,7565.0
11720,0.35439518094062805,-10.873778343200684,-170,7489.0,22.52527618408203,363,7565.0
11730,0.35393190383911133,-4.0420918464660645,-59,7489.0,26.13841438293457,452,7565.0
11740,0.3539372384548187,17.60691261291504,470,7489.0,24.37721061706543,354,7565.0
11750,0.3540385067462921,43.97795104980469,797,7489.0,16.96242904663086,176,7565.0
11760,0.3540087342262268,65.58316040039062,1141,7489.0,10.666081428527832,166,7565.0
11770,0.3534049093723297,65.59712219238281,1009,7489.0,4.231717586517334,-45,7565.0
11780,0.35291266441345215,49.077720642089844,722,7489.0,-5.3322248458862305,-156,7565.0
11790,0.35224878787994385,19.5198974609375,98,7489.0,-21.259464263916016,-454,7565.0
11800,0.35181012749671936,-14.723203659057617,-273,7489.0,-32.715904235839844,-720,7565.0
11810,0.3518540561199188,-31.058359146118164,-498,7489.0,-44.867862701416016,-722,7565.0
11820,0.35135969519615173,-31.89414405822754,-502,7489.0,-56.842891693115234,-1015,7565.0
11830,0.3503264784812927,-19.917835235595703,-199,7489.0,-51.162513732910156,-737,7565.0
11840,0.3495088219642639,-1.769191026687622,-16,7489.0,-33.170528411865234,-327,7565.0
11850,0.3491899371147156,7.925203800201416,215,7489.0,-7.30357551574707,-28,7565.0
11860,0.3467307984828949,12.729308128356934,172,7489.0,14.188054084777832,479,7565.0
11870,0.34624001383781433,3.969003200531006,7,7489.0,36.7234992980957,594,7565.0
11880,0.3457767069339752,-8.50963020324707,-203,7489.0,36.66252517700195,604,7565.0
11890,0.3453807234764099,-19.74310302734375,-319,7489.0,30.634769439697266,340,7565.0
11900,0.3431074917316437,-21.94379425048828,-258,7489.0,17.603836059570312,333,7565.0
11910,0.3427424132823944,6.927530765533447,303,7489.0,8.331379890441895,172,7565.0
11920,0.342288613319397,40.642738342285156,842,7489.0,13.40627670288086,88,7565.0
11930,0.34174925088882446,61.846160888671875,987,7489.0,15.590620040893555,349,7565.0
11940,0.341222882270813,55.12997817993164,813,7489.0,15.148748397827148,144,7565.0
11950,0.3415491282939911,30.3268985748291,231,7489.0,7.666364669799805,82,7565.0
11960,0.3411529064178467,-5.685523509979248,-268,7489.0,-0.9726374745368958,-102,7565.0
11970,0.34123551845550537,-37.70178985595703,-733,7489.0,-12.314581871032715,-261,7565.0
11980,0.3408413231372833,-57.25642395019531,-991,7489.0,-22.167219161987305,-335,7565.0
11990,0.3405710756778717,-62.0614128112793,-959,7489.0,-26.886505126953125,-526,7565.0
12000,0.34000661969184875,-50.32817840576172,-731,7489.0,-24.54851722717285,-250,7565.0
12010,0.3402085602283478,-25.520790100097656,-206,7489.0,-9.488127708435059,-110,7565.0
12020,0.34000730514526367,-3.00557279586792,7,7489.0,2.859581470489502,40,7565.0
12030,0.3372996747493744,16.12941551208496,370,7489.0,4.1273674964904785,166,7565.0
12040,0.337336927652359,24.431180953979492,421,7489.0,-2.065042734146118,-139,7565.0
12050,0.3374529182910919,12.213602066040039,45,7489.0,-5.625053405761719,-129,7565.0
12060,0.33764317631721497,-13.26077938079834,-274,7489.0,-8.664824485778809,-56,7565.0
12070,0.33793309330940247,-20.925687789916992,-313,7489.0,-5.222676753997803,-204,7565.0
12080,0.33791419863700867,-11.535038948059082,-151,7489.0,-0.2447798252105713,112,7565.0
12090,0.33822518587112427,-0.9962405562400818,67,7489.0,9.1538724899292,236,7565.0
12100,0.3385632336139679,10.723917961120605,208,7489.0,28.592653274536133,438,7565.0
12110,0.3388489782810211,24.137264251708984,388,7489.0,43.98855209350586,846,7565.0
12120,0.33783966302871704,25.97918128967285,414,7489.0,41.68017578125,498,7565.0
12130,0.33796846866607666,15.344017028808594,96,7489.0,25.422250747680664,310,7565.0
12140,0.337983638048172,-3.398810863494873,-77,7489.0,10.315197944641113,231,7565.0
12150,0.3378528952598572,-18.572790145874023,-411,7489.0,2.527771234512329,-153,7565.0
12160,0.33709049224853516,-22.339492797851562,-373,7489.0,-16.92131996154785,-321,7565.0
12170,0.33712050318717957,-17.929597854614258,-188,7489.0,-29.790950775146484,-528,7565.0
12180,0.336972713470459,-14.680694580078125,-302,7489.0,-26.97871971130371,-457,7565.0
12190,0.33699747920036316,-14.409266471862793,-208,7489.0,-17.33747673034668,-189,7565.0
12200,0.33710286021232605,-13.962284088134766,-272,7489.0,-14.058923721313477,-327,7565.0
12210,0.3376369774341583,-5.07938814163208,-35,7489.0,-15.443339347839355,-152,7565.0
12220,0.3380334675312042,-0.65803462266922,-43,7489.0,-4.16093635559082,-49,7565.0
12230,0.3385670483112335,-12.100308418273926,-242,7489.0,11.026178359985352,312,7565.0
12240,0.33931076526641846,-21.28761863708496,-318,7489.0,22.097291946411133,339,7565.0
12250,0.3407040536403656,-14.375679016113281,-229,7489.0,32.74858856201172,665,7565.0
12260,0.3414822220802307,6.992198944091797,307,7489.0,44.878761291503906,806,7565.0
12270,0.342134952545166,33.10721206665039,591,7489.0,50.77051544189453,745,7565.0
12280,0.3426583409309387,47.21321105957031,743,7489.0,45.36931610107422,814,7565.0
12290,0.3429403603076935,41.75130081176758,636,7489.0,35.825408935546875,485,7565.0
12300,0.34598368406295776,24.055831909179688,258,7489.0,23.829919815063477,255,7565.0
12310,0.34658482670783997,5.420658111572266,67,7489.0,2.645526170730591,45,7565.0
12320,0.3475446403026581,-6.407779693603516,-193,7489.0,-30.53156852722168,-784,7565.0
12330,0.3484250605106354,-15.565601348876953,-287,7489.0,-63.293190002441406,-1039,7565.0
12340,0.34993112087249756,-21.727590560913086,-392,7489.0,-70.33731079101562,-1220,7565.0
12350,0.3503762483596802,-30.432615280151367,-501,7489.0,-60.29823303222656,-851,7565.0
12360,0.3509109318256378,-39.90140914916992,-737,7489.0,-41.279109954833984,-679,7565.0
12370,0.3517695963382721,-41.68913650512695,-609,7489.0,-21.802637100219727,-294,7565.0
12380,0.352105975151062,-30.090709686279297,-494,7489.0,-8.811306953430176,-127,7565.0
12390,0.3528437912464142,-22.79674530029297,-283,7489.0,-3.178088665008545,-55,7565.0
12400,0.3537864089012146,-13.271049499511719,-213,7489.0,10.467368125915527,341,7565.0
12410,0.35496994853019714,-0.09310618042945862,140,7489.0,23.232608795166016,351,7565.0
12420,0.35625791549682617,17.587732315063477,344,7489.0,29.261241912841797,592,7565.0
12430,0.3542364239692688,27.041419982910156,488,7489.0,32.04268264770508,424,7565.0
12440,0.3547170162200928,37.46354293823242,658,7489.0,27.891294479370117,447,7565.0
12450,0.3550070822238922,41.5959587097168,614,7489.0,13.700889587402344,106,7565.0
12460,0.35534945130348206,34.98033142089844,513,7489.0,5.777781963348389,85,7565.0
12470,0.3552459180355072,17.514495849609375,175,7489.0,3.335310697555542,26,7565.0
12480,0.3549557328224182,3.207312822341919,66,7489.0,8.058455467224121,92,7565.0
12490,0.35458582639694214,-9.261628150939941,-231,7489.0,1.055661678314209,-22,7565.0
12500,0.3541516363620758,-13.44103717803955,-204,7489.0,-17.560537338256836,-541,7565.0
12510,0.3537258207798004,-14.377498626708984,-232,7489.0,-32.32178497314453,-436,7565.0
12520,0.35361534357070923,-20.30699348449707,-461,7489.0,-33.04229736328125,-530,7565.0
12530,0.35305890440940857,-25.984630584716797,-374,7489.0,-30.59908103942871,-451,7565.0
12540,0.35252007842063904,-24.541446685791016,-374,7489.0,-30.011621475219727,-467,7565.0
12550,0.3523421585559845,-14.029869079589844,-115,7489.0,-21.65585708618164,-374,7565.0
12560,0.3523499667644501,-5.514515399932861,-77,7489.0,-9.718374252319336,16,7565.0
12570,0.3521219491958618,3.1158111095428467,174,7489.0,11.216146469116211,188,7565.0
12580,0.35210615396499634,8.450785636901855,60,7489.0,15.261248588562012,306,7565.0
12590,0.3519896864891052,2.8284239768981934,87,7489.0,10.018964767456055,103,7565.0
12600,0.35193219780921936,8.406949996948242,157,7489.0,6.170224189758301,161,7565.0
12610,0.35254421830177307,22.53581428527832,462,7489.0,3.4206032752990723,-24,7565.0
12620,0.3523252606391907,27.4539737701416,420,7489.0,-0.5507874488830566,28,7565.0
12630,0.3519819378852844,20.97142219543457,318,7489.0,0.45667487382888794,-52,7565.0
12640,0.35150760412216187,0.85309898853302,-191,7489.0,6.971416473388672,207,7565.0
12650,0.35378339886665344,-21.906003952026367,-414,7489.0,6.130880355834961,-3,7565.0
12660,0.35344424843788147,-33.21331787109375,-489,7489.0,-4.563803195953369,-52,7565.0
12670,0.35303178429603577,-28.225553512573242,-441,7489.0,-7.8007588386535645,-213,7565.0
12680,0.3525334596633911,-13.599539756774902,-118,7489.0,-11.660531044006348,-154,7565.0
12690,0.3523509204387665,0.6374557614326477,69,7489.0,-19.482341766357422,-429,7565.0
12700,0.35191792249679565,11.757164001464844,211,7489.0,-29.6623477935791,-461,7565.0
12710,0.3516972064971924,16.540390014648438,346,7489.0,-32.61372756958008,-636,7565.0
12720,0.3512735962867737,21.092193603515625,293,7489.0,-40.79997634887695,-591,7565.0
12730,0.35077807307243347,15.698221206665039,218,7489.0,-35.685997009277344,-633,7565.0
12740,0.35149675607681274,4.16062068939209,40,7489.0,-15.937139511108398,-63,7565.0
12750,0.3517947494983673,-3.827970027923584,-117,7489.0,8.53690242767334,217,7565.0
12760,0.3518602252006531,-5.0066351890563965,-35,7489.0,30.627769470214844,577,7565.0
12770,0.3521231710910797,4.870888710021973,174,7489.0,44.68295669555664,744,7565.0
12780,0.3522038161754608,21.618738174438477,492,7489.0,47.057044982910156,812,7565.0
12790,0.352202445268631,36.638084411621094,550,7489.0,48.95231246948242,813,7565.0
12800,0.3521098792552948,39.711002349853516,690,7489.0,41.85260009765625,698,7565.0
12810,0.3518698215484619,33.84028244018555,446,7489.0,32.1129035949707,435,7565.0
12820,0.35047420859336853,20.522228240966797,347,7489.0,20.009929656982422,349,7565.0
12830,0.3502483069896698,5.139185428619385,-71,7489.0,6.501019477844238,47,7565.0
12840,0.3498820662498474,-11.604692459106445,-213,7489.0,-8.170550346374512,-56,7565.0
12850,0.3495115637779236,-17.62171173095703,-333,7489.0,-12.24205207824707,-329,7565.0
12860,0.3491712510585785,-22.107799530029297,-369,7489.0,-8.451498031616211,-67,7565.0
12870,0.3478713035583496,-24.29401969909668,-481,7489.0,-5.035447120666504,-111,7565.0
12880,0.34742698073387146,-26.79037094116211,-392,7489.0,-4.886286735534668,-12,7565.0
12890,0.34705445170402527,-26.511882781982422,-423,7489.0,-5.471695423126221,-205,7565.0
12900,0.34673821926116943,-19.737939834594727,-329,7489.0,-2.0727920532226562,91,7565.0
12910,0.34473031759262085,-23.01726722717285,-421,7489.0,4.867801666259766,-10,7565.0
12920,0.3445248305797577,-24.600894927978516,-427,7489.0,3.0909106731414795,93,7565.0
12930,0.3442426025867462,-28.777854919433594,-371,7489.0,-0.07827062159776688,-33,7565.0
12940,0.3444550633430481,-6.752567768096924,8,7489.0,9.067052841186523,141,7565.0
12950,0.3443485200405121,33.0949821472168,609,7489.0,11.202458381652832,270,7565.0
12960,0.3428877294063568,52.350772857666016,1002,7489.0,10.293747901916504,153,7565.0
12970,0.34285157918930054,61.35414123535156,889,7489.0,13.06820011138916,269,7565.0
12980,0.34255632758140564,55.1700439453125,917,7489.0,14.416316986083984,264,7565.0
12990,0.3421153128147125,35.19352340698242,432,7489.0,10.074968338012695,94,7565.0
13000,0.34201258420944214,6.561100482940674,37,7489.0,5.0869140625,158,7565.0
13010,0.3418523669242859,-19.2849178314209,-473,7489.0,3.8493411540985107,-84,7565.0
13020,0.3415760397911072,-33.01679229736328,-700,7489.0,-2.631730556488037,50,7565.0
13030,0.34125199913978577,-38.55436325073242,-609,7489.0,-7.156142234802246,-239,7565.0
13040,0.34091120958328247,-37.921138763427734,-620,7489.0,-10.884671211242676,-98,7565.0
13050,0.34061169624328613,-29.041061401367188,-355,7489.0,-11.655350685119629,-248,7565.0
13060,0.3402930796146393,-10.887765884399414,-111,7489.0,-14.88370132446289,-359,7565.0
13070,0.34052419662475586,3.80672025680542,104,7489.0,-21.212440490722656,-268,7565.0
13080,0.34049445390701294,14.685160636901855,362,7489.0,-24.331188201904297,-506,7565.0
13090,0.34035229682922363,18.2324275970459,207,7489.0,-23.947792053222656,-308,7565.0
13100,0.3407299220561981,12.318379402160645,252,7489.0,-7.3211259841918945,-20,7565.0
13110,0.341208815574646,11.168730735778809,213,7489.0,15.621330261230469,360,7565.0
13120,0.34190183877944946,18.696653366088867,395,7489.0,26.917360305786133,567,7565.0
13130,0.34311866760253906,20.258567810058594,305,7489.0,39.18867492675781,669,7565.0
13140,0.34357064962387085,13.21683120727539,273,7489.0,47.46426773071289,843,7565.0
13150,0.3438189923763275,6.795029640197754,4,7489.0,47.29506301879883,700,7565.0
13160,0.34451231360435486,-4.933316230773926,-101,7489.0,40.813514709472656,604,7565.0
13170,0.34467649459838867,-11.710481643676758,-251,7489.0,21.30198097229004,140,7565.0
13180,0.3458075523376465,-11.085732460021973,-180,7489.0,0.8527082204818726,-45,7565.0
13190,0.34624677896499634,-9.851696014404297,-140,7489.0,-19.20459747314453,-474,7565.0
13200,0.346588134765625,-9.04873275756836,-210,7489.0,-37.0009765625,-554,7565.0
13210,0.3468504250049591,-11.210107803344727,-184,7489.0,-40.78184509277344,-746,7565.0
13220,0.34705650806427,-12.98956298828125,-280,7489.0,-34.980899810791016,-531,7565.0
13230,0.347367525100708,-19.346542358398438,-328,7489.0,-30.1673526763916,-428,7565.0
13240,0.3477669060230255,-21.35854148864746,-348,7489.0,-20.20908546447754,-303,7565.0
13250,0.3485199213027954,-21.210100173950195,-368,7489.0,-10.272747039794922,-82,7565.0
13260,0.348313570022583,-19.605791091918945,-227,7489.0,-11.16162395477295,-275,7565.0
13270,0.3490000069141388,-17.53213119506836,-340,7489.0,-11.711149215698242,-98,7565.0
13280,0.34987762570381165,-9.273558616638184,-15,7489.0,7.789673805236816,239,7565.0
13290,0.3508374094963074,11.93731689453125,327,7489.0,29.493408203125,498,7565.0
13300,0.3519323170185089,35.84624099731445,612,7489.0,35.18186569213867,665,7565.0
13310,0.3521175980567932,42.24055480957031,666,7489.0,32.33439254760742,386,7565.0
13320,0.3530912399291992,31.322439193725586,424,7489.0,23.820430755615234,424,7565.0
13330,0.35403358936309814,19.025867462158203,164,7489.0,10.053598403930664,178,7565.0
13340,0.3547571301460266,1.237620234489441,20,7489.0,-2.9600112438201904,-185,7565.0
13350,0.35438272356987,-13.387476921081543,-368,7489.0,-19.557174682617188,-292,7565.0
13360,0.35508131980895996,-26.657752990722656,-556,7489.0,-34.87070083618164,-619,7565.0
13370,0.3555504381656647,-35.32234573364258,-552,7489.0,-33.33843994140625,-537,7565.0
13380,0.35618412494659424,-36.76329040527344,-656,7489.0,-23.896465301513672,-268,7565.0
13390,0.3566659390926361,-31.9005069732666,-322,7489.0,-11.455504417419434,-176,7565.0
13400,0.35598182678222656,-14.272878646850586,-114,7489.0,3.5845494270324707,124,7565.0
13410,0.3567414879798889,-0.42382797598838806,99,7489.0,9.7822847366333,154,7565.0
13420,0.3574415445327759,8.615477561950684,221,7489.0,0.5734901428222656,-19,7565.0
13430,0.3583242893218994,14.575935363769531,241,7489.0,-7.075089454650879,-61,7565.0
13440,0.36065420508384705,15.866479873657227,361,7489.0,-3.5961456298828125,-160,7565.0
13450,0.36170271039009094,28.517343521118164,543,7489.0,-7.899429798126221,-119,7565.0
13460,0.36255234479904175,32.6266975402832,486,7489.0,-10.763045310974121,-96,7565.0
13470,0.3634301424026489,28.430099487304688,470,7489.0,-7.030988693237305,-189,7565.0
13480,0.36166441440582275,23.150619506835938,368,7489.0,-1.6052062511444092,8,7565.0
13490,0.3619295060634613,9.536510467529297,96,7489.0,6.82762336730957,229,7565.0
13500,0.3621619641780853,-0.11019080132246017,-73,7489.0,11.630688667297363,160,7565.0
13510,0.3620877265930176,-9.333160400390625,-125,7489.0,11.790769577026367,122,7565.0
13520,0.3618072271347046,-15.60462760925293,-267,7489.0,6.490063667297363,132,7565.0
13530,0.36096853017807007,-11.896405220031738,-250,7489.0,0.15930037200450897,-95,7565.0
13540,0.3603242039680481,-11.846779823303223,-129,7489.0,-5.386561393737793,-154,7565.0
13550,0.3594435155391693,-7.343661308288574,-141,7489.0,-16.395082473754883,-195,7565.0
13560,0.3586369454860687,-8.962786674499512,-186,7489.0,-21.553525924682617,-571,7565.0
13570,0.35586729645729065,-12.351125717163086,-172,7489.0,-24.459266662597656,-407,7565.0
13580,0.35475867986679077,-14.914240837097168,-389,7489.0,-25.69611358642578,-333,7565.0
13590,0.3536263704299927,-22.061677932739258,-301,7489.0,-20.87518310546875,-434,7565.0
13600,0.3524405360221863,-22.282365798950195,-368,7489.0,-15.686359405517578,-137,7565.0
13610,0.3513489067554474,-18.242916107177734,-290,7489.0,-9.701492309570312,-183,7565.0
13620,0.34772399067878723,-10.215879440307617,-120,7489.0,-5.4938483238220215,19,7565.0
13630,0.3465227484703064,3.804736614227295,91,7489.0,-3.7163689136505127,-126,7565.0
13640,0.3452693819999695,15.562458038330078,328,7489.0,-0.5533930063247681,36,7565.0
13650,0.34407028555870056,32.382686614990234,622,7489.0,3.535428285598755,47,7565.0
13660,0.3410927355289459,37.70930862426758,519,7489.0,12.90977668762207,355,7565.0
13670,0.3397916555404663,21.322952270507812,333,7489.0,21.132476806640625,324,7565.0
13680,0.3383255898952484,-0.021218037232756615,-131,7489.0,20.11442756652832,258,7565.0
13690,0.33697405457496643,-17.760313034057617,-296,7489.0,7.976163864135742,113,7565.0
13700,0.3353079557418823,-31.156618118286133,-537,7489.0,-6.878631591796875,-231,7565.0
13710,0.3339606523513794,-35.40192794799805,-540,7489.0,-21.214672088623047,-486,7565.0
13720,0.332652747631073,-31.172710418701172,-479,7489.0,-34.66162872314453,-563,7565.0
13730,0.3313664197921753,-17.69260597229004,-179,7489.0,-39.00630187988281,-596,7565.0
13740,0.3302488923072815,2.289215087890625,144,7489.0,-33.647525787353516,-602,7565.0
13750,0.3273579478263855,16.336328506469727,254,7489.0,-33.55587387084961,-647,7565.0
13760,0.3265222907066345,20.405651092529297,321,7489.0,-37.027626037597656,-480,7565.0
13770,0.3258460462093353,15.446205139160156,281,7489.0,-24.243236541748047,-309,7565.0
13780,0.32623761892318726,15.895200729370117,214,7489.0,2.776914596557617,220,7565.0
13790,0.3243623971939087,23.216739654541016,447,7489.0,28.48737144470215,627,7565.0
13800,0.32460853457450867,30.33217430114746,563,7489.0,40.7431526184082,615,7565.0
13810,0.324688583612442,35.106056213378906,525,7489.0,32.68657684326172,552,7565.0
13820,0.3249818682670593,29.631683349609375,391,7489.0,42.63121032714844,754,7565.0
13830,0.32524189352989197,21.075105667114258,446,7489.0,45.07139205932617,833,7565.0
13840,0.3252924382686615,24.64901351928711,426,7489.0,44.508853912353516,581,7565.0
13850,0.3258298635482788,25.470664978027344,313,7489.0,35.59254837036133,647,7565.0
13860,0.32635951042175293,12.628478050231934,119,7489.0,24.46217155456543,442,7565.0
13870,0.3269825279712677,-5.863977909088135,-144,7489.0,9.394229888916016,-33,7565.0
13880,0.3304201066493988,-21.603458404541016,-587,7489.0,-14.751409530639648,-276,7565.0
13890,0.3313966393470764,-34.07596206665039,-720,7489.0,-30.607101440429688,-417,7565.0
13900,0.3322526812553406,-35.57056427001953,-501,7489.0,-32.497188568115234,-485,7565.0
13910,0.3332313895225525,-31.347522735595703,-396,7489.0,-26.332809448242188,-447,7565.0
13920,0.3345109522342682,-24.83913230895996,-429,7489.0,-22.252153396606445,-247,7565.0
13930,0.3360326886177063,-14.265853881835938,-149,7489.0,-18.529226303100586,-331,7565.0
13940,0.33729973435401917,-10.050848007202148,-190,7489.0,-1.1534186601638794,130,7565.0
13950,0.3390333950519562,-3.1234965324401855,101,7489.0,16.947765350341797,342,7565.0
13960,0.3409299850463867,20.338701248168945,371,7489.0,32.67851257324219,597,7565.0
13970,0.3452499508857727,30.312597274780273,494,7489.0,48.66686248779297,890,7565.0
13980,0.34725454449653625,16.447246551513672,129,7489.0,60.03778839111328,867,7565.0
13990,0.34924638271331787,9.031208038330078,170,7489.0,61.662506103515625,1127,7565.0
14000,0.35118013620376587,12.599172592163086,218,7489.0,62.13718795776367,864,7565.0
14010,0.35437747836112976,16.751550674438477,284,7489.0,56.88934326171875,971,7565.0
14020,0.35598224401474,13.930070877075195,260,7489.0,45.70882797241211,678,7565.0
