timestamp,kalman.stateZ,gyro.x,gyro.xRaw,gyro.xVariance,gyro.y,gyro.yRaw,gyro.yVariance
0,0.3041340410709381,3.0025863647460938,51,7489.0,-14.423924446105957,-245,7565.0
10,0.3042856752872467,1.6822853088378906,31,7489.0,-16.173906326293945,-267,7565.0
20,0.3037022054195404,1.1562855243682861,25,7489.0,-17.126401901245117,-283,7565.0
30,0.30392012000083923,0.8688511252403259,19,7489.0,-18.526369094848633,-304,7565.0
40,0.30409079790115356,0.3706972599029541,11,7489.0,-18.694210052490234,-302,7565.0
50,0.3040097653865814,-0.46395090222358704,-19,7489.0,-14.458245277404785,-206,7565.0
60,0.3028360605239868,-1.920763611793518,-42,7489.0,-5.280063152313232,-33,7565.0
70,0.3026812672615051,-3.4260852336883545,-66,7489.0,5.1790900230407715,123,7565.0
80,0.3024980127811432,-3.341268539428711,-43,7489.0,13.463733673095703,253,7565.0
90,0.30231907963752747,-0.45574814081192017,-5,7489.0,18.949913024902344,333,7565.0
100,0.3023819923400879,-0.06135884299874306,4,7489.0,21.551536560058594,361,7565.0
110,0.302334189414978,0.16854047775268555,18,7489.0,21.820796966552734,356,7565.0
120,0.30228376388549805,0.5216982364654541,-4,7489.0,20.4746036529541,336,7565.0
130,0.3023936450481415,-2.384996175765991,-41,7489.0,18.954153060913086,313,7565.0
140,0.302405446767807,-1.9400007724761963,-21,7489.0,17.70615005493164,277,7565.0
150,0.30270254611968994,-1.64752995967865,-36,7489.0,15.243953704833984,240,7565.0
160,0.3027639389038086,-1.7375216484069824,-19,7489.0,12.573979377746582,195,7565.0
170,0.3028107285499573,1.0266923904418945,34,7489.0,9.14255428314209,122,7565.0
180,0.3029114902019501,2.021514892578125,44,7489.0,2.706362247467041,8,7565.0
190,0.303281307220459,7.0279388427734375,128,7489.0,-8.349656105041504,-204,7565.0
200,0.3033793568611145,9.512310981750488,148,7489.0,-26.572412490844727,-524,7565.0
210,0.30358749628067017,9.74316120147705,144,7489.0,-49.33526611328125,-900,7565.0
220,0.3038273751735687,8.912583351135254,145,7489.0,-71.92554473876953,-1218,7565.0
230,0.3043566346168518,5.4927544593811035,90,7489.0,-77.97215270996094,-1308,7565.0
240,0.30522772669792175,-1.4103152751922607,-42,7489.0,-80.71446990966797,-1292,7565.0
250,0.30527031421661377,-3.3333163261413574,-41,7489.0,-76.5997314453125,-1258,7565.0
260,0.3053036332130432,-5.1980462074279785,-40,7489.0,-69.19556427001953,-1138,7565.0
270,0.3049166202545166,-5.453377723693848,-43,7489.0,-63.717201232910156,-1045,7565.0
280,0.30477267503738403,-1.1924322843551636,11,7489.0,-62.11822509765625,-1037,7565.0
290,0.30434340238571167,4.024072170257568,127,7489.0,-62.7504768371582,-1075,7565.0
300,0.3035515248775482,9.44902229309082,178,7489.0,-64.52640533447266,-1084,7565.0
310,0.3026480972766876,12.08949089050293,154,7489.0,-62.550682067871094,-955,7565.0
320,0.3045165538787842,12.66872787475586,172,7489.0,-53.73413848876953,-850,7565.0
330,0.304098904132843,6.310870170593262,42,7489.0,-44.9155387878418,-693,7565.0
340,0.30401861667633057,-0.7281778454780579,53,7489.0,-36.662330627441406,-589,7565.0
350,0.30489975214004517,-0.5862733721733093,-77,7489.0,-27.712778091430664,-386,7565.0
360,0.3056468665599823,-1.9567549228668213,-41,7489.0,-24.679155349731445,-379,7565.0
370,0.30621203780174255,-5.850915431976318,-34,7489.0,-25.40237045288086,-485,7565.0
380,0.3060581684112549,-6.496997833251953,-148,7489.0,-29.978015899658203,-551,7565.0
390,0.30571022629737854,-7.387151718139648,-97,7489.0,-27.8747615814209,-363,7565.0
400,0.3060438632965088,-3.1864874362945557,-80,7489.0,-12.749410629272461,18,7565.0
410,0.3079245388507843,-3.9937174320220947,-7,7489.0,19.68109893798828,404,7565.0
420,0.3095215857028961,-0.5719806551933289,14,7489.0,50.56526565551758,897,7565.0
430,0.3099454939365387,5.2523579597473145,154,7489.0,73.28132629394531,1138,7565.0
440,0.309846967458725,10.533570289611816,161,7489.0,82.70533752441406,1310,7565.0
450,0.3102666735649109,14.932159423828125,171,7489.0,78.3544921875,1386,7565.0
460,0.3100515902042389,13.105103492736816,172,7489.0,59.28623580932617,1057,7565.0
470,0.3100484013557434,2.138045310974121,12,7489.0,33.88125991821289,485,7565.0
480,0.3104836046695709,-12.218802452087402,-232,7489.0,6.202218055725098,-128,7565.0
490,0.31096768379211426,-24.199440002441406,-432,7489.0,-19.26995277404785,-528,7565.0
500,0.31051987409591675,-27.039520263671875,-449,7489.0,-45.29319763183594,-996,7565.0
510,0.31120508909225464,-16.975032806396484,-156,7489.0,-69.8780746459961,-1371,7565.0
520,0.3117622435092926,-3.81416392326355,87,7489.0,-87.40660095214844,-1703,7565.0
530,0.31236544251441956,11.783517837524414,333,7489.0,-102.73235321044922,-1785,7565.0
540,0.3110385239124298,24.869476318359375,510,7489.0,-107.27753448486328,-1741,7565.0
550,0.3112780749797821,33.213497161865234,588,7489.0,-107.3493881225586,-1732,7565.0
560,0.31311511993408203,31.941125869750977,416,7489.0,-99.45417022705078,-1561,7565.0
570,0.3127751648426056,21.36591911315918,352,7489.0,-76.44623565673828,-998,7565.0
580,0.31252747774124146,10.29153060913086,27,7489.0,-29.098453521728516,-110,7565.0
590,0.31716421246528625,-7.140745162963867,-192,7489.0,31.311508178710938,906,7565.0
600,0.31898853182792664,-20.080659866333008,-330,7489.0,93.50517272949219,1921,7565.0
610,0.320663720369339,-22.21306037902832,-361,7489.0,140.24891662597656,2325,7565.0
620,0.3206707835197449,-16.746068954467773,-214,7489.0,168.77926635742188,2889,7565.0
630,0.32000815868377686,-7.2988691329956055,-144,7489.0,183.1591796875,3186,7565.0
640,0.3197599947452545,-1.4843168258666992,-119,7489.0,175.8780059814453,3017,7565.0
650,0.32014110684394836,-9.637523651123047,-270,7489.0,150.79000854492188,2204,7565.0
660,0.3188334107398987,-18.30511474609375,-277,7489.0,107.62785339355469,1569,7565.0
670,0.31454750895500183,-18.87812042236328,-238,7489.0,56.59798049926758,603,7565.0
680,0.31447088718414307,-14.906302452087402,-164,7489.0,0.3599960207939148,-340,7565.0
690,0.31619176268577576,-1.6090714931488037,60,7489.0,-59.87083435058594,-1185,7565.0
700,0.3176593780517578,11.980433464050293,238,7489.0,-109.5112533569336,-1846,7565.0
710,0.3194206953048706,20.167461395263672,458,7489.0,-151.1977081298828,-2627,7565.0
720,0.3191647231578827,23.12664794921875,505,7489.0,-183.85923767089844,-3296,7565.0
730,0.3203836977481842,24.169025421142578,421,7489.0,-211.29824829101562,-3562,7565.0
740,0.3208099603652954,27.158992767333984,329,7489.0,-213.376708984375,-3290,7565.0
750,0.32044121623039246,25.851173400878906,381,7489.0,-187.0098419189453,-2911,7565.0
760,0.3188946545124054,19.846954345703125,283,7489.0,-146.60906982421875,-2162,7565.0
770,0.3227946162223816,7.404689788818359,81,7489.0,-93.5072021484375,-1339,7565.0
780,0.32212966680526733,-5.737406253814697,-149,7489.0,-35.075347900390625,-244,7565.0
790,0.32256218791007996,-15.33615493774414,-299,7489.0,30.751117706298828,821,7565.0
800,0.3250521123409271,-24.35984992980957,-448,7489.0,92.49085998535156,1744,7565.0
810,0.3285592794418335,-30.73391342163086,-532,7489.0,146.9571533203125,2694,7565.0
820,0.32985424995422363,-34.19871520996094,-511,7489.0,190.81906127929688,3264,7565.0
830,0.3300594091415405,-26.289196014404297,-370,7489.0,211.9345703125,3550,7565.0
840,0.3299520015716553,-8.586433410644531,-16,7489.0,210.35520935058594,3321,7565.0
850,0.32571685314178467,9.377524375915527,143,7489.0,187.4629364013672,2939,7565.0
860,0.3250633478164673,14.970498085021973,206,7489.0,152.1207733154297,2419,7565.0
870,0.32365158200263977,11.173291206359863,78,7489.0,98.40872955322266,1421,7565.0
880,0.3233729302883148,2.0039303302764893,-16,7489.0,35.95586395263672,291,7565.0
890,0.31856611371040344,-4.697099208831787,-160,7489.0,-33.35352325439453,-685,7565.0
900,0.3198446035385132,-8.395295143127441,-307,7489.0,-100.47052764892578,-1678,7565.0
910,0.32168421149253845,-8.606574058532715,-251,7489.0,-159.2706298828125,-2648,7565.0
920,0.3223881721496582,-3.2729134559631348,-112,7489.0,-188.76620483398438,-3048,7565.0
930,0.3226868510246277,4.284000873565674,105,7489.0,-193.95176696777344,-3078,7565.0
940,0.3197818994522095,16.595645904541016,303,7489.0,-180.9377899169922,-2768,7565.0
950,0.3184645175933838,24.041723251342773,350,7489.0,-146.21591186523438,-2201,7565.0
960,0.3166559934616089,21.38860321044922,408,7489.0,-100.70350646972656,-1567,7565.0
970,0.3148411512374878,16.427949905395508,199,7489.0,-41.981197357177734,-388,7565.0
980,0.32409733533859253,7.409652233123779,123,7489.0,19.848310470581055,661,7565.0
990,0.32418757677078247,-10.561108589172363,-316,7489.0,71.76390075683594,1328,7565.0
1000,0.32469767332077026,-29.39986228942871,-492,7489.0,108.20455932617188,1860,7565.0
1010,0.3249676823616028,-40.19440841674805,-708,7489.0,130.98004150390625,2123,7565.0
1020,0.32460594177246094,-37.09526443481445,-509,7489.0,135.32044982910156,2156,7565.0
1030,0.3236455023288727,-25.196611404418945,-381,7489.0,122.3047103881836,1880,7565.0
1040,0.32341229915618896,-4.994125843048096,7,7489.0,91.26056671142578,1276,7565.0
1050,0.32387182116508484,17.368947982788086,491,7489.0,45.224159240722656,485,7565.0
1060,0.32562679052352905,37.982601165771484,729,7489.0,-13.938623428344727,-468,7565.0
1070,0.3193162977695465,43.51346969604492,682,7489.0,-66.3593978881836,-1168,7565.0
1080,0.3203505277633667,37.846099853515625,467,7489.0,-107.81192779541016,-1737,7565.0
1090,0.3211610019207001,26.36971664428711,377,7489.0,-119.56580352783203,-1882,7565.0
1100,0.3221662938594818,18.066404342651367,277,7489.0,-100.22093963623047,-1486,7565.0
1110,0.3194836378097534,3.140970468521118,-36,7489.0,-65.40231323242188,-1008,7565.0
1120,0.3197774589061737,-12.082660675048828,-241,7489.0,-13.277569770812988,17,7565.0
1130,0.32085245847702026,-17.190311431884766,-239,7489.0,31.4975643157959,655,7565.0
1140,0.3214060366153717,-17.589494705200195,-278,7489.0,61.944026947021484,1300,7565.0
1150,0.3214603662490845,-8.863515853881836,-72,7489.0,88.40277099609375,1470,7565.0
1160,0.3215831220149994,1.1161003112792969,105,7489.0,105.13187408447266,1746,7565.0
1170,0.32121068239212036,8.901422500610352,153,7489.0,106.68634033203125,1661,7565.0
1180,0.32157230377197266,10.19655704498291,235,7489.0,98.09305572509766,1289,7565.0
1190,0.32108455896377563,7.811542987823486,169,7489.0,76.6134262084961,974,7565.0
1200,0.31692370772361755,-2.9399759769439697,-128,7489.0,42.57388687133789,597,7565.0
1210,0.3174736499786377,-13.317419052124023,-347,7489.0,13.64125919342041,277,7565.0
1220,0.31794846057891846,-21.59698486328125,-354,7489.0,-6.957385063171387,-405,7565.0
1230,0.31831270456314087,-26.118053436279297,-442,7489.0,-38.52106857299805,-716,7565.0
1240,0.3187054395675659,-26.326772689819336,-521,7489.0,-71.42314147949219,-1144,7565.0
1250,0.31561610102653503,-22.016202926635742,-352,7489.0,-99.3008041381836,-1775,7565.0
1260,0.3159354031085968,-12.947199821472168,-132,7489.0,-117.66641235351562,-1959,7565.0
1270,0.3164893686771393,-2.1019904613494873,-60,7489.0,-120.46276092529297,-1800,7565.0
1280,0.3171558082103729,6.490222454071045,145,7489.0,-94.6585693359375,-1265,7565.0
1290,0.316548228263855,11.159738540649414,247,7489.0,-58.42761993408203,-615,7565.0
1300,0.31828969717025757,11.809247970581055,207,7489.0,-4.362027168273926,342,7565.0
1310,0.3187131881713867,6.850812911987305,156,7489.0,52.48751449584961,906,7565.0
1320,0.3195340037345886,4.556491851806641,90,7489.0,99.21984100341797,1675,7565.0
1330,0.3210093080997467,2.050205945968628,43,7489.0,122.02881622314453,1983,7565.0
1340,0.3211653232574463,-2.4848742485046387,-98,7489.0,123.28849792480469,1921,7565.0
1350,0.3214932680130005,-3.248934030532837,-125,7489.0,111.31100463867188,1855,7565.0
1360,0.3209053575992584,0.8537705540657043,59,7489.0,89.1777572631836,1342,7565.0
1370,0.32155758142471313,6.808761119842529,229,7489.0,52.09541702270508,593,7565.0
1380,0.3180079460144043,14.215845108032227,187,7489.0,9.52670955657959,141,7565.0
1390,0.3190041780471802,17.23054313659668,396,7489.0,-25.657045364379883,-753,7565.0
1400,0.3199339509010315,17.885034561157227,340,7489.0,-65.20089721679688,-1174,7565.0
1410,0.32121649384498596,14.678647994995117,230,7489.0,-107.12291717529297,-1913,7565.0
1420,0.3198094666004181,8.47838306427002,66,7489.0,-144.13186645507812,-2470,7565.0
1430,0.32087767124176025,-0.9546725749969482,-29,7489.0,-158.44314575195312,-2725,7565.0
1440,0.3216511905193329,-11.948426246643066,-156,7489.0,-141.1487579345703,-2267,7565.0
1450,0.3229988217353821,-5.683326721191406,-102,7489.0,-109.09199523925781,-1602,7565.0
1460,0.3230184316635132,-3.855405569076538,16,7489.0,-60.093467712402344,-771,7565.0
1470,0.32838761806488037,-1.048447847366333,-23,7489.0,5.035674095153809,267,7565.0
1480,0.3295566141605377,-1.904679536819458,-72,7489.0,68.82581329345703,1426,7565.0
1490,0.33127522468566895,-3.4553465843200684,-68,7489.0,114.62090301513672,2207,7565.0
1500,0.3328331410884857,1.901483416557312,51,7489.0,139.97329711914062,2353,7565.0
1510,0.329114705324173,1.0708115100860596,-77,7489.0,148.4803009033203,2537,7565.0
1520,0.329906165599823,-2.2083213329315186,-70,7489.0,147.1798095703125,2273,7565.0
1530,0.3300773799419403,-10.511164665222168,-201,7489.0,126.76130676269531,1969,7565.0
1540,0.3298746347427368,-19.594270706176758,-348,7489.0,96.44000244140625,1423,7565.0
1550,0.32487329840660095,-24.817224502563477,-455,7489.0,63.580291748046875,934,7565.0
1560,0.3251146376132965,-15.39140796661377,-140,7489.0,26.463254928588867,289,7565.0
1570,0.32590150833129883,2.555899143218994,47,7489.0,-22.93408203125,-538,7565.0
1580,0.32739776372909546,16.19915008544922,357,7489.0,-63.70623779296875,-1241,7565.0
1590,0.3288159966468811,28.683685302734375,566,7489.0,-108.60468292236328,-2021,7565.0
1600,0.32560306787490845,33.14577865600586,447,7489.0,-148.0670166015625,-2583,7565.0
1610,0.3269250988960266,17.933610916137695,347,7489.0,-161.20687866210938,-2705,7565.0
1620,0.3278728425502777,8.794292449951172,63,7489.0,-155.58001708984375,-2396,7565.0
1630,0.330409973859787,-3.2211480140686035,-104,7489.0,-133.71107482910156,-2081,7565.0
1640,0.3269561231136322,-16.070819854736328,-291,7489.0,-94.42365264892578,-1452,7565.0
1650,0.3272402286529541,-22.547155380249023,-405,7489.0,-25.55544662475586,-100,7565.0
1660,0.3289966583251953,-20.669858932495117,-251,7489.0,35.729454040527344,921,7565.0
1670,0.33063021302223206,-8.69085693359375,-70,7489.0,89.78321838378906,1725,7565.0
1680,0.3321782350540161,4.206520080566406,80,7489.0,127.92616271972656,2421,7565.0
1690,0.3302675187587738,9.789085388183594,152,7489.0,149.75746154785156,2574,7565.0
1700,0.330403596162796,9.022506713867188,37,7489.0,152.197021484375,2568,7565.0
1710,0.32993200421333313,6.737890720367432,54,7489.0,135.8321533203125,2073,7565.0
1720,0.3316251337528229,3.079509735107422,27,7489.0,109.73668670654297,1567,7565.0
1730,0.32366064190864563,-5.268686771392822,-183,7489.0,66.39637756347656,897,7565.0
1740,0.3233150541782379,-13.419623374938965,-247,7489.0,12.473709106445312,-108,7565.0
1750,0.3240668773651123,-16.085887908935547,-217,7489.0,-46.732669830322266,-989,7565.0
1760,0.32531148195266724,-19.317026138305664,-281,7489.0,-93.6051025390625,-1754,7565.0
1770,0.32072919607162476,-16.65751838684082,-198,7489.0,-135.80227661132812,-2476,7565.0
1780,0.3212817311286926,-6.924543380737305,-154,7489.0,-167.77151489257812,-2737,7565.0
1790,0.3215957283973694,-5.889481544494629,-149,7489.0,-169.3704833984375,-2585,7565.0
1800,0.3250032663345337,-1.8619728088378906,69,7489.0,-141.29637145996094,-2130,7565.0
1810,0.32514286041259766,5.900533199310303,119,7489.0,-102.49376678466797,-1439,7565.0
1820,0.32300567626953125,12.126996994018555,210,7489.0,-47.97773361206055,-426,7565.0
1830,0.3258652687072754,20.539548873901367,376,7489.0,14.588247299194336,428,7565.0
1840,0.32747986912727356,27.98978042602539,462,7489.0,59.28611755371094,1113,7565.0
1850,0.3288014233112335,25.973514556884766,325,7489.0,95.20597839355469,1793,7565.0
1860,0.32889869809150696,20.629322052001953,314,7489.0,115.92025756835938,2038,7565.0
1870,0.32926294207572937,11.897048950195312,48,7489.0,120.15142822265625,2013,7565.0
1880,0.3298320770263672,-5.387619972229004,-214,7489.0,115.305908203125,2004,7565.0
1890,0.32974934577941895,-15.663769721984863,-300,7489.0,101.54802703857422,1471,7565.0
1900,0.32952648401260376,-17.005903244018555,-227,7489.0,75.49415588378906,1093,7565.0
1910,0.3233020305633545,-14.016963005065918,-175,7489.0,49.360774993896484,570,7565.0
1920,0.3240204453468323,-12.110977172851562,-141,7489.0,4.99146032333374,-96,7565.0
1930,0.32396334409713745,-5.9582695960998535,-209,7489.0,-39.2432975769043,-873,7565.0
1940,0.32430019974708557,-6.491799831390381,-140,7489.0,-81.30567169189453,-1725,7565.0
1950,0.3182509243488312,-10.057134628295898,-88,7489.0,-114.24833679199219,-2027,7565.0
1960,0.31798025965690613,-15.924867630004883,-286,7489.0,-122.79627227783203,-1943,7565.0
1970,0.3176000714302063,-22.991342544555664,-339,7489.0,-111.21625518798828,-1859,7565.0
1980,0.3173487186431885,-19.83756446838379,-249,7489.0,-83.8180160522461,-1272,7565.0
1990,0.3178229331970215,-13.465583801269531,-202,7489.0,-38.34334945678711,-353,7565.0
2000,0.31894007325172424,-8.165595054626465,82,7489.0,17.826557159423828,487,7565.0
2010,0.3193122148513794,8.47260856628418,154,7489.0,71.59722137451172,1225,7565.0
2020,0.3200187087059021,21.71940040588379,455,7489.0,101.5018310546875,1721,7565.0
2030,0.320095032453537,28.911325454711914,571,7489.0,119.21678161621094,1867,7565.0
2040,0.3205512464046478,28.275869369506836,406,7489.0,123.1892318725586,1996,7565.0
2050,0.3199387490749359,19.938987731933594,395,7489.0,112.78041076660156,1915,7565.0
2060,0.31880271434783936,8.721088409423828,8,7489.0,88.87651062011719,1346,7565.0
2070,0.3180483877658844,0.9558484554290771,70,7489.0,49.29867935180664,542,7565.0
2080,0.3156226575374603,1.4120590686798096,18,7489.0,9.523269653320312,-12,7565.0
2090,0.31530916690826416,-1.4302856922149658,-92,7489.0,-30.177099227905273,-639,7565.0
2100,0.3152531683444977,-11.101724624633789,-176,7489.0,-60.04643630981445,-1147,7565.0
2110,0.3151969611644745,-18.435577392578125,-237,7489.0,-82.28929138183594,-1415,7565.0
2120,0.3156658709049225,-17.711196899414062,-324,7489.0,-98.73490142822266,-1617,7565.0
2130,0.31552115082740784,-11.228848457336426,-167,7489.0,-108.30581665039062,-1658,7565.0
2140,0.31528186798095703,-6.809511661529541,-112,7489.0,-110.71295166015625,-1800,7565.0
2150,0.31484997272491455,-10.630926132202148,-259,7489.0,-84.77078247070312,-1252,7565.0
2160,0.3140869736671448,-11.076159477233887,-126,7489.0,-42.00343322753906,-469,7565.0
2170,0.31893104314804077,7.784512042999268,246,7489.0,6.424127101898193,444,7565.0
2180,0.3194344937801361,20.71358871459961,425,7489.0,59.00117874145508,1254,7565.0
2190,0.3201557695865631,25.183671951293945,400,7489.0,99.03532409667969,1729,7565.0
2200,0.32028815150260925,25.18002700805664,357,7489.0,119.85427856445312,1928,7565.0
2210,0.3212886452674866,21.455015182495117,368,7489.0,124.80308532714844,2024,7565.0
2220,0.3206220269203186,20.612131118774414,413,7489.0,115.90460968017578,1755,7565.0
2230,0.3199511468410492,11.430992126464844,74,7489.0,93.58883666992188,1467,7565.0
2240,0.31872859597206116,-2.246112108230591,-21,7489.0,59.97641372680664,787,7565.0
2250,0.320057213306427,-13.769756317138672,-244,7489.0,15.846870422363281,-2,7565.0
2260,0.31785985827445984,-21.778682708740234,-304,7489.0,-28.56188201904297,-605,7565.0
2270,0.31777021288871765,-18.84168243408203,-309,7489.0,-61.579708099365234,-1226,7565.0
2280,0.3177300691604614,-10.536859512329102,-65,7489.0,-81.38557434082031,-1417,7565.0
2290,0.3171358108520508,-7.597404479980469,-113,7489.0,-90.18235778808594,-1482,7565.0
2300,0.318541020154953,-2.269714593887329,-83,7489.0,-98.16547393798828,-1537,7565.0
2310,0.3185310363769531,-2.6135876178741455,-84,7489.0,-102.34374237060547,-1657,7565.0
2320,0.3182622194290161,-12.721607208251953,-265,7489.0,-86.22906494140625,-1407,7565.0
2330,0.3200131058692932,-22.4334659576416,-308,7489.0,-57.32090759277344,-881,7565.0
2340,0.3198629915714264,-14.373380661010742,-117,7489.0,-25.893651962280273,-267,7565.0
2350,0.32042789459228516,-7.285182476043701,-88,7489.0,13.560423851013184,374,7565.0
2360,0.32049936056137085,-7.537995338439941,-94,7489.0,48.22144317626953,802,7565.0
2370,0.3205634355545044,-4.881373405456543,-7,7489.0,73.05110168457031,1234,7565.0
2380,0.32020458579063416,3.559314012527466,237,7489.0,87.95535278320312,1413,7565.0
2390,0.31941863894462585,10.027078628540039,184,7489.0,88.97791290283203,1366,7565.0
2400,0.318695068359375,21.229440689086914,316,7489.0,76.639404296875,1301,7565.0
2410,0.31841251254081726,26.576738357543945,457,7489.0,55.298065185546875,610,7565.0
2420,0.317607045173645,28.691612243652344,515,7489.0,28.62673568725586,363,7565.0
2430,0.3156891167163849,29.45236587524414,455,7489.0,0.3311966061592102,-162,7565.0
2440,0.31515732407569885,18.78143310546875,187,7489.0,-30.33103370666504,-785,7565.0
2450,0.314971923828125,-4.013571262359619,-258,7489.0,-69.4615478515625,-1252,7565.0
2460,0.31476250290870667,-29.107603073120117,-569,7489.0,-95.51366424560547,-1688,7565.0
2470,0.31479284167289734,-43.59379196166992,-782,7489.0,-115.49143981933594,-1851,7565.0
2480,0.3150668442249298,-48.7520637512207,-803,7489.0,-118.8473129272461,-1881,7565.0
2490,0.3146003186702728,-55.41250991821289,-881,7489.0,-102.77999114990234,-1691,7565.0
2500,0.316681832075119,-55.173805236816406,-804,7489.0,-74.44352722167969,-1070,7565.0
2510,0.3169979751110077,-39.80572509765625,-525,7489.0,-35.00796890258789,-344,7565.0
2520,0.3199792206287384,-9.873798370361328,158,7489.0,8.255773544311523,355,7565.0
2530,0.32153624296188354,25.227577209472656,431,7489.0,50.83019256591797,1010,7565.0
2540,0.32346290349960327,41.66194152832031,738,7489.0,85.35449981689453,1729,7565.0
2550,0.3247210681438446,58.618648529052734,1023,7489.0,113.78759765625,2130,7565.0
2560,0.3261188864707947,73.95487213134766,1164,7489.0,126.55384826660156,2018,7565.0
2570,0.3264596462249756,76.11465454101562,1190,7489.0,125.09947204589844,1957,7565.0
2580,0.3280886709690094,59.90507507324219,971,7489.0,105.92241668701172,1455,7565.0
2590,0.327681303024292,30.418554306030273,225,7489.0,69.5205078125,943,7565.0
2600,0.32726287841796875,-5.893256187438965,-333,7489.0,26.671066284179688,292,7565.0
2610,0.3234938979148865,-37.8380012512207,-794,7489.0,-12.907044410705566,-237,7565.0
2620,0.32398533821105957,-56.5552978515625,-840,7489.0,-46.730934143066406,-1077,7565.0
2630,0.3245702385902405,-54.7411994934082,-880,7489.0,-80.478515625,-1429,7565.0
2640,0.3250880241394043,-45.96682357788086,-679,7489.0,-99.61894989013672,-1667,7565.0
2650,0.3214363157749176,-26.6364688873291,-321,7489.0,-109.89649200439453,-1771,7565.0
2660,0.3220153748989105,-1.7913695573806763,116,7489.0,-116.96012878417969,-1949,7565.0
2670,0.32258450984954834,8.50239372253418,135,7489.0,-109.424560546875,-1651,7565.0
2680,0.3226601183414459,3.9702389240264893,109,7489.0,-81.78726959228516,-1158,7565.0
2690,0.32413449883461,1.734613299369812,98,7489.0,-42.77058410644531,-453,7565.0
2700,0.32518741488456726,13.783336639404297,231,7489.0,7.78498649597168,501,7565.0
2710,0.32610681653022766,25.916749954223633,450,7489.0,68.00193786621094,1546,7565.0
2720,0.32733944058418274,28.953052520751953,422,7489.0,108.10437774658203,2039,7565.0
2730,0.328430712223053,25.938762664794922,368,7489.0,130.3939971923828,2155,7565.0
2740,0.32653990387916565,15.357489585876465,112,7489.0,135.4333953857422,2294,7565.0
2750,0.3264409601688385,-3.800802230834961,-120,7489.0,125.34187316894531,2059,7565.0
2760,0.3261691927909851,-17.593082427978516,-387,7489.0,96.72364807128906,1384,7565.0
2770,0.3252914845943451,-34.428016662597656,-518,7489.0,65.25154876708984,869,7565.0
2780,0.3223646283149719,-32.439849853515625,-508,7489.0,26.823747634887695,324,7565.0
2790,0.32166722416877747,-21.653644561767578,-283,7489.0,-13.313736915588379,-436,7565.0
2800,0.32196974754333496,-3.8926937580108643,17,7489.0,-54.37880325317383,-1070,7565.0
2810,0.32265549898147583,5.725166320800781,153,7489.0,-91.45265197753906,-1633,7565.0
2820,0.32232317328453064,14.032153129577637,257,7489.0,-119.7888412475586,-2043,7565.0
2830,0.32121288776397705,21.129379272460938,407,7489.0,-138.11090087890625,-2500,7565.0
2840,0.32117387652397156,19.380996704101562,271,7489.0,-147.0537567138672,-2452,7565.0
2850,0.32108303904533386,14.230584144592285,205,7489.0,-139.7364501953125,-2230,7565.0
2860,0.3203703463077545,5.441877841949463,186,7489.0,-110.80238342285156,-1709,7565.0
2870,0.3234708905220032,6.820486068725586,167,7489.0,-62.49256896972656,-833,7565.0
2880,0.32344770431518555,2.7101564407348633,20,7489.0,-1.157243013381958,280,7565.0
2890,0.32539746165275574,-9.951855659484863,-241,7489.0,66.14291381835938,1334,7565.0
2900,0.32650622725486755,-27.608341217041016,-558,7489.0,119.30284118652344,2193,7565.0
2910,0.3274483382701874,-36.103084564208984,-688,7489.0,153.86708068847656,2657,7565.0
2920,0.3273955285549164,-33.24524688720703,-481,7489.0,165.98904418945312,2732,7565.0
2930,0.32657983899116516,-10.858569145202637,46,7489.0,158.05577087402344,2447,7565.0
2940,0.3263917863368988,14.595941543579102,222,7489.0,129.1669158935547,1996,7565.0
2950,0.3280056416988373,28.787134170532227,612,7489.0,86.91262817382812,1101,7565.0
2960,0.3233945667743683,31.740989685058594,437,7489.0,31.65716552734375,371,7565.0
2970,0.32314980030059814,22.60494613647461,320,7489.0,-26.192615509033203,-812,7565.0
2980,0.32376956939697266,10.918844223022461,123,7489.0,-78.49615478515625,-1368,7565.0
2990,0.32440441846847534,-6.028042793273926,-175,7489.0,-120.80691528320312,-2184,7565.0
3000,0.3212605118751526,-16.506237030029297,-359,7489.0,-148.06295776367188,-2553,7565.0
3010,0.321647047996521,-28.96205711364746,-451,7489.0,-147.50741577148438,-2315,7565.0
3020,0.32137757539749146,-48.65402603149414,-832,7489.0,-123.76747131347656,-1936,7565.0
3030,0.3251195251941681,-66.15709686279297,-1147,7489.0,-93.32442474365234,-1337,7565.0
3040,0.32624557614326477,-62.44828796386719,-1126,7489.0,-50.71829605102539,-405,7565.0
3050,0.3245250880718231,-45.10988998413086,-582,7489.0,0.3366174101829529,291,7565.0
3060,0.32595884799957275,-4.868900775909424,71,7489.0,54.37409591674805,1008,7565.0
3070,0.3269822597503662,31.988698959350586,715,7489.0,88.31810760498047,1601,7565.0
3080,0.3293192684650421,62.08214569091797,1189,7489.0,104.09196472167969,1630,7565.0
3090,0.32786545157432556,83.35493469238281,1355,7489.0,99.36241912841797,1727,7565.0
3100,0.32803940773010254,85.24793243408203,1354,7489.0,95.32686614990234,1512,7565.0
3110,0.33012035489082336,79.33804321289062,1220,7489.0,87.82910919189453,1262,7565.0
3120,0.32964426279067993,60.12038803100586,699,7489.0,73.64349365234375,1123,7565.0
3130,0.3287634551525116,27.52128791809082,309,7489.0,47.39801788330078,632,7565.0
3140,0.32518577575683594,-11.579638481140137,-404,7489.0,8.895238876342773,-186,7565.0
3150,0.3255783021450043,-45.402137756347656,-741,7489.0,-25.242101669311523,-589,7565.0
3160,0.3255653381347656,-56.00202178955078,-988,7489.0,-49.61944580078125,-832,7565.0
3170,0.3258448541164398,-52.97639465332031,-805,7489.0,-72.4142074584961,-1389,7565.0
3180,0.3212186396121979,-35.295318603515625,-461,7489.0,-95.48936462402344,-1766,7565.0
3190,0.32147547602653503,-10.432304382324219,-7,7489.0,-116.22290802001953,-1880,7565.0
3200,0.32264500856399536,7.826238632202148,131,7489.0,-115.10897064208984,-1799,7565.0
3210,0.3226065933704376,8.447775840759277,19,7489.0,-96.5030288696289,-1360,7565.0
3220,0.3239053189754486,8.437031745910645,57,7489.0,-63.93303680419922,-657,7565.0
3230,0.32450804114341736,0.06620634347200394,-103,7489.0,-33.868186950683594,-233,7565.0
3240,0.3259458541870117,-18.76798439025879,-376,7489.0,6.746085166931152,326,7565.0
3250,0.3270167410373688,-17.47028923034668,-304,7489.0,58.15392303466797,1292,7565.0
3260,0.327774316072464,-9.787131309509277,-83,7489.0,104.90137481689453,2009,7565.0
3270,0.32750535011291504,5.944658279418945,186,7489.0,129.8597869873047,2191,7565.0
3280,0.32765859365463257,20.54698371887207,291,7489.0,139.08172607421875,2406,7565.0
3290,0.32756081223487854,21.29533576965332,315,7489.0,134.05931091308594,2139,7565.0
3300,0.32629674673080444,23.445764541625977,495,7489.0,112.10237121582031,1595,7565.0
3310,0.32129037380218506,16.830875396728516,195,7489.0,77.20307159423828,1073,7565.0
3320,0.32183638215065,6.090988636016846,12,7489.0,33.28118896484375,427,7565.0
3330,0.32112687826156616,-0.695951521396637,9,7489.0,-6.042191982269287,-338,7565.0
3340,0.3217458426952362,-5.307097911834717,-143,7489.0,-38.84814453125,-717,7565.0
3350,0.31887033581733704,-9.8145751953125,-154,7489.0,-60.99424362182617,-1025,7565.0
3360,0.31863799691200256,-9.543045997619629,-219,7489.0,-80.54460906982422,-1528,7565.0
3370,0.31898507475852966,-9.785293579101562,-159,7489.0,-100.752685546875,-1758,7565.0
3380,0.3191359341144562,-14.712347984313965,-288,7489.0,-117.64407348632812,-2005,7565.0
3390,0.3191036880016327,-21.90956687927246,-404,7489.0,-113.71229553222656,-1650,7565.0
3400,0.3190819025039673,-22.325145721435547,-349,7489.0,-81.86592102050781,-1019,7565.0
3410,0.31970158219337463,-9.861367225646973,-197,7489.0,-41.959678649902344,-480,7565.0
3420,0.319603830575943,3.581662178039551,140,7489.0,-2.5751965045928955,150,7565.0
3430,0.3209523856639862,11.16390609741211,128,7489.0,38.324466705322266,884,7565.0
3440,0.3223899304866791,10.072924613952637,112,7489.0,86.6513442993164,1696,7565.0
3450,0.3225748836994171,13.170305252075195,240,7489.0,113.9083251953125,1913,7565.0
3460,0.32236602902412415,14.266709327697754,333,7489.0,129.5773162841797,2068,7565.0
3470,0.321509450674057,17.857114791870117,265,7489.0,123.67852783203125,2060,7565.0
3480,0.3231496512889862,17.608171463012695,273,7489.0,89.33335876464844,1088,7565.0
3490,0.31947994232177734,11.494712829589844,129,7489.0,29.124889373779297,268,7565.0
3500,0.3190004229545593,2.1127936840057373,-10,7489.0,-19.86650848388672,-496,7565.0
3510,0.3190237581729889,-6.92797327041626,-92,7489.0,-53.61227798461914,-1025,7565.0
3520,0.31886565685272217,-13.178520202636719,-300,7489.0,-80.48615264892578,-1319,7565.0
3530,0.31818002462387085,-14.81637954711914,-177,7489.0,-106.10294342041016,-1978,7565.0
3540,0.3180291950702667,-9.71142292022705,-135,7489.0,-123.80226135253906,-2129,7565.0
3550,0.3178148567676544,-8.95325756072998,-196,7489.0,-129.0543212890625,-1955,7565.0
3560,0.31671422719955444,-15.07864761352539,-262,7489.0,-110.6375961303711,-1559,7565.0
3570,0.32026946544647217,-9.313278198242188,-160,7489.0,-67.10187530517578,-842,7565.0
3580,0.3209802508354187,5.333906650543213,79,7489.0,-14.961956024169922,38,7565.0
3590,0.32146090269088745,19.85285186767578,296,7489.0,36.38650131225586,929,7565.0
3600,0.32242441177368164,21.456771850585938,304,7489.0,79.51018524169922,1618,7565.0
3610,0.3228173851966858,17.84654426574707,354,7489.0,105.33397674560547,1836,7565.0
3620,0.32485705614089966,13.262078285217285,224,7489.0,118.19217681884766,1726,7565.0
3630,0.324689656496048,0.4631582796573639,-40,7489.0,114.19147491455078,1809,7565.0
3640,0.32418927550315857,-10.815370559692383,-238,7489.0,99.65222930908203,1689,7565.0
3650,0.32574164867401123,-24.279699325561523,-360,7489.0,79.52337646484375,1103,7565.0
3660,0.31996241211891174,-24.104171752929688,-301,7489.0,36.33302688598633,386,7565.0
3670,0.3198949694633484,-19.535905838012695,-352,7489.0,-9.061761856079102,-285,7565.0
3680,0.32014137506484985,-15.771525382995605,-207,7489.0,-44.779869079589844,-894,7565.0
3690,0.32057344913482666,-11.905908584594727,-178,7489.0,-71.6208724975586,-1247,7565.0
3700,0.31904006004333496,-7.998354434967041,-141,7489.0,-96.02883911132812,-1672,7565.0
3710,0.3194037675857544,-0.4125871956348419,86,7489.0,-121.85381317138672,-2250,7565.0
3720,0.3195556700229645,4.25329065322876,81,7489.0,-134.73541259765625,-2188,7565.0
3730,0.32159122824668884,10.246417999267578,134,7489.0,-130.88897705078125,-1921,7565.0
3740,0.32178735733032227,13.778430938720703,264,7489.0,-108.6248779296875,-1399,7565.0
3750,0.3214743733406067,18.49107551574707,248,7489.0,-58.417198181152344,-497,7565.0
3760,0.32382139563560486,9.834867477416992,76,7489.0,4.813351631164551,532,7565.0
3770,0.3254375755786896,3.618128776550293,-3,7489.0,64.98406219482422,1389,7565.0
3780,0.3267670273780823,2.315078020095825,8,7489.0,111.68633270263672,2036,7565.0
3790,0.3266080617904663,4.47220516204834,89,7489.0,146.18211364746094,2621,7565.0
3800,0.3266293406486511,9.680862426757812,97,7489.0,161.7286834716797,2705,7565.0
3810,0.3276001513004303,11.96773624420166,183,7489.0,153.34315490722656,2254,7565.0
3820,0.32746368646621704,5.618473529815674,30,7489.0,123.0418472290039,1770,7565.0
3830,0.3266088664531708,-7.626684665679932,-199,7489.0,69.61267852783203,903,7565.0
3840,0.3230283260345459,-13.544646263122559,-195,7489.0,23.777721405029297,77,7565.0
3850,0.3237409293651581,-11.213726997375488,-231,7489.0,-23.278371810913086,-619,7565.0
3860,0.3247543275356293,-9.631878852844238,-60,7489.0,-63.58877182006836,-1308,7565.0
3870,0.326493501663208,-8.078179359436035,-199,7489.0,-98.24845886230469,-1674,7565.0
3880,0.3239298462867737,-4.667124271392822,-39,7489.0,-126.66349029541016,-2370,7565.0
3890,0.3246690332889557,4.205637454986572,108,7489.0,-147.5717010498047,-2457,7565.0
3900,0.3266013264656067,11.760056495666504,288,7489.0,-140.67913818359375,-2101,7565.0
3910,0.32706114649772644,17.04070472717285,340,7489.0,-118.07637786865234,-1925,7565.0
3920,0.32832714915275574,18.99422836303711,169,7489.0,-84.43373107910156,-1193,7565.0
3930,0.32634514570236206,9.509908676147461,95,7489.0,-31.439416885375977,-339,7565.0
3940,0.32915228605270386,0.5281906723976135,-144,7489.0,28.846153259277344,619,7565.0
3950,0.3301767408847809,-13.619400978088379,-306,7489.0,85.72723388671875,1568,7565.0
3960,0.3315143883228302,-17.49018669128418,-246,7489.0,131.36398315429688,2247,7565.0
3970,0.3302421271800995,-12.890564918518066,-51,7489.0,156.5303192138672,2511,7565.0
3980,0.3306359648704529,-5.26491117477417,-73,7489.0,153.34678649902344,2415,7565.0
3990,0.33035099506378174,2.336059808731079,85,7489.0,125.53038787841797,1971,7565.0
4000,0.32954463362693787,6.884803771972656,114,7489.0,81.69253540039062,976,7565.0
4010,0.32409143447875977,5.720455169677734,-54,7489.0,30.135852813720703,330,7565.0
4020,0.3251529335975647,-6.196405410766602,-227,7489.0,-12.00556468963623,-375,7565.0
4030,0.3254249095916748,-19.262601852416992,-257,7489.0,-53.2529411315918,-1120,7565.0
4040,0.327090859413147,-27.416141510009766,-494,7489.0,-97.4801025390625,-1757,7565.0
4050,0.32806333899497986,-23.0251407623291,-355,7489.0,-140.0117950439453,-2603,7565.0
4060,0.32375529408454895,-18.026330947875977,-255,7489.0,-167.73236083984375,-2952,7565.0
4070,0.32447168231010437,-14.063610076904297,-137,7489.0,-163.77650451660156,-2606,7565.0
4080,0.32484787702560425,-4.290656566619873,-49,7489.0,-136.5185089111328,-2017,7565.0
4090,0.32471078634262085,3.4704692363739014,56,7489.0,-92.66446685791016,-1268,7565.0
4100,0.32882067561149597,9.705775260925293,128,7489.0,-34.358543395996094,-342,7565.0
4110,0.3295550048351288,12.573124885559082,193,7489.0,27.64907455444336,648,7565.0
4120,0.3304951786994934,17.286073684692383,305,7489.0,80.70499420166016,1529,7565.0
4130,0.3314949572086334,24.626047134399414,414,7489.0,121.76638793945312,2246,7565.0
4140,0.329924613237381,25.442201614379883,417,7489.0,139.79478454589844,2351,7565.0
4150,0.32989418506622314,20.95034408569336,254,7489.0,133.3097686767578,2219,7565.0
4160,0.32917770743370056,10.431497573852539,38,7489.0,115.48028564453125,1697,7565.0
4170,0.32941681146621704,-4.110782623291016,-21,7489.0,79.8306655883789,1136,7565.0
4180,0.3306538164615631,-11.005925178527832,-264,7489.0,43.028053283691406,588,7565.0
4190,0.32300490140914917,-14.98276424407959,-213,7489.0,2.969888210296631,-230,7565.0
4200,0.3228985667228699,-19.493099212646484,-359,7489.0,-41.116065979003906,-842,7565.0
4210,0.32323625683784485,-21.504039764404297,-377,7489.0,-88.65828704833984,-1611,7565.0
4220,0.32406944036483765,-28.466659545898438,-506,7489.0,-112.6357650756836,-1975,7565.0
4230,0.32123133540153503,-38.47259521484375,-638,7489.0,-110.86763000488281,-1776,7565.0
4240,0.3214446008205414,-39.844242095947266,-575,7489.0,-93.70710754394531,-1412,7565.0
4250,0.3216698169708252,-23.48455238342285,-359,7489.0,-59.07087326049805,-652,7565.0
4260,0.32239899039268494,1.7783217430114746,108,7489.0,-17.24703598022461,-5,7565.0
4270,0.3238169550895691,21.10033416748047,425,7489.0,25.09687042236328,647,7565.0
4280,0.3247443735599518,45.51523971557617,814,7489.0,61.965763092041016,1036,7565.0
4290,0.32554206252098083,58.797611236572266,1035,7489.0,93.0420913696289,1599,7565.0
4300,0.3256949484348297,60.970481872558594,1052,7489.0,111.77397155761719,1824,7565.0
4310,0.3269984722137451,44.6994514465332,743,7489.0,118.244140625,1889,7565.0
4320,0.323578804731369,26.123533248901367,247,7489.0,102.33008575439453,1654,7565.0
4330,0.3232365548610687,-2.2619166374206543,-197,7489.0,81.01042175292969,1258,7565.0
4340,0.32292473316192627,-24.596906661987305,-375,7489.0,55.112693786621094,638,7565.0
4350,0.32425355911254883,-34.73354721069336,-656,7489.0,16.490428924560547,231,7565.0
4360,0.3198596239089966,-36.30623245239258,-547,7489.0,-23.116289138793945,-703,7565.0
4370,0.3200620412826538,-27.466350555419922,-380,7489.0,-66.8705062866211,-1182,7565.0
4380,0.32066065073013306,-10.275315284729004,27,7489.0,-111.97327423095703,-2111,7565.0
4390,0.3209365904331207,7.074209690093994,138,7489.0,-149.6310272216797,-2690,7565.0
4400,0.3216152489185333,9.441651344299316,143,7489.0,-163.07333374023438,-2462,7565.0
4410,0.321184366941452,6.337615966796875,86,7489.0,-142.79335021972656,-2017,7565.0
4420,0.3219343423843384,7.56170654296875,88,7489.0,-105.52310180664062,-1475,7565.0
4430,0.32595735788345337,9.136570930480957,64,7489.0,-49.21222686767578,-392,7565.0
4440,0.32724717259407043,10.684530258178711,138,7489.0,15.140395164489746,626,7565.0
4450,0.33039677143096924,5.121639251708984,43,7489.0,67.22049713134766,1382,7565.0
4460,0.3318808376789093,1.9587386846542358,55,7489.0,103.63297271728516,1813,7565.0
4470,0.33311954140663147,6.372087001800537,131,7489.0,123.2850341796875,1993,7565.0
4480,0.33386367559432983,-1.8362882137298584,72,7489.0,127.98571014404297,1967,7565.0
4490,0.3343731760978699,-3.6653919219970703,-108,7489.0,117.19808197021484,1812,7565.0
4500,0.32882383465766907,-8.230819702148438,-187,7489.0,85.36913299560547,1200,7565.0
4510,0.33001387119293213,-7.966646194458008,-99,7489.0,46.67338943481445,443,7565.0
4520,0.3300614058971405,-3.818915367126465,-19,7489.0,12.157562255859375,157,7565.0
4530,0.3298262655735016,4.060023784637451,59,7489.0,-13.829028129577637,-440,7565.0
4540,0.3256606459617615,9.350906372070312,235,7489.0,-33.692115783691406,-658,7565.0
4550,0.32565829157829285,12.134690284729004,201,7489.0,-46.26457977294922,-857,7565.0
4560,0.32574912905693054,12.324681282043457,88,7489.0,-62.4818115234375,-881,7565.0
4570,0.3259676694869995,3.583076000213623,15,7489.0,-62.16108703613281,-1003,7565.0
4580,0.3232336640357971,-7.912860870361328,-213,7489.0,-58.853214263916016,-898,7565.0
4590,0.32415488362312317,-26.075639724731445,-476,7489.0,-47.53072738647461,-614,7565.0
4600,0.32437705993652344,-31.35916519165039,-375,7489.0,-17.637372970581055,-235,7565.0
4610,0.32480502128601074,-17.119770050048828,-130,7489.0,13.271299362182617,294,7565.0
4620,0.3252639174461365,-6.239086151123047,-33,7489.0,38.67170333862305,767,7565.0
4630,0.3253070116043091,-2.996842861175537,142,7489.0,58.27029037475586,854,7565.0
4640,0.32533183693885803,5.968215465545654,155,7489.0,64.44768524169922,1072,7565.0
4650,0.3250609338283539,17.229713439941406,322,7489.0,59.682518005371094,1153,7565.0
4660,0.32429662346839905,21.404064178466797,333,7489.0,53.91688919067383,818,7565.0
4670,0.32299354672431946,12.596423149108887,176,7489.0,35.735618591308594,459,7565.0
4680,0.3233867585659027,-2.7290942668914795,-71,7489.0,16.66813087463379,216,7565.0
4690,0.322559654712677,-11.110315322875977,-298,7489.0,-9.42580795288086,-255,7565.0
4700,0.32190200686454773,-13.076226234436035,-151,7489.0,-36.417396545410156,-774,7565.0
4710,0.32079121470451355,-9.249978065490723,-205,7489.0,-53.2098503112793,-825,7565.0
4720,0.32005903124809265,-3.440403938293457,-41,7489.0,-57.62265396118164,-856,7565.0
4730,0.31948915123939514,3.033716917037964,144,7489.0,-53.85371017456055,-904,7565.0
4740,0.31911391019821167,8.450248718261719,108,7489.0,-44.47758102416992,-714,7565.0
4750,0.3189934492111206,10.327396392822266,113,7489.0,-38.71870803833008,-510,7565.0
4760,0.31998851895332336,1.4797067642211914,-42,7489.0,-32.359615325927734,-476,7565.0
4770,0.3203010559082031,-18.910818099975586,-316,7489.0,-20.02872657775879,-350,7565.0
4780,0.32086485624313354,-30.31272315979004,-443,7489.0,-4.025619983673096,-53,7565.0
4790,0.32126620411872864,-19.035295486450195,-201,7489.0,16.636743545532227,451,7565.0
4800,0.3231689929962158,8.612767219543457,161,7489.0,40.673274993896484,847,7565.0
4810,0.32370278239250183,25.96861457824707,437,7489.0,67.49491882324219,1116,7565.0
4820,0.32391980290412903,37.8675422668457,703,7489.0,75.68656158447266,1224,7565.0
4830,0.32371389865875244,42.67926025390625,798,7489.0,68.6889877319336,1060,7565.0
4840,0.3241063356399536,39.039146423339844,511,7489.0,53.563419342041016,745,7565.0
4850,0.32169029116630554,24.419631958007812,290,7489.0,31.25994873046875,346,7565.0
4860,0.321304589509964,0.21666458249092102,-139,7489.0,-5.019744396209717,-264,7565.0
4870,0.3215194046497345,-25.405946731567383,-545,7489.0,-38.3188591003418,-677,7565.0
4880,0.32112917304039,-38.924381256103516,-666,7489.0,-64.84547424316406,-1200,7565.0
4890,0.3183497190475464,-37.50995635986328,-483,7489.0,-79.36305236816406,-1344,7565.0
4900,0.3176928758621216,-21.013437271118164,-277,7489.0,-79.8122787475586,-1195,7565.0
4910,0.31709203124046326,0.7882172465324402,96,7489.0,-73.79263305664062,-1173,7565.0
4920,0.317928284406662,16.029712677001953,365,7489.0,-61.20463943481445,-1055,7565.0
4930,0.31762105226516724,11.356982231140137,183,7489.0,-43.13951110839844,-681,7565.0
4940,0.3177167773246765,-8.124490737915039,-279,7489.0,-21.751766204833984,-270,7565.0
4950,0.3184393644332886,-34.043739318847656,-700,7489.0,8.015298843383789,404,7565.0
4960,0.31943216919898987,-46.34471893310547,-852,7489.0,37.16960525512695,943,7565.0
4970,0.3209071457386017,-48.30736541748047,-816,7489.0,57.368038177490234,1012,7565.0
4980,0.32068631052970886,-38.297447204589844,-471,7489.0,65.85861206054688,964,7565.0
4990,0.322239488363266,-11.026251792907715,-77,7489.0,62.614959716796875,1056,7565.0
5000,0.3231241703033447,8.335478782653809,226,7489.0,41.66697311401367,532,7565.0
5010,0.3243221342563629,28.401546478271484,560,7489.0,19.14244270324707,269,7565.0
5020,0.3234698474407196,36.897789001464844,653,7489.0,3.31268048286438,-17,7565.0
5030,0.32384541630744934,48.24110794067383,853,7489.0,-14.995098114013672,-465,7565.0
5040,0.32419952750205994,59.09300994873047,1016,7489.0,-28.546857833862305,-410,7565.0
5050,0.3245788812637329,67.80887603759766,1196,7489.0,-34.60111999511719,-531,7565.0
5060,0.3243201673030853,75.5738525390625,1100,7489.0,-43.645111083984375,-848,7565.0
5070,0.3226613998413086,44.949859619140625,619,7489.0,-37.53159713745117,-686,7565.0
5080,0.32292717695236206,12.45060920715332,0,7489.0,-32.10689926147461,-582,7565.0
5090,0.3229905664920807,-37.08322525024414,-819,7489.0,-33.96220779418945,-561,7565.0
5100,0.3233758807182312,-71.11456298828125,-1359,7489.0,-19.555940628051758,-239,7565.0
5110,0.32070088386535645,-95.41975402832031,-1632,7489.0,1.5753594636917114,155,7565.0
5120,0.3206477165222168,-98.16749572753906,-1557,7489.0,23.17989730834961,672,7565.0
5130,0.3221605122089386,-79.80852508544922,-1125,7489.0,41.55596160888672,811,7565.0
5140,0.3224998414516449,-38.426856994628906,-261,7489.0,63.46379852294922,1053,7565.0
5150,0.32295650243759155,10.759172439575195,284,7489.0,74.03667449951172,1314,7565.0
5160,0.3236435055732727,36.948604583740234,782,7489.0,71.31474304199219,935,7565.0
5170,0.3246447741985321,54.191749572753906,944,7489.0,41.84816360473633,518,7565.0
5180,0.32561805844306946,61.11030197143555,966,7489.0,14.301913261413574,114,7565.0
5190,0.32611575722694397,54.31914520263672,934,7489.0,-4.819389343261719,-224,7565.0
5200,0.3246961534023285,47.3190803527832,707,7489.0,-22.64267349243164,-433,7565.0
5210,0.3252384066581726,39.404964447021484,565,7489.0,-38.57771682739258,-625,7565.0
5220,0.325637549161911,32.746612548828125,506,7489.0,-44.53602981567383,-657,7565.0
5230,0.3259018361568451,30.845905303955078,518,7489.0,-38.154197692871094,-555,7565.0
5240,0.3249428868293762,24.696516036987305,427,7489.0,-25.897769927978516,-431,7565.0
5250,0.32516297698020935,15.528892517089844,228,7489.0,0.7844995856285095,19,7565.0
5260,0.3251914381980896,5.003859996795654,92,7489.0,14.715837478637695,296,7565.0
5270,0.3251000940799713,-8.381206512451172,-153,7489.0,36.10817337036133,696,7565.0
5280,0.32513228058815,-24.422779083251953,-361,7489.0,52.45384216308594,854,7565.0
5290,0.32607588171958923,-33.96419906616211,-576,7489.0,60.7722053527832,1086,7565.0
5300,0.32554158568382263,-41.980228424072266,-771,7489.0,66.228271484375,1104,7565.0
5310,0.32458817958831787,-43.332496643066406,-818,7489.0,63.12330627441406,1010,7565.0
5320,0.3246372640132904,-50.24954605102539,-724,7489.0,49.58545684814453,677,7565.0
5330,0.32460248470306396,-48.096988677978516,-820,7489.0,25.33268928527832,326,7565.0
5340,0.3240146338939667,-36.4976921081543,-504,7489.0,-4.475441932678223,-227,7565.0
5350,0.3237074315547943,-16.646390914916992,-157,7489.0,-29.78908920288086,-555,7565.0
5360,0.32367169857025146,15.198440551757812,413,7489.0,-59.193870544433594,-1150,7565.0
5370,0.3215000629425049,46.96446228027344,892,7489.0,-84.751220703125,-1375,7565.0
5380,0.32114294171333313,62.79659652709961,955,7489.0,-94.2562484741211,-1643,7565.0
5390,0.3207453787326813,53.5417366027832,869,7489.0,-93.62838745117188,-1573,7565.0
5400,0.3204578459262848,36.6395378112793,560,7489.0,-87.67626190185547,-1424,7565.0
5410,0.320077508687973,23.200767517089844,298,7489.0,-77.70194244384766,-1175,7565.0
5420,0.3228341341018677,3.98775315284729,-79,7489.0,-57.09275817871094,-713,7565.0
5430,0.32310038805007935,-23.325902938842773,-523,7489.0,-24.524837493896484,-183,7565.0
5440,0.32402417063713074,-42.191463470458984,-805,7489.0,21.01093292236328,637,7565.0
5450,0.32455599308013916,-49.0899658203125,-885,7489.0,74.24000549316406,1494,7565.0
5460,0.32535719871520996,-41.77915954589844,-666,7489.0,114.55178833007812,1955,7565.0
5470,0.32534724473953247,-29.29053497314453,-327,7489.0,123.41374206542969,2060,7565.0
5480,0.3252336084842682,-3.4828624725341797,55,7489.0,121.04794311523438,1981,7565.0
5490,0.3244767189025879,14.265253067016602,337,7489.0,103.1076889038086,1407,7565.0
5500,0.3264164328575134,27.471393585205078,402,7489.0,62.15172576904297,903,7565.0
5510,0.32221701741218567,29.669281005859375,570,7489.0,18.01213836669922,65,7565.0
5520,0.3221200704574585,21.211151123046875,156,7489.0,-22.01258659362793,-647,7565.0
5530,0.3230603039264679,5.3209757804870605,109,7489.0,-66.0228500366211,-1153,7565.0
5540,0.3228835165500641,-9.189724922180176,-248,7489.0,-90.66959381103516,-1576,7565.0
5550,0.3215612471103668,-17.048734664916992,-265,7489.0,-110.39671325683594,-1945,7565.0
5560,0.3216286897659302,-19.51405906677246,-360,7489.0,-117.11763000488281,-1894,7565.0
5570,0.3213515877723694,-14.750605583190918,-231,7489.0,-122.35986328125,-1946,7565.0
5580,0.3225303888320923,0.11522034555673599,136,7489.0,-122.76299285888672,-1991,7565.0
5590,0.32005491852760315,10.425808906555176,240,7489.0,-104.9092788696289,-1683,7565.0
5600,0.32072511315345764,3.676276922225952,75,7489.0,-73.81827545166016,-1013,7565.0
5610,0.32062432169914246,-10.087980270385742,-228,7489.0,-23.671247482299805,-65,7565.0
5620,0.3236525356769562,-21.289377212524414,-363,7489.0,29.04869842529297,916,7565.0
5630,0.325032114982605,-18.739871978759766,-303,7489.0,89.132568359375,1780,7565.0
5640,0.3279160261154175,-8.83519458770752,-96,7489.0,120.36534881591797,2190,7565.0
5650,0.32852160930633545,9.024733543395996,316,7489.0,145.448486328125,2212,7565.0
5660,0.32918354868888855,24.895170211791992,492,7489.0,144.60890197753906,2229,7565.0
5670,0.32914531230926514,34.577491760253906,516,7489.0,124.0978775024414,1891,7565.0
5680,0.32647496461868286,34.048126220703125,668,7489.0,89.02755737304688,1188,7565.0
5690,0.32626408338546753,27.37647247314453,439,7489.0,44.56709671020508,416,7565.0
5700,0.32725176215171814,14.660009384155273,197,7489.0,-2.0058043003082275,-236,7565.0
5710,0.32784804701805115,-5.812463760375977,-167,7489.0,-38.482872009277344,-798,7565.0
5720,0.329042911529541,-24.680776596069336,-406,7489.0,-61.57858657836914,-1212,7565.0
5730,0.32501477003097534,-36.80294418334961,-681,7489.0,-85.25240325927734,-1443,7565.0
5740,0.3256817162036896,-40.2575569152832,-579,7489.0,-110.3412094116211,-2001,7565.0
5750,0.3262573778629303,-28.816390991210938,-370,7489.0,-119.05436706542969,-1943,7565.0
5760,0.32674601674079895,-14.145790100097656,-184,7489.0,-99.41631317138672,-1362,7565.0
5770,0.32576242089271545,-3.41499400138855,-30,7489.0,-66.31385803222656,-811,7565.0
5780,0.3265622556209564,9.769305229187012,195,7489.0,-32.53609848022461,-123,7565.0
5790,0.3280008137226105,23.627323150634766,396,7489.0,18.29092788696289,626,7565.0
5800,0.32938647270202637,27.532939910888672,512,7489.0,62.886085510253906,1235,7565.0
5810,0.32799336314201355,28.369264602661133,521,7489.0,99.585693359375,1786,7565.0
5820,0.3290458023548126,23.817358016967773,458,7489.0,125.28239440917969,2055,7565.0
5830,0.32949963212013245,18.95240020751953,263,7489.0,132.35348510742188,2156,7565.0
5840,0.3296701908111572,8.542025566101074,-35,7489.0,123.7270278930664,1985,7565.0
5850,0.3293270468711853,-6.787797927856445,-113,7489.0,89.22649383544922,1249,7565.0
5860,0.3259323835372925,-21.711639404296875,-446,7489.0,42.19171905517578,395,7565.0
5870,0.327054888010025,-33.87202072143555,-605,7489.0,-8.745891571044922,-246,7565.0
5880,0.3272963762283325,-36.61863708496094,-550,7489.0,-53.482826232910156,-1198,7565.0
5890,0.32854554057121277,-28.032360076904297,-430,7489.0,-87.80144500732422,-1375,7565.0
5900,0.32598674297332764,-9.594478607177734,47,7489.0,-106.83721923828125,-1944,7565.0
5910,0.32617858052253723,11.309327125549316,347,7489.0,-118.48988342285156,-2052,7565.0
5920,0.3266260027885437,34.85988235473633,621,7489.0,-128.10194396972656,-1948,7565.0
5930,0.32668083906173706,50.64800262451172,824,7489.0,-116.99305725097656,-1681,7565.0
5940,0.3268806040287018,47.39237594604492,689,7489.0,-89.4980697631836,-1266,7565.0
5950,0.32617467641830444,43.44260025024414,737,7489.0,-50.83898162841797,-553,7565.0
5960,0.3269278109073639,33.934059143066406,431,7489.0,4.898003578186035,535,7565.0
5970,0.32764342427253723,9.028084754943848,-32,7489.0,68.13780212402344,1498,7565.0
5980,0.3297913670539856,-23.18086051940918,-515,7489.0,117.87581634521484,2178,7565.0
5990,0.3303641378879547,-43.442501068115234,-785,7489.0,155.8134765625,2739,7565.0
6000,0.33078643679618835,-50.62195587158203,-817,7489.0,174.7670440673828,2773,7565.0
6010,0.33047062158584595,-55.051300048828125,-839,7489.0,168.34486389160156,2663,7565.0
6020,0.33029675483703613,-54.062801361083984,-918,7489.0,147.6403045654297,2344,7565.0
6030,0.32752934098243713,-44.231712341308594,-595,7489.0,109.79348754882812,1567,7565.0
6040,0.3260842561721802,-28.655757904052734,-461,7489.0,49.65758514404297,415,7565.0
6050,0.32549628615379333,-6.242081165313721,22,7489.0,-22.460302352905273,-683,7565.0
6060,0.32714521884918213,12.529998779296875,269,7489.0,-86.03857421875,-1537,7565.0
6070,0.32740893959999084,23.632699966430664,517,7489.0,-139.72715759277344,-2630,7565.0
6080,0.32297202944755554,32.52906036376953,559,7489.0,-178.88291931152344,-3049,7565.0
6090,0.32392704486846924,36.9953727722168,558,7489.0,-209.9652862548828,-3569,7565.0
6100,0.32396453619003296,41.05179214477539,701,7489.0,-227.16708374023438,-3762,7565.0
6110,0.3256828486919403,40.102352142333984,656,7489.0,-216.06045532226562,-3319,7565.0
6120,0.3239136338233948,28.7130069732666,410,7489.0,-172.65591430664062,-2470,7565.0
6130,0.3230045735836029,13.902175903320312,44,7489.0,-114.73976135253906,-1480,7565.0
6140,0.3237007260322571,-5.6767802238464355,-188,7489.0,-34.40009307861328,-69,7565.0
6150,0.3257649540901184,-14.466769218444824,-306,7489.0,51.8702392578125,1273,7565.0
6160,0.33241453766822815,-27.788684844970703,-524,7489.0,122.79993438720703,2355,7565.0
6170,0.3341892957687378,-39.49944305419922,-657,7489.0,171.4888916015625,2905,7565.0
6180,0.3348599076271057,-43.67805480957031,-592,7489.0,202.2694854736328,3275,7565.0
6190,0.3358992338180542,-28.38361930847168,-335,7489.0,199.75201416015625,3305,7565.0
6200,0.33846986293792725,-8.430055618286133,-26,7489.0,179.8079071044922,2662,7565.0
6210,0.3343925476074219,14.13265323638916,234,7489.0,133.93324279785156,2046,7565.0
6220,0.33447524905204773,22.641706466674805,471,7489.0,80.42002868652344,1079,7565.0
6230,0.3354533612728119,17.887584686279297,183,7489.0,26.357255935668945,109,7565.0
6240,0.3377399146556854,4.264901161193848,38,7489.0,-25.585617065429688,-547,7565.0
6250,0.33153820037841797,-8.998251914978027,-250,7489.0,-69.89464569091797,-1480,7565.0
6260,0.3329840302467346,-19.835643768310547,-278,7489.0,-112.63753509521484,-1984,7565.0
6270,0.33414170145988464,-14.042423248291016,-173,7489.0,-139.3560028076172,-2254,7565.0
6280,0.33553481101989746,-3.9833600521087646,-39,7489.0,-133.72000122070312,-2232,7565.0
6290,0.3304908275604248,-2.7885162830352783,-2,7489.0,-111.35174560546875,-1768,7565.0
6300,0.3313233554363251,-6.51807975769043,-68,7489.0,-90.4581527709961,-1356,7565.0
6310,0.33165931701660156,-5.2357563972473145,-73,7489.0,-54.71157455444336,-641,7565.0
6320,0.33431246876716614,-3.734473943710327,-25,7489.0,0.7367018461227417,300,7565.0
6330,0.3350304663181305,3.9186904430389404,10,7489.0,54.45151138305664,1118,7565.0
6340,0.33251410722732544,11.74096393585205,210,7489.0,97.49837493896484,1997,7565.0
6350,0.33327698707580566,19.68929672241211,326,7489.0,131.15621948242188,2380,7565.0
6360,0.3334614038467407,19.93634605407715,326,7489.0,141.5268096923828,2304,7565.0
6370,0.33373507857322693,17.948801040649414,346,7489.0,125.87909698486328,1727,7565.0
6380,0.32783278822898865,18.397838592529297,214,7489.0,84.91219329833984,1261,7565.0
6390,0.3280820846557617,19.122581481933594,434,7489.0,48.23444366455078,542,7565.0
6400,0.3292447328567505,21.818370819091797,296,7489.0,5.353305816650391,-172,7565.0
6410,0.32959961891174316,15.207700729370117,190,7489.0,-36.490692138671875,-862,7565.0
6420,0.3309355676174164,-8.066648483276367,-333,7489.0,-79.3723373413086,-1352,7565.0
6430,0.3260127305984497,-25.104122161865234,-555,7489.0,-110.79464721679688,-1989,7565.0
6440,0.32658255100250244,-36.94767761230469,-652,7489.0,-124.37049102783203,-2035,7565.0
6450,0.3274211287498474,-39.73215866088867,-571,7489.0,-101.15567016601562,-1439,7565.0
6460,0.32796162366867065,-30.303041458129883,-452,7489.0,-73.14892578125,-911,7565.0
6470,0.3259120285511017,-14.184600830078125,-261,7489.0,-41.808719635009766,-357,7565.0
6480,0.3268457353115082,-5.175487041473389,20,7489.0,3.26456880569458,254,7565.0
6490,0.3278059661388397,14.423383712768555,292,7489.0,41.64583969116211,788,7565.0
6500,0.3288729190826416,27.932964324951172,505,7489.0,77.95057678222656,1398,7565.0
6510,0.32828810811042786,34.20638656616211,574,7489.0,110.15603637695312,1794,7565.0
6520,0.328256756067276,34.44477462768555,575,7489.0,123.89041900634766,2015,7565.0
6530,0.3286059498786926,24.31084632873535,287,7489.0,113.89424133300781,1812,7565.0
6540,0.32790955901145935,16.485122680664062,249,7489.0,87.48773193359375,1195,7565.0
6550,0.32825469970703125,11.633707046508789,88,7489.0,38.635223388671875,459,7565.0
6560,0.3243391513824463,-1.940025806427002,-102,7489.0,-9.04332447052002,-390,7565.0
6570,0.324751615524292,-22.188623428344727,-478,7489.0,-45.14321517944336,-842,7565.0
6580,0.3255673050880432,-35.05073165893555,-637,7489.0,-72.38327026367188,-1268,7565.0
6590,0.32604506611824036,-37.8634147644043,-646,7489.0,-98.44332122802734,-1871,7565.0
6600,0.3226523995399475,-31.61524200439453,-394,7489.0,-125.66510772705078,-2123,7565.0
6610,0.3232082426548004,-17.373790740966797,-212,7489.0,-134.5059356689453,-2054,7565.0
6620,0.32386693358421326,-4.09242582321167,-74,7489.0,-114.21285247802734,-1697,7565.0
6630,0.32399576902389526,7.688836097717285,272,7489.0,-75.0165786743164,-1076,7565.0
6640,0.3258449137210846,19.563709259033203,356,7489.0,-30.470714569091797,-405,7565.0
6650,0.32607799768447876,27.63203239440918,511,7489.0,16.012012481689453,372,7565.0
6660,0.32710400223731995,33.78164291381836,481,7489.0,59.870567321777344,1056,7565.0
6670,0.32804712653160095,24.85747528076172,410,7489.0,91.08068084716797,1589,7565.0
6680,0.3286377489566803,9.273194313049316,18,7489.0,114.41899871826172,1887,7565.0
6690,0.3281177878379822,-3.0008184909820557,-82,7489.0,123.37923431396484,2089,7565.0
6700,0.3284025192260742,-14.436119079589844,-339,7489.0,114.74297332763672,1829,7565.0
6710,0.3281887471675873,-19.200016021728516,-317,7489.0,82.32566833496094,1068,7565.0
6720,0.32893556356430054,-19.93764877319336,-285,7489.0,42.98585510253906,694,7565.0
6730,0.3254636526107788,-15.023897171020508,-202,7489.0,6.4761481285095215,-211,7565.0
6740,0.32579851150512695,-13.280935287475586,-287,7489.0,-32.633087158203125,-548,7565.0
6750,0.3266291916370392,-13.729393005371094,-143,7489.0,-57.86539840698242,-1158,7565.0
6760,0.3274611234664917,-13.944636344909668,-318,7489.0,-69.96168518066406,-1065,7565.0
6770,0.3281460702419281,-11.265105247497559,-134,7489.0,-81.63150787353516,-1443,7565.0
6780,0.3233226239681244,0.04035807400941849,159,7489.0,-98.75060272216797,-1724,7565.0
6790,0.3237760365009308,14.497641563415527,200,7489.0,-90.47295379638672,-1281,7565.0
6800,0.3253423273563385,22.818201065063477,356,7489.0,-50.45109939575195,-495,7565.0
6810,0.3268430829048157,24.85451316833496,371,7489.0,-12.821247100830078,18,7565.0
6820,0.3260484039783478,18.583662033081055,317,7489.0,21.568490982055664,505,7565.0
6830,0.32709193229675293,12.733297348022461,209,7489.0,62.63432312011719,1023,7565.0
6840,0.3278302848339081,-2.2943971157073975,-47,7489.0,92.19110870361328,1425,7565.0
6850,0.3283228576183319,-4.949138164520264,-91,7489.0,107.56970977783203,1779,7565.0
6860,0.32469233870506287,-0.8877735733985901,116,7489.0,103.17023468017578,1728,7565.0
6870,0.3243245482444763,13.409969329833984,243,7489.0,86.16534423828125,1155,7565.0
6880,0.32352468371391296,14.906135559082031,234,7489.0,59.287132263183594,901,7565.0
6890,0.3233572840690613,7.431370258331299,99,7489.0,24.524404525756836,192,7565.0
6900,0.32383275032043457,-3.485081911087036,-120,7489.0,-17.98619270324707,-500,7565.0
6910,0.32132184505462646,-15.83267593383789,-374,7489.0,-57.74030303955078,-1024,7565.0
6920,0.3214920461177826,-25.227907180786133,-374,7489.0,-87.56829071044922,-1681,7565.0
6930,0.3216131329536438,-27.705827713012695,-476,7489.0,-105.45280456542969,-1685,7565.0
6940,0.3218701183795929,-19.51764488220215,-313,7489.0,-112.28375244140625,-1763,7565.0
6950,0.32080817222595215,-10.31943416595459,-45,7489.0,-112.7145767211914,-1924,7565.0
6960,0.3207419514656067,5.683305740356445,238,7489.0,-97.15752410888672,-1480,7565.0
6970,0.3216381371021271,20.1546688079834,312,7489.0,-66.07711029052734,-821,7565.0
6980,0.32337677478790283,20.00092315673828,275,7489.0,-23.725048065185547,-94,7565.0
6990,0.3247799575328827,12.247549057006836,70,7489.0,20.692096710205078,666,7565.0
7000,0.32857149839401245,5.62282133102417,-76,7489.0,57.1588249206543,1250,7565.0
7010,0.33020487427711487,-7.017627239227295,-151,7489.0,96.3174057006836,1729,7565.0
7020,0.33062267303466797,-13.189220428466797,-153,7489.0,126.613037109375,2065,7565.0
7030,0.3311992585659027,-11.262382507324219,-50,7489.0,135.4652862548828,2121,7565.0
7040,0.32877689599990845,4.5766520500183105,11,7489.0,125.0860595703125,1950,7565.0
7050,0.32861974835395813,20.630807876586914,494,7489.0,101.8524169921875,1469,7565.0
7060,0.3296956717967987,34.312767028808594,553,7489.0,60.07831573486328,657,7565.0
7070,0.3292253017425537,28.45943260192871,425,7489.0,7.533288478851318,-272,7565.0
7080,0.32617324590682983,11.100179672241211,36,7489.0,-46.67573547363281,-956,7565.0
7090,0.3270358145236969,-9.409379005432129,-236,7489.0,-85.5682373046875,-1701,7565.0
7100,0.3271249830722809,-28.394140243530273,-554,7489.0,-107.18324279785156,-1863,7565.0
7110,0.32752010226249695,-34.117095947265625,-598,7489.0,-115.51737213134766,-1771,7565.0
7120,0.32775282859802246,-30.82787322998047,-441,7489.0,-107.12922668457031,-1652,7565.0
7130,0.3255462646484375,-21.568641662597656,-229,7489.0,-84.1866683959961,-1305,7565.0
7140,0.3270653486251831,-12.212944030761719,-81,7489.0,-63.70530319213867,-919,7565.0
7150,0.327914834022522,-0.1045084297657013,117,7489.0,-39.2705192565918,-537,7565.0
7160,0.32889029383659363,19.574989318847656,294,7489.0,-6.035891056060791,31,7565.0
7170,0.32949697971343994,21.581378936767578,329,7489.0,36.391510009765625,788,7565.0
7180,0.3312768340110779,16.081035614013672,167,7489.0,70.01807403564453,1376,7565.0
7190,0.3327889144420624,9.69331169128418,88,7489.0,97.33091735839844,1810,7565.0
7200,0.333823025226593,-1.5119448900222778,-118,7489.0,111.84185028076172,1939,7565.0
7210,0.33423155546188354,-14.265738487243652,-105,7489.0,121.95624542236328,1965,7565.0
7220,0.3311273753643036,-12.785651206970215,-212,7489.0,120.48895263671875,1906,7565.0
7230,0.33217084407806396,-6.039273738861084,-75,7489.0,100.87799072265625,1528,7565.0
7240,0.3315710425376892,1.4588048458099365,71,7489.0,64.55036163330078,859,7565.0
7250,0.33110105991363525,2.854112148284912,76,7489.0,15.544416427612305,3,7565.0
7260,0.32706165313720703,2.0941174030303955,43,7489.0,-42.44782638549805,-958,7565.0
7270,0.32740581035614014,2.597980260848999,25,7489.0,-91.30171203613281,-1653,7565.0
7280,0.3276820182800293,-2.3149054050445557,-72,7489.0,-118.81976318359375,-1959,7565.0
7290,0.3279121518135071,1.692941665649414,16,7489.0,-130.3462371826172,-2339,7565.0
7300,0.324818879365921,5.828639507293701,140,7489.0,-136.91763305664062,-2300,7565.0
7310,0.3254307210445404,14.646778106689453,302,7489.0,-147.3258056640625,-2260,7565.0
7320,0.32531100511550903,28.284006118774414,445,7489.0,-129.6453094482422,-1928,7565.0
7330,0.3248412311077118,26.792217254638672,412,7489.0,-95.1187515258789,-1378,7565.0
7340,0.32537156343460083,13.345969200134277,148,7489.0,-50.29686737060547,-617,7565.0
7350,0.3278159201145172,-5.685866355895996,-137,7489.0,12.530572891235352,450,7565.0
7360,0.32913535833358765,-18.387178421020508,-263,7489.0,75.86599731445312,1374,7565.0
7370,0.3307463824748993,-25.03032684326172,-347,7489.0,123.77923583984375,2114,7565.0
7380,0.33252987265586853,-28.389801025390625,-472,7489.0,150.63882446289062,2525,7565.0
7390,0.3311592638492584,-23.20435905456543,-399,7489.0,162.06951904296875,2680,7565.0
7400,0.33171454071998596,-8.411487579345703,43,7489.0,150.497314453125,2415,7565.0
7410,0.33199381828308105,6.8200764656066895,145,7489.0,121.53929138183594,1750,7565.0
7420,0.3323315680027008,21.150510787963867,408,7489.0,67.46065521240234,887,7565.0
7430,0.33590927720069885,26.759052276611328,403,7489.0,5.628997802734375,-217,7565.0
7440,0.33049190044403076,21.645092010498047,337,7489.0,-53.50457000732422,-1067,7565.0
7450,0.3321019411087036,12.891094207763672,130,7489.0,-97.9404525756836,-1832,7565.0
7460,0.3338070809841156,0.8519479632377625,-16,7489.0,-127.10882568359375,-2002,7565.0
7470,0.33430567383766174,-8.818115234375,-248,7489.0,-140.25010681152344,-2338,7565.0
7480,0.3307315707206726,-17.981834411621094,-255,7489.0,-149.3767852783203,-2571,7565.0
7490,0.3310275971889496,-21.28548240661621,-381,7489.0,-131.32061767578125,-1997,7565.0
7500,0.33076906204223633,-32.354618072509766,-561,7489.0,-77.5080795288086,-1029,7565.0
7510,0.3334590494632721,-33.56456756591797,-572,7489.0,-26.1215763092041,-61,7565.0
7520,0.33403539657592773,-27.806116104125977,-404,7489.0,15.367648124694824,665,7565.0
7530,0.33467432856559753,-11.628236770629883,-110,7489.0,52.3928108215332,1068,7565.0
7540,0.3353513777256012,11.09604263305664,340,7489.0,92.00997924804688,1458,7565.0
7550,0.33633822202682495,36.4677619934082,788,7489.0,110.57855224609375,1785,7565.0
7560,0.336302250623703,51.59084701538086,820,7489.0,112.84038543701172,1903,7565.0
7570,0.3339420258998871,51.42958068847656,783,7489.0,102.59640502929688,1562,7565.0
7580,0.33344778418540955,40.02730178833008,613,7489.0,85.21635437011719,1379,7565.0
7590,0.33269619941711426,14.422572135925293,64,7489.0,60.54963684082031,861,7565.0
7600,0.334410697221756,-18.70660400390625,-440,7489.0,23.36216163635254,169,7565.0
7610,0.3297044336795807,-46.156349182128906,-901,7489.0,-13.85733699798584,-326,7565.0
7620,0.3300483822822571,-60.85893630981445,-949,7489.0,-47.21333694458008,-932,7565.0
7630,0.3304688632488251,-53.853145599365234,-833,7489.0,-72.04999542236328,-1255,7565.0
7640,0.33134979009628296,-34.27077102661133,-496,7489.0,-88.84540557861328,-1584,7565.0
7650,0.3319322168827057,-9.730061531066895,0,7489.0,-102.46080780029297,-1702,7565.0
7660,0.3276032507419586,13.501891136169434,334,7489.0,-112.64983367919922,-1791,7565.0
7670,0.3286529779434204,38.19826126098633,787,7489.0,-93.43353271484375,-1469,7565.0
7680,0.331223726272583,45.28199005126953,714,7489.0,-57.65782165527344,-738,7565.0
7690,0.33263614773750305,32.76081466674805,440,7489.0,-10.782693862915039,12,7565.0
7700,0.3335006535053253,17.10141944885254,312,7489.0,39.41496658325195,837,7565.0
7710,0.3355727791786194,13.87222671508789,222,7489.0,88.02458190917969,1623,7565.0
7720,0.3372977077960968,0.18294797837734222,-96,7489.0,126.27024841308594,2166,7565.0
7730,0.33868852257728577,-14.908007621765137,-368,7489.0,146.5212860107422,2547,7565.0
7740,0.33573490381240845,-20.891292572021484,-359,7489.0,145.2332000732422,2465,7565.0
7750,0.3354913890361786,-16.327573776245117,-191,7489.0,128.18544006347656,1813,7565.0
7760,0.33771541714668274,-8.852804183959961,-190,7489.0,86.54521179199219,1189,7565.0
7770,0.3378056585788727,-2.5427567958831787,-53,7489.0,33.979618072509766,146,7565.0
7780,0.33884719014167786,-1.789089322090149,-132,7489.0,-27.900657653808594,-822,7565.0
7790,0.33592185378074646,-0.7880120277404785,86,7489.0,-76.12242126464844,-1588,7565.0
7800,0.3358384668827057,7.275616645812988,132,7489.0,-118.26178741455078,-1988,7565.0
7810,0.33739781379699707,12.65007495880127,188,7489.0,-146.6890869140625,-2486,7565.0
7820,0.3376629948616028,14.466142654418945,328,7489.0,-165.23216247558594,-2887,7565.0
7830,0.3358769118785858,17.84177589416504,272,7489.0,-173.20655822753906,-2802,7565.0
7840,0.33757781982421875,30.399826049804688,544,7489.0,-154.25819396972656,-2322,7565.0
7850,0.3369452655315399,44.880924224853516,702,7489.0,-121.37382507324219,-1742,7565.0
7860,0.33619919419288635,42.323158264160156,626,7489.0,-75.4014892578125,-939,7565.0
7870,0.33562391996383667,23.26209831237793,191,7489.0,-14.878922462463379,58,7565.0
7880,0.3423808813095093,-5.472691535949707,-222,7489.0,52.612491607666016,1140,7565.0
7890,0.34252774715423584,-24.173959732055664,-477,7489.0,103.36256408691406,1895,7565.0
7900,0.34348228573799133,-33.03998565673828,-639,7489.0,141.54702758789062,2366,7565.0
7910,0.34307247400283813,-40.286624908447266,-717,7489.0,163.47225952148438,2679,7565.0
7920,0.3430081605911255,-39.54811477661133,-736,7489.0,166.01797485351562,2683,7565.0
7930,0.3430177569389343,-28.438831329345703,-343,7489.0,140.97442626953125,2090,7565.0
7940,0.34131017327308655,-8.340323448181152,-52,7489.0,93.09545135498047,1363,7565.0
7950,0.3395957350730896,3.521761655807495,143,7489.0,38.0649528503418,310,7565.0
7960,0.33219432830810547,6.867021083831787,67,7489.0,-13.757381439208984,-366,7565.0
7970,0.33062368631362915,2.457812786102295,160,7489.0,-62.201717376708984,-1327,7565.0
7980,0.3292434811592102,3.5503897666931152,-20,7489.0,-99.80728149414062,-1660,7565.0
7990,0.3275381326675415,-0.3516782224178314,15,7489.0,-128.751953125,-2248,7565.0
8000,0.32506194710731506,3.28295636177063,147,7489.0,-154.30555725097656,-2547,7565.0
8010,0.31800422072410583,16.45673942565918,349,7489.0,-149.98397827148438,-2364,7565.0
8020,0.31467580795288086,32.4490852355957,522,7489.0,-124.80130004882812,-1958,7565.0
8030,0.31095337867736816,27.229291915893555,327,7489.0,-91.5828628540039,-1287,7565.0
8040,0.30866509675979614,8.381866455078125,69,7489.0,-38.850040435791016,-340,7565.0
8050,0.3070094883441925,-8.526167869567871,-205,7489.0,30.626544952392578,818,7565.0
8060,0.3068659007549286,-21.46455192565918,-386,7489.0,95.82887268066406,1688,7565.0
8070,0.3059976398944855,-30.766660690307617,-422,7489.0,139.0793914794922,2386,7565.0
8080,0.3048078715801239,-30.912155151367188,-470,7489.0,159.9875946044922,2709,7565.0
8090,0.29656368494033813,-31.27020263671875,-539,7489.0,163.7091827392578,2576,7565.0
8100,0.295393705368042,-30.96790313720703,-530,7489.0,150.8728485107422,2405,7565.0
8110,0.29329168796539307,-27.5512752532959,-409,7489.0,122.23745727539062,1942,7565.0
8120,0.29034149646759033,-19.486413955688477,-209,7489.0,80.47573852539062,1028,7565.0
8130,0.2897522449493408,-3.533151388168335,46,7489.0,16.803165435791016,2,7565.0
8140,0.28410226106643677,10.457372665405273,184,7489.0,-40.71852493286133,-891,7565.0
8150,0.28168028593063354,17.810832977294922,295,7489.0,-79.65784454345703,-1478,7565.0
8160,0.27929410338401794,22.638723373413086,363,7489.0,-99.41020965576172,-1606,7565.0
8170,0.2766287326812744,20.38937759399414,377,7489.0,-106.3003921508789,-1671,7565.0
8180,0.2716628611087799,17.947967529296875,275,7489.0,-99.59774017333984,-1677,7565.0
8190,0.26802167296409607,21.823768615722656,380,7489.0,-78.62455749511719,-1114,7565.0
8200,0.26768916845321655,26.279008865356445,448,7489.0,-54.952972412109375,-816,7565.0
8210,0.2660442292690277,23.52302360534668,295,7489.0,-25.85873794555664,-205,7565.0
8220,0.2670641541481018,15.0471773147583,295,7489.0,8.190201759338379,270,7565.0
8230,0.26404106616973877,16.402692794799805,189,7489.0,47.140621185302734,1026,7565.0
8240,0.26430755853652954,12.890579223632812,280,7489.0,92.86007690429688,1676,7565.0
8250,0.2663523852825165,13.591615676879883,101,7489.0,139.23728942871094,2388,7565.0
8260,0.26298585534095764,1.2982244491577148,-3,7489.0,168.7930145263672,2865,7565.0
8270,0.2646345794200897,-7.025457382202148,-120,7489.0,175.89715576171875,2936,7565.0
8280,0.26542723178863525,-10.397056579589844,-138,7489.0,166.66256713867188,2610,7565.0
8290,0.26591598987579346,-5.530194282531738,-48,7489.0,140.2252197265625,1958,7565.0
8300,0.2682234048843384,3.237640619277954,56,7489.0,88.61074829101562,1221,7565.0
8310,0.26710984110832214,10.72591495513916,234,7489.0,51.0677490234375,621,7565.0
8320,0.2678881287574768,17.3721866607666,347,7489.0,20.969768524169922,147,7565.0
8330,0.2687687873840332,25.328750610351562,386,7489.0,0.15664435923099518,-180,7565.0
8340,0.2695131301879883,25.211503982543945,432,7489.0,-16.097057342529297,-360,7565.0
8350,0.2707314193248749,22.013351440429688,315,7489.0,-23.745973587036133,-380,7565.0
8360,0.27077314257621765,15.224129676818848,243,7489.0,-21.777549743652344,-244,7565.0
8370,0.27230632305145264,4.298666000366211,107,7489.0,-15.562238693237305,-248,7565.0
8380,0.27362775802612305,-7.651218414306641,-218,7489.0,-4.20843505859375,-49,7565.0
8390,0.2759966552257538,-19.07002830505371,-338,7489.0,10.48140811920166,363,7565.0
8400,0.2780991494655609,-31.99314308166504,-560,7489.0,32.73916244506836,567,7565.0
8410,0.2804803252220154,-42.680545806884766,-732,7489.0,53.86397933959961,1051,7565.0
8420,0.282235711812973,-43.642662048339844,-686,7489.0,67.25848388671875,1176,7565.0
8430,0.28456270694732666,-33.79130172729492,-477,7489.0,74.46517944335938,1160,7565.0
8440,0.2865738868713379,-14.985404014587402,-104,7489.0,68.96975708007812,1041,7565.0
8450,0.29149746894836426,10.886722564697266,344,7489.0,58.595680236816406,899,7565.0
8460,0.2942146956920624,21.098905563354492,377,7489.0,45.293373107910156,628,7565.0
8470,0.2963888943195343,17.26629066467285,196,7489.0,24.668743133544922,229,7565.0
8480,0.29823002219200134,1.3692768812179565,-156,7489.0,5.8649516105651855,52,7565.0
8490,0.30061012506484985,-13.047941207885742,-199,7489.0,-13.4262056350708,-197,7565.0
8500,0.30213212966918945,-4.258090019226074,-43,7489.0,-28.4974365234375,-630,7565.0
8510,0.3033759295940399,5.92042875289917,127,7489.0,-33.465476989746094,-638,7565.0
8520,0.3044395446777344,14.507665634155273,342,7489.0,-31.019641876220703,-477,7565.0
8530,0.3054003119468689,18.662181854248047,220,7489.0,-29.79392433166504,-498,7565.0
8540,0.3071487843990326,17.03040885925293,352,7489.0,-27.320974349975586,-437,7565.0
8550,0.307893842458725,12.9555082321167,141,7489.0,-23.354839324951172,-371,7565.0
8560,0.308499276638031,4.98129415512085,97,7489.0,-22.53482437133789,-386,7565.0
8570,0.30900299549102783,-4.03032922744751,-139,7489.0,-23.566062927246094,-336,7565.0
8580,0.31040024757385254,-15.276455879211426,-282,7489.0,-24.470561981201172,-528,7565.0
8590,0.31075435876846313,-29.51364517211914,-440,7489.0,-27.207530975341797,-457,7565.0
8600,0.3109959065914154,-34.73405838012695,-642,7489.0,-30.836896896362305,-478,7565.0
8610,0.31092002987861633,-44.357398986816406,-694,7489.0,-26.958425521850586,-367,7565.0
8620,0.3113346993923187,-34.275577545166016,-503,7489.0,-10.378461837768555,-28,7565.0
8630,0.31129342317581177,-8.229804039001465,3,7489.0,4.324339866638184,-8,7565.0
8640,0.3111782371997833,19.12618637084961,356,7489.0,0.055923085659742355,47,7565.0
8650,0.31116876006126404,26.301593780517578,468,7489.0,-4.742413520812988,-227,7565.0
8660,0.3109176456928253,22.380958557128906,262,7489.0,-6.143059253692627,-144,7565.0
8670,0.3089630901813507,13.559928894042969,278,7489.0,-3.893463611602783,-147,7565.0
8680,0.30800819396972656,7.9550371170043945,61,7489.0,-4.834202289581299,-18,7565.0
8690,0.3076534867286682,-1.6627147197723389,-33,7489.0,-13.379756927490234,-367,7565.0
8700,0.30663976073265076,-17.5853271484375,-430,7489.0,-34.640419006347656,-651,7565.0
8710,0.3043172359466553,-29.61857795715332,-436,7489.0,-54.3746452331543,-867,7565.0
8720,0.3032101094722748,-20.267885208129883,-293,7489.0,-61.63702392578125,-1067,7565.0
8730,0.3020598888397217,-6.274570941925049,-67,7489.0,-65.46345520019531,-1012,7565.0
8740,0.30058518052101135,4.541913986206055,178,7489.0,-60.12169647216797,-985,7565.0
8750,0.30042099952697754,10.076380729675293,106,7489.0,-47.74208068847656,-700,7565.0
8760,0.299167275428772,9.797798156738281,188,7489.0,-38.72454071044922,-608,7565.0
8770,0.29800766706466675,4.723385810852051,21,7489.0,-31.066057205200195,-405,7565.0
8780,0.29702290892601013,2.627847909927368,127,7489.0,-17.339935302734375,-209,7565.0
8790,0.29643040895462036,6.391056060791016,26,7489.0,3.5765697956085205,149,7565.0
8800,0.2957668900489807,6.443375110626221,167,7489.0,21.004005432128906,463,7565.0
8810,0.2952810227870941,12.453841209411621,206,7489.0,38.9041862487793,620,7565.0
8820,0.2947322428226471,22.94808006286621,428,7489.0,41.42253494262695,737,7565.0
8830,0.29426518082618713,24.51466178894043,488,7489.0,31.25579833984375,344,7565.0
8840,0.29513677954673767,29.739185333251953,486,7489.0,8.633522987365723,-83,7565.0
8850,0.29451388120651245,25.59712791442871,416,7489.0,-17.84360694885254,-300,7565.0
8860,0.2941415309906006,15.633262634277344,279,7489.0,-33.296287536621094,-605,7565.0
8870,0.29396751523017883,-0.5141348242759705,-175,7489.0,-42.06782913208008,-838,7565.0
8880,0.29335010051727295,-22.415550231933594,-538,7489.0,-43.89115905761719,-590,7565.0
8890,0.29338952898979187,-38.77055358886719,-680,7489.0,-35.55957794189453,-587,7565.0
8900,0.29301735758781433,-42.92802429199219,-707,7489.0,-24.424072265625,-330,7565.0
8910,0.2924031913280487,-39.459678649902344,-560,7489.0,-18.339757919311523,-177,7565.0
8920,0.2929048240184784,-29.155813217163086,-496,7489.0,-17.495662689208984,-366,7565.0
8930,0.29289186000823975,-18.93248176574707,-300,7489.0,-15.817304611206055,-256,7565.0
8940,0.2930571436882019,-10.410017013549805,-95,7489.0,-10.33571720123291,-1,7565.0
8950,0.2933361232280731,2.6736690998077393,213,7489.0,12.096792221069336,266,7565.0
8960,0.2935982644557953,29.939163208007812,533,7489.0,25.410057067871094,479,7565.0
8970,0.29424619674682617,45.280548095703125,734,7489.0,34.86958694458008,759,7565.0
8980,0.29369279742240906,36.99766159057617,571,7489.0,51.45100784301758,810,7565.0
8990,0.29497238993644714,17.418947219848633,153,7489.0,58.784420013427734,1040,7565.0
9000,0.29609277844429016,4.163698196411133,37,7489.0,55.02397537231445,837,7565.0
9010,0.29697227478027344,-9.863845825195312,-183,7489.0,36.56929016113281,429,7565.0
9020,0.29695042967796326,-20.587261199951172,-469,7489.0,20.18985366821289,207,7565.0
9030,0.2977508008480072,-26.849674224853516,-438,7489.0,0.9973886013031006,26,7565.0
9040,0.2983337938785553,-25.72891616821289,-325,7489.0,-9.202128410339355,-224,7565.0
9050,0.29897916316986084,-23.065319061279297,-449,7489.0,-8.082274436950684,-64,7565.0
9060,0.2965346574783325,-19.75989532470703,-252,7489.0,-14.920917510986328,-253,7565.0
9070,0.29704660177230835,-13.747989654541016,-118,7489.0,-22.41729736328125,-524,7565.0
9080,0.29740193486213684,-7.424593448638916,-162,7489.0,-29.02594566345215,-375,7565.0
9090,0.2978559136390686,-6.0731635093688965,-103,7489.0,-25.305444717407227,-378,7565.0
9100,0.2985821068286896,-6.991828918457031,-70,7489.0,-17.14844512939453,-232,7565.0
9110,0.2973399758338928,-0.5445183515548706,-43,7489.0,-9.873120307922363,-36,7565.0
9120,0.2980059087276459,-0.9109120965003967,117,7489.0,3.620579242706299,-31,7565.0
9130,0.29866597056388855,12.22000789642334,230,7489.0,8.916186332702637,288,7565.0
9140,0.29966235160827637,28.967884063720703,573,7489.0,14.819425582885742,148,7565.0
9150,0.2992064952850342,33.118247985839844,523,7489.0,31.164169311523438,722,7565.0
9160,0.2999916970729828,26.670988082885742,403,7489.0,56.3917350769043,872,7565.0
9170,0.300943523645401,8.284836769104004,88,7489.0,62.394439697265625,1116,7565.0
9180,0.30295753479003906,-17.76976776123047,-432,7489.0,54.92140579223633,710,7565.0
9190,0.30173754692077637,-43.936336517333984,-787,7489.0,39.76841354370117,677,7565.0
9200,0.3025026023387909,-40.761802673339844,-463,7489.0,31.881362915039062,469,7565.0
9210,0.3029341697692871,-14.633362770080566,-175,7489.0,14.611564636230469,54,7565.0
9220,0.30328789353370667,2.6892805099487305,154,7489.0,0.3905965983867645,48,7565.0
9230,0.30354002118110657,18.1494083404541,360,7489.0,-18.842002868652344,-456,7565.0
9240,0.3054071366786957,23.482412338256836,373,7489.0,-40.154022216796875,-723,7565.0
9250,0.3056888282299042,22.630294799804688,400,7489.0,-53.243377685546875,-808,7565.0
9260,0.3058897852897644,18.15428352355957,221,7489.0,-47.80331039428711,-752,7565.0
9270,0.3062669336795807,11.973461151123047,207,7489.0,-34.508544921875,-449,7565.0
9280,0.30862781405448914,2.6667394638061523,0,7489.0,-17.240093231201172,-184,7565.0
9290,0.30923110246658325,-7.592220783233643,-209,7489.0,5.20975923538208,136,7565.0
9300,0.3102667033672333,-21.909503936767578,-347,7489.0,32.48834991455078,633,7565.0
9310,0.31107810139656067,-24.11819076538086,-427,7489.0,46.083274841308594,825,7565.0
9320,0.3118401765823364,-20.339431762695312,-246,7489.0,54.308189392089844,927,7565.0
9330,0.3134954869747162,-5.588798522949219,-104,7489.0,59.142486572265625,918,7565.0
9340,0.3142187297344208,4.2748942375183105,200,7489.0,52.44392395019531,877,7565.0
9350,0.3147297501564026,17.67291831970215,329,7489.0,28.338699340820312,250,7565.0
9360,0.31562212109565735,28.399120330810547,384,7489.0,-8.478710174560547,-283,7565.0
9370,0.3195706903934479,25.486574172973633,440,7489.0,-42.96027755737305,-755,7565.0
9380,0.3200170695781708,16.621793746948242,142,7489.0,-65.27400207519531,-1190,7565.0
9390,0.32033592462539673,5.34876012802124,112,7489.0,-74.78949737548828,-1164,7565.0
9400,0.3204191029071808,-0.025751503184437752,-100,7489.0,-66.15325164794922,-995,7565.0
9410,0.32241150736808777,-3.645209789276123,-5,7489.0,-44.76377868652344,-704,7565.0
9420,0.32267025113105774,3.3333678245544434,104,7489.0,-17.60692596435547,-58,7565.0
9430,0.3230496048927307,13.79928970336914,200,7489.0,9.084521293640137,248,7565.0
9440,0.3234734535217285,10.90312385559082,155,7489.0,26.964921951293945,457,7565.0
9450,0.32389307022094727,-7.853077411651611,-275,7489.0,38.20798110961914,691,7565.0
9460,0.32324567437171936,-40.38780212402344,-845,7489.0,38.57060623168945,614,7565.0
9470,0.3237260580062866,-62.544254302978516,-1028,7489.0,20.658235549926758,259,7565.0
9480,0.32396408915519714,-61.98460006713867,-988,7489.0,4.044992446899414,87,7565.0
9490,0.32452771067619324,-42.160675048828125,-502,7489.0,-1.67240571975708,-72,7565.0
9500,0.3261221945285797,-19.528358459472656,-214,7489.0,-2.3289406299591064,-20,7565.0
9510,0.32673195004463196,4.7068400382995605,249,7489.0,-7.39720344543457,-147,7565.0
9520,0.32724615931510925,27.845537185668945,503,7489.0,-11.476156234741211,-191,7565.0
9530,0.327688604593277,41.37744140625,773,7489.0,-11.963887214660645,-267,7565.0
9540,0.3287755250930786,42.54810333251953,602,7489.0,-27.886253356933594,-472,7565.0
9550,0.3289956748485565,31.92794418334961,554,7489.0,-38.89434051513672,-719,7565.0
9560,0.3290664851665497,25.605558395385742,358,7489.0,-40.99776077270508,-634,7565.0
9570,0.3295818269252777,23.7360897064209,378,7489.0,-27.15331268310547,-285,7565.0
9580,0.3294553756713867,26.72726058959961,462,7489.0,-7.829689025878906,-70,7565.0
9590,0.3283313810825348,30.06588363647461,565,7489.0,9.72918701171875,198,7565.0
9600,0.3282410800457001,28.42807960510254,397,7489.0,17.931203842163086,344,7565.0
9610,0.32811620831489563,12.620221138000488,37,7489.0,20.440332412719727,334,7565.0
9620,0.3279592990875244,-16.522409439086914,-438,7489.0,13.95119571685791,203,7565.0
9630,0.3273005187511444,-52.444480895996094,-959,7489.0,10.386515617370605,108,7565.0
9640,0.3273743689060211,-87.50513458251953,-1512,7489.0,14.99451732635498,292,7565.0
9650,0.327266663312912,-113.75442504882812,-1955,7489.0,12.768569946289062,229,7565.0
9660,0.3270162045955658,-111.66923522949219,-1714,7489.0,12.500181198120117,122,7565.0
9670,0.3261857032775879,-85.87440490722656,-1257,7489.0,4.527315616607666,92,7565.0
9680,0.3263632357120514,-42.92878341674805,-303,7489.0,-8.877965927124023,-230,7565.0
9690,0.326765239238739,8.239225387573242,357,7489.0,-24.70871925354004,-501,7565.0
9700,0.3269163966178894,43.690792083740234,880,7489.0,-34.92193603515625,-572,7565.0
9710,0.3276144564151764,64.35128784179688,1122,7489.0,-38.10344314575195,-673,7565.0
9720,0.32922929525375366,71.6495132446289,1233,7489.0,-34.88732147216797,-493,7565.0
9730,0.3292945325374603,76.16402435302734,1160,7489.0,-25.851848602294922,-312,7565.0
9740,0.3292461633682251,67.41046142578125,1048,7489.0,-8.698360443115234,-94,7565.0
9750,0.3291897177696228,50.9619140625,780,7489.0,10.758817672729492,347,7565.0
9760,0.3278573453426361,38.42218017578125,513,7489.0,25.77052879333496,536,7565.0
9770,0.327536016702652,28.82686996459961,392,7489.0,38.6347541809082,699,7565.0
9780,0.32753998041152954,13.311296463012695,213,7489.0,38.982505798339844,531,7565.0
9790,0.3278312087059021,-1.730525016784668,-161,7489.0,28.567947387695312,402,7565.0
9800,0.32788583636283875,-19.393163681030273,-430,7489.0,3.3975343704223633,-41,7565.0
9810,0.32823777198791504,-34.41251754760742,-596,7489.0,-26.532909393310547,-553,7565.0
9820,0.3281114101409912,-54.170372009277344,-932,7489.0,-37.54750061035156,-599,7565.0
9830,0.32807812094688416,-59.344879150390625,-996,7489.0,-30.597747802734375,-471,7565.0
9840,0.32796597480773926,-43.831878662109375,-532,7489.0,-18.410545349121094,-248,7565.0
9850,0.32690998911857605,-22.78958511352539,-318,7489.0,2.199734926223755,219,7565.0
9860,0.32738223671913147,-9.76901626586914,-227,7489.0,19.842021942138672,332,7565.0
9870,0.3275768458843231,-5.237158298492432,-84,7489.0,31.55689811706543,636,7565.0
9880,0.3279862105846405,-0.7509381771087646,-37,7489.0,39.013187408447266,604,7565.0
9890,0.32838279008865356,7.315804958343506,215,7489.0,36.87363815307617,562,7565.0
9900,0.32948631048202515,14.461514472961426,328,7489.0,22.9876708984375,274,7565.0
9910,0.3297940790653229,19.41900634765625,382,7489.0,1.4358009099960327,-8,7565.0
9920,0.3301083743572235,20.637195587158203,325,7489.0,-10.557514190673828,-211,7565.0
9930,0.33031290769577026,29.178630828857422,522,7489.0,-10.700599670410156,-182,7565.0
9940,0.3303074240684509,41.03777313232422,738,7489.0,-6.649699687957764,-87,7565.0
9950,0.3302992582321167,47.27767562866211,866,7489.0,-11.295791625976562,-298,7565.0
9960,0.3300829231739044,51.50658416748047,766,7489.0,-13.185229301452637,-126,7565.0
9970,0.32986822724342346,45.27528381347656,602,7489.0,-5.546804904937744,15,7565.0
9980,0.32867950201034546,28.904390335083008,354,7489.0,0.8571261763572693,-56,7565.0
9990,0.3280002772808075,0.21904990077018738,-51,7489.0,2.038785696029663,38,7565.0
10000,0.327915757894516,-26.327577590942383,-561,7489.0,5.047984600067139,123,7565.0
10010,0.3277108669281006,-48.3321647644043,-934,7489.0,7.66767692565918,143,7565.0
10020,0.3273748457431793,-63.652435302734375,-1048,7489.0,7.567193031311035,93,7565.0
10030,0.32657188177108765,-62.583377838134766,-926,7489.0,17.432828903198242,343,7565.0
10040,0.3263198137283325,-46.26167678833008,-705,7489.0,32.80751037597656,647,7565.0
10050,0.3260861337184906,-27.694198608398438,-310,7489.0,32.62275695800781,448,7565.0
10060,0.32670602202415466,-10.076746940612793,-95,7489.0,27.43766212463379,476,7565.0
10070,0.32760629057884216,7.948599815368652,276,7489.0,17.290143966674805,190,7565.0
10080,0.32765617966651917,18.923595428466797,314,7489.0,-5.352390289306641,-224,7565.0
10090,0.3279532492160797,26.012065887451172,563,7489.0,-36.01930236816406,-730,7565.0
10100,0.32806649804115295,39.69655990600586,624,7489.0,-44.66279602050781,-586,7565.0
10110,0.32830458879470825,51.109371185302734,907,7489.0,-35.848167419433594,-640,7565.0
10120,0.3296123147010803,55.528194427490234,963,7489.0,-22.144527435302734,-243,7565.0
10130,0.32978567481040955,52.79099655151367,752,7489.0,-5.563980579376221,48,7565.0
10140,0.3299591839313507,29.451143264770508,307,7489.0,14.866584777832031,281,7565.0
10150,0.3307342827320099,-6.577359676361084,-229,7489.0,25.005128860473633,293,7565.0
10160,0.331000953912735,-38.82676315307617,-743,7489.0,12.371528625488281,198,7565.0
10170,0.331441730260849,-60.37281799316406,-1088,7489.0,4.810033321380615,133,7565.0
10180,0.3315138816833496,-64.64583587646484,-997,7489.0,8.549278259277344,100,7565.0
10190,0.3317154049873352,-48.817291259765625,-694,7489.0,7.732309341430664,156,7565.0
10200,0.33190271258354187,-30.453641891479492,-483,7489.0,-0.3094497621059418,-76,7565.0
10210,0.33203381299972534,-23.601606369018555,-360,7489.0,-4.597906112670898,39,7565.0
10220,0.3321486711502075,-17.632902145385742,-250,7489.0,-6.309746265411377,-214,7565.0
10230,0.33233097195625305,-7.78912878036499,-93,7489.0,-19.87284278869629,-281,7565.0
10240,0.33260658383369446,10.474452018737793,283,7489.0,-31.39667510986328,-659,7565.0
10250,0.33337387442588806,31.733373641967773,548,7489.0,-44.65995788574219,-727,7565.0
10260,0.3335769772529602,40.26986312866211,656,7489.0,-51.635807037353516,-868,7565.0
10270,0.3341720998287201,35.96455383300781,574,7489.0,-39.12976837158203,-543,7565.0
10280,0.3342559039592743,31.77243995666504,470,7489.0,-20.48955726623535,-100,7565.0
10290,0.3321117162704468,29.424728393554688,485,7489.0,2.1369292736053467,85,7565.0
10300,0.3318619430065155,27.038297653198242,448,7489.0,28.129634857177734,617,7565.0
10310,0.3319278955459595,22.39229393005371,226,7489.0,48.26496887207031,889,7565.0
10320,0.33191317319869995,8.506357192993164,34,7489.0,54.475242614746094,928,7565.0
10330,0.33178338408470154,-6.832447528839111,-179,7489.0,42.71894454956055,522,7565.0
10340,0.33212506771087646,-28.005220413208008,-582,7489.0,16.097124099731445,142,7565.0
10350,0.33258751034736633,-50.48290252685547,-886,7489.0,-3.7539429664611816,-187,7565.0
10360,0.3325885534286499,-65.7298583984375,-1062,7489.0,-6.609340190887451,-21,7565.0
10370,0.3326259255409241,-63.55195617675781,-983,7489.0,-0.9234668016433716,-38,7565.0
10380,0.3331659436225891,-50.1494026184082,-739,7489.0,7.152180194854736,136,7565.0
10390,0.33376607298851013,-34.25386428833008,-402,7489.0,13.39777946472168,138,7565.0
10400,0.33384397625923157,-23.47478485107422,-315,7489.0,13.855326652526855,190,7565.0
10410,0.3340970575809479,-2.680875301361084,195,7489.0,5.805115699768066,-11,7565.0
10420,0.3348287343978882,27.970699310302734,672,7489.0,-14.84189510345459,-452,7565.0
10430,0.33350810408592224,51.3769416809082,961,7489.0,-32.12689971923828,-487,7565.0
10440,0.3338184058666229,71.52169036865234,1309,7489.0,-41.552852630615234,-831,7565.0
10450,0.3340914249420166,82.36517333984375,1344,7489.0,-45.04458236694336,-636,7565.0
10460,0.33410555124282837,84.64149475097656,1395,7489.0,-35.833011627197266,-579,7565.0
10470,0.33332839608192444,75.6951675415039,1218,7489.0,-19.241010665893555,-204,7565.0
10480,0.3335791528224945,56.390052795410156,844,7489.0,1.241219401359558,213,7565.0
10490,0.33389872312545776,38.4516487121582,491,7489.0,21.66426658630371,410,7565.0
10500,0.3348124325275421,12.230701446533203,127,7489.0,35.877662658691406,518,7565.0
10510,0.3332163393497467,-22.142793655395508,-472,7489.0,35.80884552001953,593,7565.0
10520,0.3336731493473053,-42.85432052612305,-807,7489.0,33.8221549987793,558,7565.0
10530,0.33394694328308105,-46.39336013793945,-693,7489.0,26.884946823120117,342,7565.0
10540,0.33376505970954895,-42.572509765625,-696,7489.0,19.66658592224121,404,7565.0
10550,0.3336261510848999,-33.81798553466797,-525,7489.0,10.500931739807129,41,7565.0
10560,0.3334341049194336,-25.921010971069336,-371,7489.0,-4.150293827056885,3,7565.0
10570,0.3331907093524933,-18.896718978881836,-273,7489.0,-11.630636215209961,-333,7565.0
10580,0.3327435851097107,-19.284055709838867,-321,7489.0,-16.487380981445312,-227,7565.0
10590,0.33243048191070557,-24.72639274597168,-405,7489.0,-16.8756160736084,-351,7565.0
10600,0.33154210448265076,-21.8842830657959,-308,7489.0,-9.993095397949219,-28,7565.0
10610,0.33119726181030273,-7.75209903717041,-116,7489.0,-1.9892534017562866,25,7565.0
10620,0.33099260926246643,13.852229118347168,392,7489.0,1.7907065153121948,31,7565.0
10630,0.3310012221336365,32.61512756347656,555,7489.0,2.755929946899414,40,7565.0
10640,0.33176037669181824,47.43552780151367,849,7489.0,0.4219924807548523,-13,7565.0
10650,0.3318686783313751,54.95960235595703,937,7489.0,-1.1354360580444336,30,7565.0
10660,0.33174630999565125,44.11853790283203,592,7489.0,1.2939324378967285,19,7565.0
10670,0.33201152086257935,20.9409122467041,228,7489.0,-0.6356786489486694,-52,7565.0
10680,0.3321547508239746,-9.614081382751465,-262,7489.0,9.262019157409668,359,7565.0
10690,0.3336198925971985,-39.50614547729492,-827,7489.0,23.40311050415039,482,7565.0
10700,0.3337307572364807,-69.55757904052734,-1290,7489.0,28.391599655151367,431,7565.0
10710,0.33385178446769714,-83.08341217041016,-1279,7489.0,35.137454986572266,570,7565.0
10720,0.3346361815929413,-70.590087890625,-1139,7489.0,39.1927375793457,713,7565.0
10730,0.33378586173057556,-49.060508728027344,-632,7489.0,29.77545738220215,320,7565.0
10740,0.3338848054409027,-18.630390167236328,-205,7489.0,3.0419955253601074,-114,7565.0
10750,0.3340989947319031,14.056208610534668,400,7489.0,-19.567352294921875,-367,7565.0
10760,0.33417585492134094,32.9754524230957,527,7489.0,-38.9562873840332,-808,7565.0
10770,0.33422258496284485,32.227169036865234,478,7489.0,-52.006507873535156,-891,7565.0
10780,0.3348121643066406,24.41412925720215,330,7489.0,-52.779296875,-710,7565.0
10790,0.33481618762016296,15.838647842407227,231,7489.0,-37.169769287109375,-588,7565.0
10800,0.33491194248199463,8.590909957885742,169,7489.0,-19.660768508911133,-281,7565.0
10810,0.3350563943386078,7.7194671630859375,101,7489.0,-5.847961902618408,24,7565.0
10820,0.3349197506904602,9.712053298950195,170,7489.0,1.8010187149047852,51,7565.0
10830,0.3349001705646515,20.428565979003906,395,7489.0,7.805614948272705,149,7565.0
10840,0.33508536219596863,19.178068161010742,281,7489.0,22.84452247619629,488,7565.0
10850,0.3352856934070587,-3.5936286449432373,-280,7489.0,40.785057067871094,836,7565.0
10860,0.3338054120540619,-38.54021072387695,-808,7489.0,52.77656936645508,828,7565.0
10870,0.3337133526802063,-63.77312469482422,-1092,7489.0,45.389854431152344,707,7565.0
10880,0.33432623744010925,-72.7917709350586,-1240,7489.0,38.2464599609375,565,7565.0
10890,0.33401262760162354,-55.54631042480469,-724,7489.0,28.626033782958984,287,7565.0
10900,0.3336506187915802,-24.218456268310547,-221,7489.0,1.8160579204559326,-145,7565.0
10910,0.3357316553592682,5.329975128173828,189,7489.0,-24.022680282592773,-371,7565.0
10920,0.33598193526268005,33.3286018371582,606,7489.0,-36.01008605957031,-703,7565.0
10930,0.33585816621780396,53.98109817504883,973,7489.0,-38.07984161376953,-524,7565.0
10940,0.3356972634792328,59.99938201904297,991,7489.0,-30.691539764404297,-482,7565.0
10950,0.33523181080818176,52.255619049072266,801,7489.0,-24.48593521118164,-455,7565.0
10960,0.33471763134002686,35.60159683227539,413,7489.0,-23.309749603271484,-309,7565.0
10970,0.33489954471588135,14.051573753356934,79,7489.0,-21.03046226501465,-179,7565.0
10980,0.3344520032405853,-4.206329822540283,-220,7489.0,-10.2730131149292,-161,7565.0
10990,0.333744078874588,-24.53309440612793,-441,7489.0,-3.196516513824463,-150,7565.0
11000,0.3335980772972107,-34.0830192565918,-558,7489.0,-6.751582622528076,-2,7565.0
11010,0.33351555466651917,-28.71294403076172,-447,7489.0,1.562415599822998,59,7565.0
11020,0.33359742164611816,-13.867094993591309,-43,7489.0,1.0078866481781006,-126,7565.0
11030,0.3337079882621765,3.92224383354187,153,7489.0,-7.349308490753174,-82,7565.0
11040,0.3331182599067688,9.728959083557129,-9,7489.0,-0.43532848358154297,42,7565.0
11050,0.3331705331802368,-12.577035903930664,-288,7489.0,12.071929931640625,121,7565.0
11060,0.3332410454750061,-30.354549407958984,-616,7489.0,1.4581475257873535,1,7565.0
11070,0.3331628441810608,-25.647789001464844,-279,7489.0,-19.92111587524414,-478,7565.0
11080,0.332756906747818,-7.988234996795654,-25,7489.0,-31.70899772644043,-469,7565.0
11090,0.33283382654190063,12.094063758850098,359,7489.0,-30.260738372802734,-503,7565.0
11100,0.3326607346534729,25.80320167541504,429,7489.0,-15.079370498657227,-178,7565.0
11110,0.33274227380752563,27.273210525512695,329,7489.0,3.139181137084961,205,7565.0
11120,0.3327573537826538,22.232534408569336,418,7489.0,16.96582794189453,310,7565.0
11130,0.33329036831855774,15.244132041931152,205,7489.0,23.878305435180664,424,7565.0
11140,0.3333631157875061,2.3095901012420654,-100,7489.0,15.765863418579102,215,7565.0
11150,0.33351433277130127,-11.670321464538574,-257,7489.0,11.69582462310791,171,7565.0
11160,0.3338662385940552,-16.423248291015625,-364,7489.0,9.273629188537598,224,7565.0
11170,0.3341439664363861,-14.632417678833008,-152,7489.0,-2.2629125118255615,-198,7565.0
11180,0.3346938490867615,-8.3499174118042,-119,7489.0,-22.770727157592773,-366,7565.0
11190,0.3354305028915405,0.03549639508128166,130,7489.0,-38.25836944580078,-673,7565.0
11200,0.3361515700817108,13.599198341369629,293,7489.0,-36.68817901611328,-488,7565.0
11210,0.3355703055858612,25.018321990966797,479,7489.0,-23.63858413696289,-374,7565.0
11220,0.3363329768180847,31.66806411743164,531,7489.0,-12.304292678833008,-146,7565.0
11230,0.337067186832428,19.524396896362305,162,7489.0,2.015005111694336,178,7565.0
11240,0.33791854977607727,3.2155795097351074,-56,7489.0,18.176408767700195,355,7565.0
11250,0.33850204944610596,-17.764432907104492,-245,7489.0,34.7777099609375,570,7565.0
11260,0.33939704298973083,-18.444128036499023,-290,7489.0,47.479068756103516,923,7565.0
11270,0.3398374021053314,-17.343284606933594,-182,7489.0,56.841224670410156,825,7565.0
11280,0.34025606513023376,-11.65372371673584,-128,7489.0,54.13927459716797,913,7565.0
11290,0.3405814468860626,-5.714278697967529,33,7489.0,38.75994873046875,450,7565.0
11300,0.341335266828537,6.806255340576172,207,7489.0,13.584758758544922,123,7565.0
11310,0.34195005893707275,17.802845001220703,381,7489.0,-17.092424392700195,-516,7565.0
11320,0.3424091935157776,24.027265548706055,409,7489.0,-41.04340362548828,-647,7565.0
11330,0.34275588393211365,25.68733787536621,442,7489.0,-48.076698303222656,-889,7565.0
11340,0.3431248664855957,17.40483856201172,180,7489.0,-50.21841812133789,-759,7565.0
11350,0.3425910472869873,8.437162399291992,60,7489.0,-46.90553665161133,-685,7565.0
11360,0.3429100215435028,0.5467777252197266,-15,7489.0,-42.20437240600586,-721,7565.0
11370,0.343227356672287,-6.128945827484131,-93,7489.0,-28.222043991088867,-426,7565.0
11380,0.34397557377815247,0.4549911916255951,-7,7489.0,-5.326619625091553,106,7565.0
11390,0.3429427444934845,2.0847322940826416,22,7489.0,23.958431243896484,484,7565.0
11400,0.34339839220046997,-2.4461753368377686,-139,7489.0,39.51876449584961,669,7565.0
11410,0.34364619851112366,-15.278610229492188,-240,7489.0,62.05535888671875,1102,7565.0
11420,0.3438820242881775,-25.419580459594727,-479,7489.0,78.10409545898438,1397,7565.0
11430,0.34203970432281494,-33.23762893676758,-523,7489.0,78.3309326171875,1233,7565.0
11440,0.3417624831199646,-27.643434524536133,-437,7489.0,64.77406311035156,1037,7565.0
11450,0.3419099748134613,-12.844463348388672,-87,7489.0,33.222320556640625,341,7565.0
11460,0.342661052942276,0.8090370893478394,11,7489.0,-7.653372764587402,-455,7565.0
11470,0.3430611491203308,8.594738960266113,192,7489.0,-51.939964294433594,-942,7565.0
11480,0.3431239128112793,14.344644546508789,262,7489.0,-80.36328887939453,-1531,7565.0
11490,0.3430061638355255,18.591997146606445,329,7489.0,-88.11006927490234,-1342,7565.0
11500,0.3433908224105835,24.33036231994629,374,7489.0,-78.92137908935547,-1320,7565.0
11510,0.3432714343070984,24.512165069580078,471,7489.0,-68.67154693603516,-1111,7565.0
11520,0.33948707580566406,27.745132446289062,480,7489.0,-55.35755920410156,-743,7565.0
11530,0.33925309777259827,33.78077697753906,570,7489.0,-34.16459655761719,-505,7565.0
11540,0.3398841619491577,39.047752380371094,667,7489.0,-6.324483394622803,113,7565.0
11550,0.339973121881485,31.346769332885742,459,7489.0,36.3742790222168,831,7565.0
11560,0.34034594893455505,12.401700973510742,75,7489.0,73.43860626220703,1420,7565.0
11570,0.33992865681648254,-8.04495906829834,-369,7489.0,96.05924224853516,1711,7565.0
11580,0.3405144512653351,-33.22544479370117,-595,7489.0,104.92305755615234,1671,7565.0
11590,0.3405408263206482,-52.69944381713867,-970,7489.0,93.16944122314453,1418,7565.0
11600,0.34078726172447205,-60.19717788696289,-878,7489.0,63.938724517822266,795,7565.0
11610,0.33987271785736084,-52.34018325805664,-777,7489.0,30.982940673828125,227,7565.0
11620,0.33959144353866577,-32.17903137207031,-390,7489.0,-1.0459380149841309,-85,7565.0
11630,0.3403448462486267,-7.557855606079102,104,7489.0,-29.73750877380371,-629,7565.0
11640,0.34026941657066345,12.113243103027344,200,7489.0,-52.81623458862305,-1108,7565.0
11650,0.33818748593330383,24.82257652282715,481,7489.0,-69.47824096679688,-1089,7565.0
11660,0.33774909377098083,29.981342315673828,432,7489.0,-69.53656768798828,-1155,7565.0
11670,0.3379962742328644,25.124515533447266,387,7489.0,-57.65087127685547,-768,7565.0
11680,0.3376881778240204,17.472400665283203,109,7489.0,-35.7950325012207,-368,7565.0
11690,0.3375232219696045,2.6791269779205322,-1,7489.0,-10.183822631835938,-89,7565.0
11700,0.33601540327072144,-12.263761520385742,-247,7489.0,7.269941806793213,123,7565.0
11710,0.33609339594841003,-23.684917449951172,-544,7489.0,22.260581970214844,509,7565.0
11720,0.33643028140068054,-30.969524383544922,-450,7489.0,41.19547653198242,735,7565.0
11730,0.3367666006088257,-18.808324813842773,-114,7489.0,59.61605453491211,1003,7565.0
11740,0.33514833450317383,4.185391902923584,179,7489.0,57.48600387573242,886,7565.0
11750,0.3359586000442505,21.422090530395508,459,7489.0,47.34661865234375,729,7565.0
11760,0.3363015055656433,28.7557430267334,434,7489.0,32.75189971923828,346,7565.0
11770,0.3367093801498413,21.845956802368164,350,7489.0,11.39150619506836,165,7565.0
11780,0.3371034860610962,8.81241226196289,74,7489.0,-7.449685096740723,-329,7565.0
11790,0.33606094121932983,-1.867039442062378,-90,7489.0,-18.98758316040039,-250,7565.0
11800,0.33604297041893005,-15.388442039489746,-376,7489.0,-24.055620193481445,-432,7565.0
11810,0.33604326844215393,-28.20230484008789,-456,7489.0,-22.75415802001953,-300,7565.0
11820,0.3359348773956299,-25.51302719116211,-314,7489.0,-22.495681762695312,-501,7565.0
11830,0.33585771918296814,-19.735767364501953,-235,7489.0,-24.86166763305664,-361,7565.0
11840,0.33570390939712524,-17.20966911315918,-334,7489.0,-26.51471519470215,-479,7565.0
11850,0.33550071716308594,-19.235998153686523,-322,7489.0,-21.280546188354492,-310,7565.0
11860,0.3352043628692627,-23.17008399963379,-464,7489.0,-19.269481658935547,-368,7565.0
11870,0.3331165909767151,-30.120006561279297,-387,7489.0,-26.23028564453125,-449,7565.0
11880,0.33299025893211365,-19.8249568939209,-323,7489.0,-21.666542053222656,-303,7565.0
11890,0.33267730474472046,0.9693289995193481,175,7489.0,-13.308660507202148,-144,7565.0
11900,0.33275076746940613,26.86775016784668,495,7489.0,-2.848238706588745,57,7565.0
11910,0.3329464793205261,54.41664505004883,1056,7489.0,9.101018905639648,138,7565.0
11920,0.3307246267795563,61.22077941894531,878,7489.0,27.816835403442383,629,7565.0
11930,0.330807626247406,39.92084884643555,519,7489.0,46.20027542114258,721,7565.0
11940,0.3307163417339325,11.983330726623535,83,7489.0,51.70867919921875,985,7565.0
11950,0.3313354253768921,-4.436820983886719,-97,7489.0,51.346187591552734,724,7565.0
11960,0.3299168348312378,-17.431703567504883,-327,7489.0,37.45629119873047,554,7565.0
11970,0.3297572731971741,-33.656490325927734,-530,7489.0,10.272008895874023,-31,7565.0
11980,0.32994332909584045,-40.30191421508789,-720,7489.0,-24.271827697753906,-533,7565.0
11990,0.3299019932746887,-31.89158058166504,-379,7489.0,-49.31188201904297,-696,7565.0
12000,0.3297693133354187,-0.9042690992355347,125,7489.0,-50.95271682739258,-993,7565.0
12010,0.32983827590942383,25.04949378967285,484,7489.0,-60.741233825683594,-968,7565.0
12020,0.329569935798645,33.832271575927734,565,7489.0,-61.83430480957031,-1103,7565.0
12030,0.3294840455055237,27.540315628051758,415,7489.0,-52.290348052978516,-618,7565.0
12040,0.3304494321346283,15.392044067382812,128,7489.0,-26.61625862121582,-400,7565.0
12050,0.3310313820838928,-3.7364208698272705,-105,7489.0,-7.990738868713379,-65,7565.0
12060,0.3311867415904999,-24.284343719482422,-466,7489.0,14.82289981842041,438,7565.0
12070,0.3315586447715759,-29.579111099243164,-449,7489.0,34.16714096069336,607,7565.0
12080,0.33180588483810425,-9.867260932922363,-6,7489.0,48.659263610839844,875,7565.0
12090,0.3322219252586365,21.908349990844727,487,7489.0,47.390098571777344,724,7565.0
12100,0.33270499110221863,40.06962203979492,642,7489.0,44.973876953125,761,7565.0
12110,0.3330904543399811,43.83805847167969,722,7489.0,39.62947082519531,627,7565.0
12120,0.333847314119339,32.311241149902344,311,7489.0,31.76433563232422,467,7565.0
12130,0.33421891927719116,-1.2602063417434692,-168,7489.0,19.333087921142578,241,7565.0
12140,0.33456382155418396,-31.62141990661621,-674,7489.0,-0.07278460264205933,-237,7565.0
12150,0.3350387215614319,-42.70478439331055,-791,7489.0,-22.10955810546875,-358,7565.0
12160,0.3354402482509613,-42.092674255371094,-610,7489.0,-36.97560501098633,-717,7565.0
12170,0.3356703519821167,-32.69792175292969,-512,7489.0,-43.72123718261719,-686,7565.0
12180,0.33560627698898315,-15.019145965576172,-107,7489.0,-39.842430114746094,-573,7565.0
12190,0.33593904972076416,5.010615348815918,85,7489.0,-26.260061264038086,-329,7565.0
12200,0.3368573486804962,16.566503524780273,367,7489.0,-11.060385704040527,-149,7565.0
12210,0.33751073479652405,17.60237693786621,210,7489.0,0.5926326513290405,83,7565.0
12220,0.3383440673351288,11.610517501831055,101,7489.0,15.034759521484375,283,7565.0
12230,0.3419910967350006,-8.289922714233398,-274,7489.0,24.3763484954834,581,7565.0
12240,0.3431602120399475,-25.579235076904297,-380,7489.0,36.59318542480469,589,7565.0
12250,0.3442430794239044,-20.421648025512695,-316,7489.0,44.56599807739258,775,7565.0
12260,0.34549370408058167,-1.7780940532684326,117,7489.0,44.62653350830078,729,7565.0
12270,0.34702634811401367,15.008706092834473,327,7489.0,35.460689544677734,357,7565.0
12280,0.3480250835418701,28.109521865844727,540,7489.0,26.28885841369629,362,7565.0
12290,0.34896478056907654,33.15886306762695,564,7489.0,5.435605525970459,-97,7565.0
12300,0.3495769202709198,17.456026077270508,175,7489.0,-19.848176956176758,-498,7565.0
12310,0.3531743586063385,0.0863022580742836,15,7489.0,-38.997032165527344,-707,7565.0
12320,0.3537379801273346,-9.05343246459961,-207,7489.0,-37.280879974365234,-501,7565.0
12330,0.3541288375854492,-3.272300958633423,18,7489.0,-27.45060157775879,-421,7565.0
12340,0.3543691337108612,2.450727939605713,50,7489.0,-21.07496452331543,-348,7565.0
12350,0.35457944869995117,6.344257831573486,109,7489.0,-12.088828086853027,-1,7565.0
12360,0.354455828666687,10.320322036743164,222,7489.0,2.5735762119293213,-9,7565.0
12370,0.35447970032691956,9.458771705627441,110,7489.0,9.081336975097656,290,7565.0
12380,0.3544387221336365,8.81237506866455,147,7489.0,10.19698715209961,210,7565.0
12390,0.3544240891933441,3.8624958992004395,63,7489.0,16.123943328857422,239,7565.0
12400,0.35385406017303467,-1.6839836835861206,-141,7489.0,16.618972778320312,383,7565.0
12410,0.3537021279335022,-10.122572898864746,-130,7489.0,13.088785171508789,64,7565.0
12420,0.3535207509994507,-11.531011581420898,-184,7489.0,8.357810020446777,286,7565.0
12430,0.35328447818756104,-11.76160717010498,-258,7489.0,8.151092529296875,40,7565.0
12440,0.3530893921852112,-12.841813087463379,-150,7489.0,2.917980909347534,173,7565.0
12450,0.3527626395225525,-6.445890426635742,-127,7489.0,11.731338500976562,145,7565.0
12460,0.35243046283721924,-3.9366214275360107,4,7489.0,16.33974266052246,304,7565.0
12470,0.3522079586982727,2.9194514751434326,93,7489.0,18.242441177368164,243,7565.0
12480,0.35175392031669617,18.077314376831055,411,7489.0,20.331918716430664,380,7565.0
12490,0.3527509570121765,29.260515213012695,473,7489.0,9.105417251586914,69,7565.0
12500,0.3521113097667694,22.33220672607422,270,7489.0,-0.3974999785423279,13,7565.0
12510,0.351397305727005,10.947029113769531,180,7489.0,-12.6636962890625,-381,7565.0
12520,0.35057416558265686,0.6161292791366577,-96,7489.0,-38.87345504760742,-644,7565.0
12530,0.3505735993385315,-10.430420875549316,-179,7489.0,-54.791629791259766,-993,7565.0
12540,0.34965166449546814,-13.905525207519531,-227,7489.0,-59.11350631713867,-877,7565.0
12550,0.3487999439239502,-16.022058486938477,-332,7489.0,-54.092960357666016,-911,7565.0
12560,0.34775716066360474,-17.262615203857422,-246,7489.0,-47.97614669799805,-666,7565.0
12570,0.3469354808330536,-11.440013885498047,-179,7489.0,-30.515851974487305,-385,7565.0
12580,0.3462962508201599,0.9411289691925049,159,7489.0,-4.872532367706299,36,7565.0
12590,0.3455483615398407,15.369803428649902,195,7489.0,29.74725341796875,710,7565.0
12600,0.34515121579170227,9.375133514404297,145,7489.0,61.23766326904297,1003,7565.0
12610,0.34446340799331665,-4.363010406494141,-199,7489.0,65.67210388183594,1050,7565.0
12620,0.3449621796607971,-21.29463768005371,-318,7489.0,64.57816314697266,1084,7565.0
12630,0.344209760427475,-8.713741302490234,-12,7489.0,63.013999938964844,878,7565.0
12640,0.34337925910949707,20.59354019165039,393,7489.0,48.660884857177734,757,7565.0
12650,0.3439418077468872,36.03667449951172,622,7489.0,24.708574295043945,433,7565.0
12660,0.3432932198047638,42.21646499633789,761,7489.0,-2.076054573059082,-116,7565.0
12670,0.3451959788799286,33.60040283203125,466,7489.0,-25.416446685791016,-697,7565.0
12680,0.3448704183101654,18.475849151611328,191,7489.0,-49.155147552490234,-807,7565.0
12690,0.3446682095527649,1.751143455505371,-33,7489.0,-63.24482727050781,-1130,7565.0
12700,0.34421420097351074,-15.898683547973633,-364,7489.0,-65.11659240722656,-984,7565.0
12710,0.3434302806854248,-27.47359848022461,-489,7489.0,-61.361000061035156,-1018,7565.0
12720,0.34317266941070557,-28.557788848876953,-424,7489.0,-50.09648895263672,-672,7565.0
12730,0.3431413173675537,-25.03897476196289,-355,7489.0,-28.137672424316406,-379,7565.0
12740,0.34294262528419495,-11.442569732666016,-134,7489.0,-0.9757993221282959,226,7565.0
12750,0.34209275245666504,-7.234264373779297,-188,7489.0,31.288888931274414,536,7565.0
12760,0.342556357383728,-19.640352249145508,-474,7489.0,50.11084747314453,991,7565.0
12770,0.34269702434539795,-31.62432861328125,-531,7489.0,57.55838394165039,856,7565.0
12780,0.3427014648914337,-27.958084106445312,-509,7489.0,54.06519317626953,871,7565.0
12790,0.3431110382080078,-16.844974517822266,-239,7489.0,41.23290252685547,679,7565.0
12800,0.3429270088672638,-3.6400420665740967,16,7489.0,18.10097312927246,127,7565.0
12810,0.3435131013393402,7.626799583435059,106,7489.0,-1.3175334930419922,-163,7565.0
12820,0.3440641462802887,13.843810081481934,190,7489.0,-15.342167854309082,-288,7565.0
12830,0.3444760739803314,19.179346084594727,397,7489.0,-28.509056091308594,-464,7565.0
12840,0.3460598289966583,20.65004539489746,350,7489.0,-42.302886962890625,-835,7565.0
12850,0.34637126326560974,16.44048309326172,163,7489.0,-52.18779373168945,-874,7565.0
12860,0.34677454829216003,10.12691593170166,157,7489.0,-51.58330535888672,-822,7565.0
12870,0.3470265567302704,3.2686691284179688,-80,7489.0,-37.34459686279297,-414,7565.0
12880,0.34719035029411316,2.6985175609588623,128,7489.0,-6.578069686889648,73,7565.0
12890,0.34745243191719055,8.332320213317871,154,7489.0,24.482547760009766,612,7565.0
12900,0.3480813503265381,15.153348922729492,330,7489.0,50.506568908691406,831,7565.0
12910,0.34867018461227417,25.126522064208984,405,7489.0,51.99312210083008,869,7565.0
12920,0.3491995632648468,24.90787124633789,429,7489.0,42.35248565673828,582,7565.0
12930,0.3486706614494324,17.62439727783203,200,7489.0,27.150510787963867,377,7565.0
12940,0.3494153916835785,4.650771617889404,100,7489.0,8.004291534423828,-55,7565.0
12950,0.34997186064720154,-8.828105926513672,-263,7489.0,-12.917694091796875,-210,7565.0
12960,0.3506687879562378,-27.17633628845215,-461,7489.0,-23.853172302246094,-501,7565.0
12970,0.35237646102905273,-38.96882247924805,-694,7489.0,-26.377233505249023,-357,7565.0
12980,0.35294410586357117,-32.615421295166016,-359,7489.0,-12.799473762512207,-147,7565.0
12990,0.35354793071746826,-10.641731262207031,-38,7489.0,3.20624041557312,153,7565.0
13000,0.35410451889038086,14.077398300170898,402,7489.0,22.1068115234375,397,7565.0
13010,0.35468506813049316,31.049346923828125,462,7489.0,28.611865997314453,463,7565.0
13020,0.3548642098903656,24.36824607849121,279,7489.0,22.82476806640625,407,7565.0
13030,0.3551671504974365,2.2645554542541504,-60,7489.0,21.21527862548828,444,7565.0
13040,0.3554564118385315,-12.280174255371094,-306,7489.0,21.717113494873047,386,7565.0
13050,0.3556085526943207,-19.480093002319336,-287,7489.0,14.280649185180664,137,7565.0
13060,0.35568952560424805,-15.869918823242188,-248,7489.0,0.5315322279930115,55,7565.0
13070,0.35550594329833984,-3.8468196392059326,9,7489.0,-9.125539779663086,-310,7565.0
13080,0.35515278577804565,10.518206596374512,217,7489.0,-21.652904510498047,-356,7565.0
13090,0.3547131419181824,19.103578567504883,247,7489.0,-26.95683479309082,-422,7565.0
13100,0.35486912727355957,13.693951606750488,187,7489.0,-25.9327449798584,-452,7565.0
13110,0.35428377985954285,1.553083896636963,-38,7489.0,-25.83856964111328,-368,7565.0
13120,0.35368216037750244,-11.514945030212402,-277,7489.0,-19.61870574951172,-294,7565.0
13130,0.3531491756439209,-21.42005157470703,-383,7489.0,-16.1488094329834,-352,7565.0
13140,0.35244452953338623,-33.40040588378906,-634,7489.0,-13.46865463256836,-148,7565.0
13150,0.3520747423171997,-40.881988525390625,-832,7489.0,-8.207365036010742,-18,7565.0
13160,0.3513873815536499,-47.30105972290039,-654,7489.0,8.059958457946777,162,7565.0
13170,0.3508574366569519,-19.5842342376709,-124,7489.0,32.3096923828125,703,7565.0
13180,0.35042014718055725,17.924386978149414,485,7489.0,52.9084358215332,839,7565.0
13190,0.349589079618454,54.950531005859375,1017,7489.0,62.930381774902344,1106,7565.0
13200,0.34879425168037415,73.87371826171875,1191,7489.0,49.858978271484375,678,7565.0
13210,0.34802693128585815,62.4444694519043,895,7489.0,29.403663635253906,440,7565.0
13220,0.3469553589820862,25.189682006835938,192,7489.0,4.950473785400391,-90,7565.0
13230,0.3462989628314972,-22.74156379699707,-551,7489.0,-15.70452880859375,-214,7565.0
13240,0.3482920825481415,-50.738868713378906,-841,7489.0,-25.548547744750977,-548,7565.0
13250,0.3474632203578949,-50.4952507019043,-758,7489.0,-25.232112884521484,-273,7565.0
13260,0.3464716970920563,-28.05711555480957,-327,7489.0,-23.124326705932617,-440,7565.0
13270,0.345571905374527,4.650698661804199,126,7489.0,-25.56117820739746,-281,7565.0
13280,0.34480908513069153,16.695207595825195,311,7489.0,-16.395244598388672,-292,7565.0
13290,0.3439974784851074,5.916201114654541,-36,7489.0,-4.446872234344482,55,7565.0
13300,0.34323564171791077,-26.772666931152344,-536,7489.0,1.752036452293396,-6,7565.0
13310,0.34261855483055115,-45.62033462524414,-791,7489.0,3.6144540309906006,101,7565.0
13320,0.3424081802368164,-48.06705856323242,-750,7489.0,-1.3027312755584717,-113,7565.0
13330,0.342023640871048,-38.426509857177734,-662,7489.0,-6.196166038513184,-89,7565.0
13340,0.34175509214401245,-29.5728759765625,-344,7489.0,-3.971545457839966,-22,7565.0
13350,0.341675341129303,-7.264103889465332,-1,7489.0,-0.3418950140476227,-72,7565.0
13360,0.34168896079063416,31.37622833251953,651,7489.0,5.688945770263672,190,7565.0
13370,0.3443468511104584,60.43961715698242,1154,7489.0,13.702160835266113,180,7565.0
13380,0.34466636180877686,68.0760726928711,992,7489.0,10.539259910583496,224,7565.0
13390,0.3451080918312073,50.158695220947266,752,7489.0,8.720836639404297,190,7565.0
13400,0.3451973795890808,22.027769088745117,183,7489.0,12.958959579467773,173,7565.0
13410,0.34719759225845337,-8.070709228515625,-182,7489.0,13.123727798461914,166,7565.0
13420,0.34738823771476746,-25.57159996032715,-480,7489.0,9.464457511901855,143,7565.0
13430,0.34745681285858154,-26.749265670776367,-332,7489.0,0.4249701499938965,-48,7565.0
13440,0.3476804792881012,-19.263200759887695,-354,7489.0,-10.762151718139648,-234,7565.0
13450,0.34775611758232117,-12.228472709655762,-225,7489.0,-12.464892387390137,-137,7565.0
13460,0.34917762875556946,-13.11059284210205,-306,7489.0,-11.129254341125488,-293,7565.0
13470,0.34938502311706543,-21.4290828704834,-333,7489.0,-12.40376091003418,-121,7565.0
13480,0.34979718923568726,-26.887073516845703,-454,7489.0,-14.496068954467773,-311,7565.0
13490,0.3501235544681549,-21.75885772705078,-356,7489.0,-19.685501098632812,-268,7565.0
13500,0.3514922261238098,-16.27054786682129,-202,7489.0,-20.918773651123047,-432,7565.0
13510,0.3520744740962982,-11.381855010986328,-129,7489.0,-14.214930534362793,-90,7565.0
13520,0.3529035747051239,5.028819561004639,210,7489.0,-3.807342529296875,-88,7565.0
13530,0.35365381836891174,34.97828674316406,724,7489.0,10.640192985534668,245,7565.0
13540,0.35464948415756226,52.20646667480469,874,7489.0,12.77234935760498,37,7565.0
13550,0.35533154010772705,50.17258834838867,742,7489.0,11.133505821228027,262,7565.0
13560,0.3561546206474304,33.18281173706055,350,7489.0,11.841865539550781,209,7565.0
13570,0.3565930426120758,14.050710678100586,140,7489.0,9.378719329833984,41,7565.0
13580,0.3567449748516083,-6.5455732345581055,-173,7489.0,1.3460689783096313,44,7565.0
13590,0.35738566517829895,-17.25239372253418,-367,7489.0,-11.873905181884766,-323,7565.0
13600,0.35736310482025146,-19.674596786499023,-289,7489.0,-29.389123916625977,-554,7565.0
13610,0.3570021092891693,-15.78261947631836,-316,7489.0,-41.7169075012207,-635,7565.0
13620,0.35665974020957947,-10.137935638427734,-104,7489.0,-33.57180404663086,-541,7565.0
13630,0.35807135701179504,-3.682126998901367,-39,7489.0,-26.285703659057617,-432,7565.0
13640,0.35760048031806946,-4.002037525177002,-123,7489.0,-20.206621170043945,-283,7565.0
13650,0.3571118712425232,-4.4933929443359375,-11,7489.0,-20.40172576904297,-406,7565.0
13660,0.3565545678138733,-7.331801414489746,-103,7489.0,-19.58269691467285,-363,7565.0
13670,0.35596734285354614,-2.089977264404297,-72,7489.0,-22.022249221801758,-359,7565.0
13680,0.3594479262828827,-1.759573221206665,5,7489.0,-17.919452667236328,-339,7565.0
13690,0.3590121865272522,-1.1985864639282227,-6,7489.0,-11.422456741333008,-78,7565.0
13700,0.3585369884967804,7.523194313049316,184,7489.0,2.3959848880767822,71,7565.0
13710,0.3579949140548706,16.740020751953125,405,7489.0,15.752046585083008,248,7565.0
13720,0.3603522777557373,22.590152740478516,310,7489.0,26.272680282592773,578,7565.0
13730,0.3597060441970825,18.301008224487305,283,7489.0,30.376453399658203,363,7565.0
13740,0.35903823375701904,12.601304054260254,205,7489.0,26.9792423248291,451,7565.0
13750,0.3583931624889374,4.311330318450928,-15,7489.0,19.700580596923828,294,7565.0
13760,0.3604656159877777,-9.559149742126465,-160,7489.0,8.041520118713379,148,7565.0
13770,0.3596853017807007,-20.924365997314453,-444,7489.0,-2.354682207107544,-118,7565.0
13780,0.3588133156299591,-26.88242530822754,-391,7489.0,-15.297606468200684,-227,7565.0
13790,0.35799771547317505,-26.538312911987305,-437,7489.0,-19.0591983795166,-441,7565.0
13800,0.3570210039615631,-21.580562591552734,-321,7489.0,-17.30242919921875,-166,7565.0
13810,0.3594191074371338,-13.631932258605957,-125,7489.0,-13.62227725982666,-222,7565.0
13820,0.3588283061981201,-1.471754550933838,-26,7489.0,-8.261200904846191,-174,7565.0
13830,0.35836729407310486,7.218387603759766,163,7489.0,-14.432209968566895,-266,7565.0
13840,0.3578469455242157,9.695943832397461,122,7489.0,-23.792842864990234,-461,7565.0
13850,0.3585166335105896,13.860483169555664,191,7489.0,-26.414304733276367,-345,7565.0
13860,0.3583694398403168,12.850293159484863,133,7489.0,-17.167211532592773,-238,7565.0
13870,0.35823917388916016,6.824986934661865,147,7489.0,-3.967069387435913,45,7565.0
13880,0.3582443296909332,5.746265888214111,43,7489.0,7.686977386474609,148,7565.0
13890,0.35805657505989075,5.7269463539123535,108,7489.0,19.444406509399414,413,7565.0
13900,0.35801127552986145,-0.5706037878990173,-51,7489.0,33.93829345703125,657,7565.0
13910,0.35750827193260193,-5.287702560424805,-45,7489.0,38.41978454589844,523,7565.0
13920,0.35691386461257935,-7.064502716064453,-147,7489.0,37.538291931152344,604,7565.0
13930,0.3562544882297516,-1.3327120542526245,116,7489.0,32.11846923828125,506,7565.0
13940,0.355575829744339,7.318231582641602,85,7489.0,16.768333435058594,55,7565.0
13950,0.35483095049858093,5.216581344604492,133,7489.0,-8.310308456420898,-198,7565.0
13960,0.35408809781074524,-1.8929630517959595,31,7489.0,-26.203266143798828,-508,7565.0
13970,0.35318222641944885,-6.080124378204346,-121,7489.0,-32.07469940185547,-562,7565.0
13980,0.3527016341686249,3.263500452041626,166,7489.0,-40.50865173339844,-678,7565.0
13990,0.3520826995372772,14.821324348449707,193,7489.0,-34.26546859741211,-542,7565.0
14000,0.3515801429748535,15.592249870300293,329,7489.0,-24.44984245300293,-357,7565.0
14010,0.3512849509716034,16.26660919189453,183,7489.0,-17.831317901611328,-222,7565.0
