timestamp,kalman.stateZ,gyro.x,gyro.xRaw,gyro.xVariance,gyro.y,gyro.yRaw,gyro.yVariance
0,0.3054313063621521,-2.0898125171661377,-44,7088.0,-28.88822364807129,-459,9984.0
10,0.30548521876335144,-3.054896831512451,-50,7088.0,-23.422954559326172,-348,9984.0
20,0.30565008521080017,-4.920533657073975,-88,7088.0,-16.019933700561523,-221,9984.0
30,0.305591344833374,-7.134113311767578,-115,7088.0,-10.781530380249023,-161,9984.0
40,0.3056444227695465,-6.364132404327393,-95,7088.0,-8.404397964477539,-131,9984.0
50,0.30569618940353394,-3.8512561321258545,-32,7088.0,-8.870448112487793,-144,9984.0
60,0.30572667717933655,0.09077874571084976,25,7088.0,-9.808382987976074,-170,9984.0
70,0.305708110332489,5.908369064331055,116,7088.0,-12.603755950927734,-224,9984.0
80,0.30590397119522095,8.749980926513672,152,7088.0,-16.60797119140625,-295,9984.0
90,0.30526888370513916,8.411979675292969,143,7088.0,-21.041887283325195,-363,9984.0
100,0.3056487739086151,6.2524895668029785,90,7088.0,-23.71185302734375,-394,9984.0
110,0.3058623969554901,2.5022213459014893,31,7088.0,-24.693008422851562,-412,9984.0
120,0.3061605393886566,0.7354006171226501,16,7088.0,-25.330562591552734,-409,9984.0
130,0.3058984577655792,-0.23918883502483368,-7,7088.0,-25.145633697509766,-412,9984.0
140,0.30638396739959717,-1.7689261436462402,-32,7088.0,-25.611757278442383,-428,9984.0
150,0.3066282272338867,-3.4162328243255615,-61,7088.0,-23.74052619934082,-363,9984.0
160,0.3066789507865906,-4.477784156799316,-78,7088.0,-16.18891716003418,-189,9984.0
170,0.3065855801105499,-7.1112060546875,-125,7088.0,-4.8552985191345215,-14,9984.0
180,0.30653783679008484,-9.303975105285645,-150,7088.0,6.96095609664917,152,9984.0
190,0.30645138025283813,-6.711024761199951,-83,7088.0,14.301806449890137,269,9984.0
200,0.3062746524810791,-1.6141479015350342,6,7088.0,16.185649871826172,251,9984.0
210,0.3062804341316223,2.6695170402526855,73,7088.0,14.054492950439453,160,9984.0
220,0.30499085783958435,4.945033550262451,124,7088.0,3.335129976272583,-77,9984.0
230,0.30525678396224976,8.530472755432129,180,7088.0,-15.842080116271973,-430,9984.0
240,0.30571669340133667,6.635482311248779,134,7088.0,-38.87253952026367,-845,9984.0
250,0.3062317371368408,12.9929780960083,207,7088.0,-72.06829833984375,-1370,9984.0
260,0.30746328830718994,8.643189430236816,92,7088.0,-105.75750732421875,-1924,9984.0
270,0.3083748519420624,1.5310547351837158,30,7088.0,-135.2593536376953,-2357,9984.0
280,0.3082703649997711,-1.3347886800765991,68,7088.0,-160.24134826660156,-2793,9984.0
290,0.3072674572467804,1.9167511463165283,81,7088.0,-178.33216857910156,-2960,9984.0
300,0.3049728572368622,1.7107564210891724,-27,7088.0,-171.9917755126953,-2630,9984.0
310,0.3083873987197876,-2.0724523067474365,-90,7088.0,-143.07049560546875,-2160,9984.0
320,0.3062001168727875,-7.0276947021484375,-149,7088.0,-94.26383972167969,-1287,9984.0
330,0.30921295285224915,-1.835297703742981,7,7088.0,-30.776979446411133,-123,9984.0
340,0.3119732141494751,7.144712924957275,108,7088.0,37.103668212890625,1051,9984.0
350,0.31589433550834656,10.096232414245605,146,7088.0,95.78321075439453,1912,9984.0
360,0.3170587718486786,5.120548248291016,-61,7088.0,140.8123321533203,2630,9984.0
370,0.3187958896160126,6.174975395202637,47,7088.0,160.12710571289062,2704,9984.0
380,0.31931227445602417,2.7119486331939697,103,7088.0,151.2299346923828,2490,9984.0
390,0.31736186146736145,-0.44501566886901855,41,7088.0,130.89434814453125,1841,9984.0
400,0.3176634907722473,-1.1256986856460571,6,7088.0,92.42233276367188,1049,9984.0
410,0.31806451082229614,-5.368581295013428,-153,7088.0,37.7241325378418,246,9984.0
420,0.31932932138442993,-11.786966323852539,-205,7088.0,-23.590808868408203,-644,9984.0
430,0.32173770666122437,-14.183433532714844,-249,7088.0,-80.47904205322266,-1464,9984.0
440,0.3180478811264038,-16.767114639282227,-211,7088.0,-119.68209838867188,-2096,9984.0
450,0.319173127412796,-4.340944290161133,16,7088.0,-136.2610321044922,-2285,9984.0
460,0.3196686804294586,16.926715850830078,371,7088.0,-122.04224395751953,-2125,9984.0
470,0.32186874747276306,29.378887176513672,480,7088.0,-89.99541473388672,-1473,9984.0
480,0.31948599219322205,27.721086502075195,471,7088.0,-51.69739532470703,-579,9984.0
490,0.32004043459892273,22.858604431152344,319,7088.0,-14.904706954956055,-16,9984.0
500,0.3206018805503845,15.123480796813965,131,7088.0,30.603384017944336,715,9984.0
510,0.32186567783355713,-2.200239419937134,-37,7088.0,67.47023010253906,1205,9984.0
520,0.32125306129455566,-16.57362937927246,-324,7088.0,89.72188568115234,1536,9984.0
530,0.3212933838367462,-23.92839813232422,-480,7088.0,91.42707061767578,1508,9984.0
540,0.32125115394592285,-24.78080940246582,-451,7088.0,77.55318450927734,1213,9984.0
550,0.3213872015476227,-20.61464500427246,-331,7088.0,55.073482513427734,872,9984.0
560,0.32194310426712036,-14.910200119018555,-176,7088.0,24.363012313842773,276,9984.0
570,0.31798189878463745,-12.036798477172852,-129,7088.0,-12.976295471191406,-405,9984.0
580,0.31844374537467957,-9.45033073425293,-104,7088.0,-48.07790756225586,-825,9984.0
590,0.3190690577030182,-3.4852168560028076,-50,7088.0,-54.6510124206543,-850,9984.0
600,0.3199692666530609,5.522220134735107,90,7088.0,-40.463016510009766,-541,9984.0
610,0.3175186216831207,11.339728355407715,176,7088.0,-2.347994327545166,23,9984.0
620,0.31819453835487366,12.652200698852539,238,7088.0,33.919559478759766,661,9984.0
630,0.3188542127609253,14.90538501739502,241,7088.0,44.37168502807617,937,9984.0
640,0.31924349069595337,22.487079620361328,332,7088.0,48.460079193115234,914,9984.0
650,0.3192789852619171,22.189327239990234,359,7088.0,51.65202331542969,684,9984.0
660,0.31643134355545044,21.862083435058594,306,7088.0,42.73222351074219,462,9984.0
670,0.3157467544078827,11.543877601623535,162,7088.0,23.080963134765625,185,9984.0
680,0.3153195083141327,-5.160973072052002,-228,7088.0,2.6251730918884277,17,9984.0
690,0.3150033950805664,-15.546449661254883,-377,7088.0,-19.038345336914062,-428,9984.0
700,0.3133155107498169,-20.206695556640625,-399,7088.0,-43.16009521484375,-884,9984.0
710,0.31304484605789185,-21.859445571899414,-358,7088.0,-70.41262817382812,-1163,9984.0
720,0.31294137239456177,-18.951202392578125,-262,7088.0,-90.28304290771484,-1476,9984.0
730,0.3130265474319458,-8.303352355957031,-172,7088.0,-110.61592102050781,-1910,9984.0
740,0.31284376978874207,-8.146648406982422,-126,7088.0,-89.78772735595703,-1346,9984.0
750,0.3142249286174774,-12.639053344726562,-252,7088.0,-42.92629623413086,-368,9984.0
760,0.3161029517650604,-9.56848430633545,-92,7088.0,20.692659378051758,637,9984.0
770,0.3176722526550293,-0.04674959182739258,44,7088.0,87.02328491210938,1651,9984.0
780,0.31870803236961365,19.785724639892578,437,7088.0,129.78103637695312,2079,9984.0
790,0.31933796405792236,35.092124938964844,659,7088.0,139.7168426513672,2212,9984.0
800,0.3205747902393341,38.626766204833984,579,7088.0,131.26246643066406,2100,9984.0
810,0.32083556056022644,23.04648208618164,358,7088.0,103.3144760131836,1374,9984.0
820,0.32067006826400757,3.8565990924835205,8,7088.0,51.1951904296875,353,9984.0
830,0.3182317614555359,-24.29176139831543,-396,7088.0,5.458178520202637,-234,9984.0
840,0.3191736340522766,-34.51676940917969,-562,7088.0,-50.2622184753418,-991,9984.0
850,0.3196079432964325,-32.41001510620117,-478,7088.0,-93.38077545166016,-1583,9984.0
860,0.3205145597457886,-13.738527297973633,-158,7088.0,-130.5997314453125,-2184,9984.0
870,0.3209232985973358,7.594404697418213,242,7088.0,-158.5805206298828,-2745,9984.0
880,0.317880779504776,20.08295440673828,345,7088.0,-184.4639892578125,-3064,9984.0
890,0.32008543610572815,17.835363388061523,288,7088.0,-194.6245880126953,-3108,9984.0
900,0.3205666244029999,19.162261962890625,281,7088.0,-180.5818634033203,-2565,9984.0
910,0.3204748034477234,12.055831909179688,208,7088.0,-125.827392578125,-1678,9984.0
920,0.3242785632610321,4.908019542694092,-37,7088.0,-50.11929702758789,-332,9984.0
930,0.3278689980506897,-9.166116714477539,-169,7088.0,25.656936645507812,806,9984.0
940,0.3311309218406677,-13.949819564819336,-184,7088.0,78.3863525390625,1654,9984.0
950,0.3339039087295532,-13.670356750488281,-246,7088.0,126.1026611328125,2333,9984.0
960,0.3365802466869354,-9.338125228881836,-18,7088.0,156.09312438964844,2424,9984.0
970,0.3383070230484009,3.4988884925842285,91,7088.0,158.42086791992188,2532,9984.0
980,0.33933496475219727,4.882338523864746,109,7088.0,149.7538604736328,2198,9984.0
990,0.340043306350708,2.541929006576538,33,7088.0,136.04910278320312,1990,9984.0
1000,0.3403310179710388,-0.47202765941619873,91,7088.0,98.9498062133789,1350,9984.0
1010,0.3327077031135559,0.3654257357120514,107,7088.0,57.18840026855469,764,9984.0
1020,0.33334821462631226,5.671363353729248,67,7088.0,9.144600868225098,-76,9984.0
1030,0.33477747440338135,12.443829536437988,161,7088.0,-47.7640266418457,-871,9984.0
1040,0.33638501167297363,8.481575965881348,32,7088.0,-91.96065521240234,-1583,9984.0
1050,0.32964077591896057,-6.077377796173096,-240,7088.0,-119.82919311523438,-1889,9984.0
1060,0.3306601643562317,-23.737611770629883,-503,7088.0,-119.84562683105469,-1894,9984.0
1070,0.33145609498023987,-25.84819984436035,-404,7088.0,-101.09990692138672,-1427,9984.0
1080,0.3330174386501312,-8.009321212768555,-36,7088.0,-65.35613250732422,-864,9984.0
1090,0.3346639573574066,20.479249954223633,515,7088.0,-18.102720260620117,27,9984.0
1100,0.3300722539424896,35.23493576049805,595,7088.0,29.80997085571289,509,9984.0
1110,0.33132266998291016,31.866891860961914,454,7088.0,44.77480697631836,657,9984.0
1120,0.3319431245326996,13.600248336791992,170,7088.0,42.18742752075195,680,9984.0
1130,0.33206644654273987,-0.9261921048164368,-55,7088.0,43.80845642089844,681,9984.0
1140,0.32879725098609924,-2.782007932662964,-75,7088.0,45.99687194824219,1012,9984.0
1150,0.32898733019828796,4.208871364593506,96,7088.0,59.05272674560547,1079,9984.0
1160,0.3291438817977905,9.713048934936523,120,7088.0,72.01084899902344,1368,9984.0
1170,0.3293793201446533,1.7074687480926514,-62,7088.0,70.14981079101562,1171,9984.0
1180,0.32476887106895447,-11.701208114624023,-331,7088.0,47.29014205932617,725,9984.0
1190,0.3248341679573059,-29.530420303344727,-554,7088.0,26.615819931030273,437,9984.0
1200,0.32489457726478577,-36.131988525390625,-682,7088.0,7.938182830810547,139,9984.0
1210,0.32518821954727173,-31.88335418701172,-440,7088.0,0.36128363013267517,18,9984.0
1220,0.3251277208328247,-24.406831741333008,-422,7088.0,15.279105186462402,244,9984.0
1230,0.3240613043308258,-5.5929975509643555,168,7088.0,23.941944122314453,144,9984.0
1240,0.3239131569862366,34.12968826293945,723,7088.0,19.137439727783203,342,9984.0
1250,0.3233875036239624,48.665367126464844,788,7088.0,3.8564612865448,32,9984.0
1260,0.3228822946548462,39.01570129394531,559,7088.0,-21.606931686401367,-256,9984.0
1270,0.3219391405582428,14.165711402893066,122,7088.0,-29.50109100341797,-543,9984.0
1280,0.321049302816391,-4.197967052459717,-203,7088.0,-41.08271408081055,-698,9984.0
1290,0.3200024366378784,-15.853935241699219,-321,7088.0,-52.462677001953125,-856,9984.0
1300,0.31907084584236145,-14.224162101745605,-154,7088.0,-55.9019889831543,-1057,9984.0
1310,0.31826043128967285,-6.014563083648682,28,7088.0,-49.53115463256836,-894,9984.0
1320,0.3178195357322693,4.78798246383667,78,7088.0,-34.72214889526367,-537,9984.0
1330,0.3175593912601471,-6.835415840148926,-217,7088.0,-16.758119583129883,-274,9984.0
1340,0.31754985451698303,-26.506404876708984,-520,7088.0,-12.029073715209961,-221,9984.0
1350,0.3173922896385193,-39.127845764160156,-652,7088.0,-6.922149181365967,50,9984.0
1360,0.32001370191574097,-42.644012451171875,-758,7088.0,12.303672790527344,453,9984.0
1370,0.3202943801879883,-46.23881149291992,-797,7088.0,44.169166564941406,791,9984.0
1380,0.32108741998672485,-25.6027889251709,-311,7088.0,63.777400970458984,918,9984.0
1390,0.3210960626602173,10.127857208251953,380,7088.0,56.69959259033203,847,9984.0
1400,0.32148975133895874,34.94869613647461,671,7088.0,20.683931350708008,250,9984.0
1410,0.3218994438648224,44.395530700683594,655,7088.0,-0.41824036836624146,-197,9984.0
1420,0.32209858298301697,34.97991943359375,567,7088.0,-10.095215797424316,-178,9984.0
1430,0.3220490515232086,29.170711517333984,529,7088.0,-26.089210510253906,-458,9984.0
1440,0.3222486674785614,25.45330047607422,317,7088.0,-42.991981506347656,-810,9984.0
1450,0.32164376974105835,22.600515365600586,363,7088.0,-57.336647033691406,-1063,9984.0
1460,0.32134780287742615,25.646581649780273,481,7088.0,-61.33281707763672,-1055,9984.0
1470,0.3209877908229828,26.098432540893555,397,7088.0,-53.29377365112305,-893,9984.0
1480,0.3205340802669525,4.86614465713501,-39,7088.0,-39.56377029418945,-559,9984.0
1490,0.3224411606788635,-25.93500328063965,-619,7088.0,-22.431846618652344,-194,9984.0
1500,0.32246434688568115,-58.16225814819336,-1113,7088.0,6.316400051116943,239,9984.0
1510,0.3231612741947174,-84.108642578125,-1420,7088.0,44.155582427978516,983,9984.0
1520,0.32358434796333313,-86.78961944580078,-1275,7088.0,87.1873550415039,1758,9984.0
1530,0.3237181007862091,-59.40165328979492,-863,7088.0,113.82301330566406,1896,9984.0
1540,0.3256814777851105,-21.64640998840332,-88,7088.0,93.57982635498047,1227,9984.0
1550,0.32643556594848633,27.86518669128418,725,7088.0,51.83928680419922,585,9984.0
1560,0.3271968364715576,67.34349822998047,1234,7088.0,4.0765275955200195,-192,9984.0
1570,0.3283933401107788,87.61351013183594,1550,7088.0,-22.088769912719727,-415,9984.0
1580,0.328976035118103,91.58353424072266,1459,7088.0,-37.972347259521484,-613,9984.0
1590,0.3293225169181824,85.45352172851562,1188,7088.0,-48.612518310546875,-872,9984.0
1600,0.32959994673728943,60.11499786376953,863,7088.0,-50.598388671875,-911,9984.0
1610,0.32959088683128357,44.9979133605957,695,7088.0,-45.300148010253906,-714,9984.0
1620,0.33132413029670715,26.06254005432129,233,7088.0,-29.82998275756836,-457,9984.0
1630,0.33185914158821106,-18.326658248901367,-559,7088.0,-8.630542755126953,-224,9984.0
1640,0.33286619186401367,-63.06521987915039,-1225,7088.0,-1.4139375686645508,186,9984.0
1650,0.33368396759033203,-97.39999389648438,-1741,7088.0,14.751221656799316,429,9984.0
1660,0.3344690203666687,-123.82380676269531,-2066,7088.0,28.467086791992188,608,9984.0
1670,0.33509671688079834,-127.20062255859375,-1951,7088.0,44.711997985839844,636,9984.0
1680,0.3354692757129669,-110.36165618896484,-1591,7088.0,53.5981559753418,792,9984.0
1690,0.33604899048805237,-60.417179107666016,-778,7088.0,42.224365234375,785,9984.0
1700,0.3369453549385071,3.1375479698181152,333,7088.0,21.569782257080078,151,9984.0
1710,0.33803248405456543,67.2369155883789,1345,7088.0,-2.738506555557251,7,9984.0
1720,0.33879339694976807,108.77420043945312,1878,7088.0,-24.40238380432129,-471,9984.0
1730,0.33956149220466614,126.21763610839844,2094,7088.0,-32.635475158691406,-714,9984.0
1740,0.3396932780742645,124.96745300292969,2049,7088.0,-38.56321716308594,-710,9984.0
1750,0.34128686785697937,114.5082778930664,1756,7088.0,-40.667816162109375,-654,9984.0
1760,0.33936089277267456,85.7530517578125,1281,7088.0,-34.409423828125,-390,9984.0
1770,0.3400331437587738,43.43070983886719,472,7088.0,-10.839086532592773,-136,9984.0
1780,0.34123411774635315,-16.095457077026367,-448,7088.0,16.43401336669922,311,9984.0
1790,0.34213608503341675,-57.2271728515625,-996,7088.0,40.24888610839844,718,9984.0
1800,0.34026747941970825,-76.86750030517578,-1270,7088.0,58.456905364990234,882,9984.0
1810,0.3403863310813904,-87.67024993896484,-1351,7088.0,66.33409881591797,1001,9984.0
1820,0.3396986722946167,-89.69767761230469,-1499,7088.0,62.78386306762695,1003,9984.0
1830,0.33948585391044617,-77.62263488769531,-1244,7088.0,45.66620635986328,713,9984.0
1840,0.3372938334941864,-62.43693923950195,-895,7088.0,24.644712448120117,228,9984.0
1850,0.336351215839386,-46.327945709228516,-748,7088.0,-9.63805866241455,-251,9984.0
1860,0.3354732096195221,-16.453210830688477,51,7088.0,-38.211978912353516,-856,9984.0
1870,0.33463627099990845,35.318519592285156,734,7088.0,-66.95472717285156,-1158,9984.0
1880,0.3350364863872528,91.3582534790039,1818,7088.0,-100.31177520751953,-1770,9984.0
1890,0.3331224322319031,126.70760345458984,2057,7088.0,-119.99701690673828,-1932,9984.0
1900,0.33227527141571045,115.487548828125,1737,7088.0,-95.00656127929688,-1445,9984.0
1910,0.33442479372024536,70.33911895751953,859,7088.0,-64.35011291503906,-959,9984.0
1920,0.334148645401001,13.391305923461914,-3,7088.0,-33.404212951660156,-550,9984.0
1930,0.33238500356674194,-46.022247314453125,-902,7088.0,-0.9105275869369507,71,9984.0
1940,0.3328874707221985,-75.28782653808594,-1151,7088.0,33.704994201660156,590,9984.0
1950,0.3328630030155182,-67.70821380615234,-982,7088.0,45.731964111328125,883,9984.0
1960,0.3331347405910492,-57.66508865356445,-955,7088.0,56.289215087890625,1072,9984.0
1970,0.33117449283599854,-42.790706634521484,-670,7088.0,68.60753631591797,1019,9984.0
1980,0.3306807577610016,-30.082643508911133,-447,7088.0,72.47364044189453,1102,9984.0
1990,0.3314885199069977,-20.831846237182617,-388,7088.0,60.06394577026367,1021,9984.0
2000,0.33097535371780396,-18.465282440185547,-241,7088.0,31.603883743286133,195,9984.0
2010,0.3307896852493286,-9.662243843078613,-112,7088.0,-8.730793952941895,-233,9984.0
2020,0.3267018496990204,10.956977844238281,386,7088.0,-51.13710021972656,-1035,9984.0
2030,0.32678407430648804,47.237571716308594,987,7088.0,-81.80313110351562,-1470,9984.0
2040,0.3264349102973938,80.96136474609375,1450,7088.0,-94.81010437011719,-1470,9984.0
2050,0.3261013627052307,103.48709869384766,1673,7088.0,-77.92264556884766,-1104,9984.0
2060,0.3247455358505249,101.35572814941406,1574,7088.0,-50.10888671875,-690,9984.0
2070,0.3254062533378601,77.030517578125,1088,7088.0,-21.8536319732666,-264,9984.0
2080,0.3266553282737732,26.6010799407959,60,7088.0,24.38731575012207,629,9984.0
2090,0.32903575897216797,-41.504493713378906,-926,7088.0,54.848690032958984,1011,9984.0
2100,0.33020928502082825,-76.769775390625,-1480,7088.0,63.263248443603516,1110,9984.0
2110,0.3308557868003845,-99.87871551513672,-1677,7088.0,78.56976318359375,1337,9984.0
2120,0.3319547772407532,-102.13914489746094,-1563,7088.0,73.65354919433594,1181,9984.0
2130,0.33211395144462585,-79.7939453125,-1068,7088.0,64.2817153930664,894,9984.0
2140,0.33287084102630615,-47.35685348510742,-571,7088.0,42.15245056152344,563,9984.0
2150,0.3296003043651581,-9.763947486877441,-18,7088.0,12.863216400146484,21,9984.0
2160,0.33045101165771484,9.620881080627441,245,7088.0,-11.498529434204102,-321,9984.0
2170,0.33093616366386414,20.748523712158203,307,7088.0,-27.201868057250977,-375,9984.0
2180,0.3312107026576996,18.30414581298828,217,7088.0,-42.19147491455078,-857,9984.0
2190,0.3275090754032135,12.634918212890625,248,7088.0,-49.033512115478516,-897,9984.0
2200,0.32724833488464355,21.712413787841797,522,7088.0,-56.10389709472656,-914,9984.0
2210,0.32681119441986084,35.0011100769043,730,7088.0,-59.648651123046875,-995,9984.0
2220,0.3268108665943146,42.357906341552734,677,7088.0,-56.52213668823242,-858,9984.0
2230,0.3269100487232208,33.4624137878418,370,7088.0,-36.87665939331055,-431,9984.0
2240,0.327203631401062,10.326761245727539,-57,7088.0,-14.596817970275879,-162,9984.0
2250,0.3277173638343811,-20.647090911865234,-481,7088.0,13.64809513092041,299,9984.0
2260,0.3288809061050415,-34.130455017089844,-645,7088.0,51.3897819519043,910,9984.0
2270,0.32998859882354736,-42.06143569946289,-651,7088.0,91.84403991699219,1669,9984.0
2280,0.3304193913936615,-30.223468780517578,-383,7088.0,125.25562286376953,2191,9984.0
2290,0.33090701699256897,-7.059015274047852,24,7088.0,143.45901489257812,2401,9984.0
2300,0.3311659097671509,0.44968515634536743,-64,7088.0,133.69326782226562,2148,9984.0
2310,0.33065828680992126,-2.550363540649414,-21,7088.0,99.87566375732422,1374,9984.0
2320,0.3336464762687683,-4.044778823852539,-101,7088.0,43.438968658447266,320,9984.0
2330,0.33157414197921753,0.8907361626625061,71,7088.0,-22.663915634155273,-722,9984.0
2340,0.3325204849243164,15.961196899414062,351,7088.0,-82.82445526123047,-1545,9984.0
2350,0.3334571123123169,38.15193176269531,765,7088.0,-122.04789733886719,-2076,9984.0
2360,0.3336588740348816,60.2366828918457,986,7088.0,-140.01333618164062,-2363,9984.0
2370,0.3307281732559204,57.03188705444336,867,7088.0,-137.3330841064453,-2292,9984.0
2380,0.33045265078544617,40.878822326660156,613,7088.0,-123.30654907226562,-2011,9984.0
2390,0.3304862082004547,8.304984092712402,-52,7088.0,-89.85601806640625,-1357,9984.0
2400,0.3330111503601074,-29.69871711730957,-606,7088.0,-39.58028793334961,-374,9984.0
2410,0.33412614464759827,-62.06156921386719,-1128,7088.0,23.3220272064209,557,9984.0
2420,0.3346390426158905,-76.93092346191406,-1185,7088.0,72.17017364501953,1326,9984.0
2430,0.33552566170692444,-60.364627838134766,-720,7088.0,95.2848892211914,1533,9984.0
2440,0.335612416267395,-21.076101303100586,-90,7088.0,92.93916320800781,1409,9984.0
2450,0.33585140109062195,19.2897891998291,305,7088.0,81.86624145507812,1230,9984.0
2460,0.3336416184902191,32.59846496582031,630,7088.0,62.283302307128906,899,9984.0
2470,0.33332177996635437,32.10856246948242,496,7088.0,32.573387145996094,371,9984.0
2480,0.3331318795681,24.210996627807617,246,7088.0,-9.991949081420898,-341,9984.0
2490,0.33295682072639465,9.317051887512207,159,7088.0,-42.59893798828125,-795,9984.0
2500,0.3324059247970581,7.211531639099121,153,7088.0,-58.68838119506836,-1092,9984.0
2510,0.33211925625801086,11.924919128417969,245,7088.0,-60.18516540527344,-1020,9984.0
2520,0.3319989740848541,25.413497924804688,507,7088.0,-42.34225082397461,-472,9984.0
2530,0.3323203921318054,36.885284423828125,612,7088.0,-14.014452934265137,53,9984.0
2540,0.3324434757232666,33.96403121948242,355,7088.0,17.38608169555664,420,9984.0
2550,0.33265453577041626,2.030244827270508,-134,7088.0,43.037078857421875,748,9984.0
2560,0.3324591815471649,-21.873899459838867,-523,7088.0,58.807979583740234,1079,9984.0
2570,0.33194032311439514,-40.0119514465332,-768,7088.0,77.77680969238281,1386,9984.0
2580,0.3309805393218994,-48.478172302246094,-767,7088.0,79.4705581665039,1378,9984.0
2590,0.3297363817691803,-43.94179916381836,-747,7088.0,67.57077026367188,898,9984.0
2600,0.32848718762397766,-35.4317626953125,-464,7088.0,33.82242965698242,411,9984.0
2610,0.3281731903553009,-17.273408889770508,-225,7088.0,-3.5684518814086914,-192,9984.0
2620,0.32742902636528015,-0.5037171840667725,59,7088.0,-43.70785140991211,-911,9984.0
2630,0.3271813690662384,16.543420791625977,342,7088.0,-80.12059020996094,-1374,9984.0
2640,0.32641807198524475,32.57733154296875,516,7088.0,-99.09590148925781,-1667,9984.0
2650,0.3257730007171631,47.07411193847656,880,7088.0,-114.57157135009766,-1926,9984.0
2660,0.3252185881137848,62.30322265625,1105,7088.0,-118.78841400146484,-1906,9984.0
2670,0.32448065280914307,41.88042068481445,593,7088.0,-90.38446044921875,-1449,9984.0
2680,0.32376816868782043,10.634478569030762,101,7088.0,-50.37617492675781,-635,9984.0
2690,0.3246181011199951,-14.454924583435059,-307,7088.0,16.47709846496582,528,9984.0
2700,0.32497966289520264,-31.9659481048584,-541,7088.0,59.753997802734375,1183,9984.0
2710,0.32517489790916443,-43.31684112548828,-680,7088.0,95.93236541748047,1591,9984.0
2720,0.32521960139274597,-49.967899322509766,-722,7088.0,112.87298583984375,1902,9984.0
2730,0.32521042227745056,-40.881103515625,-586,7088.0,109.87390899658203,1778,9984.0
2740,0.32403165102005005,-19.895654678344727,-272,7088.0,93.12107849121094,1191,9984.0
2750,0.32284191250801086,-5.045394420623779,43,7088.0,59.73933792114258,973,9984.0
2760,0.32164236903190613,1.2111505270004272,40,7088.0,27.460702896118164,-17,9984.0
2770,0.32111474871635437,6.4460883140563965,142,7088.0,-27.71242904663086,-516,9984.0
2780,0.3213849365711212,12.540745735168457,273,7088.0,-62.44520568847656,-1362,9984.0
2790,0.3211294114589691,22.101587295532227,400,7088.0,-102.8330078125,-1809,9984.0
2800,0.32092100381851196,24.181917190551758,357,7088.0,-133.2754669189453,-2376,9984.0
2810,0.32193315029144287,25.45418930053711,488,7088.0,-160.6650848388672,-2689,9984.0
2820,0.321937620639801,26.274484634399414,460,7088.0,-160.20516967773438,-2592,9984.0
2830,0.32076093554496765,9.54862117767334,124,7088.0,-137.42051696777344,-2078,9984.0
2840,0.32229945063591003,-5.226512432098389,-198,7088.0,-91.09130859375,-1052,9984.0
2850,0.32808151841163635,-23.08258819580078,-420,7088.0,-27.709074020385742,-19,9984.0
2860,0.33099719882011414,-38.69051742553711,-674,7088.0,35.36322021484375,943,9984.0
2870,0.332133024930954,-48.13447952270508,-723,7088.0,89.78900146484375,1628,9984.0
2880,0.3332068622112274,-47.86885070800781,-657,7088.0,122.76910400390625,2130,9984.0
2890,0.3339273929595947,-40.36732482910156,-635,7088.0,145.64073181152344,2475,9984.0
2900,0.335690438747406,-28.46910285949707,-417,7088.0,154.66627502441406,2497,9984.0
2910,0.3359147012233734,-1.5285288095474243,128,7088.0,138.91433715820312,2087,9984.0
2920,0.33596867322921753,29.757442474365234,570,7088.0,103.92176055908203,1425,9984.0
2930,0.3372373878955841,45.85104751586914,778,7088.0,65.7276382446289,793,9984.0
2940,0.33321070671081543,52.80432891845703,896,7088.0,11.295928955078125,94,9984.0
2950,0.3338368237018585,54.62197494506836,850,7088.0,-40.91716766357422,-1045,9984.0
2960,0.33538582921028137,51.86777877807617,824,7088.0,-90.45951843261719,-1693,9984.0
2970,0.33659815788269043,46.54686737060547,720,7088.0,-130.99705505371094,-2179,9984.0
2980,0.3344957232475281,31.278949737548828,352,7088.0,-152.6939697265625,-2400,9984.0
2990,0.335490882396698,4.275286674499512,-63,7088.0,-134.26329040527344,-2041,9984.0
3000,0.3367418348789215,-13.969483375549316,-290,7088.0,-93.3525390625,-1201,9984.0
3010,0.33829471468925476,-23.106075286865234,-515,7088.0,-35.09152603149414,-206,9984.0
3020,0.34145161509513855,-34.60858154296875,-670,7088.0,29.870094299316406,834,9984.0
3030,0.3398476541042328,-41.380069732666016,-680,7088.0,86.1249008178711,1748,9984.0
3040,0.3410898447036743,-32.8145637512207,-463,7088.0,127.6186752319336,2263,9984.0
3050,0.34164977073669434,-21.695568084716797,-360,7088.0,147.25083923339844,2425,9984.0
3060,0.34310081601142883,-9.951702117919922,-199,7088.0,143.15338134765625,2318,9984.0
3070,0.33735594153404236,9.632485389709473,316,7088.0,127.57637786865234,1886,9984.0
3080,0.33712485432624817,22.60093116760254,385,7088.0,95.12820434570312,1442,9984.0
3090,0.33654460310935974,20.817058563232422,290,7088.0,50.982425689697266,557,9984.0
3100,0.33806049823760986,9.251877784729004,101,7088.0,-6.056423187255859,-379,9984.0
3110,0.3383901119232178,0.34776997566223145,49,7088.0,-66.26673889160156,-1315,9984.0
3120,0.3347212076187134,12.086421012878418,190,7088.0,-113.05313873291016,-1927,9984.0
3130,0.3346796929836273,26.362918853759766,474,7088.0,-132.39242553710938,-2335,9984.0
3140,0.334760457277298,18.477169036865234,263,7088.0,-135.62994384765625,-2241,9984.0
3150,0.33492526412010193,8.931390762329102,160,7088.0,-108.38977813720703,-1696,9984.0
3160,0.33230623602867126,10.122617721557617,188,7088.0,-72.66668701171875,-1007,9984.0
3170,0.33225199580192566,7.606760025024414,115,7088.0,-15.500083923339844,-1,9984.0
3180,0.33239635825157166,-8.000959396362305,-213,7088.0,30.135040283203125,729,9984.0
3190,0.33228790760040283,-29.11115074157715,-560,7088.0,70.42854309082031,1328,9984.0
3200,0.3307683765888214,-41.990074157714844,-725,7088.0,101.04554748535156,1533,9984.0
3210,0.32998132705688477,-47.648014068603516,-740,7088.0,109.93514251708984,1698,9984.0
3220,0.32848620414733887,-39.07614517211914,-548,7088.0,91.98477935791016,1516,9984.0
3230,0.3293062448501587,-23.976497650146484,-391,7088.0,56.161075592041016,588,9984.0
3240,0.3287481665611267,-16.99669075012207,-217,7088.0,-3.597238779067993,-235,9984.0
3250,0.3252480626106262,-8.432930946350098,-110,7088.0,-64.77950286865234,-1380,9984.0
3260,0.32584306597709656,8.066817283630371,232,7088.0,-118.4267349243164,-2112,9984.0
3270,0.3260611891746521,23.373746871948242,489,7088.0,-139.15924072265625,-2196,9984.0
3280,0.3264196217060089,21.82157325744629,280,7088.0,-131.20480346679688,-2022,9984.0
3290,0.32408735156059265,25.511457443237305,388,7088.0,-100.71218872070312,-1372,9984.0
3300,0.32494056224823,30.299898147583008,389,7088.0,-45.336456298828125,-454,9984.0
3310,0.3276709020137787,20.455760955810547,259,7088.0,6.624131679534912,351,9984.0
3320,0.32840198278427124,9.101733207702637,191,7088.0,53.98687744140625,1146,9984.0
3330,0.330081045627594,-3.3060050010681152,-44,7088.0,104.00823211669922,1902,9984.0
3340,0.3306771516799927,-8.765129089355469,-56,7088.0,127.0689468383789,2038,9984.0
3350,0.33133500814437866,-10.054594993591309,6,7088.0,123.85155487060547,1729,9984.0
3360,0.33213695883750916,-1.1566380262374878,-56,7088.0,89.21546173095703,1367,9984.0
3370,0.3324327766895294,-5.354988098144531,-146,7088.0,50.64039993286133,649,9984.0
3380,0.32854971289634705,-18.48310089111328,-355,7088.0,7.286257266998291,-151,9984.0
3390,0.3291844427585602,-29.1529598236084,-453,7088.0,-41.472923278808594,-826,9984.0
3400,0.33014196157455444,-23.251182556152344,-312,7088.0,-93.0639877319336,-1712,9984.0
3410,0.3306562006473541,4.8375115394592285,134,7088.0,-119.87734985351562,-1972,9984.0
3420,0.3250482976436615,23.965757369995117,528,7088.0,-115.76837921142578,-1898,9984.0
3430,0.3261582851409912,35.758575439453125,653,7088.0,-90.66683197021484,-1353,9984.0
3440,0.32652199268341064,35.82137680053711,619,7088.0,-46.99543762207031,-549,9984.0
3450,0.32683587074279785,30.765539169311523,450,7088.0,4.449732780456543,415,9984.0
3460,0.32847797870635986,18.30976676940918,143,7088.0,66.63689422607422,1396,9984.0
3470,0.32858577370643616,-7.147103309631348,-258,7088.0,108.6844482421875,1971,9984.0
3480,0.3291855752468109,-27.848100662231445,-471,7088.0,124.19407653808594,2103,9984.0
3490,0.329193115234375,-31.676992416381836,-467,7088.0,120.29044342041016,1720,9984.0
3500,0.32848691940307617,-24.68687629699707,-286,7088.0,98.5600814819336,1400,9984.0
3510,0.3278086185455322,-7.642039775848389,-31,7088.0,60.13120651245117,760,9984.0
3520,0.3275921642780304,0.0023220409639179707,-60,7088.0,17.82888412475586,-2,9984.0
3530,0.3278700113296509,-7.341616630554199,-104,7088.0,-21.85891342163086,-533,9984.0
3540,0.32885685563087463,-7.13778018951416,-205,7088.0,-69.50251007080078,-1365,9984.0
3550,0.329578697681427,-11.079388618469238,-155,7088.0,-110.4869384765625,-1906,9984.0
3560,0.32716798782348633,-15.779156684875488,-179,7088.0,-112.0578384399414,-1734,9984.0
3570,0.3275626003742218,-3.669618844985962,85,7088.0,-67.74725341796875,-886,9984.0
3580,0.3284592926502228,15.868817329406738,332,7088.0,-14.557339668273926,-106,9984.0
3590,0.32913219928741455,29.27170753479004,521,7088.0,26.888761520385742,525,9984.0
3600,0.32961612939834595,37.45201873779297,577,7088.0,50.24693298339844,875,9984.0
3610,0.32992231845855713,37.16865921020508,556,7088.0,76.6135025024414,1452,9984.0
3620,0.32964786887168884,27.20536994934082,410,7088.0,94.85142517089844,1710,9984.0
3630,0.3295222520828247,5.624360084533691,-70,7088.0,103.31214904785156,1590,9984.0
3640,0.3288642168045044,-16.89617347717285,-495,7088.0,92.3740463256836,1320,9984.0
3650,0.3284485340118408,-28.840328216552734,-403,7088.0,56.252525329589844,690,9984.0
3660,0.32815784215927124,-29.94952392578125,-555,7088.0,7.857824325561523,-35,9984.0
3670,0.328167200088501,-22.668594360351562,-242,7088.0,-37.84574890136719,-882,9984.0
3680,0.32838472723960876,-10.269190788269043,-165,7088.0,-71.95194244384766,-1222,9984.0
3690,0.32795605063438416,0.864342987537384,74,7088.0,-96.83795166015625,-1655,9984.0
3700,0.32808226346969604,24.14320945739746,543,7088.0,-114.61592864990234,-2030,9984.0
3710,0.3285350203514099,37.47045135498047,629,7088.0,-117.04508209228516,-1917,9984.0
3720,0.3304729759693146,45.41975784301758,721,7088.0,-106.63178253173828,-1598,9984.0
3730,0.32780763506889343,42.013755798339844,524,7088.0,-79.9349136352539,-1045,9984.0
3740,0.3284047842025757,12.596200942993164,-9,7088.0,-45.23350143432617,-353,9984.0
3750,0.3295498192310333,-12.293205261230469,-320,7088.0,6.1978607177734375,478,9984.0
3760,0.3307555019855499,-24.8968448638916,-399,7088.0,56.659210205078125,1104,9984.0
3770,0.3320191502571106,-26.286094665527344,-413,7088.0,91.29094696044922,1556,9984.0
3780,0.3324887752532959,-34.26340866088867,-534,7088.0,116.2029800415039,2015,9984.0
3790,0.3322089910507202,-35.7890625,-661,7088.0,131.02261352539062,2177,9984.0
3800,0.3338564932346344,-29.438039779663086,-516,7088.0,124.61941528320312,1779,9984.0
3810,0.33380600810050964,-19.143762588500977,-154,7088.0,84.06175994873047,1186,9984.0
3820,0.32910799980163574,-3.786180257797241,-127,7088.0,29.461116790771484,234,9984.0
3830,0.3299272656440735,0.6936514377593994,106,7088.0,-25.116031646728516,-662,9984.0
3840,0.3313215672969818,9.934798240661621,164,7088.0,-63.13405227661133,-1106,9984.0
3850,0.3320733606815338,23.395734786987305,464,7088.0,-99.27284240722656,-1798,9984.0
3860,0.3272516429424286,37.03477478027344,640,7088.0,-136.80224609375,-2472,9984.0
3870,0.3273369371891022,40.42716979980469,677,7088.0,-155.58767700195312,-2606,9984.0
3880,0.3290681540966034,37.752986907958984,648,7088.0,-165.35487365722656,-2602,9984.0
3890,0.32821640372276306,26.661043167114258,322,7088.0,-147.54116821289062,-2140,9984.0
3900,0.3293206989765167,2.74434757232666,-85,7088.0,-90.477294921875,-1307,9984.0
3910,0.3300938904285431,-10.975682258605957,-169,7088.0,-29.247705459594727,-353,9984.0
3920,0.33203965425491333,-17.374990463256836,-311,7088.0,37.61749267578125,792,9984.0
3930,0.3333868682384491,-22.89641761779785,-408,7088.0,97.06935119628906,1830,9984.0
3940,0.3351266384124756,-24.921186447143555,-475,7088.0,136.5301055908203,2457,9984.0
3950,0.33655914664268494,-26.533906936645508,-458,7088.0,156.62355041503906,2531,9984.0
3960,0.33656609058380127,-34.167724609375,-478,7088.0,146.52191162109375,2159,9984.0
3970,0.3382126986980438,-40.25700759887695,-671,7088.0,117.78923034667969,1740,9984.0
3980,0.3391181230545044,-22.693490982055664,-224,7088.0,62.661720275878906,802,9984.0
3990,0.33270835876464844,10.769407272338867,318,7088.0,3.6633853912353516,-178,9984.0
4000,0.3336026966571808,46.06468200683594,927,7088.0,-51.914363861083984,-1056,9984.0
4010,0.3344882130622864,70.4476547241211,1155,7088.0,-99.08867645263672,-1908,9984.0
4020,0.3347959816455841,70.76864624023438,1162,7088.0,-123.21411895751953,-2000,9984.0
4030,0.33496418595314026,50.54718017578125,759,7088.0,-104.48692321777344,-1481,9984.0
4040,0.33123496174812317,19.39618492126465,224,7088.0,-64.67302703857422,-835,9984.0
4050,0.3330743908882141,-6.906359672546387,-232,7088.0,-11.750060081481934,-8,9984.0
4060,0.33434104919433594,-37.61223220825195,-730,7088.0,39.648353576660156,704,9984.0
4070,0.33614519238471985,-50.27338409423828,-792,7088.0,78.73114013671875,1236,9984.0
4080,0.3329288959503174,-43.146602630615234,-711,7088.0,106.02046203613281,1789,9984.0
4090,0.3334810137748718,-35.002723693847656,-456,7088.0,120.92852020263672,2083,9984.0
4100,0.3336811661720276,-19.03328514099121,-254,7088.0,121.03631591796875,1839,9984.0
4110,0.3337576687335968,-11.131193161010742,-193,7088.0,88.99546813964844,1168,9984.0
4120,0.3335951268672943,-12.584676742553711,-153,7088.0,41.39218521118164,266,9984.0
4130,0.3294202387332916,-18.096174240112305,-365,7088.0,-7.234380722045898,-261,9984.0
4140,0.3301033079624176,-21.111705780029297,-309,7088.0,-60.94775390625,-1360,9984.0
4150,0.3312023878097534,-17.32806396484375,-258,7088.0,-113.65656280517578,-2084,9984.0
4160,0.33168894052505493,-11.657628059387207,-37,7088.0,-125.0259780883789,-2007,9984.0
4170,0.3302950859069824,-3.5305702686309814,49,7088.0,-102.46695709228516,-1430,9984.0
4180,0.3307338058948517,19.29568862915039,414,7088.0,-51.0394401550293,-413,9984.0
4190,0.33149564266204834,38.31689453125,663,7088.0,-3.555410861968994,228,9984.0
4200,0.33224496245384216,44.77685546875,679,7088.0,39.317176818847656,802,9984.0
4210,0.3318939208984375,36.16141891479492,460,7088.0,76.36163330078125,1459,9984.0
4220,0.3320881128311157,22.294963836669922,260,7088.0,101.33690643310547,1855,9984.0
4230,0.3318033814430237,8.453895568847656,40,7088.0,112.93486022949219,1942,9984.0
4240,0.3313179612159729,-6.0312418937683105,-263,7088.0,104.07828521728516,1630,9984.0
4250,0.3321106731891632,-19.920963287353516,-398,7088.0,82.54253387451172,1234,9984.0
4260,0.3292219638824463,-27.038311004638672,-445,7088.0,43.97955322265625,453,9984.0
4270,0.32904139161109924,-27.886335372924805,-347,7088.0,-11.640570640563965,-542,9984.0
4280,0.32956090569496155,-19.4351863861084,-373,7088.0,-81.16545867919922,-1422,9984.0
4290,0.3296416401863098,-14.09069538116455,-181,7088.0,-127.42493438720703,-2361,9984.0
4300,0.3260246515274048,-2.976705551147461,20,7088.0,-145.66262817382812,-2457,9984.0
4310,0.3260631263256073,0.06714925169944763,68,7088.0,-136.10195922851562,-2045,9984.0
4320,0.3261408805847168,2.8059704303741455,68,7088.0,-93.58538818359375,-1300,9984.0
4330,0.32866987586021423,10.526124000549316,202,7088.0,-33.74631881713867,-325,9984.0
4340,0.3291536271572113,14.408588409423828,183,7088.0,18.173900604248047,608,9984.0
4350,0.32755568623542786,10.606971740722656,89,7088.0,58.64189529418945,1218,9984.0
4360,0.32798537611961365,5.675642490386963,101,7088.0,86.33369445800781,1472,9984.0
4370,0.32793986797332764,13.344581604003906,252,7088.0,86.46562957763672,1192,9984.0
4380,0.32884377241134644,12.843862533569336,191,7088.0,70.2739486694336,949,9984.0
4390,0.32551369071006775,6.1306023597717285,145,7088.0,47.262779235839844,727,9984.0
4400,0.32568472623825073,-16.080228805541992,-400,7088.0,19.49314308166504,147,9984.0
4410,0.32638850808143616,-33.53710174560547,-612,7088.0,-25.59880256652832,-584,9984.0
4420,0.3272799551486969,-36.5546875,-576,7088.0,-75.19764709472656,-1558,9984.0
4430,0.32367271184921265,-26.99894905090332,-370,7088.0,-113.2557373046875,-1968,9984.0
4440,0.3237701952457428,-15.559003829956055,-118,7088.0,-116.34735107421875,-1876,9984.0
4450,0.3242083787918091,-12.107783317565918,-233,7088.0,-89.61628723144531,-1291,9984.0
4460,0.3265284597873688,-4.315981388092041,4,7088.0,-44.865394592285156,-451,9984.0
4470,0.32728123664855957,13.715666770935059,325,7088.0,1.7672061920166016,254,9984.0
4480,0.32686591148376465,33.42825698852539,504,7088.0,47.72749710083008,876,9984.0
4490,0.32722827792167664,41.7884635925293,688,7088.0,82.2328872680664,1496,9984.0
4500,0.3274480998516083,37.03947448730469,621,7088.0,107.88558959960938,1873,9984.0
4510,0.32771193981170654,26.431392669677734,286,7088.0,110.6221694946289,1816,9984.0
4520,0.3251780569553375,15.108059883117676,255,7088.0,94.22852325439453,1487,9984.0
4530,0.3251466155052185,8.274760246276855,-6,7088.0,61.185970306396484,870,9984.0
4540,0.326311320066452,-1.7329388856887817,-12,7088.0,28.68344497680664,236,9984.0
4550,0.3268921673297882,-13.655774116516113,-263,7088.0,-9.233784675598145,-365,9984.0
4560,0.32256588339805603,-22.65903663635254,-329,7088.0,-57.414493560791016,-1071,9984.0
4570,0.3232877850532532,-22.513200759887695,-461,7088.0,-108.81562805175781,-1964,9984.0
4580,0.3237419128417969,-13.936890602111816,-146,7088.0,-151.12359619140625,-2544,9984.0
4590,0.32380861043930054,-6.453744888305664,-56,7088.0,-159.78274536132812,-2653,9984.0
4600,0.32260581851005554,-5.749565124511719,-79,7088.0,-133.92750549316406,-2073,9984.0
4610,0.32358574867248535,-0.25904786586761475,21,7088.0,-87.99125671386719,-1262,9984.0
4620,0.32608020305633545,5.219522953033447,136,7088.0,-32.52814483642578,-178,9984.0
4630,0.3273191452026367,6.513275146484375,134,7088.0,29.828441619873047,861,9984.0
4640,0.32926255464553833,0.5813161134719849,-24,7088.0,83.78350830078125,1673,9984.0
4650,0.33137333393096924,-3.423295021057129,-144,7088.0,121.65392303466797,2201,9984.0
4660,0.33186203241348267,-6.644431114196777,-126,7088.0,147.05899047851562,2631,9984.0
4670,0.3323897123336792,-5.005621433258057,-59,7088.0,158.54061889648438,2618,9984.0
4680,0.33247557282447815,5.799606800079346,68,7088.0,145.8236541748047,2123,9984.0
4690,0.33229145407676697,10.52835750579834,233,7088.0,105.43934631347656,1450,9984.0
4700,0.328794002532959,2.131798505783081,-83,7088.0,56.13003921508789,799,9984.0
4710,0.32861775159835815,-8.832509994506836,-211,7088.0,3.5153133869171143,-224,9984.0
4720,0.3294481337070465,-17.808324813842773,-324,7088.0,-58.71601867675781,-1264,9984.0
4730,0.33112695813179016,-18.02174949645996,-205,7088.0,-111.13150787353516,-2024,9984.0
4740,0.328419953584671,-12.161294937133789,-179,7088.0,-127.9805679321289,-1964,9984.0
4750,0.3293234705924988,-1.9178649187088013,-40,7088.0,-116.03443145751953,-1693,9984.0
4760,0.3299418091773987,3.5471789836883545,85,7088.0,-92.15999603271484,-1169,9984.0
4770,0.3310602903366089,11.868037223815918,195,7088.0,-43.04790115356445,-190,9984.0
4780,0.32884564995765686,19.012794494628906,343,7088.0,5.689826965332031,538,9984.0
4790,0.3297041952610016,23.944339752197266,352,7088.0,48.74740982055664,1044,9984.0
4800,0.33062368631362915,18.688243865966797,323,7088.0,78.9258041381836,1457,9984.0
4810,0.33066242933273315,13.026622772216797,186,7088.0,107.26848602294922,1946,9984.0
4820,0.3300400972366333,4.000997543334961,-2,7088.0,122.5752944946289,2056,9984.0
4830,0.3277525007724762,-6.167941093444824,-200,7088.0,120.50945281982422,2006,9984.0
4840,0.3271934986114502,-10.819082260131836,-212,7088.0,98.97952270507812,1399,9984.0
4850,0.32624155282974243,-18.133119583129883,-307,7088.0,59.9126091003418,640,9984.0
4860,0.3261100649833679,-23.893217086791992,-349,7088.0,11.3064603805542,-117,9984.0
4870,0.323710173368454,-26.73593521118164,-447,7088.0,-47.04148864746094,-1255,9984.0
4880,0.32426702976226807,-15.685978889465332,-66,7088.0,-112.78355407714844,-2232,9984.0
4890,0.324839323759079,2.141206741333008,65,7088.0,-162.05357360839844,-2605,9984.0
4900,0.32474568486213684,16.53564453125,273,7088.0,-164.21621704101562,-2659,9984.0
4910,0.32814788818359375,21.347511291503906,307,7088.0,-139.55062866210938,-2028,9984.0
4920,0.3264646828174591,21.062183380126953,334,7088.0,-93.54081726074219,-1241,9984.0
4930,0.3271370232105255,22.4711856842041,421,7088.0,-36.541927337646484,-333,9984.0
4940,0.32865461707115173,19.228477478027344,279,7088.0,18.760509490966797,561,9984.0
4950,0.3300415873527527,10.362874031066895,157,7088.0,63.050575256347656,1296,9984.0
4960,0.3302527368068695,1.3438857793807983,-62,7088.0,100.54653930664062,1862,9984.0
4970,0.33044469356536865,-7.202597141265869,-206,7088.0,122.4939956665039,2048,9984.0
4980,0.33016437292099,-10.731657028198242,-122,7088.0,117.16980743408203,1811,9984.0
4990,0.33180952072143555,-14.712069511413574,-178,7088.0,97.50947570800781,1196,9984.0
5000,0.3266940116882324,-19.249563217163086,-370,7088.0,54.72541046142578,877,9984.0
5010,0.3266258239746094,-23.61557388305664,-404,7088.0,4.099537372589111,-288,9984.0
5020,0.32779884338378906,-12.702133178710938,-114,7088.0,-53.42433166503906,-1100,9984.0
5030,0.3287074565887451,-0.7382728457450867,-8,7088.0,-96.8748779296875,-1628,9984.0
5040,0.32986608147621155,6.670404434204102,96,7088.0,-106.37252807617188,-1519,9984.0
5050,0.3255617022514343,3.9773950576782227,57,7088.0,-83.69017028808594,-1226,9984.0
5060,0.3261726200580597,10.70531177520752,144,7088.0,-46.34928512573242,-634,9984.0
5070,0.32724061608314514,14.113600730895996,210,7088.0,-5.4274773597717285,106,9984.0
5080,0.3287196457386017,11.244893074035645,204,7088.0,36.80628204345703,745,9984.0
5090,0.32638517022132874,8.106118202209473,65,7088.0,65.6678466796875,1164,9984.0
5100,0.3264417350292206,11.759188652038574,247,7088.0,80.96932220458984,1323,9984.0
5110,0.3260905146598816,6.596651554107666,150,7088.0,78.2800064086914,1097,9984.0
5120,0.32850202918052673,-0.2988247275352478,-11,7088.0,54.453521728515625,774,9984.0
5130,0.32824790477752686,-10.671724319458008,-264,7088.0,25.159067153930664,317,9984.0
5140,0.3253564238548279,-16.702669143676758,-292,7088.0,-7.112098693847656,-216,9984.0
5150,0.3257845342159271,-17.70224952697754,-272,7088.0,-38.80609130859375,-944,9984.0
5160,0.3261854350566864,-16.356922149658203,-192,7088.0,-76.19877624511719,-1390,9984.0
5170,0.3266277313232422,-8.254018783569336,-166,7088.0,-114.69245147705078,-2018,9984.0
5180,0.322762668132782,3.572251796722412,20,7088.0,-137.82888793945312,-2145,9984.0
5190,0.32246387004852295,7.857993125915527,189,7088.0,-134.16842651367188,-2077,9984.0
5200,0.3247607350349426,13.580811500549316,229,7088.0,-103.75601196289062,-1408,9984.0
5210,0.3253946900367737,17.75385856628418,258,7088.0,-39.61777877807617,-249,9984.0
5220,0.32736942172050476,18.741106033325195,287,7088.0,24.034584045410156,867,9984.0
5230,0.3290877938270569,22.232769012451172,352,7088.0,83.96025848388672,1792,9984.0
5240,0.3301922678947449,17.61124038696289,192,7088.0,123.6556167602539,2243,9984.0
5250,0.33090293407440186,9.419556617736816,83,7088.0,146.02713012695312,2404,9984.0
5260,0.3314927816390991,2.1674342155456543,22,7088.0,149.5657196044922,2532,9984.0
5270,0.32900863885879517,-5.199516773223877,-179,7088.0,134.1961212158203,2086,9984.0
5280,0.3301275670528412,-16.869535446166992,-393,7088.0,101.24017333984375,1419,9984.0
5290,0.33057737350463867,-26.216976165771484,-406,7088.0,45.68223571777344,434,9984.0
5300,0.3310207426548004,-34.786529541015625,-588,7088.0,-9.737662315368652,-246,9984.0
5310,0.3263324201107025,-35.48060989379883,-643,7088.0,-60.31509017944336,-1258,9984.0
5320,0.3271307349205017,-31.68639373779297,-406,7088.0,-115.24906921386719,-2280,9984.0
5330,0.32735714316368103,-20.538055419921875,-270,7088.0,-159.5970001220703,-2574,9984.0
5340,0.3278849422931671,-3.5253565311431885,-17,7088.0,-154.98211669921875,-2235,9984.0
5350,0.3233013153076172,12.920955657958984,222,7088.0,-124.08818054199219,-1735,9984.0
5360,0.3270011842250824,23.761951446533203,341,7088.0,-75.7737808227539,-849,9984.0
5370,0.32824045419692993,22.32325553894043,271,7088.0,-23.450448989868164,-40,9984.0
5380,0.3302288055419922,16.523557662963867,140,7088.0,25.15243911743164,641,9984.0
5390,0.3322603702545166,14.927915573120117,230,7088.0,61.982269287109375,1245,9984.0
5400,0.3318268358707428,13.682896614074707,269,7088.0,98.49740600585938,1811,9984.0
5410,0.33245909214019775,10.86746597290039,308,7088.0,120.56415557861328,2025,9984.0
5420,0.33299243450164795,11.452815055847168,78,7088.0,123.70716857910156,1923,9984.0
5430,0.3333357572555542,-0.7687849998474121,-149,7088.0,111.2378921508789,1829,9984.0
5440,0.32911205291748047,-14.571189880371094,-244,7088.0,91.39501953125,1355,9984.0
5450,0.32891255617141724,-8.44859504699707,-140,7088.0,68.36923217773438,961,9984.0
5460,0.32934999465942383,-0.5307093858718872,85,7088.0,35.3316650390625,164,9984.0
5470,0.3299250900745392,-9.686753273010254,-234,7088.0,-19.95009422302246,-645,9984.0
5480,0.33154064416885376,-22.608428955078125,-408,7088.0,-68.00469207763672,-1174,9984.0
5490,0.3278176784515381,-12.292192459106445,-138,7088.0,-80.63228607177734,-1275,9984.0
5500,0.32849249243736267,4.632662773132324,116,7088.0,-69.04987335205078,-1013,9984.0
5510,0.3290450870990753,10.819331169128418,254,7088.0,-35.02537536621094,-281,9984.0
5520,0.3295242488384247,13.092206001281738,255,7088.0,9.100979804992676,217,9984.0
5530,0.3275761902332306,21.17970085144043,461,7088.0,37.855796813964844,743,9984.0
5540,0.3273988962173462,21.83279037475586,339,7088.0,56.63619613647461,716,9984.0
5550,0.32692480087280273,6.070925235748291,95,7088.0,57.211185455322266,889,9984.0
5560,0.3261292576789856,-8.706972122192383,-167,7088.0,40.474796295166016,511,9984.0
5570,0.32605522871017456,-26.669116973876953,-359,7088.0,10.182918548583984,45,9984.0
5580,0.3240455389022827,-33.92335510253906,-617,7088.0,-24.52960968017578,-505,9984.0
5590,0.3236170709133148,-28.7315673828125,-442,7088.0,-52.07372283935547,-929,9984.0
5600,0.3235757648944855,-12.564902305603027,-201,7088.0,-77.70902252197266,-1522,9984.0
5610,0.3231688439846039,-3.2141952514648438,32,7088.0,-108.1484146118164,-2020,9984.0
5620,0.3199826180934906,8.591790199279785,270,7088.0,-124.13387298583984,-2090,9984.0
5630,0.31956470012664795,18.333576202392578,179,7088.0,-105.25568389892578,-1479,9984.0
5640,0.3203747868537903,7.9383063316345215,41,7088.0,-55.35480880737305,-619,9984.0
5650,0.32129570841789246,0.8564132452011108,77,7088.0,-3.5931854248046875,125,9984.0
5660,0.3233792185783386,12.258966445922852,292,7088.0,46.32434844970703,944,9984.0
5670,0.324113130569458,21.971424102783203,319,7088.0,89.4768295288086,1507,9984.0
5680,0.3244308531284332,26.88539695739746,356,7088.0,107.28175354003906,1852,9984.0
5690,0.32491838932037354,19.06273651123047,350,7088.0,108.29234313964844,1863,9984.0
5700,0.3246423304080963,9.752513885498047,48,7088.0,94.18620300292969,1412,9984.0
5710,0.32178187370300293,-2.705620527267456,-136,7088.0,62.14320373535156,830,9984.0
5720,0.32175201177597046,-18.100927352905273,-288,7088.0,16.962194442749023,-86,9984.0
5730,0.3223347067832947,-25.012243270874023,-406,7088.0,-30.886619567871094,-576,9984.0
5740,0.32403314113616943,-23.782514572143555,-397,7088.0,-77.9998550415039,-1496,9984.0
5750,0.32118648290634155,-20.391206741333008,-339,7088.0,-120.18428802490234,-2120,9984.0
5760,0.32165998220443726,-22.641212463378906,-313,7088.0,-150.51319885253906,-2712,9984.0
5770,0.322437584400177,-16.898714065551758,-158,7088.0,-161.17588806152344,-2618,9984.0
5780,0.3222651779651642,4.104950428009033,213,7088.0,-147.66342163085938,-2207,9984.0
5790,0.32267671823501587,18.856840133666992,395,7088.0,-103.09430694580078,-1529,9984.0
5800,0.32266539335250854,22.75396156311035,339,7088.0,-52.35915756225586,-651,9984.0
5810,0.32464799284935,22.429426193237305,351,7088.0,12.506612777709961,462,9984.0
5820,0.32655835151672363,23.232166290283203,359,7088.0,74.54789733886719,1436,9984.0
5830,0.32909488677978516,13.165715217590332,180,7088.0,118.35206604003906,2173,9984.0
5840,0.3315713703632355,-4.103734016418457,-105,7088.0,149.85159301757812,2535,9984.0
5850,0.3325996994972229,-12.013087272644043,-273,7088.0,156.938232421875,2499,9984.0
5860,0.33380308747291565,-18.41739273071289,-280,7088.0,141.53707885742188,2150,9984.0
5870,0.33414867520332336,-19.405378341674805,-272,7088.0,113.17621612548828,1673,9984.0
5880,0.32782527804374695,-7.349983215332031,-49,7088.0,66.8687515258789,967,9984.0
5890,0.32861998677253723,5.612514019012451,28,7088.0,13.145967483520508,-115,9984.0
5900,0.32994621992111206,10.542459487915039,257,7088.0,-40.61005401611328,-974,9984.0
5910,0.3316514194011688,3.864271640777588,-4,7088.0,-86.42623901367188,-1394,9984.0
5920,0.3274754583835602,-6.6886444091796875,-167,7088.0,-104.6908187866211,-1679,9984.0
5930,0.32832542061805725,-9.67745590209961,-250,7088.0,-94.44425201416016,-1333,9984.0
5940,0.33044031262397766,-10.802602767944336,-139,7088.0,-69.97846984863281,-997,9984.0
5950,0.33158743381500244,-2.7189691066741943,-55,7088.0,-37.426185607910156,-493,9984.0
5960,0.33268895745277405,2.42911958694458,2,7088.0,8.17625904083252,455,9984.0
5970,0.33010178804397583,11.911739349365234,287,7088.0,52.42979049682617,1140,9984.0
5980,0.3306935429573059,26.961891174316406,495,7088.0,79.7719497680664,1476,9984.0
5990,0.33118122816085815,30.75052833557129,466,7088.0,101.05659484863281,1828,9984.0
6000,0.3311986029148102,20.306346893310547,270,7088.0,107.66635131835938,1817,9984.0
6010,0.3286534249782562,-2.815509557723999,-183,7088.0,107.60578918457031,1469,9984.0
6020,0.3295362889766693,-22.554508209228516,-358,7088.0,76.29212188720703,1011,9984.0
6030,0.3293702304363251,-31.916040420532227,-518,7088.0,35.97691345214844,455,9984.0
6040,0.32886210083961487,-20.157838821411133,-213,7088.0,-2.788658857345581,-243,9984.0
6050,0.32958346605300903,-4.4892144203186035,2,7088.0,-41.10848617553711,-965,9984.0
6060,0.32783591747283936,13.781100273132324,402,7088.0,-84.98379516601562,-1547,9984.0
6070,0.32795894145965576,30.446571350097656,410,7088.0,-106.16394805908203,-1552,9984.0
6080,0.32803308963775635,26.465972900390625,363,7088.0,-97.32953643798828,-1440,9984.0
6090,0.3279016315937042,17.707460403442383,238,7088.0,-67.8892593383789,-831,9984.0
6100,0.32636699080467224,13.810539245605469,160,7088.0,-18.687664031982422,67,9984.0
6110,0.32631394267082214,14.663427352905273,193,7088.0,36.54491424560547,955,9984.0
6120,0.32602259516716003,15.537649154663086,266,7088.0,78.21385955810547,1423,9984.0
6130,0.3254837393760681,7.069261074066162,24,7088.0,89.79652404785156,1341,9984.0
6140,0.3251907527446747,-9.005731582641602,-292,7088.0,78.02890014648438,1143,9984.0
6150,0.324502557516098,-42.21315002441406,-772,7088.0,50.857444763183594,603,9984.0
6160,0.3233516216278076,-62.0561408996582,-1124,7088.0,10.149919509887695,-22,9984.0
6170,0.322660893201828,-59.02406311035156,-979,7088.0,-35.48495864868164,-999,9984.0
6180,0.32323458790779114,-43.59683609008789,-514,7088.0,-85.08515167236328,-1528,9984.0
6190,0.32036855816841125,-8.061498641967773,32,7088.0,-116.09774780273438,-2093,9984.0
6200,0.3197324275970459,30.79020881652832,638,7088.0,-128.8083953857422,-2123,9984.0
6210,0.31905150413513184,46.20661926269531,779,7088.0,-127.29884338378906,-1928,9984.0
6220,0.31880101561546326,26.680431365966797,330,7088.0,-114.84414672851562,-1773,9984.0
6230,0.32099834084510803,2.1561834812164307,-50,7088.0,-80.88534545898438,-1074,9984.0
6240,0.3209763467311859,-2.4147017002105713,-38,7088.0,-27.88787269592285,-222,9984.0
6250,0.32156258821487427,-9.84901237487793,-174,7088.0,19.534133911132812,623,9984.0
6260,0.32270336151123047,-6.73663330078125,-152,7088.0,62.878273010253906,1266,9984.0
6270,0.3234212100505829,-3.8264360427856445,-151,7088.0,91.41233825683594,1699,9984.0
6280,0.32763445377349854,-1.1907235383987427,-36,7088.0,103.49616241455078,1753,9984.0
6290,0.3281573951244354,4.553985595703125,165,7088.0,96.23426818847656,1347,9984.0
6300,0.3287578523159027,8.68000602722168,185,7088.0,68.08787536621094,924,9984.0
6310,0.329519659280777,8.307727813720703,91,7088.0,38.48122787475586,569,9984.0
6320,0.32671934366226196,9.825957298278809,219,7088.0,8.601638793945312,102,9984.0
6330,0.327007532119751,19.758079528808594,321,7088.0,-18.04684066772461,-472,9984.0
6340,0.32766279578208923,33.857566833496094,691,7088.0,-33.2918815612793,-684,9984.0
6350,0.3280447721481323,39.613765716552734,591,7088.0,-47.743438720703125,-947,9984.0
6360,0.32621073722839355,13.646721839904785,60,7088.0,-53.93626022338867,-838,9984.0
6370,0.3267102539539337,-20.170820236206055,-366,7088.0,-53.886417388916016,-835,9984.0
6380,0.32721665501594543,-39.98284912109375,-732,7088.0,-46.868892669677734,-717,9984.0
6390,0.3278629779815674,-43.9505729675293,-732,7088.0,-24.458314895629883,-316,9984.0
6400,0.32839179039001465,-37.69252395629883,-475,7088.0,0.8488358855247498,53,9984.0
6410,0.3291017413139343,-16.068960189819336,-91,7088.0,35.872535705566406,662,9984.0
6420,0.33052003383636475,10.769513130187988,221,7088.0,64.48509216308594,1148,9984.0
6430,0.33146846294403076,20.23637580871582,399,7088.0,75.05037689208984,1259,9984.0
6440,0.33230945467948914,14.11612319946289,97,7088.0,73.53626251220703,1187,9984.0
6450,0.328949898481369,-14.297391891479492,-377,7088.0,68.95252227783203,1202,9984.0
6460,0.3298269212245941,-35.09899139404297,-662,7088.0,56.56269454956055,787,9984.0
6470,0.331314355134964,-32.35020446777344,-370,7088.0,33.338104248046875,362,9984.0
6480,0.33273062109947205,-7.055507183074951,25,7088.0,7.4470672607421875,20,9984.0
6490,0.3295847475528717,22.156591415405273,476,7088.0,-25.601823806762695,-551,9984.0
6500,0.33136340975761414,44.61433029174805,835,7088.0,-50.52729797363281,-703,9984.0
6510,0.3334350883960724,57.800926208496094,947,7088.0,-60.07268142700195,-1043,9984.0
6520,0.3352208137512207,57.017520904541016,837,7088.0,-69.1902084350586,-1047,9984.0
6530,0.3370532691478729,19.294567108154297,133,7088.0,-62.82014083862305,-975,9984.0
6540,0.335326224565506,-31.73397445678711,-773,7088.0,-45.31227493286133,-408,9984.0
6550,0.3382035195827484,-64.19739532470703,-1028,7088.0,-9.280167579650879,126,9984.0
6560,0.34001046419143677,-57.22553634643555,-801,7088.0,30.951244354248047,703,9984.0
6570,0.3417230546474457,-18.079313278198242,-42,7088.0,53.79750061035156,931,9984.0
6580,0.3433946669101715,21.11750602722168,407,7088.0,63.43077087402344,1139,9984.0
6590,0.3446621596813202,36.890625,613,7088.0,73.99765014648438,1214,9984.0
6600,0.3462303578853607,39.75390625,607,7088.0,70.48189544677734,1104,9984.0
6610,0.3468022346496582,25.345678329467773,273,7088.0,49.84634017944336,815,9984.0
6620,0.34708496928215027,5.527859687805176,-22,7088.0,19.583845138549805,158,9984.0
6630,0.3457866609096527,-13.856435775756836,-251,7088.0,-21.376239776611328,-409,9984.0
6640,0.34589388966560364,-21.335668563842773,-409,7088.0,-57.43778991699219,-990,9984.0
6650,0.34624820947647095,-15.138376235961914,-198,7088.0,-83.89806365966797,-1501,9984.0
6660,0.34588515758514404,-6.8631720542907715,-89,7088.0,-105.01313781738281,-1708,9984.0
6670,0.3432377278804779,-4.942784786224365,-63,7088.0,-109.38915252685547,-1768,9984.0
6680,0.3433552086353302,-0.38533222675323486,12,7088.0,-105.98320770263672,-1468,9984.0
6690,0.3426111340522766,14.34363079071045,356,7088.0,-90.98443603515625,-1285,9984.0
6700,0.3416307866573334,21.17405891418457,291,7088.0,-59.379913330078125,-636,9984.0
6710,0.3448179066181183,9.94711685180664,86,7088.0,-2.01574969291687,309,9984.0
6720,0.34449881315231323,1.9232158660888672,-23,7088.0,64.90260314941406,1345,9984.0
6730,0.34408941864967346,-9.207331657409668,-128,7088.0,118.44353485107422,2016,9984.0
6740,0.34341132640838623,-11.188379287719727,-159,7088.0,141.73471069335938,2167,9984.0
6750,0.34209126234054565,-4.841400623321533,30,7088.0,138.02674865722656,2218,9984.0
6760,0.3392859399318695,3.6525118350982666,-85,7088.0,121.5842056274414,1652,9984.0
6770,0.3376823365688324,0.7526277899742126,-194,7088.0,88.84583282470703,1304,9984.0
6780,0.3366723954677582,-10.633512496948242,-169,7088.0,42.42702102661133,286,9984.0
6790,0.3361126184463501,-18.461124420166016,-304,7088.0,-7.6899237632751465,-326,9984.0
6800,0.33045074343681335,-14.31026554107666,-243,7088.0,-63.27058792114258,-1450,9984.0
6810,0.3311990201473236,-25.046289443969727,-415,7088.0,-106.15816497802734,-1973,9984.0
6820,0.33240261673927307,-41.68864440917969,-771,7088.0,-143.4158935546875,-2426,9984.0
6830,0.3328441083431244,-42.391876220703125,-676,7088.0,-167.62612915039062,-2795,9984.0
6840,0.33532780408859253,-31.052845001220703,-421,7088.0,-173.1720733642578,-2727,9984.0
6850,0.3306381404399872,-5.829548358917236,121,7088.0,-168.7776641845703,-2685,9984.0
6860,0.33063188195228577,23.631935119628906,556,7088.0,-142.31396484375,-2048,9984.0
6870,0.3310738205909729,49.43626403808594,880,7088.0,-85.56989288330078,-936,9984.0
6880,0.3333755433559418,50.982601165771484,786,7088.0,-11.243675231933594,187,9984.0
6890,0.3384716808795929,39.037750244140625,601,7088.0,61.07530975341797,1232,9984.0
6900,0.34090328216552734,30.643001556396484,391,7088.0,120.06039428710938,2083,9984.0
6910,0.34199607372283936,17.616718292236328,151,7088.0,163.50111389160156,2715,9984.0
6920,0.343674898147583,2.2611660957336426,56,7088.0,182.38645935058594,2961,9984.0
6930,0.34179726243019104,-11.063372611999512,-117,7088.0,185.47848510742188,2846,9984.0
6940,0.34150177240371704,-14.780226707458496,-227,7088.0,158.19708251953125,2468,9984.0
6950,0.3409118950366974,-14.181442260742188,-263,7088.0,113.17420196533203,1624,9984.0
6960,0.340901643037796,-11.410385131835938,-151,7088.0,52.77669143676758,528,9984.0
6970,0.343624085187912,-9.967116355895996,-169,7088.0,-18.092327117919922,-629,9984.0
6980,0.33585262298583984,-9.200739860534668,-188,7088.0,-87.51181030273438,-1677,9984.0
6990,0.33715420961380005,-9.184520721435547,-114,7088.0,-140.81338500976562,-2399,9984.0
7000,0.33773669600486755,3.843951940536499,87,7088.0,-161.85516357421875,-2747,9984.0
7010,0.33952710032463074,15.931461334228516,344,7088.0,-145.2967071533203,-2306,9984.0
7020,0.3325684070587158,18.549192428588867,361,7088.0,-114.29558563232422,-1859,9984.0
7030,0.3329988420009613,9.46190357208252,101,7088.0,-79.46296691894531,-1218,9984.0
7040,0.3338263928890228,-7.314319610595703,-225,7088.0,-36.503684997558594,-421,9984.0
7050,0.3347739577293396,-15.103065490722656,-280,7088.0,16.48456573486328,650,9984.0
7060,0.3343661427497864,-14.918763160705566,-218,7088.0,72.85505676269531,1492,9984.0
7070,0.33606597781181335,-12.128690719604492,-169,7088.0,112.06755065917969,1913,9984.0
7080,0.33677807450294495,-8.731500625610352,-98,7088.0,132.72450256347656,2262,9984.0
7090,0.33722883462905884,-0.024611379951238632,54,7088.0,134.2006378173828,2194,9984.0
7100,0.3373167812824249,0.9936051964759827,-46,7088.0,117.66949462890625,1872,9984.0
7110,0.3305078148841858,-5.109331130981445,-187,7088.0,90.69527435302734,1337,9984.0
7120,0.33009573817253113,-18.979873657226562,-438,7088.0,49.52241134643555,554,9984.0
7130,0.3312451243400574,-33.75371170043945,-499,7088.0,5.674926280975342,-156,9984.0
7140,0.33145907521247864,-27.495445251464844,-298,7088.0,-16.756072998046875,-239,9984.0
7150,0.3276698887348175,-6.285057067871094,-64,7088.0,-25.492412567138672,-354,9984.0
7160,0.3275936245918274,20.906381607055664,367,7088.0,-16.66446876525879,-206,9984.0
7170,0.32710501551628113,22.806900024414062,272,7088.0,-6.427842617034912,-98,9984.0
7180,0.3266458511352539,20.96686363220215,385,7088.0,-4.566980838775635,-191,9984.0
7190,0.3259969651699066,19.433820724487305,329,7088.0,3.242733955383301,83,9984.0
7200,0.32133013010025024,24.86356544494629,524,7088.0,6.943490982055664,-40,9984.0
7210,0.3199338912963867,31.461538314819336,543,7088.0,-4.87662410736084,-141,9984.0
7220,0.3180117607116699,26.09308433532715,428,7088.0,-21.97593116760254,-507,9984.0
7230,0.3158879280090332,14.226627349853516,159,7088.0,-36.80107498168945,-540,9984.0
7240,0.3119613826274872,4.046993255615234,46,7088.0,-44.22084045410156,-690,9984.0
7250,0.30938810110092163,-3.435098886489868,-137,7088.0,-54.3195686340332,-870,9984.0
7260,0.30640938878059387,-3.8424224853515625,-18,7088.0,-70.38146209716797,-1165,9984.0
7270,0.3044474124908447,-0.8176637887954712,40,7088.0,-84.7734146118164,-1441,9984.0
7280,0.3001352548599243,0.10179490596055984,-55,7088.0,-80.6239013671875,-1277,9984.0
7290,0.2970333397388458,-7.149815082550049,-203,7088.0,-50.35342788696289,-653,9984.0
7300,0.2961277663707733,-16.273256301879883,-323,7088.0,8.401402473449707,375,9984.0
7310,0.29471608996391296,-21.297855377197266,-283,7088.0,80.62641906738281,1549,9984.0
7320,0.29381921887397766,-17.216609954833984,-337,7088.0,139.84878540039062,2546,9984.0
7330,0.28924891352653503,-9.297171592712402,-126,7088.0,170.12049865722656,2912,9984.0
7340,0.28866517543792725,0.09589462727308273,-5,7088.0,162.2724609375,2599,9984.0
7350,0.2867110073566437,2.9948298931121826,99,7088.0,141.54049682617188,2207,9984.0
7360,0.2847890555858612,4.275786399841309,126,7088.0,103.17084503173828,1305,9984.0
7370,0.28331702947616577,6.918692111968994,68,7088.0,49.874778747558594,394,9984.0
7380,0.2845776677131653,9.667903900146484,219,7088.0,-13.794572830200195,-475,9984.0
7390,0.2845574915409088,11.677586555480957,246,7088.0,-73.99324035644531,-1612,9984.0
7400,0.2855028212070465,12.128812789916992,104,7088.0,-117.35442352294922,-2010,9984.0
7410,0.28588610887527466,7.195132255554199,152,7088.0,-143.81866455078125,-2519,9984.0
7420,0.2833824157714844,1.8940010070800781,-5,7088.0,-162.1932373046875,-2731,9984.0
7430,0.2835525572299957,-8.586756706237793,-234,7088.0,-166.6517791748047,-2609,9984.0
7440,0.28304523229599,-22.552207946777344,-479,7088.0,-146.62841796875,-2273,9984.0
7450,0.2831520140171051,-30.004758834838867,-496,7088.0,-101.0988998413086,-1479,9984.0
7460,0.28360819816589355,-23.366744995117188,-262,7088.0,-44.84125518798828,-381,9984.0
7470,0.28452056646347046,-15.984142303466797,-242,7088.0,19.045516967773438,593,9984.0
7480,0.2863253057003021,-19.10677146911621,-319,7088.0,80.31047821044922,1636,9984.0
7490,0.2893853485584259,-17.482229232788086,-200,7088.0,128.0493927001953,2245,9984.0
7500,0.2893773317337036,-10.882680892944336,-139,7088.0,144.6404266357422,2313,9984.0
7510,0.28717103600502014,-6.606080055236816,-98,7088.0,134.0399169921875,2048,9984.0
7520,0.28775539994239807,7.1122002601623535,103,7088.0,114.28652954101562,1777,9984.0
7530,0.2881738543510437,19.30624008178711,422,7088.0,88.712890625,1335,9984.0
7540,0.2894039452075958,30.31313705444336,450,7088.0,56.19798278808594,758,9984.0
7550,0.2862503230571747,35.60112762451172,695,7088.0,22.31590461730957,176,9984.0
7560,0.28634634613990784,45.299373626708984,767,7088.0,-14.197673797607422,-342,9984.0
7570,0.2862679660320282,45.473915100097656,700,7088.0,-46.06669235229492,-901,9984.0
7580,0.2865239083766937,40.69516372680664,707,7088.0,-85.39715576171875,-1649,9984.0
7590,0.2810087203979492,33.98279571533203,551,7088.0,-114.53031158447266,-2000,9984.0
7600,0.28005027770996094,18.64204216003418,321,7088.0,-116.58516693115234,-1940,9984.0
7610,0.2789246141910553,6.966650009155273,10,7088.0,-94.9490966796875,-1464,9984.0
7620,0.2799043655395508,-7.768226146697998,-239,7088.0,-52.93008041381836,-860,9984.0
7630,0.28026968240737915,-35.0515251159668,-656,7088.0,-5.5253400802612305,-18,9984.0
7640,0.2789427638053894,-52.45779037475586,-906,7088.0,50.76761245727539,1009,9984.0
7650,0.2789221405982971,-58.558650970458984,-921,7088.0,110.00492095947266,2004,9984.0
7660,0.2793959975242615,-45.443084716796875,-625,7088.0,160.1427764892578,2701,9984.0
7670,0.2801392078399658,-21.578113555908203,-166,7088.0,184.4219207763672,3042,9984.0
7680,0.2757501006126404,8.260414123535156,253,7088.0,176.80604553222656,2889,9984.0
7690,0.27560165524482727,22.829410552978516,394,7088.0,146.34201049804688,2134,9984.0
7700,0.27510401606559753,23.50435447692871,324,7088.0,97.00807189941406,1425,9984.0
7710,0.2773262560367584,23.44458770751953,438,7088.0,33.11317825317383,157,9984.0
7720,0.27753856778144836,19.855093002319336,300,7088.0,-37.12293243408203,-833,9984.0
7730,0.2748304307460785,12.453658103942871,104,7088.0,-88.69888305664062,-1717,9984.0
7740,0.27531886100769043,3.0797479152679443,61,7088.0,-129.92044067382812,-2154,9984.0
7750,0.27572470903396606,-6.091754913330078,-152,7088.0,-149.9178924560547,-2412,9984.0
7760,0.2758118212223053,-7.636721611022949,-76,7088.0,-151.01393127441406,-2437,9984.0
7770,0.2725428640842438,7.206911563873291,276,7088.0,-123.38544464111328,-1877,9984.0
7780,0.272210955619812,29.456443786621094,554,7088.0,-75.98748016357422,-997,9984.0
7790,0.27484381198883057,27.452396392822266,402,7088.0,-9.160589218139648,147,9984.0
7800,0.27574247121810913,11.295426368713379,75,7088.0,51.148773193359375,1036,9984.0
7810,0.2733636498451233,-7.925131797790527,-300,7088.0,88.37433624267578,1597,9984.0
7820,0.27336615324020386,-27.143707275390625,-576,7088.0,100.86897277832031,1799,9984.0
7830,0.2740815579891205,-40.95559310913086,-737,7088.0,99.90399932861328,1586,9984.0
7840,0.2737005352973938,-42.8382568359375,-631,7088.0,86.8126220703125,1280,9984.0
7850,0.27302539348602295,-38.57965850830078,-599,7088.0,60.52906799316406,890,9984.0
7860,0.2694414556026459,-31.44049644470215,-395,7088.0,25.3936710357666,201,9984.0
7870,0.2692059874534607,-20.65835952758789,-429,7088.0,-12.756933212280273,-392,9984.0
7880,0.268088161945343,-11.301559448242188,-64,7088.0,-55.01743698120117,-1052,9984.0
7890,0.2668788433074951,-0.2287846803665161,39,7088.0,-87.65452575683594,-1492,9984.0
7900,0.26295337080955505,2.701932191848755,95,7088.0,-106.2306900024414,-1898,9984.0
7910,0.261609822511673,8.320481300354004,212,7088.0,-96.9054946899414,-1486,9984.0
7920,0.26002806425094604,15.411664009094238,232,7088.0,-65.24471282958984,-887,9984.0
7930,0.2597518265247345,25.052410125732422,414,7088.0,-19.627046585083008,-180,9984.0
7940,0.257797509431839,28.075998306274414,473,7088.0,26.77242660522461,577,9984.0
7950,0.2569409906864166,20.091705322265625,388,7088.0,69.39710998535156,1340,9984.0
7960,0.25572821497917175,13.553389549255371,160,7088.0,101.75480651855469,1842,9984.0
7970,0.2547919750213623,6.980097770690918,50,7088.0,115.30298614501953,1871,9984.0
7980,0.2536677122116089,8.313742637634277,217,7088.0,109.54912567138672,1745,9984.0
7990,0.25130730867385864,12.360347747802734,152,7088.0,93.6526870727539,1481,9984.0
8000,0.25142884254455566,14.101285934448242,235,7088.0,69.07255554199219,889,9984.0
8010,0.25034764409065247,5.197144031524658,-97,7088.0,26.753040313720703,158,9984.0
8020,0.24987952411174774,-2.621894359588623,-59,7088.0,-17.928834915161133,-494,9984.0
8030,0.2487993836402893,-8.892131805419922,-229,7088.0,-51.261627197265625,-1004,9984.0
8040,0.24803906679153442,-10.965521812438965,-99,7088.0,-76.91727447509766,-1393,9984.0
8050,0.24741466343402863,-4.207704067230225,-95,7088.0,-98.15852355957031,-1520,9984.0
8060,0.24685679376125336,2.6817092895507812,176,7088.0,-90.0588607788086,-1419,9984.0
8070,0.24744556844234467,14.246267318725586,288,7088.0,-57.45869445800781,-677,9984.0
8080,0.24688616394996643,13.714293479919434,73,7088.0,-11.616683006286621,200,9984.0
8090,0.248159721493721,-1.7490283250808716,-126,7088.0,28.171323776245117,573,9984.0
8100,0.24918927252292633,-10.165056228637695,-157,7088.0,51.7186393737793,876,9984.0
8110,0.25004786252975464,-17.067726135253906,-284,7088.0,64.99961853027344,1168,9984.0
8120,0.2498011738061905,-20.40964698791504,-303,7088.0,70.91496276855469,1005,9984.0
8130,0.25057730078697205,-14.652060508728027,-176,7088.0,71.16004943847656,1103,9984.0
8140,0.2514214515686035,-9.756134986877441,-171,7088.0,65.83807373046875,976,9984.0
8150,0.2520124316215515,-3.168247938156128,38,7088.0,51.2163200378418,656,9984.0
8160,0.2538304924964905,1.8206502199172974,50,7088.0,20.128759384155273,194,9984.0
8170,0.25224828720092773,7.425243854522705,117,7088.0,-18.819412231445312,-573,9984.0
8180,0.2528744339942932,14.136240005493164,232,7088.0,-57.7541618347168,-910,9984.0
8190,0.2534293234348297,17.831680297851562,255,7088.0,-84.65937805175781,-1458,9984.0
8200,0.25408896803855896,17.21424674987793,337,7088.0,-101.21289825439453,-1740,9984.0
8210,0.25204625725746155,4.439268112182617,27,7088.0,-95.42972564697266,-1473,9984.0
8220,0.2524201571941376,-8.003168106079102,-236,7088.0,-69.821044921875,-918,9984.0
8230,0.2533714175224304,-9.421092987060547,-165,7088.0,-26.17159080505371,-193,9984.0
8240,0.2539560794830322,-8.380062103271484,-129,7088.0,11.484621047973633,371,9984.0
8250,0.2513156533241272,-12.82846450805664,-137,7088.0,43.842803955078125,779,9984.0
8260,0.2518945336341858,-11.589348793029785,-96,7088.0,57.449607849121094,990,9984.0
8270,0.25220176577568054,-7.518027305603027,-125,7088.0,59.942378997802734,1104,9984.0
8280,0.252743124961853,-3.8101539611816406,-70,7088.0,60.22636032104492,931,9984.0
8290,0.2529138922691345,0.1959047168493271,73,7088.0,55.898468017578125,972,9984.0
8300,0.25170987844467163,11.911676406860352,196,7088.0,43.08876037597656,531,9984.0
8310,0.25164520740509033,21.925798416137695,392,7088.0,20.520334243774414,180,9984.0
8320,0.25130850076675415,29.07160758972168,462,7088.0,5.881289005279541,116,9984.0
8330,0.25148048996925354,37.06378173828125,668,7088.0,-12.924670219421387,-373,9984.0
8340,0.2510627508163452,28.73488998413086,396,7088.0,-36.93918991088867,-628,9984.0
8350,0.25131598114967346,11.716862678527832,65,7088.0,-56.525814056396484,-994,9984.0
8360,0.25073736906051636,1.1465502977371216,36,7088.0,-60.74668502807617,-1064,9984.0
8370,0.2513134777545929,-11.056049346923828,-257,7088.0,-51.33528137207031,-731,9984.0
8380,0.25110581517219543,-25.9912109375,-468,7088.0,-25.2707576751709,-224,9984.0
8390,0.2512040436267853,-36.71609115600586,-686,7088.0,19.50699234008789,457,9984.0
8400,0.2517702877521515,-42.086524963378906,-618,7088.0,63.21397018432617,1146,9984.0
8410,0.25245919823646545,-36.381011962890625,-551,7088.0,84.37533569335938,1531,9984.0
8420,0.2522863745689392,-21.067598342895508,-206,7088.0,86.80555725097656,1230,9984.0
8430,0.2513394355773926,-0.713813066482544,-15,7088.0,66.45539093017578,913,9984.0
8440,0.25121253728866577,14.748958587646484,329,7088.0,34.91228103637695,421,9984.0
8450,0.25176313519477844,30.60963249206543,503,7088.0,1.4082285165786743,-187,9984.0
8460,0.2515096664428711,40.28807830810547,664,7088.0,-28.175260543823242,-463,9984.0
8470,0.25313234329223633,42.23673629760742,643,7088.0,-59.1646728515625,-1120,9984.0
8480,0.2526051104068756,33.42286682128906,528,7088.0,-81.2184066772461,-1415,9984.0
8490,0.25306305289268494,18.27900505065918,219,7088.0,-86.11682891845703,-1323,9984.0
8500,0.2528071999549866,7.587666034698486,22,7088.0,-80.09021759033203,-1290,9984.0
8510,0.2523525357246399,-1.905566692352295,-59,7088.0,-59.3555908203125,-893,9984.0
8520,0.25021153688430786,-14.777177810668945,-313,7088.0,-28.14957046508789,-240,9984.0
8530,0.25095754861831665,-26.93003273010254,-543,7088.0,7.5028862953186035,353,9984.0
8540,0.25163522362709045,-32.09973907470703,-570,7088.0,35.9033088684082,633,9984.0
8550,0.2519083023071289,-28.737043380737305,-370,7088.0,61.30078125,1053,9984.0
8560,0.24928267300128937,-20.40807342529297,-344,7088.0,77.40585327148438,1309,9984.0
8570,0.24986344575881958,-8.138876914978027,38,7088.0,80.37461853027344,1276,9984.0
8580,0.2501542568206787,6.316005706787109,123,7088.0,74.8821792602539,1215,9984.0
8590,0.2502681016921997,15.740913391113281,394,7088.0,59.17125701904297,935,9984.0
8600,0.25091180205345154,29.35126495361328,514,7088.0,34.33324432373047,335,9984.0
8610,0.2513137757778168,34.28752517700195,538,7088.0,3.032505512237549,-78,9984.0
8620,0.25172850489616394,29.940214157104492,447,7088.0,-34.7828254699707,-737,9984.0
8630,0.251697301864624,18.108858108520508,186,7088.0,-68.71280670166016,-1162,9984.0
8640,0.25141939520835876,14.408514976501465,231,7088.0,-94.54582977294922,-1693,9984.0
8650,0.25175991654396057,9.963189125061035,139,7088.0,-105.650634765625,-1618,9984.0
8660,0.2543152868747711,4.734923362731934,-8,7088.0,-102.95616149902344,-1600,9984.0
8670,0.2541438639163971,-2.8750290870666504,-83,7088.0,-82.26832580566406,-1209,9984.0
8680,0.2544373869895935,-14.454411506652832,-281,7088.0,-40.99396514892578,-471,9984.0
8690,0.25242525339126587,-29.302453994750977,-558,7088.0,6.321723461151123,423,9984.0
8700,0.2545533776283264,-34.5968017578125,-590,7088.0,49.19343566894531,989,9984.0
8710,0.2553623616695404,-27.44384002685547,-378,7088.0,74.3038330078125,1260,9984.0
8720,0.2559630274772644,-17.10907745361328,-193,7088.0,84.70103454589844,1528,9984.0
8730,0.256488561630249,-4.416051387786865,15,7088.0,84.5984115600586,1186,9984.0
8740,0.25267449021339417,9.968462944030762,199,7088.0,68.71131134033203,1104,9984.0
8750,0.25262102484703064,22.345340728759766,531,7088.0,55.74683380126953,681,9984.0
8760,0.2527349889278412,35.413856506347656,546,7088.0,31.921152114868164,411,9984.0
8770,0.2528589069843292,44.123538970947266,742,7088.0,6.828280448913574,-50,9984.0
8780,0.24928298592567444,40.80242156982422,535,7088.0,-16.424043655395508,-343,9984.0
8790,0.24918223917484283,28.402057647705078,399,7088.0,-33.57008743286133,-707,9984.0
8800,0.24888131022453308,16.00476837158203,286,7088.0,-47.542205810546875,-863,9984.0
8810,0.24892278015613556,1.1462533473968506,-93,7088.0,-50.55691146850586,-697,9984.0
8820,0.2489318996667862,-16.7591495513916,-390,7088.0,-32.44409942626953,-480,9984.0
8830,0.24775521457195282,-28.64002799987793,-442,7088.0,-8.146576881408691,-58,9984.0
8840,0.24806256592273712,-32.49097442626953,-565,7088.0,19.952425003051758,501,9984.0
8850,0.2484418749809265,-34.94529724121094,-554,7088.0,44.08823776245117,807,9984.0
8860,0.24969296157360077,-29.306053161621094,-402,7088.0,56.664737701416016,918,9984.0
8870,0.24553097784519196,-17.66325569152832,-298,7088.0,55.9959716796875,830,9984.0
8880,0.24581992626190186,-1.9898537397384644,112,7088.0,52.66098403930664,864,9984.0
8890,0.24609798192977905,13.397087097167969,247,7088.0,45.58661651611328,548,9984.0
8900,0.24657222628593445,28.76152229309082,458,7088.0,21.334083557128906,310,9984.0
8910,0.24529868364334106,28.890371322631836,524,7088.0,-0.5912501215934753,-199,9984.0
8920,0.24540695548057556,29.085594177246094,370,7088.0,-27.8151912689209,-585,9984.0
8930,0.24526964128017426,22.693172454833984,370,7088.0,-52.586509704589844,-930,9984.0
8940,0.24555723369121552,13.938326835632324,174,7088.0,-67.34257507324219,-1015,9984.0
8950,0.24548274278640747,12.14651870727539,222,7088.0,-68.00104522705078,-1212,9984.0
8960,0.24183432757854462,11.832568168640137,220,7088.0,-55.709842681884766,-791,9984.0
8970,0.2423151582479477,3.720118761062622,-77,7088.0,-24.811473846435547,-142,9984.0
8980,0.2432226985692978,-12.848185539245605,-340,7088.0,16.636455535888672,380,9984.0
8990,0.24365752935409546,-38.1432991027832,-662,7088.0,46.91501235961914,901,9984.0
9000,0.24325081706047058,-42.270633697509766,-715,7088.0,54.0380744934082,854,9984.0
9010,0.24362735450267792,-26.534820556640625,-256,7088.0,48.96404266357422,740,9984.0
9020,0.2443515509366989,-2.423251152038574,4,7088.0,32.794090270996094,433,9984.0
9030,0.24509339034557343,17.00766372680664,436,7088.0,15.05663776397705,257,9984.0
9040,0.2417348027229309,35.836647033691406,590,7088.0,6.123843669891357,28,9984.0
9050,0.24174924194812775,41.80242919921875,758,7088.0,0.5618526935577393,-16,9984.0
9060,0.24175620079040527,38.22571563720703,565,7088.0,-3.4190683364868164,-25,9984.0
9070,0.2419973909854889,26.485923767089844,370,7088.0,-9.739280700683594,-254,9984.0
9080,0.2420034110546112,11.108922958374023,111,7088.0,-15.028789520263672,-242,9984.0
9090,0.24074186384677887,-9.009858131408691,-290,7088.0,-20.727380752563477,-251,9984.0
9100,0.24123194813728333,-26.111106872558594,-529,7088.0,-23.532861709594727,-416,9984.0
9110,0.2413586527109146,-37.29010772705078,-588,7088.0,-24.16025733947754,-407,9984.0
9120,0.2417132556438446,-40.03646469116211,-654,7088.0,-19.24308967590332,-203,9984.0
9130,0.24027808010578156,-36.61268997192383,-632,7088.0,4.554980754852295,272,9984.0
9140,0.24103444814682007,-36.21221160888672,-639,7088.0,30.450973510742188,565,9984.0
9150,0.24156227707862854,-44.36051940917969,-656,7088.0,43.94729995727539,749,9984.0
9160,0.2419915497303009,-41.133636474609375,-698,7088.0,49.629215240478516,854,9984.0
9170,0.24175876379013062,-37.862220764160156,-473,7088.0,55.43049240112305,906,9984.0
9180,0.24205540120601654,-10.536959648132324,-45,7088.0,52.36272048950195,818,9984.0
9190,0.24251721799373627,29.750926971435547,697,7088.0,37.71471405029297,517,9984.0
9200,0.24223655462265015,49.20328903198242,760,7088.0,19.05344581604004,251,9984.0
9210,0.24211707711219788,44.55878448486328,742,7088.0,6.174787521362305,50,9984.0
9220,0.2432498037815094,34.77391815185547,489,7088.0,-10.989083290100098,-317,9984.0
9230,0.24329864978790283,31.50933265686035,599,7088.0,-35.103633880615234,-802,9984.0
9240,0.24307356774806976,28.612337112426758,322,7088.0,-69.1802978515625,-1124,9984.0
9250,0.24309340119361877,9.288033485412598,43,7088.0,-82.3839111328125,-1386,9984.0
9260,0.2435888797044754,-14.728334426879883,-279,7088.0,-81.84822845458984,-1353,9984.0
9270,0.2447778433561325,-27.90132713317871,-482,7088.0,-67.84590911865234,-881,9984.0
9280,0.24533571302890778,-28.905746459960938,-455,7088.0,-37.92219924926758,-460,9984.0
9290,0.2460431456565857,-18.812509536743164,-316,7088.0,-17.642839431762695,-152,9984.0
9300,0.24706090986728668,-15.701322555541992,-67,7088.0,19.85363006591797,414,9984.0
9310,0.24580428004264832,-2.4764163494110107,34,7088.0,50.5069694519043,1090,9984.0
9320,0.24646882712841034,5.04713773727417,26,7088.0,78.30648803710938,1393,9984.0
9330,0.24688608944416046,1.3561089038848877,-73,7088.0,74.89222717285156,1114,9984.0
9340,0.24754899740219116,-20.23337745666504,-457,7088.0,56.97883605957031,799,9984.0
9350,0.2476435750722885,-40.90000915527344,-821,7088.0,27.60991096496582,258,9984.0
9360,0.2490328699350357,-57.88182067871094,-1008,7088.0,2.1256072521209717,-109,9984.0
9370,0.24975113570690155,-65.92926788330078,-1093,7088.0,-22.052120208740234,-457,9984.0
9380,0.25048908591270447,-57.83424758911133,-860,7088.0,-45.917118072509766,-1001,9984.0
9390,0.25002238154411316,-43.237701416015625,-531,7088.0,-68.92195892333984,-1106,9984.0
9400,0.2519253194332123,-16.869403839111328,-189,7088.0,-70.69424438476562,-1178,9984.0
9410,0.2525801360607147,0.042582832276821136,88,7088.0,-61.039058685302734,-839,9984.0
9420,0.25338131189346313,4.004054069519043,79,7088.0,-44.02907180786133,-510,9984.0
9430,0.2554255723953247,4.375835418701172,105,7088.0,-17.185028076171875,-199,9984.0
9440,0.2565844655036926,6.000375270843506,84,7088.0,13.126888275146484,325,9984.0
9450,0.25865110754966736,6.087705135345459,148,7088.0,40.3310546875,691,9984.0
9460,0.2601907253265381,3.7525978088378906,69,7088.0,52.86483383178711,976,9984.0
9470,0.2619016170501709,9.925273895263672,168,7088.0,60.99684143066406,1043,9984.0
9480,0.2604353129863739,20.68582534790039,419,7088.0,59.06803894042969,857,9984.0
9490,0.26148363947868347,22.831567764282227,384,7088.0,47.5130615234375,666,9984.0
9500,0.26239901781082153,19.580663681030273,222,7088.0,22.434682846069336,345,9984.0
9510,0.2633175849914551,11.445255279541016,172,7088.0,1.4299890995025635,-165,9984.0
9520,0.2642116844654083,13.359509468078613,266,7088.0,-4.330793857574463,-63,9984.0
9530,0.26407673954963684,20.62213897705078,293,7088.0,-3.4070422649383545,83,9984.0
9540,0.2646903693675995,22.36150360107422,316,7088.0,-1.863952875137329,40,9984.0
9550,0.26535364985466003,25.18379020690918,427,7088.0,-4.417898178100586,-134,9984.0
9560,0.2656864523887634,18.72719383239746,312,7088.0,-10.85169506072998,-307,9984.0
9570,0.266770601272583,1.1413248777389526,-3,7088.0,-20.91557502746582,-382,9984.0
9580,0.26744046807289124,-18.3768310546875,-356,7088.0,-26.35478973388672,-388,9984.0
9590,0.268037885427475,-37.535919189453125,-751,7088.0,-14.964137077331543,-107,9984.0
9600,0.2687646746635437,-47.69512939453125,-836,7088.0,13.995991706848145,437,9984.0
9610,0.267253041267395,-46.09321212768555,-759,7088.0,40.69940185546875,708,9984.0
9620,0.26801639795303345,-38.975345611572266,-570,7088.0,58.22630310058594,838,9984.0
9630,0.2685210108757019,-28.291351318359375,-335,7088.0,65.39095306396484,1115,9984.0
9640,0.26901906728744507,-13.61420726776123,-210,7088.0,51.75367736816406,772,9984.0
9650,0.27009400725364685,5.211306571960449,268,7088.0,26.348697662353516,271,9984.0
9660,0.2700410783290863,21.75910758972168,365,7088.0,-0.7086626887321472,-27,9984.0
9670,0.2700571119785309,28.02299690246582,537,7088.0,-22.917329788208008,-555,9984.0
9680,0.26998087763786316,29.40707015991211,469,7088.0,-40.37202453613281,-603,9984.0
9690,0.26978689432144165,26.158784866333008,403,7088.0,-48.360904693603516,-839,9984.0
9700,0.2713102102279663,19.106653213500977,335,7088.0,-42.16417694091797,-696,9984.0
9710,0.27104318141937256,13.7086181640625,194,7088.0,-29.020004272460938,-313,9984.0
9720,0.2709190845489502,3.8074867725372314,5,7088.0,-11.728736877441406,-111,9984.0
9730,0.27101263403892517,-6.478311061859131,-79,7088.0,-2.576997995376587,-160,9984.0
9740,0.2730650007724762,-10.107627868652344,-95,7088.0,2.1440048217773438,104,9984.0
9750,0.27337324619293213,-9.260048866271973,-189,7088.0,7.060912609100342,269,9984.0
9760,0.27411025762557983,1.1685330867767334,49,7088.0,22.19389533996582,466,9984.0
9770,0.2748488187789917,14.815520286560059,385,7088.0,46.84273147583008,822,9984.0
9780,0.27576711773872375,23.766653060913086,402,7088.0,63.7691650390625,1104,9984.0
9790,0.27800196409225464,18.99650764465332,237,7088.0,61.10145950317383,976,9984.0
9800,0.2789152264595032,18.3582820892334,319,7088.0,37.12973403930664,366,9984.0
9810,0.2798314094543457,15.967833518981934,263,7088.0,1.6747262477874756,-138,9984.0
9820,0.2805180847644806,2.843555450439453,-31,7088.0,-35.49214172363281,-652,9984.0
9830,0.2833670973777771,-2.6145427227020264,-88,7088.0,-56.730316162109375,-958,9984.0
9840,0.28380244970321655,-2.1743743419647217,-70,7088.0,-58.14125061035156,-922,9984.0
9850,0.28487297892570496,-3.0780129432678223,14,7088.0,-45.766788482666016,-747,9984.0
9860,0.28556910157203674,-2.423776388168335,17,7088.0,-26.66141700744629,-401,9984.0
9870,0.28651419281959534,-4.356464862823486,-28,7088.0,-10.067831993103027,-246,9984.0
9880,0.28742361068725586,-8.283103942871094,-133,7088.0,-3.9355978965759277,32,9984.0
9890,0.2883818745613098,-11.367226600646973,-226,7088.0,-2.738581895828247,-1,9984.0
9900,0.2895911931991577,-11.364422798156738,-302,7088.0,-3.1276068687438965,37,9984.0
9910,0.2907141447067261,-17.67466163635254,-398,7088.0,3.2139711380004883,114,9984.0
9920,0.2928139269351959,-25.311548233032227,-481,7088.0,-1.8478617668151855,70,9984.0
9930,0.2942282557487488,-15.008025169372559,-184,7088.0,10.450364112854004,423,9984.0
9940,0.29557767510414124,10.171682357788086,164,7088.0,40.2110481262207,913,9984.0
9950,0.29695799946784973,25.741641998291016,427,7088.0,56.91939163208008,1086,9984.0
9960,0.29813042283058167,28.32970428466797,351,7088.0,61.45043182373047,943,9984.0
9970,0.29961782693862915,26.429752349853516,420,7088.0,43.878883361816406,542,9984.0
9980,0.3002932071685791,19.480199813842773,326,7088.0,23.730619430541992,259,9984.0
9990,0.30113691091537476,12.188199996948242,195,7088.0,5.732161521911621,-184,9984.0
10000,0.3016369044780731,-1.459905743598938,-36,7088.0,-22.27326774597168,-584,9984.0
10010,0.3036268353462219,-24.20613670349121,-478,7088.0,-44.849517822265625,-880,9984.0
10020,0.3038265109062195,-43.54010009765625,-740,7088.0,-66.71592712402344,-1205,9984.0
10030,0.303925096988678,-48.76179122924805,-760,7088.0,-81.9672622680664,-1380,9984.0
10040,0.30392953753471375,-34.198299407958984,-520,7088.0,-94.87892150878906,-1519,9984.0
10050,0.3042830228805542,-16.38316535949707,-233,7088.0,-93.67076873779297,-1535,9984.0
10060,0.3053832948207855,-5.3659515380859375,-40,7088.0,-84.26052856445312,-1149,9984.0
10070,0.3057118356227875,8.832378387451172,222,7088.0,-52.35075759887695,-762,9984.0
10080,0.306326299905777,22.432769775390625,291,7088.0,-21.864669799804688,-306,9984.0
10090,0.30719736218452454,18.455957412719727,230,7088.0,21.9014892578125,453,9984.0
10100,0.307077020406723,3.3829195499420166,-43,7088.0,66.21891784667969,1129,9984.0
10110,0.30776920914649963,-14.593230247497559,-264,7088.0,92.05469512939453,1524,9984.0
10120,0.3081360459327698,-22.270753860473633,-338,7088.0,104.6989974975586,1781,9984.0
10130,0.3081996738910675,-21.102277755737305,-366,7088.0,98.92413330078125,1579,9984.0
10140,0.30808451771736145,-7.6438727378845215,-198,7088.0,67.51164245605469,1001,9984.0
10150,0.3082716464996338,3.4305388927459717,160,7088.0,30.606998443603516,244,9984.0
10160,0.3085123896598816,13.205328941345215,215,7088.0,-13.682900428771973,-323,9984.0
10170,0.30876341462135315,11.640714645385742,116,7088.0,-53.84042739868164,-1093,9984.0
10180,0.3083049952983856,5.34037971496582,138,7088.0,-83.29686737060547,-1455,9984.0
10190,0.3081032335758209,12.8836088180542,244,7088.0,-102.1669692993164,-1736,9984.0
10200,0.30773842334747314,25.887531280517578,449,7088.0,-121.3218765258789,-2014,9984.0
10210,0.3072795271873474,37.192378997802734,677,7088.0,-127.53350830078125,-2134,9984.0
10220,0.3098946511745453,46.271541595458984,858,7088.0,-98.88382720947266,-1428,9984.0
10230,0.30718493461608887,49.911861419677734,823,7088.0,-48.44614028930664,-680,9984.0
10240,0.3080269694328308,27.04917335510254,319,7088.0,-16.874608993530273,-197,9984.0
10250,0.3084530234336853,-8.92505931854248,-293,7088.0,15.086392402648926,322,9984.0
10260,0.3091910183429718,-31.260196685791016,-537,7088.0,50.764713287353516,876,9984.0
10270,0.30685001611709595,-33.19281768798828,-466,7088.0,83.3460464477539,1486,9984.0
10280,0.30701693892478943,-20.466283798217773,-255,7088.0,105.32774353027344,1720,9984.0
10290,0.3070467710494995,-7.816835403442383,-125,7088.0,102.96395111083984,1737,9984.0
10300,0.3077331781387329,0.16665929555892944,-62,7088.0,83.00224304199219,1235,9984.0
10310,0.30760058760643005,6.06685733795166,228,7088.0,53.32731246948242,688,9984.0
10320,0.3039802610874176,15.984469413757324,262,7088.0,13.930879592895508,110,9984.0
10330,0.3037686049938202,19.91293716430664,287,7088.0,-30.252351760864258,-726,9984.0
10340,0.3036927878856659,20.100627899169922,387,7088.0,-61.273746490478516,-1091,9984.0
10350,0.30344322323799133,18.60942840576172,293,7088.0,-71.83165740966797,-1077,9984.0
10360,0.30156248807907104,27.62525177001953,432,7088.0,-74.33992004394531,-1111,9984.0
10370,0.3013514578342438,37.94956588745117,627,7088.0,-48.03114318847656,-582,9984.0
10380,0.30222564935684204,48.39385986328125,855,7088.0,-9.126410484313965,-92,9984.0
10390,0.3028247654438019,48.992462158203125,816,7088.0,17.700679779052734,383,9984.0
10400,0.30154386162757874,30.73940086364746,413,7088.0,48.672569274902344,893,9984.0
10410,0.30203676223754883,-3.5478594303131104,-185,7088.0,63.00140380859375,963,9984.0
10420,0.3027872145175934,-38.65798568725586,-731,7088.0,62.92472839355469,944,9984.0
10430,0.30343732237815857,-63.15380096435547,-992,7088.0,58.242740631103516,878,9984.0
10440,0.30367591977119446,-64.21804809570312,-1033,7088.0,43.013729095458984,700,9984.0
10450,0.30350545048713684,-50.359615325927734,-839,7088.0,15.720080375671387,165,9984.0
10460,0.30384740233421326,-32.541358947753906,-378,7088.0,-13.565589904785156,-378,9984.0
10470,0.30504173040390015,-8.088924407958984,-50,7088.0,-32.69561004638672,-540,9984.0
10480,0.30580416321754456,7.508371829986572,163,7088.0,-47.8482551574707,-788,9984.0
10490,0.3040207326412201,25.771169662475586,488,7088.0,-46.12302017211914,-774,9984.0
10500,0.3050214648246765,48.44590377807617,980,7088.0,-33.30587387084961,-507,9984.0
10510,0.30631351470947266,78.40287017822266,1449,7088.0,-19.295082092285156,-289,9984.0
10520,0.30727076530456543,86.29107666015625,1375,7088.0,-2.7870237827301025,62,9984.0
10530,0.30827224254608154,65.54893493652344,829,7088.0,25.633079528808594,543,9984.0
10540,0.30746668577194214,21.902587890625,224,7088.0,41.83164596557617,641,9984.0
10550,0.30843386054039,-14.559171676635742,-406,7088.0,53.08259582519531,872,9984.0
10560,0.3090924918651581,-44.968013763427734,-805,7088.0,56.05799865722656,867,9984.0
10570,0.3097423017024994,-58.24882888793945,-1031,7088.0,44.14979553222656,655,9984.0
10580,0.3083522617816925,-73.0132827758789,-1252,7088.0,21.119003295898438,317,9984.0
10590,0.3091265857219696,-74.73979187011719,-1274,7088.0,-2.1345267295837402,-119,9984.0
10600,0.30931350588798523,-64.4837646484375,-972,7088.0,-24.709413528442383,-604,9984.0
10610,0.30960679054260254,-45.64254379272461,-555,7088.0,-43.66051483154297,-815,9984.0
10620,0.30835238099098206,-28.669225692749023,-383,7088.0,-58.44562911987305,-971,9984.0
10630,0.3086981177330017,-8.237067222595215,-106,7088.0,-57.93879699707031,-757,9984.0
10640,0.3087572455406189,10.067322731018066,215,7088.0,-45.142738342285156,-732,9984.0
10650,0.30937033891677856,24.82984161376953,538,7088.0,-33.41758728027344,-567,9984.0
10660,0.3099031448364258,34.20134735107422,633,7088.0,-17.929529190063477,-86,9984.0
10670,0.309018611907959,28.943471908569336,465,7088.0,23.586427688598633,638,9984.0
10680,0.30971458554267883,20.31551170349121,362,7088.0,64.47073364257812,1072,9984.0
10690,0.31030958890914917,9.88260555267334,63,7088.0,79.03681182861328,1387,9984.0
10700,0.3108445107936859,-11.142656326293945,-305,7088.0,85.86711120605469,1484,9984.0
10710,0.3096300959587097,-24.861570358276367,-426,7088.0,73.87555694580078,1117,9984.0
10720,0.31122887134552,-23.673274993896484,-453,7088.0,40.65589141845703,495,9984.0
10730,0.3117090165615082,-23.637239456176758,-306,7088.0,9.651338577270508,12,9984.0
10740,0.3120776116847992,-21.871381759643555,-332,7088.0,-18.261117935180664,-458,9984.0
10750,0.31276822090148926,-11.762541770935059,-121,7088.0,-53.080230712890625,-929,9984.0
10760,0.31045207381248474,-0.6529959440231323,-29,7088.0,-82.79521179199219,-1435,9984.0
10770,0.31082940101623535,13.408547401428223,326,7088.0,-98.60765838623047,-1671,9984.0
10780,0.311099648475647,20.551082611083984,430,7088.0,-101.0113754272461,-1652,9984.0
10790,0.3112297058105469,22.3837833404541,421,7088.0,-85.3051528930664,-1276,9984.0
10800,0.31202542781829834,28.405563354492188,452,7088.0,-46.82310485839844,-440,9984.0
10810,0.3128316402435303,35.126102447509766,479,7088.0,2.4090213775634766,196,9984.0
10820,0.31363430619239807,20.0736083984375,207,7088.0,32.98876953125,691,9984.0
10830,0.3146737813949585,0.29929614067077637,-74,7088.0,54.93044662475586,1063,9984.0
10840,0.3129529356956482,-6.105338096618652,-129,7088.0,67.60118103027344,1156,9984.0
10850,0.31333550810813904,-4.350515842437744,-54,7088.0,65.96493530273438,1034,9984.0
10860,0.31348100304603577,-0.6979212164878845,-3,7088.0,53.99932098388672,706,9984.0
10870,0.3138996958732605,-9.76803970336914,-106,7088.0,34.772216796875,511,9984.0
10880,0.3145188093185425,-11.59414005279541,-287,7088.0,4.024747848510742,-125,9984.0
10890,0.3143504559993744,-20.031217575073242,-305,7088.0,-41.396873474121094,-930,9984.0
10900,0.31461137533187866,-23.0108642578125,-326,7088.0,-73.56787109375,-1272,9984.0
10910,0.31474772095680237,-22.184602737426758,-416,7088.0,-100.07234954833984,-1667,9984.0
10920,0.31589892506599426,-16.6474666595459,-282,7088.0,-118.25518798828125,-1983,9984.0
10930,0.31315040588378906,-12.413649559020996,-172,7088.0,-127.99992370605469,-2198,9984.0
10940,0.3131086230278015,-7.534120559692383,-31,7088.0,-109.81029510498047,-1667,9984.0
10950,0.3131807744503021,-0.9108964204788208,31,7088.0,-73.379638671875,-964,9984.0
10960,0.31370308995246887,10.136312484741211,155,7088.0,-31.998014450073242,-262,9984.0
10970,0.3160093128681183,14.923979759216309,174,7088.0,13.03837776184082,501,9984.0
10980,0.31543785333633423,12.463824272155762,167,7088.0,51.277225494384766,990,9984.0
10990,0.3162596821784973,7.0914788246154785,137,7088.0,80.71484375,1365,9984.0
11000,0.31706172227859497,4.726499557495117,181,7088.0,101.54985809326172,1676,9984.0
11010,0.3174936771392822,5.3145222663879395,143,7088.0,105.32778930664062,1681,9984.0
11020,0.3167590796947479,7.355151176452637,104,7088.0,86.61963653564453,1359,9984.0
11030,0.3171002268791199,8.124170303344727,77,7088.0,53.93196487426758,650,9984.0
11040,0.3174925446510315,3.6403160095214844,107,7088.0,19.96009063720703,220,9984.0
11050,0.3177449703216553,-1.9927030801773071,-138,7088.0,-10.935702323913574,-222,9984.0
11060,0.31872737407684326,-9.431022644042969,-122,7088.0,-34.97502899169922,-747,9984.0
11070,0.31890469789505005,-8.178230285644531,-54,7088.0,-46.59754943847656,-704,9984.0
11080,0.31961002945899963,4.790693759918213,114,7088.0,-40.706687927246094,-547,9984.0
11090,0.320138543844223,26.414199829101562,527,7088.0,-28.91851043701172,-424,9984.0
11100,0.32123205065727234,46.32770538330078,843,7088.0,-1.1724952459335327,96,9984.0
11110,0.32324206829071045,51.035377502441406,838,7088.0,42.353023529052734,815,9984.0
11120,0.3243345022201538,39.99536895751953,679,7088.0,67.05200958251953,1204,9984.0
11130,0.32555264234542847,29.79279136657715,418,7088.0,75.5418701171875,1245,9984.0
11140,0.32636016607284546,21.842092514038086,227,7088.0,65.83684539794922,1123,9984.0
11150,0.3277886211872101,12.14488697052002,90,7088.0,54.16217041015625,832,9984.0
11160,0.3285183906555176,-6.977149963378906,-301,7088.0,28.743467330932617,288,9984.0
11170,0.3295581638813019,-40.82936096191406,-741,7088.0,2.350560426712036,-180,9984.0
11180,0.33002448081970215,-60.100704193115234,-954,7088.0,-20.867534637451172,-490,9984.0
11190,0.3306845426559448,-69.04345703125,-1066,7088.0,-45.399288177490234,-817,9984.0
11200,0.33238622546195984,-62.83682632446289,-1029,7088.0,-64.10413360595703,-1039,9984.0
11210,0.33374738693237305,-46.71967697143555,-745,7088.0,-78.87232971191406,-1274,9984.0
11220,0.3343455493450165,-24.30414581298828,-322,7088.0,-81.15779876708984,-1315,9984.0
11230,0.33575209975242615,0.3784458041191101,144,7088.0,-73.92927551269531,-1162,9984.0
11240,0.3352590799331665,22.481918334960938,513,7088.0,-46.88883590698242,-623,9984.0
11250,0.3366546332836151,32.99808120727539,583,7088.0,6.747777462005615,398,9984.0
11260,0.33793386816978455,30.007427215576172,508,7088.0,45.14276885986328,802,9984.0
11270,0.33941441774368286,20.117115020751953,262,7088.0,66.83367156982422,1100,9984.0
11280,0.33946409821510315,5.345250606536865,77,7088.0,86.16736602783203,1380,9984.0
11290,0.340365469455719,0.4318070113658905,209,7088.0,93.9360580444336,1440,9984.0
11300,0.34184831380844116,19.866331100463867,485,7088.0,81.88089752197266,1129,9984.0
11310,0.3425634801387787,28.400468826293945,532,7088.0,54.773189544677734,671,9984.0
11320,0.34312868118286133,19.579357147216797,134,7088.0,20.01253318786621,73,9984.0
11330,0.34358081221580505,-14.891793251037598,-363,7088.0,-24.612977981567383,-714,9984.0
11340,0.3442739248275757,-37.491825103759766,-724,7088.0,-57.87276077270508,-1173,9984.0
11350,0.344872385263443,-56.33638000488281,-944,7088.0,-87.91834259033203,-1717,9984.0
11360,0.344984769821167,-61.602176666259766,-895,7088.0,-117.81649780273438,-2109,9984.0
11370,0.34197667241096497,-47.43115234375,-594,7088.0,-128.80300903320312,-2116,9984.0
11380,0.3439728319644928,-28.38808822631836,-240,7088.0,-115.27792358398438,-1850,9984.0
11390,0.34506097435951233,4.928839683532715,396,7088.0,-87.30691528320312,-1199,9984.0
11400,0.3459659218788147,38.44652557373047,857,7088.0,-39.48591613769531,-439,9984.0
11410,0.347933828830719,62.42334747314453,1049,7088.0,2.015310764312744,279,9984.0
11420,0.34499379992485046,55.21769714355469,819,7088.0,37.463504791259766,892,9984.0
11430,0.34567707777023315,30.538040161132812,350,7088.0,62.36945724487305,1223,9984.0
11440,0.34620556235313416,2.173898220062256,1,7088.0,90.65349578857422,1569,9984.0
11450,0.3465788662433624,-5.548984050750732,-130,7088.0,100.02010345458984,1665,9984.0
11460,0.3419967591762543,-8.21146297454834,-119,7088.0,93.25596618652344,1374,9984.0
11470,0.3417595624923706,-15.665183067321777,-342,7088.0,66.85920715332031,1015,9984.0
11480,0.3415062427520752,-28.70450782775879,-557,7088.0,35.44709396362305,631,9984.0
11490,0.3412054479122162,-28.913110733032227,-460,7088.0,14.90292739868164,82,9984.0
11500,0.33718451857566833,-21.41603660583496,-185,7088.0,-11.336772918701172,-377,9984.0
11510,0.33656778931617737,-9.947896003723145,-88,7088.0,-41.29465103149414,-795,9984.0
11520,0.336140900850296,1.294553518295288,71,7088.0,-71.91655731201172,-1201,9984.0
11530,0.3358170986175537,27.46474266052246,466,7088.0,-85.25717163085938,-1328,9984.0
11540,0.3363282382488251,49.10287094116211,939,7088.0,-73.3478012084961,-1169,9984.0
11550,0.33218148350715637,69.40985107421875,1201,7088.0,-50.913753509521484,-753,9984.0
11560,0.33207938075065613,67.61618041992188,1152,7088.0,-18.829914093017578,-266,9984.0
11570,0.3321194350719452,53.99969482421875,821,7088.0,7.686167240142822,191,9984.0
11580,0.33339089155197144,26.212696075439453,319,7088.0,26.633543014526367,379,9984.0
11590,0.3303556740283966,-4.25867223739624,-101,7088.0,32.64101028442383,581,9984.0
11600,0.330255389213562,-16.87143325805664,-227,7088.0,34.589385986328125,480,9984.0
11610,0.330147922039032,-13.909247398376465,-117,7088.0,31.461509704589844,443,9984.0
11620,0.33016237616539,2.3492560386657715,201,7088.0,37.517086029052734,632,9984.0
11630,0.3304690420627594,16.556236267089844,316,7088.0,51.80754852294922,897,9984.0
11640,0.3289075195789337,4.114194869995117,0,7088.0,58.63646697998047,972,9984.0
11650,0.3294277787208557,-14.94682788848877,-349,7088.0,50.582515716552734,864,9984.0
11660,0.329734742641449,-29.325075149536133,-637,7088.0,35.39409637451172,552,9984.0
11670,0.3305087685585022,-31.982532501220703,-444,7088.0,11.32325267791748,-75,9984.0
11680,0.3279387056827545,-25.397998809814453,-356,7088.0,-11.238122940063477,-244,9984.0
11690,0.32834145426750183,-22.997764587402344,-307,7088.0,-28.248836517333984,-475,9984.0
11700,0.32886508107185364,-7.882132530212402,-124,7088.0,-34.91847610473633,-466,9984.0
11710,0.3296373188495636,3.0498270988464355,112,7088.0,-24.59027671813965,-392,9984.0
11720,0.3284749984741211,13.666208267211914,291,7088.0,0.37528249621391296,93,9984.0
11730,0.32882165908813477,14.035061836242676,229,7088.0,21.430749893188477,442,9984.0
11740,0.32906052470207214,7.849246978759766,-8,7088.0,33.41339874267578,619,9984.0
11750,0.32938599586486816,-6.279979705810547,-196,7088.0,36.6772575378418,664,9984.0
11760,0.329739511013031,-11.95361328125,-219,7088.0,29.91649055480957,406,9984.0
11770,0.3301592469215393,-17.436098098754883,-229,7088.0,22.836214065551758,283,9984.0
11780,0.33065173029899597,-17.317325592041016,-258,7088.0,8.562653541564941,75,9984.0
11790,0.33105289936065674,-19.2493839263916,-375,7088.0,-11.593256950378418,-235,9984.0
11800,0.3317631483078003,-20.101408004760742,-307,7088.0,-31.77008056640625,-744,9984.0
11810,0.33209750056266785,-12.261393547058105,-97,7088.0,-49.330604553222656,-877,9984.0
11820,0.3328942358493805,-13.851631164550781,-262,7088.0,-50.49784469604492,-749,9984.0
11830,0.33388158679008484,-26.82237434387207,-570,7088.0,-39.860069274902344,-473,9984.0
11840,0.334914892911911,-24.504131317138672,-384,7088.0,-16.506973266601562,-86,9984.0
11850,0.33400478959083557,-6.8052520751953125,-10,7088.0,12.281463623046875,150,9984.0
11860,0.33521682024002075,10.945307731628418,293,7088.0,27.13160514831543,435,9984.0
11870,0.3363170921802521,17.01795196533203,309,7088.0,29.10112953186035,532,9984.0
11880,0.33738628029823303,16.817798614501953,197,7088.0,28.363780975341797,525,9984.0
11890,0.3383133113384247,27.53428840637207,528,7088.0,23.080074310302734,331,9984.0
11900,0.3364045321941376,41.729820251464844,723,7088.0,15.118133544921875,153,9984.0
11910,0.33705830574035645,40.02628707885742,662,7088.0,4.157889366149902,-52,9984.0
11920,0.3377513289451599,25.44526481628418,246,7088.0,-5.458734035491943,-111,9984.0
11930,0.3385068476200104,-1.2364392280578613,-254,7088.0,-10.592809677124023,-184,9984.0
11940,0.33855554461479187,-30.386659622192383,-725,7088.0,-17.360925674438477,-229,9984.0
11950,0.338957816362381,-54.54435348510742,-982,7088.0,-19.07004165649414,-412,9984.0
11960,0.3393583595752716,-63.062843322753906,-1049,7088.0,-28.513240814208984,-555,9984.0
11970,0.33988213539123535,-61.869239807128906,-869,7088.0,-32.65211486816406,-536,9984.0
11980,0.3401714265346527,-48.705047607421875,-585,7088.0,-23.42160415649414,-199,9984.0
11990,0.3398272395133972,-17.10324478149414,-98,7088.0,2.3792264461517334,279,9984.0
12000,0.34124308824539185,21.67953109741211,526,7088.0,16.468969345092773,259,9984.0
12010,0.342033714056015,53.76036071777344,1051,7088.0,19.606782913208008,244,9984.0
12020,0.3431391716003418,69.36544799804688,1183,7088.0,18.16567611694336,294,9984.0
12030,0.34055760502815247,65.6007080078125,901,7088.0,13.95974063873291,218,9984.0
12040,0.34135937690734863,44.56605529785156,594,7088.0,0.9283126592636108,7,9984.0
12050,0.34167248010635376,35.375335693359375,444,7088.0,-8.71965503692627,-110,9984.0
12060,0.3423928916454315,26.727025985717773,376,7088.0,-16.7050724029541,-291,9984.0
12070,0.34072303771972656,21.546817779541016,328,7088.0,-22.129371643066406,-410,9984.0
12080,0.34155145287513733,11.277412414550781,73,7088.0,-23.968521118164062,-426,9984.0
12090,0.34225398302078247,-16.429168701171875,-366,7088.0,-21.61991310119629,-421,9984.0
12100,0.34325045347213745,-43.13103485107422,-725,7088.0,-20.42482566833496,-437,9984.0
12110,0.3442622125148773,-62.720726013183594,-964,7088.0,-21.24414825439453,-364,9984.0
12120,0.3434019684791565,-66.35195922851562,-982,7088.0,-10.337985038757324,-204,9984.0
12130,0.34450238943099976,-63.99260711669922,-1006,7088.0,2.55094313621521,145,9984.0
12140,0.3454959988594055,-43.03679656982422,-528,7088.0,23.42735481262207,491,9984.0
12150,0.34638237953186035,-4.603710174560547,13,7088.0,28.64889907836914,440,9984.0
12160,0.3458520174026489,20.811710357666016,383,7088.0,26.42085838317871,442,9984.0
12170,0.3469683527946472,41.91282653808594,815,7088.0,29.39946174621582,413,9984.0
12180,0.3477141857147217,56.90134811401367,988,7088.0,28.040321350097656,500,9984.0
12190,0.34830930829048157,61.786163330078125,979,7088.0,27.99199867248535,494,9984.0
12200,0.34616562724113464,53.671539306640625,668,7088.0,8.709991455078125,116,9984.0
12210,0.3467320501804352,34.470767974853516,534,7088.0,-12.945164680480957,-311,9984.0
12220,0.34724241495132446,24.950366973876953,324,7088.0,-28.99668312072754,-538,9984.0
12230,0.34753456711769104,0.5815995335578918,-8,7088.0,-32.26683044433594,-603,9984.0
12240,0.34794607758522034,-12.793951988220215,-144,7088.0,-27.717350006103516,-481,9984.0
12250,0.3477577567100525,-25.038002014160156,-402,7088.0,-20.461673736572266,-409,9984.0
12260,0.3484111428260803,-30.106420516967773,-467,7088.0,-21.284605026245117,-405,9984.0
12270,0.34900787472724915,-36.186134338378906,-543,7088.0,-11.333671569824219,-133,9984.0
12280,0.34960195422172546,-35.74324035644531,-568,7088.0,8.28196907043457,245,9984.0
12290,0.3472900092601776,-24.76007652282715,-368,7088.0,29.908849716186523,646,9984.0
12300,0.34748566150665283,-9.752602577209473,-227,7088.0,40.58676528930664,762,9984.0
12310,0.34767842292785645,-5.063676834106445,-162,7088.0,45.081302642822266,821,9984.0
12320,0.34798547625541687,-3.592029094696045,-1,7088.0,40.82136154174805,525,9984.0
12330,0.3483845293521881,11.729903221130371,344,7088.0,22.286434173583984,262,9984.0
12340,0.3460715413093567,26.73933982849121,528,7088.0,6.988243103027344,52,9984.0
12350,0.34641045331954956,39.619503021240234,611,7088.0,-14.52023983001709,-305,9984.0
12360,0.3467949628829956,39.27052307128906,590,7088.0,-37.78615188598633,-655,9984.0
12370,0.3470645844936371,35.32199478149414,530,7088.0,-58.387638092041016,-1018,9984.0
12380,0.34518828988075256,28.86163330078125,417,7088.0,-64.03329467773438,-986,9984.0
12390,0.34566062688827515,16.24121856689453,184,7088.0,-45.80990982055664,-606,9984.0
12400,0.3462297320365906,-13.359045028686523,-384,7088.0,-30.33214569091797,-305,9984.0
12410,0.3472185432910919,-43.62895584106445,-874,7088.0,-19.6201114654541,-185,9984.0
12420,0.3456144332885742,-68.36618041992188,-1144,7088.0,0.2997707426548004,225,9984.0
12430,0.34628739953041077,-57.34083938598633,-842,7088.0,32.08002853393555,768,9984.0
12440,0.34710273146629333,-24.084732055664062,-294,7088.0,61.15216827392578,1116,9984.0
12450,0.3481646180152893,4.209993839263916,134,7088.0,73.32194519042969,1146,9984.0
12460,0.3491317629814148,22.40963363647461,450,7088.0,67.24678039550781,950,9984.0
12470,0.3469398319721222,25.461063385009766,510,7088.0,48.91824722290039,655,9984.0
12480,0.3477144241333008,28.212148666381836,437,7088.0,16.188796997070312,192,9984.0
12490,0.3483700752258301,23.546472549438477,311,7088.0,-15.257367134094238,-314,9984.0
12500,0.34882107377052307,12.283636093139648,119,7088.0,-37.05681610107422,-663,9984.0
12510,0.3483246862888336,-11.965618133544922,-286,7088.0,-43.14885711669922,-792,9984.0
12520,0.34880438446998596,-37.079803466796875,-602,7088.0,-48.51615905761719,-877,9984.0
12530,0.34924814105033875,-50.87868118286133,-868,7088.0,-58.50323486328125,-931,9984.0
12540,0.34965863823890686,-58.717708587646484,-1009,7088.0,-70.41447448730469,-1097,9984.0
12550,0.3499416708946228,-59.26523208618164,-1038,7088.0,-64.61192321777344,-884,9984.0
12560,0.34859752655029297,-49.80049133300781,-799,7088.0,-42.53487014770508,-437,9984.0
12570,0.3503032326698303,-30.92224884033203,-399,7088.0,-11.57674503326416,93,9984.0
12580,0.35090452432632446,-2.8431169986724854,88,7088.0,27.80158805847168,657,9984.0
12590,0.35207152366638184,28.25495719909668,686,7088.0,58.00297164916992,941,9984.0
12600,0.35094186663627625,53.146724700927734,1009,7088.0,66.32817840576172,1043,9984.0
12610,0.35166892409324646,59.80839538574219,972,7088.0,66.57563781738281,1158,9984.0
12620,0.3523222804069519,49.37248992919922,681,7088.0,51.420814514160156,764,9984.0
12630,0.35287490487098694,34.19395446777344,449,7088.0,29.52907371520996,182,9984.0
12640,0.3534400463104248,16.355886459350586,221,7088.0,2.537259101867676,-209,9984.0
12650,0.35356658697128296,1.7345517873764038,-33,7088.0,-22.91901206970215,-472,9984.0
12660,0.35428881645202637,-15.836206436157227,-438,7088.0,-39.55183792114258,-659,9984.0
12670,0.35515904426574707,-42.4932861328125,-947,7088.0,-46.656455993652344,-651,9984.0
12680,0.35596394538879395,-68.82363891601562,-1249,7088.0,-36.10912322998047,-596,9984.0
12690,0.3545607626438141,-75.37918853759766,-1271,7088.0,-30.966371536254883,-476,9984.0
12700,0.3560287654399872,-65.11106872558594,-976,7088.0,-19.535175323486328,-373,9984.0
12710,0.3566398024559021,-38.74031066894531,-405,7088.0,-3.6057686805725098,-53,9984.0
12720,0.35718414187431335,-0.18620848655700684,169,7088.0,18.528261184692383,483,9984.0
12730,0.3560956120491028,33.345767974853516,604,7088.0,40.25545883178711,787,9984.0
12740,0.35676926374435425,51.30574417114258,861,7088.0,57.54828643798828,933,9984.0
12750,0.3573147654533386,50.298709869384766,828,7088.0,63.87816619873047,966,9984.0
12760,0.35765478014945984,34.824951171875,519,7088.0,57.21824645996094,879,9984.0
12770,0.35782739520072937,21.435306549072266,339,7088.0,52.366031646728516,861,9984.0
12780,0.35766035318374634,29.281530380249023,502,7088.0,37.52802658081055,517,9984.0
12790,0.35756346583366394,38.23960876464844,676,7088.0,15.157920837402344,77,9984.0
12800,0.3580472469329834,36.00333786010742,551,7088.0,-10.922276496887207,-177,9984.0
12810,0.3582463264465332,26.286439895629883,334,7088.0,-26.041595458984375,-415,9984.0
12820,0.35674917697906494,15.50018310546875,226,7088.0,-36.16045379638672,-730,9984.0
12830,0.35682588815689087,11.249061584472656,250,7088.0,-40.677696228027344,-745,9984.0
12840,0.35686400532722473,2.7733144760131836,-7,7088.0,-44.851951599121094,-784,9984.0
12850,0.3569571375846863,-9.930649757385254,-196,7088.0,-44.89384078979492,-682,9984.0
12860,0.3573495149612427,-17.98055648803711,-252,7088.0,-13.689342498779297,46,9984.0
12870,0.35583949089050293,-4.617895126342773,-45,7088.0,29.650461196899414,683,9984.0
12880,0.35602837800979614,4.7633771896362305,122,7088.0,56.35346603393555,1033,9984.0
12890,0.3560464084148407,17.411331176757812,265,7088.0,68.7989273071289,1167,9984.0
12900,0.35619813203811646,17.780502319335938,298,7088.0,66.07393646240234,913,9984.0
12910,0.35477903485298157,15.048665046691895,312,7088.0,44.4346809387207,580,9984.0
12920,0.3544926941394806,9.575325965881348,136,7088.0,11.471356391906738,78,9984.0
12930,0.35428357124328613,1.6586471796035767,-102,7088.0,-20.573781967163086,-419,9984.0
12940,0.3542104661464691,-7.214396953582764,-171,7088.0,-41.19397735595703,-869,9984.0
12950,0.3535083830356598,-14.140543937683105,-160,7088.0,-49.76537322998047,-888,9984.0
12960,0.35345491766929626,-8.923830032348633,-122,7088.0,-48.06016159057617,-725,9984.0
12970,0.3534311354160309,-12.705975532531738,-298,7088.0,-42.349430084228516,-564,9984.0
12980,0.3535301387310028,-18.813207626342773,-337,7088.0,-24.753023147583008,-318,9984.0
12990,0.3541092872619629,-13.053535461425781,-136,7088.0,-1.3063970804214478,36,9984.0
13000,0.3541792035102844,7.0532073974609375,292,7088.0,16.563535690307617,277,9984.0
13010,0.3545689582824707,25.723438262939453,501,7088.0,35.02383804321289,704,9984.0
13020,0.3548572063446045,28.978622436523438,411,7088.0,49.569923400878906,943,9984.0
13030,0.3552248477935791,26.84063720703125,361,7088.0,52.353248596191406,772,9984.0
13040,0.35390377044677734,14.719615936279297,245,7088.0,43.24998474121094,571,9984.0
13050,0.35433557629585266,2.2975361347198486,-23,7088.0,23.42946434020996,337,9984.0
13060,0.35495525598526,-12.632062911987305,-314,7088.0,-7.356125831604004,-282,9984.0
13070,0.3552926480770111,-18.68321418762207,-274,7088.0,-45.78866195678711,-936,9984.0
13080,0.35448914766311646,-13.373598098754883,-229,7088.0,-65.00643920898438,-1043,9984.0
13090,0.3547927439212799,-13.215838432312012,-245,7088.0,-76.21240997314453,-1310,9984.0
13100,0.35493507981300354,-9.189209938049316,-124,7088.0,-86.5355453491211,-1488,9984.0
13110,0.35541361570358276,-6.739557266235352,-60,7088.0,-85.18614959716797,-1463,9984.0
13120,0.3556915521621704,-15.301809310913086,-286,7088.0,-73.19324493408203,-1065,9984.0
13130,0.3544204533100128,-29.370065689086914,-556,7088.0,-41.739261627197266,-450,9984.0
13140,0.3553261458873749,-28.204469680786133,-499,7088.0,6.782221794128418,416,9984.0
13150,0.355941504240036,-22.491117477416992,-392,7088.0,56.454322814941406,1173,9984.0
13160,0.35681992769241333,-6.664270401000977,-33,7088.0,89.15612030029297,1429,9984.0
13170,0.3563731908798218,5.588090896606445,183,7088.0,95.3311538696289,1501,9984.0
13180,0.3567919433116913,10.22780990600586,178,7088.0,78.91387939453125,1200,9984.0
13190,0.3579502999782562,20.5206356048584,407,7088.0,44.384647369384766,450,9984.0
13200,0.35816511511802673,29.614479064941406,556,7088.0,7.625329971313477,25,9984.0
13210,0.35889732837677,42.382789611816406,624,7088.0,-27.80999183654785,-517,9984.0
13220,0.35752925276756287,36.7567024230957,477,7088.0,-44.031227111816406,-956,9984.0
13230,0.35801300406455994,7.287695407867432,-24,7088.0,-62.71617889404297,-1166,9984.0
13240,0.3582760691642761,-27.800920486450195,-692,7088.0,-74.9235610961914,-1126,9984.0
13250,0.3584688901901245,-56.14764404296875,-1068,7088.0,-73.55158996582031,-1018,9984.0
13260,0.3587614893913269,-57.72632598876953,-949,7088.0,-57.587074279785156,-708,9984.0
13270,0.3598725199699402,-44.97994613647461,-638,7088.0,-36.11699676513672,-417,9984.0
13280,0.3604053556919098,-23.47415542602539,-321,7088.0,-3.7188336849212646,112,9984.0
13290,0.361418753862381,-14.03458023071289,-47,7088.0,30.147768020629883,572,9984.0
13300,0.3623335063457489,5.456541061401367,281,7088.0,56.55513000488281,977,9984.0
13310,0.36082354187965393,25.945018768310547,537,7088.0,70.3296890258789,1328,9984.0
13320,0.36155766248703003,38.617835998535156,607,7088.0,71.24811553955078,1136,9984.0
13330,0.3620615601539612,39.45615768432617,735,7088.0,59.218109130859375,861,9984.0
13340,0.3625328242778778,39.435394287109375,634,7088.0,45.54874038696289,604,9984.0
13350,0.3643200695514679,29.62936019897461,379,7088.0,25.621206283569336,318,9984.0
13360,0.3650725185871124,16.065771102905273,106,7088.0,-1.6500948667526245,-149,9984.0
13370,0.36587467789649963,2.448914051055908,-5,7088.0,-30.536012649536133,-705,9984.0
13380,0.36697402596473694,-15.18830680847168,-238,7088.0,-49.92162322998047,-846,9984.0
13390,0.36814752221107483,-26.991817474365234,-498,7088.0,-51.85017395019531,-739,9984.0
13400,0.3689827620983124,-33.037437438964844,-613,7088.0,-45.98103332519531,-692,9984.0
13410,0.36978375911712646,-35.30734634399414,-559,7088.0,-31.076828002929688,-495,9984.0
13420,0.37051820755004883,-34.16273880004883,-496,7088.0,-9.953365325927734,-95,9984.0
13430,0.37156379222869873,-31.10796356201172,-481,7088.0,12.070907592773438,376,9984.0
13440,0.3711659014225006,-21.49195671081543,-349,7088.0,26.1093692779541,534,9984.0
13450,0.3721054494380951,-14.118156433105469,-269,7088.0,45.512630462646484,812,9984.0
13460,0.3731376528739929,-0.22229725122451782,132,7088.0,62.88695526123047,1013,9984.0
13470,0.3738580346107483,20.853487014770508,419,7088.0,63.0449333190918,1016,9984.0
13480,0.3751685619354248,41.925811767578125,815,7088.0,46.08111572265625,565,9984.0
13490,0.3757500946521759,57.212459564208984,1017,7088.0,23.500560760498047,288,9984.0
13500,0.3761163651943207,62.240203857421875,1008,7088.0,3.768948793411255,78,9984.0
13510,0.37648478150367737,60.16190719604492,833,7088.0,-16.756546020507812,-460,9984.0
13520,0.37698379158973694,30.320894241333008,408,7088.0,-40.91393280029297,-819,9984.0
13530,0.37658101320266724,-3.7062325477600098,-234,7088.0,-56.38076400756836,-923,9984.0
13540,0.37673455476760864,-37.80297088623047,-708,7088.0,-53.5637321472168,-817,9984.0
13550,0.3768427073955536,-52.248172760009766,-895,7088.0,-41.29164505004883,-530,9984.0
13560,0.3773678243160248,-42.63580322265625,-722,7088.0,-24.166114807128906,-252,9984.0
13570,0.37776830792427063,-31.08629608154297,-525,7088.0,5.192268371582031,291,9984.0
13580,0.3782038390636444,-25.4740047454834,-478,7088.0,32.328399658203125,664,9984.0
13590,0.3786400258541107,-15.640698432922363,-240,7088.0,47.673160552978516,869,9984.0
13600,0.37938880920410156,11.282482147216797,333,7088.0,55.408897399902344,792,9984.0
13610,0.3792310357093811,43.31706237792969,859,7088.0,42.72800064086914,543,9984.0
13620,0.37943336367607117,63.1415901184082,1171,7088.0,21.109731674194336,333,9984.0
13630,0.3794441819190979,65.62554168701172,971,7088.0,7.889660835266113,182,9984.0
13640,0.37943318486213684,48.28860092163086,590,7088.0,-11.244813919067383,-190,9984.0
13650,0.37967315316200256,13.494142532348633,-29,7088.0,-20.986162185668945,-262,9984.0
13660,0.37909558415412903,-14.6248779296875,-363,7088.0,-20.17914581298828,-273,9984.0
13670,0.37919849157333374,-19.283367156982422,-364,7088.0,-22.418821334838867,-294,9984.0
13680,0.37834563851356506,-8.492974281311035,-169,7088.0,-22.902612686157227,-313,9984.0
13690,0.37835705280303955,-0.2837347090244293,-44,7088.0,-33.32233810424805,-443,9984.0
13700,0.37525448203086853,2.0339391231536865,-68,7088.0,-29.429492950439453,-288,9984.0
13710,0.37544697523117065,-9.896977424621582,-202,7088.0,-4.401594638824463,147,9984.0
13720,0.3750416934490204,-27.22779083251953,-599,7088.0,25.920997619628906,578,9984.0
13730,0.3746519386768341,-43.211490631103516,-762,7088.0,35.59857940673828,624,9984.0
13740,0.3742268681526184,-49.487762451171875,-913,7088.0,45.37038040161133,836,9984.0
13750,0.3733699321746826,-53.98670959472656,-934,7088.0,53.33176040649414,951,9984.0
13760,0.37278473377227783,-49.07516098022461,-793,7088.0,44.142879486083984,560,9984.0
13770,0.373180627822876,-35.188655853271484,-394,7088.0,22.61870574951172,185,9984.0
13780,0.37280479073524475,-9.554920196533203,17,7088.0,-6.5064544677734375,-117,9984.0
13790,0.37237998843193054,25.691410064697266,516,7088.0,-39.262229919433594,-767,9984.0
13800,0.37261807918548584,51.68316650390625,912,7088.0,-63.201114654541016,-1115,9984.0
13810,0.3726769983768463,68.98548126220703,1288,7088.0,-63.51675796508789,-1029,9984.0
13820,0.37268778681755066,82.73765563964844,1355,7088.0,-51.965824127197266,-819,9984.0
13830,0.37136319279670715,63.5484504699707,931,7088.0,-24.266254425048828,-292,9984.0
13840,0.3714972138404846,31.64544677734375,441,7088.0,17.456226348876953,288,9984.0
13850,0.37253817915916443,7.241443157196045,51,7088.0,41.273956298828125,708,9984.0
13860,0.37275147438049316,-6.842320919036865,-119,7088.0,61.19892501831055,1090,9984.0
13870,0.37280434370040894,-8.610976219177246,-141,7088.0,79.4522705078125,1246,9984.0
13880,0.3713654577732086,-15.815171241760254,-338,7088.0,77.34711456298828,1080,9984.0
13890,0.37213826179504395,-43.94831085205078,-858,7088.0,53.509613037109375,594,9984.0
13900,0.3721764385700226,-72.01727294921875,-1383,7088.0,15.532443046569824,227,9984.0
13910,0.3720018267631531,-93.41548919677734,-1583,7088.0,-2.8519840240478516,-235,9984.0
13920,0.37186697125434875,-92.2896499633789,-1272,7088.0,-31.127077102661133,-772,9984.0
13930,0.3720412254333496,-64.322021484375,-872,7088.0,-63.672359466552734,-1057,9984.0
13940,0.3717621862888336,-23.53970718383789,-113,7088.0,-77.06529235839844,-1432,9984.0
13950,0.3720267415046692,20.75586700439453,655,7088.0,-79.09588623046875,-1213,9984.0
13960,0.37251999974250793,65.35159301757812,1279,7088.0,-71.71172332763672,-1015,9984.0
13970,0.37275391817092896,100.44780731201172,1794,7088.0,-54.2515754699707,-767,9984.0
13980,0.3734336495399475,110.6565933227539,1710,7088.0,-28.52373695373535,-319,9984.0
13990,0.3739980161190033,85.16822052001953,1158,7088.0,1.5082751512527466,152,9984.0
14000,0.3749862015247345,33.25822830200195,264,7088.0,32.39572525024414,690,9984.0
14010,0.3723819851875305,-18.423175811767578,-456,7088.0,50.03351974487305,917,9984.0
