timestamp,kalman.stateZ,gyro.x,gyro.xRaw,gyro.xVariance,gyro.y,gyro.yRaw,gyro.yVariance
0,0.2923779785633087,7.774554252624512,121,7088.0,6.196761131286621,82,9984.0
10,0.2925247550010681,6.066181659698486,103,7088.0,1.8092787265777588,9,9984.0
20,0.2909424304962158,5.576243877410889,89,7088.0,-1.2088526487350464,-22,9984.0
30,0.2909460961818695,5.495569705963135,95,7088.0,-2.6238784790039062,-54,9984.0
40,0.2909257113933563,5.166618347167969,70,7088.0,-4.282442569732666,-70,9984.0
50,0.29091572761535645,2.0844616889953613,20,7088.0,-4.977543830871582,-84,9984.0
60,0.29037773609161377,-1.0905311107635498,-46,7088.0,-4.78595495223999,-72,9984.0
70,0.2903822958469391,-6.178943634033203,-133,7088.0,-2.0754787921905518,-23,9984.0
80,0.2903828024864197,-11.587956428527832,-203,7088.0,2.2168030738830566,61,9984.0
90,0.29032430052757263,-12.285603523254395,-193,7088.0,6.036388874053955,113,9984.0
100,0.2901877760887146,-9.454533576965332,-127,7088.0,7.895204067230225,130,9984.0
110,0.289434552192688,-3.8245019912719727,-37,7088.0,6.851734638214111,96,9984.0
120,0.2892657220363617,2.706449031829834,71,7088.0,2.8667893409729004,27,9984.0
130,0.289188027381897,6.33329439163208,111,7088.0,-2.0432255268096924,-63,9984.0
140,0.28919360041618347,5.18190860748291,81,7088.0,-7.3728837966918945,-136,9984.0
150,0.2900916337966919,3.1853132247924805,41,7088.0,-12.05334186553955,-221,9984.0
160,0.2902396619319916,1.865156650543213,29,7088.0,-15.434779167175293,-255,9984.0
170,0.29040271043777466,1.852911353111267,38,7088.0,-16.78721046447754,-270,9984.0
180,0.29052335023880005,4.572297096252441,97,7088.0,-17.110950469970703,-281,9984.0
190,0.2906474769115448,7.807423114776611,130,7088.0,-17.929832458496094,-301,9984.0
200,0.2906744182109833,7.537337779998779,116,7088.0,-22.66159439086914,-374,9984.0
210,0.2906847298145294,4.748718738555908,36,7088.0,-16.547088623046875,-259,9984.0
220,0.29068395495414734,-7.026913642883301,-199,7088.0,-7.632380485534668,-53,9984.0
230,0.29068341851234436,-16.548978805541992,-292,7088.0,3.6169393062591553,62,9984.0
240,0.29149293899536133,-22.67273712158203,-342,7088.0,6.962514877319336,151,9984.0
250,0.2916373312473297,-13.152056694030762,-180,7088.0,4.049861431121826,49,9984.0
260,0.29178568720817566,-0.8990328311920166,57,7088.0,-4.317281723022461,-147,9984.0
270,0.291954904794693,6.369234085083008,144,7088.0,-21.192014694213867,-405,9984.0
280,0.29311418533325195,13.342061996459961,278,7088.0,-39.688323974609375,-733,9984.0
290,0.2933955490589142,23.553054809570312,389,7088.0,-63.79594802856445,-1168,9984.0
300,0.2935386002063751,22.282855987548828,369,7088.0,-86.4923095703125,-1458,9984.0
310,0.29327285289764404,20.839574813842773,326,7088.0,-93.7984390258789,-1603,9984.0
320,0.29263830184936523,17.632070541381836,233,7088.0,-101.95721435546875,-1625,9984.0
330,0.2955200970172882,13.28418254852295,179,7088.0,-103.9202651977539,-1688,9984.0
340,0.2956359386444092,5.030877590179443,77,7088.0,-96.26510620117188,-1595,9984.0
350,0.29534491896629333,-0.014808974228799343,10,7088.0,-71.86227416992188,-962,9984.0
360,0.2962433099746704,-2.8465793132781982,-28,7088.0,-7.740969181060791,124,9984.0
370,0.3015969395637512,-4.354746341705322,-7,7088.0,61.20112991333008,1298,9984.0
380,0.3035830557346344,-4.953237056732178,-87,7088.0,130.51487731933594,2277,9984.0
390,0.3048039674758911,-15.442441940307617,-291,7088.0,161.7093048095703,2792,9984.0
400,0.30530500411987305,-21.13567352294922,-308,7088.0,174.42782592773438,2677,9984.0
410,0.3040359914302826,-17.95103645324707,-237,7088.0,164.71559143066406,2547,9984.0
420,0.30411991477012634,-7.4766106605529785,-116,7088.0,138.3708038330078,2182,9984.0
430,0.3037835359573364,-1.3004767894744873,-19,7088.0,100.6595687866211,1486,9984.0
440,0.3043898344039917,5.12570333480835,116,7088.0,45.70962142944336,457,9984.0
450,0.30749306082725525,10.546768188476562,176,7088.0,-15.82414436340332,-607,9984.0
460,0.30459830164909363,15.539045333862305,203,7088.0,-76.31748962402344,-1495,9984.0
470,0.3057428002357483,15.754762649536133,155,7088.0,-127.7693862915039,-2222,9984.0
480,0.3075699210166931,14.572060585021973,145,7088.0,-165.83326721191406,-2786,9984.0
490,0.3087511956691742,13.755979537963867,156,7088.0,-194.39883422851562,-3445,9984.0
500,0.3059854209423065,8.406746864318848,104,7088.0,-211.79248046875,-3589,9984.0
510,0.3059839606285095,1.976001262664795,59,7088.0,-203.20042419433594,-3039,9984.0
520,0.3053620457649231,4.260580539703369,35,7088.0,-159.13446044921875,-2239,9984.0
530,0.31021901965141296,-0.8087321519851685,-104,7088.0,-103.30403137207031,-1363,9984.0
540,0.3096621632575989,-25.43984031677246,-571,7088.0,-43.916893005371094,-352,9984.0
550,0.3121163845062256,-39.370574951171875,-628,7088.0,18.028074264526367,676,9984.0
560,0.3153233528137207,-35.54262161254883,-517,7088.0,73.1764907836914,1506,9984.0
570,0.31936705112457275,-16.1467342376709,-155,7088.0,119.5156478881836,2109,9984.0
580,0.3192218244075775,4.9708027839660645,141,7088.0,148.1452178955078,2670,9984.0
590,0.31716305017471313,21.767122268676758,403,7088.0,166.94317626953125,2770,9984.0
600,0.31869906187057495,32.113739013671875,614,7088.0,171.25289916992188,2594,9984.0
610,0.31979817152023315,34.5742301940918,568,7088.0,152.8208465576172,2350,9984.0
620,0.32155275344848633,21.600006103515625,212,7088.0,117.7998046875,1767,9984.0
630,0.31333425641059875,3.762474298477173,-56,7088.0,69.71773529052734,840,9984.0
640,0.3143095076084137,-8.299347877502441,-245,7088.0,6.423089504241943,-157,9984.0
650,0.3156850039958954,-15.601638793945312,-242,7088.0,-56.11806869506836,-1176,9984.0
660,0.3168109953403473,-11.77517032623291,-105,7088.0,-109.31989288330078,-1850,9984.0
670,0.31800562143325806,2.2373013496398926,102,7088.0,-125.17389678955078,-1934,9984.0
680,0.31315597891807556,9.5971040725708,122,7088.0,-114.83405303955078,-1824,9984.0
690,0.31386640667915344,16.0316104888916,319,7088.0,-80.584716796875,-1116,9984.0
700,0.3155710995197296,15.740391731262207,251,7088.0,-33.230533599853516,-214,9984.0
710,0.3169986307621002,7.184926986694336,117,7088.0,34.33222198486328,693,9984.0
720,0.3147776424884796,-4.670635223388672,-202,7088.0,89.11304473876953,1771,9984.0
730,0.3153243958950043,-19.6283016204834,-391,7088.0,123.74625396728516,2090,9984.0
740,0.3165077269077301,-35.96580123901367,-660,7088.0,134.0380096435547,2170,9984.0
750,0.31644880771636963,-40.21345901489258,-628,7088.0,122.53133392333984,1823,9984.0
760,0.3161579370498657,-30.39693832397461,-334,7088.0,93.76899719238281,1150,9984.0
770,0.31243404746055603,-1.4055566787719727,166,7088.0,47.464622497558594,496,9984.0
780,0.31347325444221497,26.361026763916016,537,7088.0,-7.135282516479492,-292,9984.0
790,0.31507325172424316,40.2116813659668,629,7088.0,-65.52684783935547,-1182,9984.0
800,0.3164485692977905,44.87337875366211,710,7088.0,-116.00741577148438,-1975,9984.0
810,0.31257879734039307,39.992340087890625,574,7088.0,-126.66795349121094,-1965,9984.0
820,0.3137713372707367,20.872127532958984,258,7088.0,-102.67655944824219,-1453,9984.0
830,0.31444719433784485,7.707893371582031,103,7088.0,-48.4941520690918,-588,9984.0
840,0.315141886472702,-0.2158949077129364,27,7088.0,-0.8731992840766907,-30,9984.0
850,0.31081098318099976,-2.2372031211853027,-78,7088.0,30.297168731689453,559,9984.0
860,0.3106941878795624,-3.308732509613037,-71,7088.0,51.3297004699707,967,9984.0
870,0.31024169921875,-12.545846939086914,-316,7088.0,64.2857894897461,1173,9984.0
880,0.30942416191101074,-22.992067337036133,-424,7088.0,66.81201934814453,1138,9984.0
890,0.3087434768676758,-32.73611068725586,-650,7088.0,55.90470504760742,1010,9984.0
900,0.3062618374824524,-42.708396911621094,-749,7088.0,39.9921760559082,582,9984.0
910,0.30598878860473633,-40.777122497558594,-578,7088.0,8.708510398864746,-3,9984.0
920,0.306424617767334,-19.03624153137207,-295,7088.0,-37.21049499511719,-889,9984.0
930,0.3078247904777527,-3.8564867973327637,113,7088.0,-96.84973907470703,-1912,9984.0
940,0.3052622675895691,12.070655822753906,303,7088.0,-143.47406005859375,-2489,9984.0
950,0.3072272837162018,23.908828735351562,382,7088.0,-165.391845703125,-2723,9984.0
960,0.3082084655761719,29.39203453063965,505,7088.0,-145.63209533691406,-2155,9984.0
970,0.30896130204200745,27.523395538330078,481,7088.0,-90.78413391113281,-1302,9984.0
980,0.31241050362586975,28.764541625976562,350,7088.0,-31.85502052307129,-377,9984.0
990,0.3118560314178467,16.422645568847656,188,7088.0,27.40464973449707,686,9984.0
1000,0.3135487139225006,7.088802814483643,136,7088.0,77.42755126953125,1499,9984.0
1010,0.3146977722644806,0.9482439756393433,-28,7088.0,112.87199401855469,2026,9984.0
1020,0.3153765797615051,-0.6296979784965515,-66,7088.0,126.84052276611328,2172,9984.0
1030,0.31444722414016724,-12.427818298339844,-307,7088.0,116.76775360107422,1861,9984.0
1040,0.3149377703666687,-26.522491455078125,-509,7088.0,92.56468963623047,1529,9984.0
1050,0.31567633152008057,-34.990150451660156,-637,7088.0,56.39581298828125,695,9984.0
1060,0.31649383902549744,-31.010629653930664,-399,7088.0,10.736956596374512,-406,9984.0
1070,0.3099808692932129,-17.537275314331055,-137,7088.0,-51.60811996459961,-1130,9984.0
1080,0.31123626232147217,1.279768705368042,-15,7088.0,-114.74666595458984,-2002,9984.0
1090,0.31198447942733765,6.8463850021362305,210,7088.0,-140.9615478515625,-2329,9984.0
1100,0.313311368227005,16.886409759521484,165,7088.0,-143.2914276123047,-2091,9984.0
1110,0.31602105498313904,19.429927825927734,251,7088.0,-105.0523910522461,-1238,9984.0
1120,0.3117525577545166,18.570465087890625,306,7088.0,-44.43006896972656,-336,9984.0
1130,0.3125808537006378,15.564934730529785,238,7088.0,11.8541898727417,526,9984.0
1140,0.3145397901535034,11.921306610107422,209,7088.0,60.621341705322266,1299,9984.0
1150,0.31701138615608215,9.642362594604492,247,7088.0,102.8178939819336,1802,9984.0
1160,0.31550681591033936,11.74086856842041,205,7088.0,131.81259155273438,2100,9984.0
1170,0.31621843576431274,6.5861430168151855,25,7088.0,141.97396850585938,2281,9984.0
1180,0.316519558429718,-6.671383857727051,-190,7088.0,132.2203369140625,1962,9984.0
1190,0.319227933883667,-15.040046691894531,-249,7088.0,102.56434631347656,1532,9984.0
1200,0.32051903009414673,-11.07602310180664,-261,7088.0,55.71953582763672,533,9984.0
1210,0.3130655586719513,-4.0783371925354,127,7088.0,-2.5829391479492188,-381,9984.0
1220,0.31488287448883057,7.330194473266602,104,7088.0,-67.86122131347656,-1358,9984.0
1230,0.3165198564529419,6.959396839141846,143,7088.0,-116.57099151611328,-2066,9984.0
1240,0.3181741237640381,2.5658326148986816,-111,7088.0,-137.197265625,-2164,9984.0
1250,0.3145063817501068,0.23149846494197845,-2,7088.0,-127.65116882324219,-1793,9984.0
1260,0.3163716495037079,-1.0348159074783325,-70,7088.0,-87.26749420166016,-1054,9984.0
1270,0.3183988034725189,-5.384734630584717,-97,7088.0,-25.458864212036133,-162,9984.0
1280,0.3209083378314972,-1.3072062730789185,-63,7088.0,28.176254272460938,724,9984.0
1290,0.3189017176628113,0.8449389934539795,13,7088.0,69.08857727050781,1307,9984.0
1300,0.32046157121658325,6.405908584594727,101,7088.0,97.9197769165039,1768,9984.0
1310,0.32149335741996765,6.589916706085205,107,7088.0,105.10655975341797,1840,9984.0
1320,0.3240189552307129,3.9868743419647217,-62,7088.0,95.68882751464844,1534,9984.0
1330,0.32500559091567993,-2.8977768421173096,-102,7088.0,70.50580596923828,1058,9984.0
1340,0.320353627204895,-2.206796884536743,-15,7088.0,41.65635681152344,527,9984.0
1350,0.3209587037563324,-4.754715919494629,-92,7088.0,11.131443977355957,-71,9984.0
1360,0.3218221962451935,-6.290930271148682,-45,7088.0,-32.2851448059082,-698,9984.0
1370,0.32261401414871216,-5.380712509155273,-122,7088.0,-69.3419189453125,-1248,9984.0
1380,0.3197596073150635,-1.8044757843017578,-87,7088.0,-85.57923126220703,-1337,9984.0
1390,0.3206096887588501,-3.1581804752349854,-55,7088.0,-73.05255126953125,-945,9984.0
1400,0.3221111595630646,0.9535636305809021,51,7088.0,-43.484535217285156,-527,9984.0
1410,0.3233840763568878,5.412775039672852,67,7088.0,-0.7067397236824036,320,9984.0
1420,0.32469063997268677,8.304169654846191,125,7088.0,50.546634674072266,1013,9984.0
1430,0.32221144437789917,14.513715744018555,194,7088.0,88.42816162109375,1576,9984.0
1440,0.32257094979286194,8.503753662109375,5,7088.0,109.68456268310547,1860,9984.0
1450,0.322651743888855,-8.741135597229004,-241,7088.0,113.1920166015625,1885,9984.0
1460,0.3219392001628876,-23.912256240844727,-481,7088.0,91.41024017333984,1409,9984.0
1470,0.32059022784233093,-29.500478744506836,-515,7088.0,47.780826568603516,493,9984.0
1480,0.32062551379203796,-24.15988540649414,-288,7088.0,0.3864639699459076,-237,9984.0
1490,0.3211815059185028,-15.085590362548828,-175,7088.0,-46.84575653076172,-883,9984.0
1500,0.3215480446815491,4.600159645080566,105,7088.0,-76.63056182861328,-1430,9984.0
1510,0.3200133740901947,17.782978057861328,399,7088.0,-95.19163513183594,-1655,9984.0
1520,0.3199447989463806,16.788408279418945,244,7088.0,-107.69390106201172,-1753,9984.0
1530,0.3201944828033447,4.337099552154541,-8,7088.0,-94.0261001586914,-1385,9984.0
1540,0.32058894634246826,0.07705558091402054,-49,7088.0,-59.69579315185547,-749,9984.0
1550,0.3211066424846649,5.607269763946533,92,7088.0,-11.829436302185059,135,9984.0
1560,0.31971076130867004,16.69359016418457,252,7088.0,39.131710052490234,1015,9984.0
1570,0.3199034035205841,20.347335815429688,296,7088.0,77.9785385131836,1607,9984.0
1580,0.3197466731071472,14.53249454498291,202,7088.0,102.81233978271484,1839,9984.0
1590,0.31864678859710693,8.599834442138672,105,7088.0,109.11549377441406,1686,9984.0
1600,0.31878533959388733,-0.9874230623245239,-47,7088.0,93.42091369628906,1284,9984.0
1610,0.31825682520866394,-13.544715881347656,-252,7088.0,57.909366607666016,927,9984.0
1620,0.31781721115112305,-23.90747833251953,-434,7088.0,12.703566551208496,-171,9984.0
1630,0.318077027797699,-20.76722526550293,-271,7088.0,-41.91082763671875,-891,9984.0
1640,0.3171048164367676,-11.256661415100098,-156,7088.0,-86.24066162109375,-1503,9984.0
1650,0.3178952932357788,-3.7066538333892822,37,7088.0,-117.78211212158203,-2184,9984.0
1660,0.31741470098495483,9.62677001953125,164,7088.0,-157.1431427001953,-2640,9984.0
1670,0.3161987066268921,22.0836124420166,401,7088.0,-184.7350616455078,-3006,9984.0
1680,0.31620991230010986,31.879045486450195,501,7088.0,-172.2059783935547,-2706,9984.0
1690,0.3167528510093689,27.84355926513672,491,7088.0,-137.40403747558594,-2020,9984.0
1700,0.31652310490608215,18.35942268371582,264,7088.0,-82.73197174072266,-1055,9984.0
1710,0.3178960680961609,5.54348087310791,64,7088.0,-1.8653219938278198,237,9984.0
1720,0.32002386450767517,-7.023918151855469,-205,7088.0,65.98078155517578,1349,9984.0
1730,0.3218023180961609,-21.47427749633789,-446,7088.0,118.13256072998047,2193,9984.0
1740,0.322068452835083,-32.98590850830078,-557,7088.0,158.3907470703125,2590,9984.0
1750,0.32233428955078125,-33.08514404296875,-473,7088.0,169.14549255371094,2718,9984.0
1760,0.3227697014808655,-31.473913192749023,-513,7088.0,149.7808074951172,2317,9984.0
1770,0.3228470981121063,-32.67686462402344,-461,7088.0,104.31941223144531,1369,9984.0
1780,0.31814566254615784,-23.27240562438965,-272,7088.0,55.121253967285156,628,9984.0
1790,0.3181384205818176,-1.5109779834747314,169,7088.0,-2.567237377166748,-419,9984.0
1800,0.3191782832145691,27.362173080444336,625,7088.0,-65.64422607421875,-1511,9984.0
1810,0.320801317691803,46.02325439453125,745,7088.0,-126.58006286621094,-2429,9984.0
1820,0.31856217980384827,47.67778015136719,818,7088.0,-160.13108825683594,-2684,9984.0
1830,0.31872662901878357,38.725372314453125,646,7088.0,-156.6514129638672,-2344,9984.0
1840,0.3188880681991577,36.76771545410156,437,7088.0,-123.59016418457031,-1579,9984.0
1850,0.32269540429115295,14.063852310180664,40,7088.0,-73.71060180664062,-803,9984.0
1860,0.3234863579273224,-6.197628498077393,-196,7088.0,-14.580069541931152,248,9984.0
1870,0.32319238781929016,-13.995351791381836,-324,7088.0,43.49172592163086,1208,9984.0
1880,0.32507723569869995,-21.585643768310547,-355,7088.0,98.12044525146484,2013,9984.0
1890,0.32576388120651245,-21.711946487426758,-405,7088.0,136.99571228027344,2271,9984.0
1900,0.32675763964653015,-24.5102481842041,-480,7088.0,146.1314239501953,2308,9984.0
1910,0.3223472237586975,-29.454294204711914,-604,7088.0,130.3035888671875,2147,9984.0
1920,0.3225209414958954,-29.384349822998047,-466,7088.0,98.9996109008789,1393,9984.0
1930,0.324579656124115,-18.518348693847656,-145,7088.0,52.10792541503906,569,9984.0
1940,0.32526543736457825,7.175374507904053,182,7088.0,-5.271999835968018,-246,9984.0
1950,0.32274097204208374,26.345722198486328,536,7088.0,-56.36620330810547,-1178,9984.0
1960,0.32362067699432373,37.84486770629883,675,7088.0,-78.70720672607422,-1368,9984.0
1970,0.3245721161365509,36.21328353881836,582,7088.0,-76.03092193603516,-1117,9984.0
1980,0.3254562020301819,31.22378921508789,394,7088.0,-55.83020782470703,-642,9984.0
1990,0.32674336433410645,20.72764015197754,248,7088.0,-11.178889274597168,91,9984.0
2000,0.32669684290885925,7.92805290222168,18,7088.0,34.630619049072266,780,9984.0
2010,0.327243447303772,-7.940258502960205,-229,7088.0,70.95614624023438,1419,9984.0
2020,0.327624648809433,-17.79060935974121,-320,7088.0,100.81182098388672,1855,9984.0
2030,0.32735922932624817,-20.276803970336914,-411,7088.0,105.99962615966797,1740,9984.0
2040,0.32628634572029114,-24.410558700561523,-354,7088.0,93.94091033935547,1346,9984.0
2050,0.3260771930217743,-29.749174118041992,-395,7088.0,67.36907196044922,954,9984.0
2060,0.3266420066356659,-24.8201847076416,-481,7088.0,29.905263900756836,390,9984.0
2070,0.3265029788017273,-20.505895614624023,-247,7088.0,-16.457164764404297,-609,9984.0
2080,0.32725653052330017,-8.07343578338623,-70,7088.0,-70.68508911132812,-1379,9984.0
2090,0.32484176754951477,6.0355610847473145,88,7088.0,-116.09608459472656,-1995,9984.0
2100,0.3244647681713104,12.883686065673828,286,7088.0,-131.1436767578125,-2202,9984.0
2110,0.3240100145339966,12.669255256652832,251,7088.0,-125.65782928466797,-2036,9984.0
2120,0.3234943449497223,10.719564437866211,294,7088.0,-101.9136734008789,-1591,9984.0
2130,0.32210907340049744,19.453794479370117,307,7088.0,-61.491825103759766,-792,9984.0
2140,0.3226666748523712,23.885311126708984,460,7088.0,1.8192278146743774,222,9984.0
2150,0.32242193818092346,29.994436264038086,473,7088.0,56.57853698730469,1103,9984.0
2160,0.3218821585178375,18.096054077148438,161,7088.0,91.24261474609375,1611,9984.0
2170,0.3188616931438446,-9.042410850524902,-371,7088.0,105.27178955078125,1729,9984.0
2180,0.3188197612762451,-45.21373748779297,-931,7088.0,94.82457733154297,1456,9984.0
2190,0.3180418312549591,-61.55779266357422,-1089,7088.0,59.07500076293945,691,9984.0
2200,0.3178349733352661,-56.335391998291016,-819,7088.0,18.25592803955078,158,9984.0
2210,0.31795036792755127,-43.129783630371094,-595,7088.0,-27.999116897583008,-602,9984.0
2220,0.3159574568271637,-18.342390060424805,-175,7088.0,-76.7252197265625,-1589,9984.0
2230,0.3160858154296875,4.17407751083374,140,7088.0,-125.11640167236328,-2135,9984.0
2240,0.3163258135318756,15.205309867858887,213,7088.0,-155.34201049804688,-2491,9984.0
2250,0.3163835108280182,8.176101684570312,156,7088.0,-157.9344482421875,-2514,9984.0
2260,0.3167886734008789,-3.6473329067230225,-42,7088.0,-125.7265396118164,-1958,9984.0
2270,0.31737273931503296,-3.998950958251953,4,7088.0,-85.0709228515625,-1276,9984.0
2280,0.31772738695144653,5.508481502532959,125,7088.0,-36.34600067138672,-282,9984.0
2290,0.3188502788543701,12.574872016906738,367,7088.0,32.46247482299805,775,9984.0
2300,0.319671094417572,22.60942268371582,557,7088.0,90.19478607177734,1618,9984.0
2310,0.32127058506011963,18.849132537841797,219,7088.0,125.84698486328125,2121,9984.0
2320,0.3215905725955963,8.319302558898926,71,7088.0,138.28846740722656,2221,9984.0
2330,0.32144153118133545,8.392972946166992,68,7088.0,131.3397216796875,2102,9984.0
2340,0.3235669434070587,15.011531829833984,278,7088.0,103.66630554199219,1466,9984.0
2350,0.3192516565322876,23.16427230834961,472,7088.0,63.052398681640625,856,9984.0
2360,0.3195703625679016,27.437273025512695,458,7088.0,24.21957778930664,274,9984.0
2370,0.3199436664581299,26.169591903686523,321,7088.0,-14.906571388244629,-578,9984.0
2380,0.32104504108428955,4.673312664031982,1,7088.0,-52.503570556640625,-976,9984.0
2390,0.31917789578437805,-34.22993850708008,-638,7088.0,-74.48657989501953,-1269,9984.0
2400,0.3198193907737732,-53.52900314331055,-972,7088.0,-77.80966186523438,-1159,9984.0
2410,0.32065117359161377,-44.369075775146484,-707,7088.0,-58.201637268066406,-622,9984.0
2420,0.3212406039237976,-21.472097396850586,-222,7088.0,-18.639205932617188,81,9984.0
2430,0.32297229766845703,8.16050910949707,361,7088.0,36.29704666137695,891,9984.0
2440,0.3221486210823059,37.62712097167969,751,7088.0,85.11544799804688,1606,9984.0
2450,0.322368860244751,53.100738525390625,931,7088.0,109.43909454345703,1637,9984.0
2460,0.322231262922287,48.141998291015625,665,7088.0,103.22492218017578,1533,9984.0
2470,0.3241399824619293,21.26597785949707,239,7088.0,71.72992706298828,976,9984.0
2480,0.32343605160713196,4.1548357009887695,-22,7088.0,30.59882354736328,325,9984.0
2490,0.3234461545944214,-9.236814498901367,-282,7088.0,-15.036914825439453,-614,9984.0
2500,0.3239886164665222,-9.61658000946045,-103,7088.0,-59.688270568847656,-1350,9984.0
2510,0.3241565525531769,-1.9270546436309814,74,7088.0,-98.83963775634766,-1738,9984.0
2520,0.3244694173336029,2.2340331077575684,102,7088.0,-110.81298065185547,-1741,9984.0
2530,0.32197245955467224,-0.28466060757637024,-148,7088.0,-96.38774871826172,-1254,9984.0
2540,0.3223065435886383,-13.565216064453125,-389,7088.0,-57.829158782958984,-571,9984.0
2550,0.3238316476345062,-36.64173889160156,-721,7088.0,-3.651904344558716,66,9984.0
2560,0.3241150975227356,-49.33175277709961,-807,7088.0,44.24821853637695,820,9984.0
2570,0.32263433933258057,-44.812232971191406,-618,7088.0,83.91136169433594,1500,9984.0
2580,0.3226146996021271,-22.771076202392578,-167,7088.0,106.52696990966797,1854,9984.0
2590,0.32330700755119324,14.750502586364746,398,7088.0,122.89141845703125,1996,9984.0
2600,0.3226720690727234,47.33161926269531,772,7088.0,120.2874984741211,1872,9984.0
2610,0.3206427991390228,64.17013549804688,1240,7088.0,93.11427307128906,1294,9984.0
2620,0.3205646872520447,66.0317611694336,1000,7088.0,48.41698455810547,617,9984.0
2630,0.3216738998889923,51.79737091064453,694,7088.0,-3.517508029937744,-286,9984.0
2640,0.3224848210811615,30.657241821289062,524,7088.0,-58.189552307128906,-1317,9984.0
2650,0.32259705662727356,10.997943878173828,81,7088.0,-119.47716522216797,-2194,9984.0
2660,0.3218535780906677,-3.943776845932007,-201,7088.0,-162.0570831298828,-2739,9984.0
2670,0.32288703322410583,-22.895437240600586,-512,7088.0,-175.38485717773438,-2713,9984.0
2680,0.32297804951667786,-33.76433563232422,-635,7088.0,-145.10983276367188,-2028,9984.0
2690,0.3235738277435303,-45.319759368896484,-866,7088.0,-90.05145263671875,-1020,9984.0
2700,0.3203829526901245,-51.443092346191406,-919,7088.0,-26.06157684326172,72,9984.0
2710,0.320803701877594,-53.019657135009766,-860,7088.0,38.143043518066406,1081,9984.0
2720,0.32091042399406433,-40.373348236083984,-601,7088.0,95.54949188232422,1862,9984.0
2730,0.32126665115356445,-19.2287540435791,-217,7088.0,134.35789489746094,2237,9984.0
2740,0.32040464878082275,1.1240900754928589,189,7088.0,145.5104217529297,2282,9984.0
2750,0.3203296661376953,20.538440704345703,396,7088.0,130.56752014160156,2117,9984.0
2760,0.32190820574760437,28.407514572143555,465,7088.0,88.27909851074219,1137,9984.0
2770,0.32181406021118164,25.854232788085938,364,7088.0,23.393312454223633,132,9984.0
2780,0.322462260723114,17.86437225341797,262,7088.0,-32.637760162353516,-733,9984.0
2790,0.3218264877796173,7.196878433227539,49,7088.0,-88.3786849975586,-1884,9984.0
2800,0.32194504141807556,-0.4451701045036316,26,7088.0,-151.37478637695312,-2688,9984.0
2810,0.3220732808113098,-1.4998835325241089,12,7088.0,-190.56961059570312,-3104,9984.0
2820,0.3212956190109253,-6.7849836349487305,-188,7088.0,-187.9034881591797,-2896,9984.0
2830,0.3181069493293762,-2.9131386280059814,-44,7088.0,-147.41773986816406,-2125,9984.0
2840,0.32452088594436646,5.294734001159668,57,7088.0,-81.87893676757812,-971,9984.0
2850,0.32566362619400024,12.783312797546387,227,7088.0,-3.1225051879882812,298,9984.0
2860,0.32803666591644287,9.561888694763184,57,7088.0,66.4483642578125,1329,9984.0
2870,0.3292621076107025,-9.439652442932129,-206,7088.0,120.1785888671875,2056,9984.0
2880,0.32736968994140625,-19.29286003112793,-379,7088.0,145.39212036132812,2417,9984.0
2890,0.32801011204719543,-28.14435577392578,-519,7088.0,142.64414978027344,2446,9984.0
2900,0.32844576239585876,-32.64299011230469,-497,7088.0,118.9494857788086,1771,9984.0
2910,0.32917413115501404,-27.492321014404297,-327,7088.0,87.69355010986328,1160,9984.0
2920,0.32528170943260193,4.229827404022217,237,7088.0,38.57865905761719,488,9984.0
2930,0.3266127407550812,42.11981964111328,842,7088.0,-19.587907791137695,-720,9984.0
2940,0.3281323313713074,68.31473541259766,1193,7088.0,-72.13211822509766,-1333,9984.0
2950,0.3295278251171112,68.32479095458984,1112,7088.0,-103.357177734375,-1697,9984.0
2960,0.3322477340698242,46.75390625,577,7088.0,-97.6030502319336,-1415,9984.0
2970,0.32691580057144165,23.073545455932617,234,7088.0,-66.69120025634766,-846,9984.0
2980,0.32803964614868164,2.9475514888763428,-74,7088.0,-25.055301666259766,-213,9984.0
2990,0.3289141058921814,-12.574139595031738,-289,7088.0,18.690628051757812,520,9984.0
3000,0.3297496438026428,-23.148279190063477,-422,7088.0,65.84329223632812,1239,9984.0
3010,0.32616814970970154,-33.4324951171875,-513,7088.0,99.00318908691406,1693,9984.0
3020,0.3261905014514923,-40.27479934692383,-587,7088.0,106.72923278808594,1639,9984.0
3030,0.3255196511745453,-38.84970474243164,-644,7088.0,94.60712432861328,1516,9984.0
3040,0.3252466022968292,-28.93871307373047,-443,7088.0,72.60856628417969,1142,9984.0
3050,0.32273000478744507,-16.84541893005371,-199,7088.0,35.24384689331055,283,9984.0
3060,0.3226057291030884,-1.8939555883407593,39,7088.0,-9.121625900268555,-364,9984.0
3070,0.3228885531425476,6.538446426391602,128,7088.0,-59.14567565917969,-1113,9984.0
3080,0.3240373730659485,6.5136284828186035,124,7088.0,-75.99717712402344,-1277,9984.0
3090,0.32442542910575867,15.547261238098145,295,7088.0,-61.205257415771484,-907,9984.0
3100,0.32308778166770935,23.938215255737305,447,7088.0,-33.490989685058594,-431,9984.0
3110,0.3228890299797058,27.456905364990234,523,7088.0,0.010143904015421867,264,9984.0
3120,0.3225283622741699,27.44273567199707,454,7088.0,39.7075309753418,863,9984.0
3130,0.3217904567718506,19.67362403869629,171,7088.0,67.25574493408203,1372,9984.0
3140,0.32039543986320496,2.5304007530212402,-133,7088.0,83.04267883300781,1299,9984.0
3150,0.319095253944397,-10.070402145385742,-288,7088.0,69.50975799560547,884,9984.0
3160,0.318620502948761,-12.118597030639648,-140,7088.0,37.79059982299805,464,9984.0
3170,0.3187013566493988,-8.526175498962402,-69,7088.0,6.988099098205566,-23,9984.0
3180,0.3180376887321472,1.2255606651306152,2,7088.0,-22.627399444580078,-528,9984.0
3190,0.3166443705558777,6.099655628204346,86,7088.0,-44.46156311035156,-937,9984.0
3200,0.3164817690849304,3.6442816257476807,23,7088.0,-73.10729217529297,-1383,9984.0
3210,0.3161228895187378,-13.396571159362793,-259,7088.0,-107.61658477783203,-1885,9984.0
3220,0.31614193320274353,-26.161911010742188,-578,7088.0,-113.42166137695312,-1695,9984.0
3230,0.3145119249820709,-39.96463394165039,-799,7088.0,-93.92561340332031,-1333,9984.0
3240,0.31394079327583313,-39.169273376464844,-614,7088.0,-72.06660461425781,-899,9984.0
3250,0.31470799446105957,-20.17352294921875,-274,7088.0,-35.09005355834961,-261,9984.0
3260,0.31488630175590515,-2.1036629676818848,92,7088.0,16.892545700073242,604,9984.0
3270,0.3133513927459717,22.525009155273438,552,7088.0,66.73033142089844,1294,9984.0
3280,0.31325894594192505,39.79936981201172,702,7088.0,104.91152954101562,1755,9984.0
3290,0.3136729598045349,39.06944274902344,684,7088.0,128.7788543701172,1956,9984.0
3300,0.31304967403411865,16.53839874267578,15,7088.0,107.22206115722656,1571,9984.0
3310,0.3132714033126831,-21.147117614746094,-558,7088.0,61.20750045776367,880,9984.0
3320,0.3123430013656616,-42.98908233642578,-648,7088.0,14.388727188110352,-62,9984.0
3330,0.3128494322299957,-40.88726043701172,-642,7088.0,-27.90873908996582,-542,9984.0
3340,0.3139902353286743,-24.55062484741211,-323,7088.0,-68.48782348632812,-1300,9984.0
3350,0.314957857131958,-1.2011735439300537,119,7088.0,-112.52420043945312,-2023,9984.0
3360,0.3130756616592407,20.766674041748047,329,7088.0,-158.6445770263672,-2755,9984.0
3370,0.31528234481811523,45.01481246948242,864,7088.0,-167.6431884765625,-2724,9984.0
3380,0.3162255883216858,63.83651351928711,1149,7088.0,-137.97315979003906,-2098,9984.0
3390,0.31672775745391846,58.329124450683594,858,7088.0,-90.89483642578125,-1305,9984.0
3400,0.3177271783351898,34.866275787353516,486,7088.0,-34.47353744506836,-378,9984.0
3410,0.3175158202648163,15.022297859191895,210,7088.0,26.226490020751953,570,9984.0
3420,0.31914472579956055,-9.813982009887695,-320,7088.0,79.5732650756836,1366,9984.0
3430,0.32130753993988037,-40.53977584838867,-747,7088.0,123.39471435546875,2018,9984.0
3440,0.32219237089157104,-62.85025405883789,-1017,7088.0,150.29119873046875,2416,9984.0
3450,0.31971028447151184,-59.17329788208008,-928,7088.0,145.3265838623047,2359,9984.0
3460,0.3218829929828644,-47.812591552734375,-660,7088.0,123.77365112304688,1954,9984.0
3470,0.32233262062072754,-29.059783935546875,-460,7088.0,84.85611724853516,1143,9984.0
3480,0.32319071888923645,-12.967503547668457,-95,7088.0,37.185401916503906,388,9984.0
3490,0.3191503584384918,2.3264126777648926,98,7088.0,-11.956022262573242,-394,9984.0
3500,0.320054292678833,17.93235969543457,307,7088.0,-60.87152099609375,-1260,9984.0
3510,0.3209018409252167,31.0943603515625,658,7088.0,-107.69670867919922,-2051,9984.0
3520,0.321428120136261,43.16371154785156,787,7088.0,-129.41676330566406,-2096,9984.0
3530,0.322401225566864,40.535560607910156,558,7088.0,-120.59547424316406,-1792,9984.0
3540,0.3212931454181671,26.844423294067383,332,7088.0,-96.03532409667969,-1383,9984.0
3550,0.32261350750923157,7.14278507232666,24,7088.0,-53.73466110229492,-719,9984.0
3560,0.32349735498428345,-7.120363235473633,-193,7088.0,-6.183037757873535,57,9984.0
3570,0.325639009475708,-14.490582466125488,-282,7088.0,45.058448791503906,862,9984.0
3580,0.32372498512268066,-17.766155242919922,-290,7088.0,94.9898910522461,1735,9984.0
3590,0.32442259788513184,-13.148126602172852,-172,7088.0,138.68173217773438,2392,9984.0
3600,0.32451099157333374,-3.150655746459961,66,7088.0,158.7481689453125,2541,9984.0
3610,0.3238127827644348,4.615377902984619,176,7088.0,142.16500854492188,2204,9984.0
3620,0.32695627212524414,7.5564351081848145,60,7088.0,108.47014617919922,1682,9984.0
3630,0.32308900356292725,10.805497169494629,156,7088.0,70.02578735351562,851,9984.0
3640,0.32309380173683167,11.329532623291016,244,7088.0,24.093448638916016,218,9984.0
3650,0.32424479722976685,8.110112190246582,19,7088.0,-28.346900939941406,-717,9984.0
3660,0.3244842290878296,6.391393661499023,155,7088.0,-85.31877136230469,-1622,9984.0
3670,0.32486528158187866,7.062108039855957,194,7088.0,-118.06124114990234,-2042,9984.0
3680,0.3254167139530182,5.003340244293213,27,7088.0,-119.77870178222656,-1949,9984.0
3690,0.32569828629493713,-2.315610408782959,-70,7088.0,-102.15252685546875,-1583,9984.0
3700,0.32742196321487427,-2.670360565185547,-32,7088.0,-77.84505462646484,-1171,9984.0
3710,0.32549169659614563,0.789882481098175,58,7088.0,-41.30219650268555,-504,9984.0
3720,0.32536453008651733,-0.8451871871948242,-70,7088.0,9.739112854003906,330,9984.0
3730,0.3255755305290222,-6.681413650512695,-187,7088.0,58.006507873535156,1158,9984.0
3740,0.32552236318588257,-13.269440650939941,-287,7088.0,99.29541778564453,1821,9984.0
3750,0.32489636540412903,-16.334016799926758,-266,7088.0,124.8512954711914,2203,9984.0
3760,0.32028481364250183,-13.549234390258789,-246,7088.0,122.3935775756836,1891,9984.0
3770,0.3191411793231964,-14.122103691101074,-218,7088.0,96.83883666992188,1207,9984.0
3780,0.3173435926437378,-16.883590698242188,-278,7088.0,58.16191482543945,687,9984.0
3790,0.31909099221229553,-14.266120910644531,-220,7088.0,4.40209436416626,-296,9984.0
3800,0.31586727499961853,-10.429916381835938,-70,7088.0,-53.49277877807617,-1298,9984.0
3810,0.3161785900592804,0.03217613324522972,28,7088.0,-119.11087799072266,-2289,9984.0
3820,0.31698817014694214,8.802433013916016,301,7088.0,-168.23536682128906,-2924,9984.0
3830,0.3167770504951477,21.650968551635742,443,7088.0,-175.10643005371094,-2616,9984.0
3840,0.3185747265815735,30.713909149169922,477,7088.0,-141.55421447753906,-2023,9984.0
3850,0.315778523683548,32.12812423706055,532,7088.0,-84.48625183105469,-1002,9984.0
3860,0.3156203031539917,29.11685562133789,371,7088.0,-22.08323860168457,-20,9984.0
3870,0.31648144125938416,17.458337783813477,155,7088.0,41.94517517089844,989,9984.0
3880,0.31725117564201355,5.267364978790283,15,7088.0,92.33597564697266,1765,9984.0
3890,0.3170563876628876,-3.6997156143188477,-177,7088.0,130.3118438720703,2218,9984.0
3900,0.3165375292301178,-7.8383941650390625,-169,7088.0,134.06004333496094,2160,9984.0
3910,0.3153543174266815,-10.087343215942383,-125,7088.0,114.34722900390625,1749,9984.0
3920,0.3173697590827942,-18.971315383911133,-332,7088.0,73.07059478759766,1095,9984.0
3930,0.31667616963386536,-24.562728881835938,-494,7088.0,28.547483444213867,124,9984.0
3940,0.313396155834198,-28.199344635009766,-391,7088.0,-26.849092483520508,-624,9984.0
3950,0.3136023283004761,-22.73247718811035,-362,7088.0,-88.71327209472656,-1727,9984.0
3960,0.31448787450790405,-15.516587257385254,-267,7088.0,-138.26559448242188,-2462,9984.0
3970,0.31479617953300476,-11.572036743164062,-111,7088.0,-154.07444763183594,-2351,9984.0
3980,0.3118036389350891,-2.968740940093994,-91,7088.0,-140.03611755371094,-2136,9984.0
3990,0.3120567500591278,0.20088951289653778,26,7088.0,-103.50067901611328,-1461,9984.0
4000,0.31536275148391724,14.055760383605957,288,7088.0,-50.4449348449707,-650,9984.0
4010,0.31617480516433716,17.797138214111328,408,7088.0,2.3781960010528564,151,9984.0
4020,0.31540560722351074,22.19273567199707,392,7088.0,58.048458099365234,1110,9984.0
4030,0.3170835077762604,14.27067756652832,329,7088.0,108.22466278076172,1830,9984.0
4040,0.3177315294742584,9.809921264648438,141,7088.0,136.57708740234375,2190,9984.0
4050,0.31826841831207275,-3.841290235519409,-115,7088.0,135.3849639892578,2083,9984.0
4060,0.31839990615844727,-7.566834926605225,-188,7088.0,112.6488265991211,1874,9984.0
4070,0.31568947434425354,-5.892560005187988,-94,7088.0,77.45883178710938,1052,9984.0
4080,0.3177344501018524,0.1122383251786232,45,7088.0,34.17116165161133,292,9984.0
4090,0.3182527422904968,5.873077869415283,33,7088.0,-22.401500701904297,-518,9984.0
4100,0.31935378909111023,-3.260104179382324,-25,7088.0,-71.49455261230469,-1363,9984.0
4110,0.3174377977848053,-11.468802452087402,-173,7088.0,-86.14078521728516,-1481,9984.0
4120,0.3181696832180023,-16.261640548706055,-275,7088.0,-76.9414291381836,-1127,9984.0
4130,0.31874847412109375,-12.51038646697998,-201,7088.0,-36.3299674987793,-361,9984.0
4140,0.3194431662559509,-6.310657978057861,-144,7088.0,14.042473793029785,580,9984.0
4150,0.31926000118255615,5.30210018157959,96,7088.0,54.890869140625,1204,9984.0
4160,0.320301353931427,18.029600143432617,349,7088.0,87.09298706054688,1642,9984.0
4170,0.3208017945289612,23.654924392700195,401,7088.0,117.2271728515625,1790,9984.0
4180,0.32088303565979004,28.06140899658203,466,7088.0,114.60604095458984,1762,9984.0
4190,0.3204176723957062,27.786930084228516,465,7088.0,85.05414581298828,1317,9984.0
4200,0.3222442865371704,17.2613582611084,226,7088.0,43.39691162109375,514,9984.0
4210,0.3227004408836365,2.823251485824585,-99,7088.0,-2.30560564994812,-257,9984.0
4220,0.3235267102718353,-13.429513931274414,-239,7088.0,-35.417945861816406,-761,9984.0
4230,0.3240872025489807,-25.325613021850586,-372,7088.0,-72.97103118896484,-1387,9984.0
4240,0.3237296938896179,-20.81845474243164,-406,7088.0,-112.3499755859375,-1891,9984.0
4250,0.32434284687042236,-22.209197998046875,-439,7088.0,-120.68804931640625,-1766,9984.0
4260,0.32475417852401733,-25.928529739379883,-409,7088.0,-100.36658477783203,-1502,9984.0
4270,0.3251440227031708,-19.838890075683594,-283,7088.0,-53.933467864990234,-721,9984.0
4280,0.3268072307109833,-11.014484405517578,-141,7088.0,2.8272464275360107,163,9984.0
4290,0.32249507308006287,-0.6962058544158936,-50,7088.0,47.572410583496094,864,9984.0
4300,0.32272401452064514,-0.711455762386322,-32,7088.0,79.13291931152344,1282,9984.0
4310,0.3225567936897278,-0.5644823908805847,135,7088.0,89.57256317138672,1499,9984.0
4320,0.3221319019794464,4.165853500366211,156,7088.0,96.08734130859375,1562,9984.0
4330,0.3215315043926239,11.400300979614258,93,7088.0,89.30268096923828,1490,9984.0
4340,0.3208349943161011,12.294844627380371,202,7088.0,65.31221008300781,727,9984.0
4350,0.3205457925796509,13.800366401672363,235,7088.0,13.433677673339844,-93,9984.0
4360,0.3209958076477051,15.23180866241455,296,7088.0,-43.56596755981445,-836,9984.0
4370,0.32017531991004944,13.993943214416504,96,7088.0,-81.82337188720703,-1542,9984.0
4380,0.32017531991004944,0.44261908531188965,-72,7088.0,-114.11322021484375,-2078,9984.0
4390,0.3202081024646759,-10.723647117614746,-133,7088.0,-143.71649169921875,-2616,9984.0
4400,0.3200213313102722,-18.128786087036133,-254,7088.0,-159.91445922851562,-2728,9984.0
4410,0.3214093744754791,-18.997962951660156,-291,7088.0,-149.82940673828125,-2338,9984.0
4420,0.3185572326183319,-7.687464237213135,-61,7088.0,-125.62743377685547,-1852,9984.0
4430,0.31796473264694214,-2.004460334777832,-23,7088.0,-73.6759262084961,-884,9984.0
4440,0.32146555185317993,2.481740713119507,57,7088.0,-9.816963195800781,184,9984.0
4450,0.32248324155807495,0.02145598828792572,29,7088.0,56.708221435546875,1334,9984.0
4460,0.32502683997154236,1.6409788131713867,26,7088.0,113.41661071777344,2142,9984.0
4470,0.32600462436676025,-1.7177855968475342,-25,7088.0,152.0128936767578,2640,9984.0
4480,0.3268655240535736,1.2772126197814941,99,7088.0,171.8505401611328,2759,9984.0
4490,0.32736891508102417,1.8795900344848633,-11,7088.0,149.70741271972656,2261,9984.0
4500,0.32708171010017395,-1.3856232166290283,-5,7088.0,108.0435791015625,1546,9984.0
4510,0.32238662242889404,2.2435462474823,87,7088.0,61.82611083984375,714,9984.0
4520,0.32332828640937805,6.755140781402588,167,7088.0,2.6234536170959473,-204,9984.0
4530,0.3244673013687134,10.501849174499512,109,7088.0,-53.684669494628906,-1105,9984.0
4540,0.32661694288253784,9.755671501159668,266,7088.0,-105.30349731445312,-2051,9984.0
4550,0.32468199729919434,14.388362884521484,228,7088.0,-144.6646270751953,-2468,9984.0
4560,0.3264308273792267,19.724990844726562,311,7088.0,-155.41542053222656,-2381,9984.0
4570,0.32813456654548645,19.425642013549805,231,7088.0,-147.46902465820312,-2242,9984.0
4580,0.3293134272098541,13.031183242797852,165,7088.0,-106.31539916992188,-1439,9984.0
4590,0.32941970229148865,11.61322021484375,106,7088.0,-54.070953369140625,-518,9984.0
4600,0.33194974064826965,14.153897285461426,217,7088.0,8.489797592163086,484,9984.0
4610,0.33461424708366394,11.89014720916748,224,7088.0,66.98506164550781,1331,9984.0
4620,0.3367339074611664,7.12132453918457,135,7088.0,118.13060760498047,1979,9984.0
4630,0.3383631706237793,-2.7880263328552246,9,7088.0,145.9900360107422,2244,9984.0
4640,0.33892494440078735,-9.760518074035645,-167,7088.0,143.15744018554688,2262,9984.0
4650,0.34048429131507874,-6.122952461242676,-20,7088.0,113.61627960205078,1824,9984.0
4660,0.34104815125465393,-1.3783711194992065,-63,7088.0,80.51341247558594,1182,9984.0
4670,0.3416224718093872,4.589367866516113,89,7088.0,43.10770034790039,478,9984.0
4680,0.33772414922714233,15.370796203613281,330,7088.0,-17.125879287719727,-730,9984.0
4690,0.3383916914463043,19.96905517578125,356,7088.0,-83.49417877197266,-1542,9984.0
4700,0.3388471007347107,15.233917236328125,205,7088.0,-122.7933120727539,-2097,9984.0
4710,0.33898451924324036,17.451135635375977,291,7088.0,-134.10633850097656,-2127,9984.0
4720,0.3384473919868469,23.56224822998047,413,7088.0,-123.35330200195312,-1773,9984.0
4730,0.33715978264808655,20.93307113647461,310,7088.0,-81.65412139892578,-1076,9984.0
4740,0.3367433249950409,14.639396667480469,178,7088.0,-24.384017944335938,-316,9984.0
4750,0.3365618586540222,4.853142738342285,46,7088.0,33.43732833862305,572,9984.0
4760,0.3364541232585907,-2.8210012912750244,-154,7088.0,82.26727294921875,1541,9984.0
4770,0.3326801359653473,-21.279382705688477,-469,7088.0,114.2651138305664,2096,9984.0
4780,0.3316185474395752,-38.70632553100586,-699,7088.0,125.11568450927734,2180,9984.0
4790,0.3300629258155823,-45.14641571044922,-765,7088.0,111.42552947998047,1761,9984.0
4800,0.32859814167022705,-47.34469985961914,-749,7088.0,91.56155395507812,1316,9984.0
4810,0.3242848515510559,-38.639217376708984,-570,7088.0,49.520755767822266,730,9984.0
4820,0.32296133041381836,-32.6829719543457,-541,7088.0,-6.14034366607666,-493,9984.0
4830,0.32200875878334045,-24.657960891723633,-371,7088.0,-69.80435943603516,-1337,9984.0
4840,0.3204525113105774,-24.750547409057617,-442,7088.0,-112.20925903320312,-1910,9984.0
4850,0.3212437927722931,-26.240835189819336,-317,7088.0,-116.09930419921875,-1967,9984.0
4860,0.3166603744029999,-13.01522159576416,-109,7088.0,-95.72455596923828,-1379,9984.0
4870,0.3165189325809479,3.88694167137146,59,7088.0,-51.90777587890625,-548,9984.0
4880,0.31830039620399475,11.221924781799316,160,7088.0,1.976962924003601,271,9984.0
4890,0.3185243606567383,20.550254821777344,393,7088.0,48.34688949584961,961,9984.0
4900,0.31790560483932495,22.327831268310547,386,7088.0,89.49920654296875,1546,9984.0
4910,0.3185636103153229,20.121116638183594,268,7088.0,116.09527587890625,2019,9984.0
4920,0.318795770406723,10.916779518127441,22,7088.0,121.21869659423828,1990,9984.0
4930,0.32137712836265564,-6.548802375793457,-76,7088.0,104.33733367919922,1462,9984.0
4940,0.32195839285850525,-13.844758987426758,-179,7088.0,66.50812530517578,956,9984.0
4950,0.3201373517513275,-9.395289421081543,-181,7088.0,22.484792709350586,-3,9984.0
4960,0.32130134105682373,-0.9464324116706848,134,7088.0,-29.65274429321289,-621,9984.0
4970,0.3223951458930969,9.011293411254883,145,7088.0,-85.18605041503906,-1681,9984.0
4980,0.32446685433387756,17.444581985473633,279,7088.0,-133.5907440185547,-2326,9984.0
4990,0.3224577009677887,21.810142517089844,379,7088.0,-139.21131896972656,-2258,9984.0
5000,0.3234369158744812,11.567129135131836,189,7088.0,-121.59602355957031,-1766,9984.0
5010,0.32506847381591797,4.550201892852783,34,7088.0,-69.19641876220703,-871,9984.0
5020,0.3272841274738312,4.320652484893799,34,7088.0,-24.498939514160156,-198,9984.0
5030,0.3251158595085144,1.7324504852294922,-96,7088.0,10.483255386352539,460,9984.0
5040,0.32600927352905273,-7.150841236114502,-264,7088.0,47.77507400512695,1064,9984.0
5050,0.3263937532901764,-21.2664852142334,-432,7088.0,76.89251708984375,1461,9984.0
5060,0.3271423280239105,-30.3887996673584,-563,7088.0,84.33490753173828,1469,9984.0
5070,0.32730162143707275,-31.295400619506836,-542,7088.0,84.34476470947266,1202,9984.0
5080,0.32439130544662476,-25.640605926513672,-355,7088.0,67.9385986328125,977,9984.0
5090,0.3242530822753906,-6.7929368019104,73,7088.0,36.0428466796875,512,9984.0
5100,0.32465630769729614,17.659870147705078,418,7088.0,-0.0779741108417511,-369,9984.0
5110,0.32478877902030945,44.346641540527344,945,7088.0,-48.09537124633789,-1104,9984.0
5120,0.32206079363822937,67.18189239501953,1193,7088.0,-93.31956481933594,-1611,9984.0
5130,0.3215378522872925,69.55677032470703,1011,7088.0,-99.52872467041016,-1462,9984.0
5140,0.32292261719703674,48.65884017944336,607,7088.0,-71.47023010253906,-815,9984.0
5150,0.32280999422073364,21.175886154174805,146,7088.0,-16.57893180847168,167,9984.0
5160,0.32373225688934326,-5.0807671546936035,-254,7088.0,43.607139587402344,985,9984.0
5170,0.32111990451812744,-26.02748680114746,-535,7088.0,81.68746948242188,1592,9984.0
5180,0.32093799114227295,-43.37791442871094,-894,7088.0,105.33206939697266,1967,9984.0
5190,0.3206230103969574,-60.94922637939453,-1041,7088.0,111.33049011230469,1880,9984.0
5200,0.32006943225860596,-72.89913177490234,-1174,7088.0,92.70796966552734,1207,9984.0
5210,0.3178207576274872,-69.83553314208984,-1070,7088.0,60.87284469604492,889,9984.0
5220,0.3183067739009857,-47.22928237915039,-523,7088.0,18.160634994506836,65,9984.0
5230,0.31829634308815,-11.477289199829102,-56,7088.0,-27.333202362060547,-570,9984.0
5240,0.31877651810646057,16.762346267700195,330,7088.0,-66.74269104003906,-1350,9984.0
5250,0.3160029649734497,38.27371597290039,801,7088.0,-108.33102416992188,-1954,9984.0
5260,0.31630367040634155,58.528465270996094,922,7088.0,-143.69468688964844,-2325,9984.0
5270,0.3163277506828308,71.50334930419922,1180,7088.0,-139.3693084716797,-2291,9984.0
5280,0.3163575828075409,69.22525787353516,1166,7088.0,-114.85285186767578,-1749,9984.0
5290,0.3165104389190674,56.835384368896484,833,7088.0,-60.71997833251953,-690,9984.0
5300,0.3153862953186035,30.264131546020508,457,7088.0,7.4759521484375,304,9984.0
5310,0.3160887062549591,9.760721206665039,86,7088.0,63.52861404418945,1091,9984.0
5320,0.31673917174339294,-13.958028793334961,-293,7088.0,93.68741607666016,1554,9984.0
5330,0.3168109357357025,-39.735774993896484,-672,7088.0,115.98571014404297,1943,9984.0
5340,0.3143238127231598,-65.47318267822266,-1101,7088.0,124.5575180053711,2059,9984.0
5350,0.3149457275867462,-82.40460205078125,-1438,7088.0,110.36654663085938,1591,9984.0
5360,0.31475430727005005,-84.14073944091797,-1324,7088.0,77.41967010498047,978,9984.0
5370,0.31453871726989746,-58.052940368652344,-746,7088.0,33.50412368774414,450,9984.0
5380,0.31474769115448,-19.784603118896484,-174,7088.0,-18.84275245666504,-642,9984.0
5390,0.31069356203079224,11.288636207580566,285,7088.0,-70.56816864013672,-1234,9984.0
5400,0.31078019738197327,39.244197845458984,783,7088.0,-113.68821716308594,-2155,9984.0
5410,0.31071797013282776,59.79800796508789,1101,7088.0,-148.51242065429688,-2442,9984.0
5420,0.31029996275901794,74.17853546142578,1229,7088.0,-153.31564331054688,-2426,9984.0
5430,0.310671329498291,75.0570297241211,1220,7088.0,-126.14788055419922,-1879,9984.0
5440,0.31086376309394836,61.357608795166016,871,7088.0,-78.06239318847656,-1052,9984.0
5450,0.31142470240592957,26.031946182250977,297,7088.0,-14.637322425842285,65,9984.0
5460,0.3138795495033264,-5.237040042877197,-226,7088.0,42.742061614990234,1060,9984.0
5470,0.31017041206359863,-31.825576782226562,-652,7088.0,94.0102310180664,1809,9984.0
5480,0.31135380268096924,-48.443443298339844,-895,7088.0,129.57110595703125,2240,9984.0
5490,0.31180357933044434,-54.3441162109375,-947,7088.0,144.16358947753906,2364,9984.0
5500,0.3118089735507965,-54.41205596923828,-813,7088.0,138.94000244140625,2181,9984.0
5510,0.3142852187156677,-52.130523681640625,-822,7088.0,117.78160858154297,1947,9984.0
5520,0.31192663311958313,-44.52138137817383,-625,7088.0,79.56070709228516,1080,9984.0
5530,0.3123400807380676,-18.194570541381836,-199,7088.0,38.40094757080078,456,9984.0
5540,0.31283584237098694,4.55864953994751,149,7088.0,-6.524327278137207,-308,9984.0
5550,0.31474336981773376,17.817058563232422,397,7088.0,-62.80218505859375,-1288,9984.0
5560,0.31267213821411133,29.259057998657227,469,7088.0,-116.82748413085938,-2163,9984.0
5570,0.3136756718158722,29.34258270263672,485,7088.0,-129.94976806640625,-2041,9984.0
5580,0.31466788053512573,19.927946090698242,323,7088.0,-117.43956756591797,-1640,9984.0
5590,0.316508024930954,33.17840576171875,543,7088.0,-80.27999114990234,-1091,9984.0
5600,0.31758466362953186,33.81605911254883,599,7088.0,-30.24765968322754,-309,9984.0
5610,0.3147176206111908,37.596534729003906,573,7088.0,17.674968719482422,468,9984.0
5620,0.3153773546218872,21.33062171936035,287,7088.0,54.85515594482422,1066,9984.0
5630,0.3164323568344116,0.8431472182273865,-38,7088.0,90.22872924804688,1593,9984.0
5640,0.31688374280929565,-14.283337593078613,-237,7088.0,104.21232604980469,1565,9984.0
5650,0.3142566382884979,-24.5792293548584,-342,7088.0,86.92456817626953,1267,9984.0
5660,0.3140767216682434,-29.699914932250977,-551,7088.0,62.93014907836914,988,9984.0
5670,0.3139130175113678,-27.999774932861328,-461,7088.0,39.09331130981445,512,9984.0
5680,0.31370511651039124,-18.830615997314453,-124,7088.0,20.50362777709961,181,9984.0
5690,0.31019845604896545,-1.790522813796997,49,7088.0,-12.830732345581055,-417,9984.0
5700,0.30986732244491577,9.467737197875977,103,7088.0,-52.73503875732422,-1146,9984.0
5710,0.3100009858608246,1.243299961090088,-90,7088.0,-77.11643981933594,-1336,9984.0
5720,0.31014111638069153,-20.530832290649414,-373,7088.0,-78.77717590332031,-1138,9984.0
5730,0.30996254086494446,-19.47284507751465,-255,7088.0,-62.299068450927734,-685,9984.0
5740,0.306725412607193,0.8413388133049011,185,7088.0,-17.055538177490234,32,9984.0
5750,0.30693575739860535,26.086383819580078,619,7088.0,34.97825241088867,782,9984.0
5760,0.3065749406814575,52.05848693847656,1045,7088.0,72.47284698486328,1267,9984.0
5770,0.3060086965560913,57.336490631103516,911,7088.0,91.79925537109375,1545,9984.0
5780,0.30392909049987793,39.465885162353516,420,7088.0,88.4670639038086,1330,9984.0
5790,0.30300796031951904,15.224383354187012,94,7088.0,57.987674713134766,711,9984.0
5800,0.3029635548591614,-2.1844143867492676,-218,7088.0,16.41287612915039,-4,9984.0
5810,0.3026701509952545,-16.98257827758789,-252,7088.0,-17.297466278076172,-438,9984.0
5820,0.30260616540908813,-27.96012306213379,-467,7088.0,-42.77764892578125,-683,9984.0
5830,0.30026593804359436,-22.29368782043457,-305,7088.0,-54.78614807128906,-845,9984.0
5840,0.29980963468551636,-4.328839302062988,-78,7088.0,-50.400611877441406,-862,9984.0
5850,0.29972657561302185,-0.6444068551063538,21,7088.0,-41.94992446899414,-730,9984.0
5860,0.2996799349784851,-4.496939182281494,-131,7088.0,-29.649337768554688,-500,9984.0
5870,0.29829540848731995,-26.54277992248535,-534,7088.0,-14.224494934082031,-73,9984.0
5880,0.2983895242214203,-49.33083724975586,-885,7088.0,7.16552209854126,191,9984.0
5890,0.29882776737213135,-61.9394416809082,-1060,7088.0,11.773807525634766,329,9984.0
5900,0.2989768981933594,-54.064823150634766,-764,7088.0,17.328031539916992,311,9984.0
5910,0.298587441444397,-37.47629165649414,-459,7088.0,30.60391616821289,443,9984.0
5920,0.2989324629306793,-19.377775192260742,-200,7088.0,32.73454666137695,511,9984.0
5930,0.29916033148765564,4.170163154602051,93,7088.0,27.562061309814453,422,9984.0
5940,0.2997482419013977,21.977405548095703,554,7088.0,13.301709175109863,102,9984.0
5950,0.2997942566871643,37.704402923583984,694,7088.0,-9.134970664978027,-258,9984.0
5960,0.29858049750328064,48.34304428100586,756,7088.0,-38.7926139831543,-782,9984.0
5970,0.29844021797180176,55.1364631652832,969,7088.0,-52.89912033081055,-877,9984.0
5980,0.2979944050312042,50.836524963378906,829,7088.0,-55.323768615722656,-806,9984.0
5990,0.29818499088287354,31.186174392700195,357,7088.0,-37.84946823120117,-400,9984.0
6000,0.29849183559417725,14.520857810974121,121,7088.0,-19.317026138305664,-106,9984.0
6010,0.2993509769439697,-1.5507792234420776,-185,7088.0,-6.006446361541748,31,9984.0
6020,0.3004691004753113,-27.597347259521484,-608,7088.0,4.63699197769165,226,9984.0
6030,0.3021804094314575,-55.99147033691406,-1079,7088.0,25.335182189941406,479,9984.0
6040,0.3008171617984772,-79.41726684570312,-1424,7088.0,43.50623321533203,706,9984.0
6050,0.30237188935279846,-83.91131591796875,-1378,7088.0,57.18391799926758,1115,9984.0
6060,0.3035012185573578,-75.88031005859375,-1181,7088.0,69.84144592285156,1089,9984.0
6070,0.3050677478313446,-37.97953414916992,-426,7088.0,48.23221969604492,500,9984.0
6080,0.30634593963623047,1.8013008832931519,231,7088.0,27.9563045501709,457,9984.0
6090,0.30556291341781616,31.16187858581543,587,7088.0,-7.560205936431885,-328,9984.0
6100,0.3065396249294281,45.5030403137207,760,7088.0,-42.514892578125,-944,9984.0
6110,0.30734556913375854,61.597679138183594,1222,7088.0,-62.03622817993164,-1004,9984.0
6120,0.30742156505584717,85.54450988769531,1512,7088.0,-68.67465209960938,-1058,9984.0
6130,0.3064332902431488,99.33097076416016,1536,7088.0,-65.5072021484375,-946,9984.0
6140,0.3067993223667145,91.38307189941406,1327,7088.0,-45.05298614501953,-571,9984.0
6150,0.3070456087589264,66.81377410888672,929,7088.0,-19.937368392944336,-306,9984.0
6160,0.3072145879268646,30.8498592376709,323,7088.0,3.3949828147888184,12,9984.0
6170,0.30864495038986206,-8.34391975402832,-340,7088.0,33.309268951416016,570,9984.0
6180,0.307619571685791,-44.81826400756836,-952,7088.0,50.18671798706055,919,9984.0
6190,0.30778858065605164,-82.65435791015625,-1501,7088.0,57.44955825805664,1113,9984.0
6200,0.30751651525497437,-105.71902465820312,-1938,7088.0,58.46009063720703,1011,9984.0
6210,0.30799561738967896,-119.76506042480469,-2063,7088.0,49.54112243652344,890,9984.0
6220,0.30464690923690796,-111.64778137207031,-1700,7088.0,42.81050109863281,584,9984.0
6230,0.3045252859592438,-79.23762512207031,-1064,7088.0,20.659948348999023,119,9984.0
6240,0.3039228320121765,-30.558040618896484,-170,7088.0,-13.3660249710083,-280,9984.0
6250,0.30356544256210327,33.21570587158203,905,7088.0,-34.687522888183594,-646,9984.0
6260,0.3009060323238373,82.46222686767578,1550,7088.0,-34.742828369140625,-439,9984.0
6270,0.3002542555332184,112.8398666381836,1777,7088.0,-19.89043617248535,-251,9984.0
6280,0.29986849427223206,104.896240234375,1622,7088.0,3.5005393028259277,134,9984.0
6290,0.2987571358680725,87.74769592285156,1439,7088.0,23.32570457458496,438,9984.0
6300,0.29792729020118713,72.40077209472656,1057,7088.0,36.86286163330078,604,9984.0
6310,0.29710572957992554,50.34030532836914,706,7088.0,40.00422286987305,631,9984.0
6320,0.2963770031929016,28.90528678894043,277,7088.0,29.060611724853516,382,9984.0
6330,0.29513391852378845,-1.990106463432312,-225,7088.0,8.695589065551758,43,9984.0
6340,0.2941393256187439,-30.730337142944336,-738,7088.0,-2.8303232192993164,-74,9984.0
6350,0.29352641105651855,-62.99429702758789,-1182,7088.0,-6.465758800506592,2,9984.0
6360,0.2926041781902313,-74.59962463378906,-1272,7088.0,1.0278308391571045,243,9984.0
6370,0.2911677658557892,-75.99215698242188,-1393,7088.0,12.62973690032959,278,9984.0
6380,0.29040229320526123,-70.97125244140625,-1077,7088.0,25.664779663085938,484,9984.0
6390,0.2884502708911896,-55.21773147583008,-654,7088.0,54.60186004638672,1070,9984.0
6400,0.29046830534935,-19.962038040161133,-165,7088.0,66.81385803222656,1104,9984.0
6410,0.2880856990814209,16.83741569519043,518,7088.0,58.39963912963867,794,9984.0
6420,0.28697535395622253,46.68793487548828,883,7088.0,38.702354431152344,577,9984.0
6430,0.28754791617393494,73.14681243896484,1390,7088.0,24.84051513671875,340,9984.0
6440,0.28815770149230957,91.07798767089844,1429,7088.0,15.885464668273926,206,9984.0
6450,0.28754428029060364,90.5825424194336,1411,7088.0,1.6352354288101196,-133,9984.0
6460,0.2866459786891937,71.86741638183594,1097,7088.0,-9.934873580932617,-173,9984.0
6470,0.28572267293930054,53.90047073364258,652,7088.0,-12.990900993347168,-87,9984.0
6480,0.2855524718761444,28.252840042114258,272,7088.0,-9.975753784179688,-80,9984.0
6490,0.28504905104637146,1.5002506971359253,-111,7088.0,-7.683509349822998,-13,9984.0
6500,0.2847233712673187,-26.350061416625977,-591,7088.0,5.586230754852295,186,9984.0
6510,0.28488343954086304,-57.082725524902344,-997,7088.0,38.506996154785156,737,9984.0
6520,0.2858365774154663,-71.64691925048828,-1093,7088.0,68.7672119140625,1085,9984.0
6530,0.2870078682899475,-72.90120697021484,-1188,7088.0,83.28138732910156,1492,9984.0
6540,0.28791677951812744,-66.03910827636719,-1045,7088.0,84.78996276855469,1350,9984.0
6550,0.2885819673538208,-36.4329833984375,-398,7088.0,70.2542724609375,1144,9984.0
6560,0.28921422362327576,5.567992210388184,215,7088.0,46.97267532348633,627,9984.0
6570,0.29285427927970886,33.161468505859375,697,7088.0,5.398416519165039,-85,9984.0
6580,0.29380708932876587,47.15607452392578,744,7088.0,-30.711811065673828,-621,9984.0
6590,0.29483795166015625,46.430999755859375,744,7088.0,-50.73005676269531,-849,9984.0
6600,0.2959742248058319,41.46812057495117,621,7088.0,-52.55318069458008,-772,9984.0
6610,0.29664918780326843,37.78202819824219,536,7088.0,-50.790592193603516,-835,9984.0
6620,0.2982825040817261,24.140722274780273,369,7088.0,-54.17716979980469,-972,9984.0
6630,0.29974839091300964,11.190367698669434,193,7088.0,-55.018455505371094,-889,9984.0
6640,0.30132269859313965,0.6468629240989685,-70,7088.0,-45.463741302490234,-570,9984.0
6650,0.3032115697860718,-11.28439712524414,-348,7088.0,-13.712462425231934,120,9984.0
6660,0.3027685284614563,-24.113466262817383,-497,7088.0,23.282791137695312,701,9984.0
6670,0.3042179346084595,-31.98856544494629,-670,7088.0,57.599639892578125,1107,9984.0
6680,0.30557194352149963,-40.31166458129883,-769,7088.0,77.14189910888672,1283,9984.0
6690,0.30627015233039856,-40.20735168457031,-576,7088.0,77.9111099243164,1162,9984.0
6700,0.30641376972198486,-25.76767921447754,-330,7088.0,52.259639739990234,848,9984.0
6710,0.3075176179409027,-13.007875442504883,-150,7088.0,14.229738235473633,24,9984.0
6720,0.30879008769989014,-1.7029494047164917,72,7088.0,-31.527122497558594,-829,9984.0
6730,0.3095881938934326,4.150728225708008,64,7088.0,-69.90937805175781,-1281,9984.0
6740,0.3095223605632782,7.999409198760986,88,7088.0,-100.70650482177734,-1656,9984.0
6750,0.30802786350250244,5.634825706481934,90,7088.0,-122.1200180053711,-2075,9984.0
6760,0.30772802233695984,4.699094295501709,88,7088.0,-134.43934631347656,-2397,9984.0
6770,0.3071732223033905,1.7840882539749146,-27,7088.0,-132.2119140625,-2201,9984.0
6780,0.30879175662994385,-1.2380995750427246,-8,7088.0,-111.58891296386719,-1638,9984.0
6790,0.3035259246826172,6.143656253814697,87,7088.0,-62.758609771728516,-735,9984.0
6800,0.30362918972969055,15.840731620788574,271,7088.0,-9.562541961669922,148,9984.0
6810,0.30348825454711914,25.40515899658203,434,7088.0,34.86093521118164,842,9984.0
6820,0.3030422031879425,24.94849395751953,350,7088.0,71.33406066894531,1260,9984.0
6830,0.2993006110191345,15.256913185119629,158,7088.0,91.64808654785156,1559,9984.0
6840,0.2982918918132782,-2.6951305866241455,-168,7088.0,97.8252944946289,1587,9984.0
6850,0.29737094044685364,-19.0372257232666,-393,7088.0,87.78336334228516,1485,9984.0
6860,0.29741790890693665,-30.092443466186523,-614,7088.0,61.09663772583008,824,9984.0
6870,0.2962726950645447,-41.73087692260742,-603,7088.0,10.018224716186523,-119,9984.0
6880,0.2934497594833374,-35.74037551879883,-528,7088.0,-27.95916748046875,-716,9984.0
6890,0.2921339273452759,-28.178892135620117,-500,7088.0,-67.3292465209961,-1270,9984.0
6900,0.2911054790019989,-15.37929630279541,-142,7088.0,-91.5971908569336,-1642,9984.0
6910,0.28930243849754333,3.3139734268188477,128,7088.0,-114.71041107177734,-1881,9984.0
6920,0.2845614552497864,15.776776313781738,238,7088.0,-118.56719207763672,-1695,9984.0
6930,0.2831318974494934,21.075057983398438,307,7088.0,-97.80021667480469,-1506,9984.0
6940,0.2820065915584564,21.091228485107422,371,7088.0,-65.90592956542969,-857,9984.0
6950,0.2829480469226837,23.846996307373047,438,7088.0,-18.285337448120117,-186,9984.0
6960,0.279323011636734,17.8392333984375,274,7088.0,22.83447265625,613,9984.0
6970,0.2790149450302124,5.131855010986328,88,7088.0,68.90518951416016,1198,9984.0
6980,0.2785089612007141,-12.321958541870117,-316,7088.0,89.235595703125,1639,9984.0
6990,0.27752724289894104,-31.567699432373047,-596,7088.0,107.1260986328125,1870,9984.0
7000,0.2764922082424164,-36.541603088378906,-648,7088.0,112.9451904296875,1881,9984.0
7010,0.2739087641239166,-31.43021583557129,-401,7088.0,108.5503921508789,1611,9984.0
7020,0.2727333903312683,-28.040729522705078,-472,7088.0,78.42794036865234,1039,9984.0
7030,0.2716004550457001,-20.117380142211914,-202,7088.0,33.1965446472168,227,9984.0
7040,0.2721753418445587,-4.856566429138184,-18,7088.0,-23.772869110107422,-863,9984.0
7050,0.27212631702423096,5.166132926940918,229,7088.0,-72.66435241699219,-1373,9984.0
7060,0.27140429615974426,19.36638069152832,370,7088.0,-107.06352996826172,-1984,9984.0
7070,0.2722744643688202,31.621583938598633,671,7088.0,-114.39584350585938,-1818,9984.0
7080,0.2712385356426239,39.71797180175781,540,7088.0,-106.6087875366211,-1488,9984.0
7090,0.2720165252685547,32.46436309814453,448,7088.0,-76.91950225830078,-1119,9984.0
7100,0.26987606287002563,24.660192489624023,428,7088.0,-34.765377044677734,-239,9984.0
7110,0.2711734175682068,15.9630765914917,252,7088.0,16.494247436523438,525,9984.0
7120,0.2721613347530365,-1.5743082761764526,-32,7088.0,58.468772888183594,1231,9984.0
7130,0.27327269315719604,-7.402751922607422,-152,7088.0,86.44705200195312,1655,9984.0
7140,0.2718474268913269,-10.784550666809082,-208,7088.0,109.4776840209961,1774,9984.0
7150,0.2720393240451813,-10.350200653076172,-107,7088.0,107.0090103149414,1672,9984.0
7160,0.2728712558746338,-9.015083312988281,-154,7088.0,92.1974105834961,1486,9984.0
7170,0.27344316244125366,-11.445165634155273,-186,7088.0,77.00009155273438,1117,9984.0
7180,0.27415090799331665,-7.644543647766113,-87,7088.0,49.641422271728516,736,9984.0
7190,0.2739984691143036,-2.9436633586883545,-54,7088.0,13.603078842163086,66,9984.0
7200,0.27469760179519653,3.6075870990753174,149,7088.0,-19.524593353271484,-400,9984.0
7210,0.2753586769104004,8.598093032836914,175,7088.0,-44.40218734741211,-771,9984.0
7220,0.27584487199783325,11.189718246459961,164,7088.0,-56.72971725463867,-993,9984.0
7230,0.2717706859111786,5.240505218505859,112,7088.0,-54.25371170043945,-770,9984.0
7240,0.27231794595718384,-2.3524837493896484,-190,7088.0,-34.66124725341797,-378,9984.0
7250,0.2736801207065582,-24.9879150390625,-500,7088.0,6.44257926940918,341,9984.0
7260,0.27518683671951294,-30.87911605834961,-447,7088.0,50.769432067871094,897,9984.0
7270,0.2730870246887207,-18.16197967529297,-122,7088.0,77.66191101074219,1344,9984.0
7280,0.2742844223976135,-0.47591835260391235,105,7088.0,87.37069702148438,1487,9984.0
7290,0.27511370182037354,18.53009605407715,307,7088.0,84.99348449707031,1262,9984.0
7300,0.27576279640197754,24.909893035888672,434,7088.0,68.21761322021484,1110,9984.0
7310,0.27620765566825867,27.831050872802734,438,7088.0,45.314125061035156,545,9984.0
7320,0.27538788318634033,35.79307556152344,651,7088.0,14.815545082092285,145,9984.0
7330,0.2757055163383484,42.93266677856445,637,7088.0,-3.5573410987854004,-72,9984.0
7340,0.2757890820503235,38.94987869262695,548,7088.0,-20.70303726196289,-496,9984.0
7350,0.27573493123054504,24.694107055664062,366,7088.0,-41.209938049316406,-740,9984.0
7360,0.2750898003578186,5.934521675109863,3,7088.0,-47.434417724609375,-789,9984.0
7370,0.27515751123428345,-12.28133487701416,-318,7088.0,-54.68077087402344,-820,9984.0
7380,0.2753000855445862,-20.61028289794922,-282,7088.0,-55.22066116333008,-934,9984.0
7390,0.2757236063480377,-13.671947479248047,-127,7088.0,-32.227291107177734,-491,9984.0
7400,0.27558615803718567,0.19652926921844482,119,7088.0,-0.3280678689479828,290,9984.0
7410,0.276279091835022,19.034543991088867,370,7088.0,43.93156814575195,961,9984.0
7420,0.2765980362892151,34.1116828918457,521,7088.0,84.70187377929688,1536,9984.0
7430,0.2763572037220001,34.82863235473633,579,7088.0,101.1328353881836,1550,9984.0
7440,0.27809906005859375,30.84674644470215,586,7088.0,94.71235656738281,1444,9984.0
7450,0.2767997086048126,27.359750747680664,410,7088.0,70.3770751953125,1048,9984.0
7460,0.2769174575805664,16.170562744140625,277,7088.0,29.324010848999023,198,9984.0
7470,0.2774071991443634,7.0563435554504395,115,7088.0,-13.700215339660645,-344,9984.0
7480,0.2769105136394501,0.8889343738555908,-56,7088.0,-57.313236236572266,-1147,9984.0
7490,0.27790749073028564,-11.849569320678711,-141,7088.0,-91.67948150634766,-1659,9984.0
7500,0.27769649028778076,-18.87278175354004,-330,7088.0,-116.17230987548828,-1929,9984.0
7510,0.2771408259868622,-20.346115112304688,-386,7088.0,-132.5579376220703,-2255,9984.0
7520,0.278058260679245,-23.421756744384766,-328,7088.0,-132.2618408203125,-2181,9984.0
7530,0.2777596116065979,-21.923721313476562,-305,7088.0,-118.58879089355469,-1829,9984.0
7540,0.27645620703697205,-20.707239151000977,-354,7088.0,-85.77508544921875,-1122,9984.0
7550,0.2768901586532593,-19.861297607421875,-340,7088.0,-27.73423194885254,-132,9984.0
7560,0.278209388256073,-9.548199653625488,-92,7088.0,36.585105895996094,886,9984.0
7570,0.27870938181877136,3.251473903656006,64,7088.0,91.33282470703125,1547,9984.0
7580,0.2767508625984192,1.156119465827942,68,7088.0,114.26274871826172,1850,9984.0
7590,0.2767988443374634,-0.2855164408683777,-59,7088.0,106.29215240478516,1735,9984.0
7600,0.2784993052482605,-5.153459548950195,-67,7088.0,81.65510559082031,1040,9984.0
7610,0.27893251180648804,-9.502433776855469,-161,7088.0,44.73247528076172,516,9984.0
7620,0.27840176224708557,-14.890685081481934,-287,7088.0,-0.31325340270996094,-352,9984.0
7630,0.2791990339756012,-17.73952865600586,-347,7088.0,-47.13398742675781,-1028,9984.0
7640,0.2790621817111969,-28.65941619873047,-542,7088.0,-93.85020446777344,-1781,9984.0
7650,0.2789241075515747,-31.47640037536621,-432,7088.0,-126.7806167602539,-2274,9984.0
7660,0.2789789140224457,-28.951213836669922,-464,7088.0,-142.01612854003906,-2272,9984.0
7670,0.27643105387687683,-22.716510772705078,-457,7088.0,-137.98123168945312,-2159,9984.0
7680,0.27603548765182495,-24.326494216918945,-429,7088.0,-119.35822296142578,-1838,9984.0
7690,0.2776030898094177,-29.132936477661133,-379,7088.0,-82.29054260253906,-1022,9984.0
7700,0.2781081199645996,-14.426451683044434,-88,7088.0,-30.620403289794922,-39,9984.0
7710,0.27947020530700684,4.491824626922607,57,7088.0,25.9727783203125,817,9984.0
7720,0.2802942991256714,5.125970363616943,-30,7088.0,78.19947814941406,1563,9984.0
7730,0.281279981136322,-1.3508522510528564,-52,7088.0,110.3315200805664,1792,9984.0
7740,0.28197142481803894,-5.41689395904541,-26,7088.0,115.26429748535156,1831,9984.0
7750,0.2823496460914612,-5.419581890106201,-181,7088.0,108.71346282958984,1756,9984.0
7760,0.28184041380882263,-6.81554651260376,-62,7088.0,83.0731430053711,1086,9984.0
7770,0.28358834981918335,0.8548418879508972,9,7088.0,34.36381530761719,379,9984.0
7780,0.28416579961776733,5.292157173156738,84,7088.0,-13.903841018676758,-348,9984.0
7790,0.28517282009124756,13.75268268585205,364,7088.0,-55.307647705078125,-1163,9984.0
7800,0.2862186133861542,17.9547176361084,310,7088.0,-91.3880615234375,-1585,9984.0
7810,0.2873539924621582,19.289087295532227,245,7088.0,-122.2214126586914,-2022,9984.0
7820,0.2875242531299591,17.84518051147461,358,7088.0,-126.26924133300781,-2088,9984.0
7830,0.2886309027671814,20.23143768310547,347,7088.0,-105.38848114013672,-1565,9984.0
7840,0.28888899087905884,14.92686939239502,230,7088.0,-67.57390594482422,-899,9984.0
7850,0.2914811372756958,11.730369567871094,105,7088.0,-29.889251708984375,-284,9984.0
7860,0.29294759035110474,9.220458030700684,127,7088.0,13.151554107666016,504,9984.0
7870,0.2952589988708496,15.993720054626465,224,7088.0,55.85032272338867,1174,9984.0
7880,0.2967192530632019,17.60272789001465,177,7088.0,101.00183868408203,1947,9984.0
7890,0.2975787818431854,11.947174072265625,115,7088.0,132.32937622070312,2250,9984.0
7900,0.29835814237594604,-2.5758821964263916,-167,7088.0,128.8337860107422,1970,9984.0
7910,0.2990294098854065,-21.912446975708008,-382,7088.0,101.07238006591797,1429,9984.0
7920,0.2996360659599304,-32.617897033691406,-557,7088.0,66.02059936523438,947,9984.0
7930,0.3000016212463379,-32.311405181884766,-531,7088.0,27.204944610595703,306,9984.0
7940,0.30048277974128723,-17.444608688354492,-195,7088.0,-10.261574745178223,-430,9984.0
7950,0.30099666118621826,-11.00696849822998,-134,7088.0,-50.962799072265625,-989,9984.0
7960,0.3012397289276123,-4.599182605743408,-106,7088.0,-74.4074478149414,-1194,9984.0
7970,0.3022821247577667,3.7257728576660156,160,7088.0,-75.51835632324219,-1248,9984.0
7980,0.30213338136672974,16.459991455078125,412,7088.0,-49.169593811035156,-701,9984.0
7990,0.3026283085346222,32.730167388916016,574,7088.0,-16.489534378051758,-107,9984.0
8000,0.30399221181869507,40.528594970703125,648,7088.0,22.164573669433594,686,9984.0
8010,0.3047584891319275,43.108272552490234,724,7088.0,65.34205627441406,1311,9984.0
8020,0.30355513095855713,47.513492584228516,727,7088.0,98.7121353149414,1650,9984.0
8030,0.30404627323150635,37.57428741455078,545,7088.0,113.76749420166016,1861,9984.0
8040,0.30397117137908936,19.442440032958984,310,7088.0,110.27433776855469,1685,9984.0
8050,0.3051263689994812,8.03462028503418,63,7088.0,95.13507080078125,1551,9984.0
8060,0.3046454191207886,-1.235825777053833,-129,7088.0,67.91710662841797,994,9984.0
8070,0.30447328090667725,-4.041450023651123,0,7088.0,37.371646881103516,392,9984.0
8080,0.30464744567871094,3.023632287979126,11,7088.0,3.2199196815490723,-3,9984.0
8090,0.30443209409713745,6.145631790161133,75,7088.0,-27.56199073791504,-673,9984.0
8100,0.30405884981155396,0.5531820058822632,14,7088.0,-62.69572830200195,-1194,9984.0
8110,0.3046014606952667,-9.541253089904785,-268,7088.0,-103.2026138305664,-1805,9984.0
8120,0.30414876341819763,-23.12677001953125,-482,7088.0,-130.86483764648438,-2092,9984.0
8130,0.30322909355163574,-24.390716552734375,-393,7088.0,-110.08677673339844,-1711,9984.0
8140,0.30552372336387634,-23.53055191040039,-298,7088.0,-73.66707611083984,-1085,9984.0
8150,0.30392855405807495,-15.764872550964355,-221,7088.0,-26.580053329467773,-219,9984.0
8160,0.30443063378334045,-17.099824905395508,-220,7088.0,24.15972328186035,503,9984.0
8170,0.3049209415912628,-6.470539569854736,-27,7088.0,63.16643142700195,1258,9984.0
8180,0.3050343692302704,9.776739120483398,117,7088.0,91.92604064941406,1643,9984.0
8190,0.3052849769592285,28.007064819335938,504,7088.0,107.91386413574219,1721,9984.0
8200,0.303240031003952,38.20733642578125,663,7088.0,102.1024398803711,1472,9984.0
8210,0.3033798635005951,26.233718872070312,347,7088.0,67.23267364501953,951,9984.0
8220,0.30439141392707825,7.122304916381836,0,7088.0,24.995014190673828,230,9984.0
8230,0.3045041561126709,-11.16729736328125,-245,7088.0,-18.462759017944336,-582,9984.0
8240,0.30391061305999756,-20.695329666137695,-292,7088.0,-59.394920349121094,-1170,9984.0
8250,0.30387410521507263,-20.666261672973633,-370,7088.0,-95.84944152832031,-1595,9984.0
8260,0.3046559989452362,-15.59148120880127,-295,7088.0,-117.72393798828125,-1921,9984.0
8270,0.3047008216381073,-8.835229873657227,-102,7088.0,-127.66536712646484,-2160,9984.0
8280,0.3018149435520172,-1.334797739982605,48,7088.0,-125.22232055664062,-2031,9984.0
8290,0.3020438551902771,9.615639686584473,268,7088.0,-104.49415588378906,-1638,9984.0
8300,0.30397406220436096,13.993227005004883,287,7088.0,-65.52455139160156,-747,9984.0
8310,0.30444422364234924,12.313913345336914,162,7088.0,0.823682427406311,171,9984.0
8320,0.30714234709739685,6.762104034423828,139,7088.0,46.128440856933594,1003,9984.0
8330,0.30284959077835083,0.6463925838470459,-17,7088.0,91.11347198486328,1523,9984.0
8340,0.30376702547073364,-5.745483875274658,-106,7088.0,114.73731994628906,1907,9984.0
8350,0.30423012375831604,-17.615745544433594,-314,7088.0,124.0628433227539,1971,9984.0
8360,0.3047640323638916,-30.118104934692383,-604,7088.0,109.01499938964844,1655,9984.0
8370,0.30217915773391724,-44.71258544921875,-836,7088.0,77.04182434082031,1004,9984.0
8380,0.30319371819496155,-51.93648147583008,-904,7088.0,28.631128311157227,95,9984.0
8390,0.303719162940979,-48.418785095214844,-725,7088.0,-21.130386352539062,-528,9984.0
8400,0.30487731099128723,-39.6799201965332,-623,7088.0,-62.3502197265625,-1223,9984.0
8410,0.30179139971733093,-24.40743064880371,-284,7088.0,-98.8431625366211,-1856,9984.0
8420,0.30296164751052856,-6.144391059875488,11,7088.0,-121.752685546875,-2128,9984.0
8430,0.30328211188316345,5.439223766326904,91,7088.0,-124.19903564453125,-1927,9984.0
8440,0.3039708137512207,6.351318836212158,175,7088.0,-104.12977600097656,-1580,9984.0
8450,0.3046039342880249,10.119864463806152,159,7088.0,-60.70314025878906,-682,9984.0
8460,0.30359670519828796,14.967537879943848,210,7088.0,-6.44741678237915,175,9984.0
8470,0.30450886487960815,15.457340240478516,204,7088.0,47.386783599853516,1091,9984.0
8480,0.3060135841369629,8.438451766967773,36,7088.0,92.45350646972656,1770,9984.0
8490,0.30672961473464966,-1.2563109397888184,-172,7088.0,109.76680755615234,1888,9984.0
8500,0.3032647371292114,-17.238922119140625,-390,7088.0,99.11273956298828,1455,9984.0
8510,0.3041234314441681,-32.457618713378906,-488,7088.0,75.07372283935547,948,9984.0
8520,0.3044048547744751,-22.10132598876953,-279,7088.0,35.772029876708984,452,9984.0
8530,0.3047328293323517,-1.3979811668395996,12,7088.0,2.211210012435913,-128,9984.0
8540,0.30521857738494873,7.610650539398193,110,7088.0,-28.6027889251709,-675,9984.0
8550,0.3029675781726837,7.481992721557617,166,7088.0,-53.6024284362793,-1013,9984.0
8560,0.30311018228530884,10.084183692932129,189,7088.0,-73.19818115234375,-1166,9984.0
8570,0.30317461490631104,15.298707008361816,192,7088.0,-78.45011138916016,-1181,9984.0
8580,0.30300694704055786,14.030823707580566,183,7088.0,-67.56095123291016,-952,9984.0
8590,0.3023715615272522,18.94879722595215,350,7088.0,-41.113746643066406,-438,9984.0
8600,0.3028806149959564,27.259849548339844,428,7088.0,1.866776943206787,290,9984.0
8610,0.3036307096481323,20.806354522705078,349,7088.0,49.07133102416992,1115,9984.0
8620,0.30416643619537354,10.064888000488281,59,7088.0,89.01519012451172,1706,9984.0
8630,0.3024086654186249,-13.131730079650879,-364,7088.0,109.94402313232422,1840,9984.0
8640,0.30237212777137756,-32.07243347167969,-543,7088.0,105.12018585205078,1623,9984.0
8650,0.3023057281970978,-24.855867385864258,-260,7088.0,81.53421020507812,1139,9984.0
8660,0.3020864427089691,-7.83609676361084,-12,7088.0,50.9849853515625,685,9984.0
8670,0.30304598808288574,5.787013053894043,112,7088.0,14.431071281433105,91,9984.0
8680,0.3027362525463104,12.145691871643066,265,7088.0,-28.472352981567383,-697,9984.0
8690,0.3032778799533844,22.151657104492188,440,7088.0,-57.32268142700195,-1060,9984.0
8700,0.30348026752471924,25.27680015563965,394,7088.0,-82.2760009765625,-1383,9984.0
8710,0.30421873927116394,21.6980037689209,285,7088.0,-104.8658447265625,-1780,9984.0
8720,0.30222028493881226,12.29983901977539,112,7088.0,-122.26971435546875,-1962,9984.0
8730,0.30245956778526306,-0.25296521186828613,-22,7088.0,-115.17130279541016,-1812,9984.0
8740,0.3028050363063812,-10.296324729919434,-225,7088.0,-80.52668762207031,-1013,9984.0
8750,0.3049700856208801,-22.97764015197754,-431,7088.0,-31.987075805664062,-237,9984.0
8760,0.30634403228759766,-31.941539764404297,-520,7088.0,25.744909286499023,750,9984.0
8770,0.3060051202774048,-26.687257766723633,-373,7088.0,76.97683715820312,1429,9984.0
8780,0.30734798312187195,-8.149750709533691,-33,7088.0,107.59187316894531,1773,9984.0
8790,0.3086763322353363,11.682005882263184,351,7088.0,111.40687561035156,1741,9984.0
8800,0.30952560901641846,22.13581085205078,440,7088.0,100.86488342285156,1696,9984.0
8810,0.3088383972644806,19.985158920288086,250,7088.0,78.39661407470703,1219,9984.0
8820,0.30964478850364685,16.60439109802246,258,7088.0,53.1541748046875,628,9984.0
8830,0.3108352720737457,17.53797721862793,329,7088.0,17.836715698242188,73,9984.0
8840,0.31181085109710693,11.534794807434082,155,7088.0,-20.44245719909668,-402,9984.0
8850,0.3118497431278229,1.5666073560714722,-82,7088.0,-54.93741989135742,-1006,9984.0
8860,0.31273454427719116,-6.540449619293213,-144,7088.0,-86.72980499267578,-1577,9984.0
8870,0.31341007351875305,-5.986329555511475,-61,7088.0,-103.46728515625,-1757,9984.0
8880,0.3152647912502289,-6.126645088195801,-28,7088.0,-100.10298919677734,-1606,9984.0
8890,0.3161723017692566,-4.196637153625488,49,7088.0,-69.00040435791016,-990,9984.0
8900,0.313430517911911,3.606983184814453,93,7088.0,-28.24015235900879,-328,9984.0
8910,0.3147890865802765,5.76361608505249,91,7088.0,16.036678314208984,401,9984.0
8920,0.3157389163970947,3.9617645740509033,73,7088.0,52.994720458984375,951,9984.0
8930,0.3167635500431061,3.295180559158325,19,7088.0,74.50556945800781,1283,9984.0
8940,0.3148897588253021,-2.870565414428711,-41,7088.0,84.63058471679688,1345,9984.0
8950,0.31517109274864197,-9.973350524902344,-95,7088.0,84.13223266601562,1219,9984.0
8960,0.3168429732322693,-10.666543960571289,-74,7088.0,68.68186950683594,829,9984.0
8970,0.31730887293815613,-6.484658241271973,-87,7088.0,30.28047752380371,320,9984.0
8980,0.3178778290748596,-8.901360511779785,-218,7088.0,0.48676159977912903,-153,9984.0
8990,0.3154463469982147,-10.283498764038086,-193,7088.0,-30.940670013427734,-641,9984.0
9000,0.31550052762031555,-6.593783378601074,-98,7088.0,-69.12334442138672,-1275,9984.0
9010,0.31552720069885254,-1.1239888668060303,2,7088.0,-97.40681457519531,-1811,9984.0
9020,0.3155430555343628,5.481312274932861,162,7088.0,-106.01771545410156,-1663,9984.0
9030,0.3132477104663849,5.498775482177734,78,7088.0,-86.84883117675781,-1353,9984.0
9040,0.31477683782577515,4.433701992034912,168,7088.0,-51.490482330322266,-572,9984.0
9050,0.31518805027008057,14.308241844177246,340,7088.0,0.26376983523368835,279,9984.0
9060,0.31631848216056824,20.622865676879883,319,7088.0,52.8164176940918,1140,9984.0
9070,0.31433096528053284,13.280482292175293,171,7088.0,87.97901916503906,1476,9984.0
9080,0.31491395831108093,8.788793563842773,153,7088.0,100.40449523925781,1646,9984.0
9090,0.3150104582309723,0.7927481532096863,7,7088.0,94.64598846435547,1380,9984.0
9100,0.3149304687976837,-9.997365951538086,-222,7088.0,68.33397674560547,878,9984.0
9110,0.31490305066108704,-20.31922721862793,-292,7088.0,34.655616760253906,465,9984.0
9120,0.31461432576179504,-21.935728073120117,-413,7088.0,2.6556107997894287,-25,9984.0
9130,0.3148344159126282,-18.880178451538086,-331,7088.0,-28.131996154785156,-624,9984.0
9140,0.3149687349796295,-12.672489166259766,-167,7088.0,-51.111148834228516,-1018,9984.0
9150,0.31498828530311584,-8.521885871887207,-27,7088.0,-67.97826385498047,-1198,9984.0
9160,0.3134233355522156,0.1264622062444687,71,7088.0,-72.62675476074219,-1137,9984.0
9170,0.3135206401348114,5.960318088531494,133,7088.0,-63.485904693603516,-877,9984.0
9180,0.3138563930988312,6.214481830596924,62,7088.0,-33.33902359008789,-356,9984.0
9190,0.3143835961818695,5.883931636810303,129,7088.0,4.942936897277832,193,9984.0
9200,0.31491634249687195,7.955042362213135,64,7088.0,32.839847564697266,589,9984.0
9210,0.3121176064014435,-3.073631525039673,-121,7088.0,59.204654693603516,1055,9984.0
9220,0.31242942810058594,-11.507768630981445,-188,7088.0,85.97135925292969,1485,9984.0
9230,0.3125526010990143,-6.947918891906738,-115,7088.0,87.44747924804688,1384,9984.0
9240,0.3126305341720581,4.034145355224609,38,7088.0,71.68024444580078,1145,9984.0
9250,0.3098929822444916,7.1279616355896,44,7088.0,50.37144088745117,704,9984.0
9260,0.30947935581207275,5.864471912384033,154,7088.0,23.679441452026367,234,9984.0
9270,0.30910229682922363,7.057175159454346,200,7088.0,-3.7006924152374268,-202,9984.0
9280,0.3087010979652405,9.836612701416016,169,7088.0,-39.5079460144043,-721,9984.0
9290,0.30788877606391907,12.754892349243164,166,7088.0,-67.62555694580078,-1135,9984.0
9300,0.3073827028274536,7.065951824188232,9,7088.0,-88.71661376953125,-1494,9984.0
9310,0.3066084682941437,-2.5206122398376465,-99,7088.0,-94.96929931640625,-1508,9984.0
9320,0.30564767122268677,-0.36696773767471313,-2,7088.0,-81.07010650634766,-1142,9984.0
9330,0.3070596158504486,6.0957722663879395,99,7088.0,-65.44252014160156,-853,9984.0
9340,0.30582189559936523,2.5289409160614014,-28,7088.0,-32.15992736816406,-225,9984.0
9350,0.3062923550605774,-7.79833984375,-169,7088.0,13.436074256896973,440,9984.0
9360,0.30681124329566956,-21.501298904418945,-483,7088.0,64.6432876586914,1325,9984.0
9370,0.3071672022342682,-33.32349395751953,-595,7088.0,100.78672790527344,1740,9984.0
9380,0.3062562346458435,-35.5113525390625,-614,7088.0,103.54598999023438,1665,9984.0
9390,0.30643823742866516,-24.735708236694336,-387,7088.0,82.63675689697266,1238,9984.0
9400,0.30686986446380615,-8.149064064025879,-110,7088.0,42.7479133605957,454,9984.0
9410,0.30800408124923706,7.80140495300293,207,7088.0,4.847952365875244,-177,9984.0
9420,0.3085165321826935,11.012271881103516,295,7088.0,-28.24155044555664,-593,9984.0
9430,0.30796918272972107,17.45210838317871,301,7088.0,-56.334373474121094,-966,9984.0
9440,0.3085121512413025,18.27088737487793,169,7088.0,-69.22378540039062,-981,9984.0
9450,0.30975085496902466,14.043933868408203,146,7088.0,-59.267433166503906,-746,9984.0
9460,0.3104900121688843,15.460933685302734,197,7088.0,-29.376794815063477,-272,9984.0
9470,0.31278738379478455,12.861104965209961,174,7088.0,-0.7478298544883728,153,9984.0
9480,0.31388840079307556,10.218700408935547,163,7088.0,13.965828895568848,344,9984.0
9490,0.3150039613246918,10.531033515930176,146,7088.0,26.28131866455078,604,9984.0
9500,0.3159428536891937,7.052473068237305,102,7088.0,41.798667907714844,838,9984.0
9510,0.3177306354045868,7.190020561218262,54,7088.0,53.2950439453125,920,9984.0
9520,0.3186613619327545,-1.2226331233978271,-83,7088.0,53.39229202270508,946,9984.0
9530,0.3203142583370209,-9.304983139038086,-194,7088.0,47.69843673706055,734,9984.0
9540,0.3211889863014221,-16.799959182739258,-293,7088.0,24.15165138244629,229,9984.0
9550,0.32242465019226074,-20.962987899780273,-325,7088.0,-4.554791450500488,-278,9984.0
9560,0.3237166106700897,-19.95050621032715,-195,7088.0,-32.7022819519043,-763,9984.0
9570,0.324770450592041,-10.787958145141602,-22,7088.0,-55.90818786621094,-1062,9984.0
9580,0.32588091492652893,3.8020946979522705,146,7088.0,-69.82705688476562,-1197,9984.0
9590,0.3270118832588196,14.17141342163086,308,7088.0,-69.83274841308594,-1076,9984.0
9600,0.3284038007259369,25.4930362701416,427,7088.0,-48.653419494628906,-728,9984.0
9610,0.32966500520706177,23.378259658813477,379,7088.0,-21.769052505493164,-285,9984.0
9620,0.33083823323249817,16.893436431884766,207,7088.0,11.095507621765137,399,9984.0
9630,0.3326152563095093,-1.1117397546768188,-114,7088.0,47.05093765258789,896,9984.0
9640,0.33395954966545105,-15.298077583312988,-317,7088.0,67.75923156738281,1237,9984.0
9650,0.33453285694122314,-21.142074584960938,-410,7088.0,79.37323760986328,1323,9984.0
9660,0.3351951837539673,-22.063146591186523,-324,7088.0,69.50481414794922,975,9984.0
9670,0.3365635871887207,-16.95698356628418,-200,7088.0,43.61722183227539,476,9984.0
9680,0.3372649550437927,-11.42387580871582,-155,7088.0,9.011345863342285,-92,9984.0
9690,0.3377131223678589,-12.108473777770996,-89,7088.0,-18.228351593017578,-525,9984.0
9700,0.3382219672203064,-5.736347675323486,3,7088.0,-39.99441146850586,-874,9984.0
9710,0.33875367045402527,-7.586548328399658,-124,7088.0,-55.585533142089844,-978,9984.0
9720,0.33919787406921387,-6.659152030944824,-103,7088.0,-64.28498077392578,-1238,9984.0
9730,0.33823829889297485,-2.491668224334717,-22,7088.0,-76.04168701171875,-1413,9984.0
9740,0.33887049555778503,-4.329220771789551,-98,7088.0,-85.77902221679688,-1453,9984.0
9750,0.33904606103897095,-1.8722858428955078,-7,7088.0,-75.16505432128906,-1044,9984.0
9760,0.3393585979938507,5.842440605163574,154,7088.0,-43.077735900878906,-452,9984.0
9770,0.3408520221710205,11.273537635803223,145,7088.0,-0.1690991222858429,303,9984.0
9780,0.33929330110549927,8.136014938354492,89,7088.0,33.53559494018555,716,9984.0
9790,0.339702308177948,-4.269076824188232,-137,7088.0,60.29119110107422,1038,9984.0
9800,0.33984148502349854,-6.883251190185547,-102,7088.0,69.42215728759766,1119,9984.0
9810,0.3404514193534851,-3.981870412826538,-19,7088.0,76.1080093383789,1263,9984.0
9820,0.33901628851890564,8.660927772521973,152,7088.0,69.25696563720703,1096,9984.0
9830,0.3389974534511566,22.248254776000977,341,7088.0,49.80012130737305,689,9984.0
9840,0.3390074372291565,26.984161376953125,439,7088.0,20.885860443115234,179,9984.0
9850,0.33921587467193604,25.20083236694336,404,7088.0,-9.250283241271973,-413,9984.0
9860,0.3390733599662781,15.328462600708008,247,7088.0,-41.54345703125,-916,9984.0
9870,0.33895981311798096,0.6924009323120117,-29,7088.0,-71.70418548583984,-1294,9984.0
9880,0.33885279297828674,-12.135780334472656,-332,7088.0,-96.17338562011719,-1522,9984.0
9890,0.33853060007095337,-22.867399215698242,-370,7088.0,-98.97349548339844,-1590,9984.0
9900,0.33971109986305237,-9.547178268432617,-105,7088.0,-99.3097915649414,-1501,9984.0
9910,0.33846309781074524,5.628390312194824,91,7088.0,-80.7298812866211,-1155,9984.0
9920,0.3387557864189148,8.290050506591797,83,7088.0,-46.68917465209961,-478,9984.0
9930,0.33979928493499756,-2.3722481727600098,-78,7088.0,3.2651965618133545,311,9984.0
9940,0.34018659591674805,-0.8918576836585999,48,7088.0,44.32560348510742,1034,9984.0
9950,0.3387681543827057,-1.1147055625915527,-33,7088.0,84.25794219970703,1519,9984.0
9960,0.3391314446926117,2.8526909351348877,91,7088.0,102.57054901123047,1632,9984.0
9970,0.3394404351711273,13.37350082397461,306,7088.0,92.33930969238281,1340,9984.0
9980,0.33973222970962524,20.792142868041992,372,7088.0,48.90544509887695,701,9984.0
9990,0.34118419885635376,21.96535301208496,262,7088.0,6.925563812255859,-5,9984.0
10000,0.33960914611816406,7.738105297088623,4,7088.0,-25.53351402282715,-598,9984.0
10010,0.33995768427848816,-6.585652828216553,-76,7088.0,-47.73308181762695,-889,9984.0
10020,0.34017524123191833,-11.788680076599121,-206,7088.0,-60.95453643798828,-948,9984.0
10030,0.34090498089790344,-19.319486618041992,-400,7088.0,-68.71138763427734,-1033,9984.0
10040,0.33815455436706543,-19.888303756713867,-361,7088.0,-55.352638244628906,-726,9984.0
10050,0.3385128676891327,-21.69190788269043,-400,7088.0,-17.268163681030273,-72,9984.0
10060,0.3391761779785156,-17.902938842773438,-224,7088.0,24.812013626098633,572,9984.0
10070,0.3403003513813019,3.146988868713379,236,7088.0,57.180023193359375,901,9984.0
10080,0.3401498794555664,25.916858673095703,574,7088.0,75.68994140625,1242,9984.0
10090,0.3405798077583313,38.543907165527344,651,7088.0,82.90087127685547,1300,9984.0
10100,0.3406528830528259,43.93637466430664,692,7088.0,71.88640594482422,1172,9984.0
10110,0.3425372242927551,49.28407669067383,788,7088.0,47.672767639160156,708,9984.0
10120,0.3425360918045044,45.28192138671875,659,7088.0,15.595621109008789,13,9984.0
10130,0.34317734837532043,22.218774795532227,296,7088.0,-21.890186309814453,-610,9984.0
10140,0.34381356835365295,1.691218376159668,51,7088.0,-50.54594421386719,-956,9984.0
10150,0.34429672360420227,-20.767744064331055,-423,7088.0,-65.64177703857422,-1142,9984.0
10160,0.3447116017341614,-39.372039794921875,-700,7088.0,-75.4485855102539,-1273,9984.0
10170,0.3439643383026123,-44.50294876098633,-734,7088.0,-82.92215728759766,-1387,9984.0
10180,0.34438589215278625,-40.21754455566406,-610,7088.0,-82.01494598388672,-1312,9984.0
10190,0.345794141292572,-29.1637020111084,-378,7088.0,-61.575523376464844,-1009,9984.0
10200,0.34697404503822327,-11.096923828125,-83,7088.0,-24.1214656829834,-216,9984.0
10210,0.3481358587741852,10.411648750305176,276,7088.0,18.57257652282715,407,9984.0
10220,0.34614133834838867,35.657981872558594,688,7088.0,60.554378509521484,1128,9984.0
10230,0.34667038917541504,44.9171257019043,795,7088.0,100.33585357666016,1677,9984.0
10240,0.347062885761261,47.848060607910156,774,7088.0,116.0217514038086,1823,9984.0
10250,0.34740886092185974,37.83740997314453,532,7088.0,107.811279296875,1681,9984.0
10260,0.3461574614048004,25.508882522583008,342,7088.0,84.11030578613281,1095,9984.0
10270,0.34621232748031616,16.08690643310547,209,7088.0,37.4079475402832,382,9984.0
10280,0.3475392162799835,3.945253610610962,-110,7088.0,-8.182342529296875,-484,9984.0
10290,0.3477861285209656,-23.561647415161133,-628,7088.0,-57.09140396118164,-1201,9984.0
10300,0.3482256531715393,-52.9971923828125,-1004,7088.0,-99.06426239013672,-1809,9984.0
10310,0.34767982363700867,-67.72090911865234,-1132,7088.0,-131.24600219726562,-2285,9984.0
10320,0.34742751717567444,-62.45066833496094,-1016,7088.0,-156.81375122070312,-2585,9984.0
10330,0.34958815574645996,-46.552703857421875,-627,7088.0,-149.02084350585938,-2302,9984.0
10340,0.3493226170539856,-20.913606643676758,-259,7088.0,-117.69706726074219,-1697,9984.0
10350,0.3472081124782562,-3.0678913593292236,96,7088.0,-75.69970703125,-1026,9984.0
10360,0.3483918309211731,26.861766815185547,594,7088.0,-35.53919982910156,-469,9984.0
10370,0.35057130455970764,48.02613067626953,859,7088.0,4.284383773803711,188,9984.0
10380,0.35160738229751587,49.28507614135742,740,7088.0,44.27960968017578,958,9984.0
10390,0.3499189019203186,35.63645935058594,526,7088.0,79.1693344116211,1539,9984.0
10400,0.35078373551368713,18.586681365966797,241,7088.0,100.34532165527344,1731,9984.0
10410,0.35047194361686707,12.18210506439209,194,7088.0,108.09503936767578,1728,9984.0
10420,0.3511805534362793,7.812739849090576,76,7088.0,101.76303100585938,1428,9984.0
10430,0.35133734345436096,-5.834008693695068,-80,7088.0,71.26813507080078,882,9984.0
10440,0.3485133945941925,-15.68770980834961,-302,7088.0,35.239776611328125,331,9984.0
10450,0.34907451272010803,-36.312286376953125,-705,7088.0,-3.2960011959075928,-327,9984.0
10460,0.34926363825798035,-70.24244689941406,-1244,7088.0,-42.74858474731445,-920,9984.0
10470,0.3493364155292511,-79.48431396484375,-1266,7088.0,-68.63215637207031,-1211,9984.0
10480,0.3476698398590088,-71.188232421875,-1080,7088.0,-67.30754089355469,-1088,9984.0
10490,0.3491012454032898,-56.70012283325195,-908,7088.0,-57.55028533935547,-847,9984.0
10500,0.3487151861190796,-38.837772369384766,-499,7088.0,-42.09251022338867,-540,9984.0
10510,0.35009142756462097,-5.924496650695801,33,7088.0,-17.165428161621094,-83,9984.0
10520,0.35109183192253113,31.232152938842773,686,7088.0,9.902543067932129,348,9984.0
10530,0.3482864797115326,57.838172912597656,989,7088.0,39.162235260009766,843,9984.0
10540,0.3493325114250183,66.90304565429688,1085,7088.0,59.5595588684082,1206,9984.0
10550,0.3493921160697937,60.104522705078125,891,7088.0,72.70693969726562,1293,9984.0
10560,0.3492797017097473,46.88344955444336,731,7088.0,84.4467544555664,1368,9984.0
10570,0.3465845584869385,36.915489196777344,602,7088.0,89.54264831542969,1262,9984.0
10580,0.346249520778656,30.23090171813965,489,7088.0,67.28852081298828,951,9984.0
10590,0.346055269241333,22.806922912597656,292,7088.0,40.31693649291992,499,9984.0
10600,0.3458464443683624,-0.41854310035705566,-164,7088.0,5.870157718658447,26,9984.0
10610,0.3462487459182739,-33.47852325439453,-734,7088.0,-18.19507598876953,-300,9984.0
10620,0.34638211131095886,-69.28479766845703,-1264,7088.0,-31.77174186706543,-439,9984.0
10630,0.3462976813316345,-90.2667236328125,-1498,7088.0,-37.549705505371094,-607,9984.0
10640,0.34607255458831787,-84.57571411132812,-1234,7088.0,-23.002723693847656,-275,9984.0
10650,0.3474797308444977,-53.56206130981445,-722,7088.0,8.477317810058594,222,9984.0
10660,0.3469124436378479,-26.469802856445312,-306,7088.0,29.489120483398438,488,9984.0
10670,0.3477306663990021,3.9168388843536377,231,7088.0,33.83755874633789,551,9984.0
10680,0.34842753410339355,33.018489837646484,606,7088.0,39.07294845581055,653,9984.0
10690,0.34836453199386597,43.47003173828125,746,7088.0,39.45159912109375,600,9984.0
10700,0.3468928933143616,50.91370391845703,836,7088.0,37.907798767089844,596,9984.0
10710,0.34717726707458496,58.47983932495117,956,7088.0,33.13619613647461,441,9984.0
10720,0.3471742272377014,55.572532653808594,892,7088.0,27.809457778930664,297,9984.0
10730,0.34711024165153503,48.954124450683594,804,7088.0,11.328810691833496,-48,9984.0
10740,0.347984254360199,40.904335021972656,619,7088.0,-6.498495101928711,-289,9984.0
10750,0.34788084030151367,30.90174102783203,408,7088.0,-29.17384147644043,-533,9984.0
10760,0.3477875590324402,15.284627914428711,201,7088.0,-41.47381591796875,-670,9984.0
10770,0.3475043773651123,-1.8105536699295044,-135,7088.0,-43.18254852294922,-577,9984.0
10780,0.34780246019363403,-30.735916137695312,-645,7088.0,-35.561031341552734,-471,9984.0
10790,0.349109411239624,-63.0782470703125,-1093,7088.0,-10.70371150970459,-179,9984.0
10800,0.34943151473999023,-79.75853729248047,-1332,7088.0,13.224908828735352,172,9984.0
10810,0.3498011529445648,-75.5785903930664,-1103,7088.0,27.317392349243164,427,9984.0
10820,0.35030099749565125,-47.3757438659668,-538,7088.0,40.935672760009766,616,9984.0
10830,0.34920400381088257,-4.91814661026001,167,7088.0,38.02341842651367,548,9984.0
10840,0.34952735900878906,33.410972595214844,750,7088.0,28.16533660888672,283,9984.0
10850,0.34981754422187805,53.69001770019531,950,7088.0,17.94912338256836,284,9984.0
10860,0.34996429085731506,60.885746002197266,1034,7088.0,18.678424835205078,190,9984.0
10870,0.3502455949783325,63.37803649902344,1066,7088.0,16.41472053527832,118,9984.0
10880,0.34829938411712646,62.4130973815918,967,7088.0,10.924659729003906,17,9984.0
10890,0.3489423096179962,52.892887115478516,824,7088.0,-2.0107691287994385,-136,9984.0
10900,0.3490288555622101,41.02067565917969,593,7088.0,-13.908065795898438,-296,9984.0
10910,0.34898632764816284,19.357166290283203,150,7088.0,-32.35341262817383,-426,9984.0
10920,0.34963852167129517,-14.885794639587402,-438,7088.0,-30.766258239746094,-469,9984.0
10930,0.3496952950954437,-40.71919631958008,-729,7088.0,-21.116344451904297,-346,9984.0
10940,0.3500189185142517,-48.00727844238281,-833,7088.0,-17.815475463867188,-393,9984.0
10950,0.3502486050128937,-54.103126525878906,-879,7088.0,-17.04502296447754,-96,9984.0
10960,0.3504888415336609,-45.659339904785156,-609,7088.0,4.032537937164307,309,9984.0
10970,0.34711840748786926,-26.450057983398438,-346,7088.0,15.140435218811035,274,9984.0
10980,0.3476274013519287,-5.969274044036865,39,7088.0,11.439496040344238,180,9984.0
10990,0.3477967083454132,10.209822654724121,312,7088.0,15.793558120727539,218,9984.0
11000,0.34803709387779236,25.34149932861328,472,7088.0,18.115463256835938,276,9984.0
11010,0.3468798100948334,36.19499588012695,634,7088.0,23.65567398071289,248,9984.0
11020,0.3470020294189453,30.940946578979492,522,7088.0,10.679518699645996,-10,9984.0
11030,0.34720760583877563,20.513790130615234,350,7088.0,-14.263059616088867,-291,9984.0
11040,0.34752699732780457,22.251148223876953,379,7088.0,-43.56062698364258,-753,9984.0
11050,0.3464963138103485,23.92207145690918,362,7088.0,-62.946041107177734,-1012,9984.0
11060,0.346658319234848,20.206758499145508,307,7088.0,-59.76869201660156,-934,9984.0
11070,0.34683072566986084,0.43306732177734375,-76,7088.0,-46.915714263916016,-766,9984.0
11080,0.34710773825645447,-17.408899307250977,-358,7088.0,-32.8488883972168,-475,9984.0
11090,0.34722772240638733,-22.8570613861084,-360,7088.0,-11.689085006713867,-47,9984.0
11100,0.3475376069545746,-17.483922958374023,-277,7088.0,6.855802536010742,301,9984.0
11110,0.3475658893585205,-13.129007339477539,-183,7088.0,17.034717559814453,252,9984.0
11120,0.34748733043670654,-11.415228843688965,-177,7088.0,11.52319049835205,54,9984.0
11130,0.34737545251846313,-16.027210235595703,-284,7088.0,5.505913257598877,45,9984.0
11140,0.3474617600440979,-19.776464462280273,-284,7088.0,15.458807945251465,179,9984.0
11150,0.34724652767181396,-14.228656768798828,-231,7088.0,18.16681480407715,171,9984.0
11160,0.34696951508522034,-15.400825500488281,-242,7088.0,11.038572311401367,-33,9984.0
11170,0.34698915481567383,-11.927181243896484,-116,7088.0,-14.029465675354004,-396,9984.0
11180,0.3484635651111603,-2.63775897026062,13,7088.0,-32.35034942626953,-704,9984.0
11190,0.34850013256073,9.977144241333008,289,7088.0,-49.71133804321289,-964,9984.0
11200,0.3486482799053192,32.45826721191406,636,7088.0,-56.48369216918945,-932,9984.0
11210,0.3488127589225769,42.56703186035156,686,7088.0,-50.18447494506836,-776,9984.0
11220,0.34915998578071594,29.05477523803711,398,7088.0,-30.0323543548584,-279,9984.0
11230,0.3480481207370758,9.000299453735352,71,7088.0,2.2376511096954346,334,9984.0
11240,0.34836605191230774,-2.9050958156585693,-76,7088.0,34.221923828125,715,9984.0
11250,0.348712295293808,-8.757731437683105,-116,7088.0,56.010169982910156,858,9984.0
11260,0.3489924967288971,-8.999329566955566,-165,7088.0,64.54248809814453,1014,9984.0
11270,0.348590224981308,-10.288870811462402,-79,7088.0,62.09983825683594,863,9984.0
11280,0.3486991822719574,-0.2991008460521698,56,7088.0,36.85755920410156,405,9984.0
11290,0.34872984886169434,6.434385299682617,106,7088.0,6.22922420501709,-94,9984.0
11300,0.349059522151947,-2.503467082977295,-134,7088.0,-25.376113891601562,-655,9984.0
11310,0.3499464690685272,-23.98576545715332,-443,7088.0,-63.25025939941406,-1313,9984.0
11320,0.35008159279823303,-33.76904296875,-533,7088.0,-89.01709747314453,-1650,9984.0
11330,0.3502729535102844,-33.86769485473633,-560,7088.0,-94.83943176269531,-1567,9984.0
11340,0.3505355417728424,-31.636409759521484,-479,7088.0,-89.73880767822266,-1391,9984.0
11350,0.3518947660923004,-24.053659439086914,-375,7088.0,-78.42533111572266,-1081,9984.0
11360,0.3511306047439575,-11.195226669311523,-92,7088.0,-54.441619873046875,-767,9984.0
11370,0.35167771577835083,8.457565307617188,262,7088.0,-14.367496490478516,-140,9984.0
11380,0.3522406220436096,22.707359313964844,389,7088.0,29.70319366455078,758,9984.0
11390,0.35345688462257385,24.4344425201416,376,7088.0,66.4224853515625,1324,9984.0
11400,0.3525739014148712,19.922271728515625,302,7088.0,88.50788116455078,1428,9984.0
11410,0.35294175148010254,4.40941047668457,-34,7088.0,90.49227905273438,1330,9984.0
11420,0.3533191382884979,-14.763625144958496,-263,7088.0,72.05745697021484,947,9984.0
11430,0.35489749908447266,-20.295063018798828,-310,7088.0,33.53289794921875,310,9984.0
11440,0.3553260266780853,-13.2451753616333,-134,7088.0,-5.196660041809082,-226,9984.0
11450,0.354597806930542,-2.405632972717285,49,7088.0,-29.002212524414062,-534,9984.0
11460,0.35501644015312195,4.835094451904297,76,7088.0,-42.29349136352539,-698,9984.0
11470,0.35555940866470337,-1.7493096590042114,-113,7088.0,-46.64053726196289,-743,9984.0
11480,0.3561427891254425,-22.173425674438477,-482,7088.0,-52.477806091308594,-781,9984.0
11490,0.35653117299079895,-40.900875091552734,-744,7088.0,-48.30036926269531,-704,9984.0
11500,0.3565816581249237,-49.13472366333008,-788,7088.0,-47.48685073852539,-802,9984.0
11510,0.3595699369907379,-46.657432556152344,-698,7088.0,-42.50492477416992,-739,9984.0
11520,0.3600931763648987,-31.523921966552734,-424,7088.0,-16.789608001708984,-218,9984.0
11530,0.36136072874069214,-10.474979400634766,-98,7088.0,15.156306266784668,435,9984.0
11540,0.36022424697875977,3.9755544662475586,159,7088.0,54.403770446777344,1210,9984.0
11550,0.36071887612342834,22.298458099365234,414,7088.0,92.83797454833984,1798,9984.0
11560,0.3610890507698059,34.06388473510742,543,7088.0,116.21597290039062,2054,9984.0
11570,0.36133262515068054,33.00917434692383,452,7088.0,112.82575988769531,1854,9984.0
11580,0.3604915142059326,24.961868286132812,273,7088.0,88.15750885009766,1313,9984.0
11590,0.3603670001029968,5.5539469718933105,-14,7088.0,56.79526901245117,785,9984.0
11600,0.36111557483673096,-6.700154781341553,-149,7088.0,24.041784286499023,190,9984.0
11610,0.36081036925315857,-11.001211166381836,-150,7088.0,-1.1916722059249878,-145,9984.0
11620,0.3608664274215698,0.5171719193458557,98,7088.0,-20.517240524291992,-565,9984.0
11630,0.3614140450954437,12.918177604675293,359,7088.0,-41.16392517089844,-924,9984.0
11640,0.361001580953598,29.594200134277344,620,7088.0,-63.517391204833984,-1112,9984.0
11650,0.36092302203178406,41.494537353515625,746,7088.0,-64.01029205322266,-1007,9984.0
11660,0.36062633991241455,49.76934814453125,805,7088.0,-52.91160583496094,-766,9984.0
11670,0.35953155159950256,46.42811584472656,732,7088.0,-31.49418067932129,-415,9984.0
11680,0.35971322655677795,31.38797950744629,398,7088.0,-3.57995867729187,113,9984.0
11690,0.3592241704463959,8.917206764221191,34,7088.0,26.90317726135254,698,9984.0
11700,0.3594655394554138,-7.859073638916016,-182,7088.0,60.33014678955078,1286,9984.0
11710,0.3601599335670471,-14.535676002502441,-245,7088.0,79.79185485839844,1347,9984.0
11720,0.3601832687854767,-16.23673439025879,-281,7088.0,79.91799926757812,1288,9984.0
11730,0.35945925116539,-22.30614471435547,-469,7088.0,60.79480743408203,949,9984.0
11740,0.3591424226760864,-30.37598419189453,-540,7088.0,29.85279655456543,211,9984.0
11750,0.3594164252281189,-29.587068557739258,-399,7088.0,3.240342855453491,-148,9984.0
11760,0.35962116718292236,-27.534517288208008,-325,7088.0,-24.254846572875977,-532,9984.0
11770,0.3596762716770172,-16.01239776611328,-168,7088.0,-43.10548400878906,-709,9984.0
11780,0.3596653342247009,8.027853012084961,183,7088.0,-44.93043518066406,-675,9984.0
11790,0.3600347936153412,29.827865600585938,509,7088.0,-43.44265365600586,-654,9984.0
11800,0.3601992130279541,46.75872802734375,815,7088.0,-38.022953033447266,-505,9984.0
11810,0.360439270734787,44.19298553466797,645,7088.0,-22.653440475463867,-303,9984.0
11820,0.36070945858955383,35.67448043823242,619,7088.0,-8.265290260314941,-15,9984.0
11830,0.36089229583740234,32.806785583496094,497,7088.0,5.076474189758301,315,9984.0
11840,0.3601967990398407,32.06071853637695,508,7088.0,24.5632266998291,573,9984.0
11850,0.3605453670024872,15.996007919311523,53,7088.0,35.547813415527344,690,9984.0
11860,0.360407292842865,-20.63018798828125,-515,7088.0,30.99544906616211,528,9984.0
11870,0.36046624183654785,-51.31230545043945,-978,7088.0,21.465299606323242,340,9984.0
11880,0.36104220151901245,-67.28923034667969,-1127,7088.0,9.245542526245117,118,9984.0
11890,0.3598407506942749,-60.290061950683594,-917,7088.0,7.248631954193115,171,9984.0
11900,0.3600257635116577,-35.608455657958984,-462,7088.0,3.970179796218872,-24,9984.0
11910,0.36043956875801086,-15.510884284973145,-118,7088.0,-14.067753791809082,-387,9984.0
11920,0.3608855903148651,-0.5741481184959412,130,7088.0,-33.38267135620117,-690,9984.0
11930,0.36115530133247375,16.31999969482422,329,7088.0,-53.878631591796875,-859,9984.0
11940,0.36169400811195374,27.718862533569336,416,7088.0,-52.882755279541016,-650,9984.0
11950,0.36222195625305176,30.754384994506836,427,7088.0,-29.688417434692383,-281,9984.0
11960,0.3625650703907013,22.321596145629883,275,7088.0,-0.18596577644348145,144,9984.0
11970,0.3627707064151764,17.529678344726562,350,7088.0,18.687650680541992,457,9984.0
11980,0.36252361536026,18.69426727294922,257,7088.0,41.97132873535156,873,9984.0
11990,0.36235228180885315,2.4338290691375732,-137,7088.0,48.49492645263672,842,9984.0
12000,0.36260882019996643,-26.334400177001953,-590,7088.0,29.9556941986084,526,9984.0
12010,0.3624629080295563,-46.500980377197266,-904,7088.0,8.134328842163086,135,9984.0
12020,0.36169466376304626,-53.61875915527344,-954,7088.0,-10.445182800292969,-201,9984.0
12030,0.36139851808547974,-46.2513313293457,-680,7088.0,-23.9293270111084,-468,9984.0
12040,0.361653596162796,-31.301708221435547,-355,7088.0,-42.02787780761719,-790,9984.0
12050,0.36130601167678833,-12.041646957397461,-40,7088.0,-57.6153564453125,-988,9984.0
12060,0.35906726121902466,10.320027351379395,290,7088.0,-61.808013916015625,-935,9984.0
12070,0.35906726121902466,32.566932678222656,531,7088.0,-53.383277893066406,-660,9984.0
12080,0.35909464955329895,42.21514129638672,648,7088.0,-32.26594161987305,-325,9984.0
12090,0.358932226896286,46.77559280395508,718,7088.0,-8.077140808105469,25,9984.0
12100,0.35851964354515076,42.84552764892578,637,7088.0,14.33566665649414,358,9984.0
12110,0.3576965928077698,33.75568389892578,481,7088.0,32.24504852294922,655,9984.0
12120,0.35730844736099243,17.604326248168945,158,7088.0,52.22781753540039,906,9984.0
12130,0.3570193350315094,-7.732095718383789,-226,7088.0,55.46510696411133,862,9984.0
12140,0.3561297059059143,-23.361858367919922,-456,7088.0,42.06292724609375,680,9984.0
12150,0.3555976450443268,-34.923606872558594,-645,7088.0,27.907934188842773,412,9984.0
12160,0.3553198575973511,-39.3081169128418,-697,7088.0,3.6495916843414307,-101,9984.0
12170,0.3547632098197937,-26.88338851928711,-446,7088.0,-30.44953155517578,-660,9984.0
12180,0.3555701971054077,-16.045793533325195,-156,7088.0,-46.414215087890625,-808,9984.0
12190,0.35530003905296326,-9.18929672241211,-133,7088.0,-59.2002067565918,-1016,9984.0
12200,0.3540128469467163,-3.187079429626465,-69,7088.0,-67.38643646240234,-1013,9984.0
12210,0.353771835565567,7.191953182220459,147,7088.0,-54.52341079711914,-762,9984.0
12220,0.35395967960357666,23.83730125427246,408,7088.0,-35.10051727294922,-319,9984.0
12230,0.3539773225784302,29.952640533447266,504,7088.0,0.7103586196899414,367,9984.0
12240,0.3531588315963745,36.73988342285156,553,7088.0,42.19367218017578,1001,9984.0
12250,0.3532606363296509,31.727155685424805,346,7088.0,68.53581237792969,1319,9984.0
12260,0.35330814123153687,12.473443031311035,18,7088.0,74.64558410644531,1307,9984.0
12270,0.3538368046283722,-9.811948776245117,-319,7088.0,63.562049865722656,879,9984.0
12280,0.35376402735710144,-20.747682571411133,-406,7088.0,37.2352409362793,348,9984.0
12290,0.35415107011795044,-29.182126998901367,-486,7088.0,2.945053815841675,-212,9984.0
12300,0.3545337915420532,-31.26475715637207,-497,7088.0,-34.772178649902344,-699,9984.0
12310,0.3548550307750702,-18.85622787475586,-304,7088.0,-64.6927261352539,-1198,9984.0
12320,0.35504281520843506,-5.79442024230957,25,7088.0,-78.40379333496094,-1392,9984.0
12330,0.35653892159461975,8.87047290802002,293,7088.0,-79.27630615234375,-1247,9984.0
12340,0.35692739486694336,23.517107009887695,458,7088.0,-66.02941131591797,-931,9984.0
12350,0.3570782542228699,31.585651397705078,400,7088.0,-44.03913116455078,-424,9984.0
12360,0.3578207492828369,18.488040924072266,198,7088.0,-7.9319353103637695,138,9984.0
12370,0.358992338180542,-2.4475913047790527,-176,7088.0,32.296142578125,754,9984.0
12380,0.35976505279541016,-10.016132354736328,-221,7088.0,68.66370391845703,1259,9984.0
12390,0.36053532361984253,-6.6538190841674805,-99,7088.0,87.20586395263672,1604,9984.0
12400,0.36132413148880005,4.273782253265381,97,7088.0,88.3913345336914,1397,9984.0
12410,0.3627367615699768,10.01838493347168,183,7088.0,87.47028350830078,1289,9984.0
12420,0.3650543987751007,10.446615219116211,269,7088.0,78.34017944335938,1237,9984.0
12430,0.3658320903778076,14.967208862304688,192,7088.0,60.87116622924805,1018,9984.0
12440,0.36700502038002014,12.595691680908203,220,7088.0,28.49844741821289,188,9984.0
12450,0.3682135045528412,6.516645431518555,97,7088.0,-10.858748435974121,-307,9984.0
12460,0.37023401260375977,-1.5971877574920654,-59,7088.0,-38.313270568847656,-626,9984.0
12470,0.37111783027648926,-5.134077548980713,-82,7088.0,-47.58781051635742,-858,9984.0
12480,0.3718029260635376,-10.71385669708252,-108,7088.0,-51.791019439697266,-920,9984.0
12490,0.37237972021102905,-9.892867088317871,-47,7088.0,-49.923763275146484,-792,9984.0
12500,0.37124747037887573,5.571887016296387,216,7088.0,-42.90447235107422,-662,9984.0
12510,0.3718213438987732,24.489009857177734,467,7088.0,-30.597070693969727,-345,9984.0
12520,0.3725039064884186,35.75165939331055,527,7088.0,-13.752863883972168,-138,9984.0
12530,0.37303417921066284,35.42949295043945,520,7088.0,10.380939483642578,346,9984.0
12540,0.3739723563194275,24.174076080322266,256,7088.0,37.52702713012695,724,9984.0
12550,0.374203622341156,2.706364154815674,-38,7088.0,55.53971862792969,951,9984.0
12560,0.3747631013393402,-15.51012134552002,-322,7088.0,74.18973541259766,1281,9984.0
12570,0.37512144446372986,-27.82170867919922,-542,7088.0,78.06221008300781,1180,9984.0
12580,0.3759450614452362,-28.825305938720703,-451,7088.0,58.779685974121094,859,9984.0
12590,0.37630683183670044,-20.243099212646484,-323,7088.0,32.13457107543945,409,9984.0
12600,0.376170814037323,-13.793377876281738,-269,7088.0,7.621153354644775,-3,9984.0
12610,0.37625738978385925,-7.3418192863464355,-83,7088.0,-9.937464714050293,-284,9984.0
12620,0.37622687220573425,4.512939929962158,162,7088.0,-23.897769927978516,-475,9984.0
12630,0.3770968019962311,17.3228702545166,330,7088.0,-26.522371292114258,-599,9984.0
12640,0.37691694498062134,23.187206268310547,406,7088.0,-30.786802291870117,-614,9984.0
12650,0.37678733468055725,8.641207695007324,34,7088.0,-33.65182113647461,-632,9984.0
12660,0.37684017419815063,-5.07484769821167,-97,7088.0,-35.35440444946289,-622,9984.0
12670,0.37665656208992004,-4.755350589752197,-50,7088.0,-27.264333724975586,-556,9984.0
12680,0.37504881620407104,0.5665478706359863,82,7088.0,-12.486961364746094,-198,9984.0
12690,0.374799519777298,1.9998266696929932,43,7088.0,6.057036399841309,187,9984.0
12700,0.37450119853019714,-5.9003119468688965,-164,7088.0,20.54379653930664,476,9984.0
12710,0.3741512596607208,-25.1984920501709,-498,7088.0,30.479442596435547,643,9984.0
12720,0.3737751543521881,-36.39513397216797,-666,7088.0,30.81709861755371,605,9984.0
12730,0.3732534646987915,-34.7809944152832,-606,7088.0,20.712345123291016,383,9984.0
12740,0.37270107865333557,-33.5924072265625,-530,7088.0,12.681320190429688,193,9984.0
12750,0.37203696370124817,-22.253828048706055,-205,7088.0,13.747179985046387,194,9984.0
12760,0.3711850047111511,-4.588106632232666,103,7088.0,20.292240142822266,271,9984.0
12770,0.36956924200057983,8.220423698425293,290,7088.0,13.513851165771484,174,9984.0
12780,0.3690180778503418,17.57145118713379,244,7088.0,-3.889824867248535,-98,9984.0
12790,0.3684530556201935,14.043004989624023,79,7088.0,-36.783790588378906,-628,9984.0
12800,0.36823609471321106,0.5191596150398254,-68,7088.0,-60.44596481323242,-1023,9984.0
12810,0.36939549446105957,-8.710494995117188,-137,7088.0,-55.54146194458008,-860,9984.0
12820,0.3691064715385437,-6.222390174865723,-69,7088.0,-37.955265045166016,-582,9984.0
12830,0.36880677938461304,-6.195976257324219,-89,7088.0,-18.816652297973633,-163,9984.0
12840,0.36845728754997253,-9.945952415466309,-185,7088.0,12.586257934570312,382,9984.0
12850,0.36807018518447876,-9.243208885192871,-200,7088.0,40.85433578491211,764,9984.0
12860,0.36646705865859985,-10.25865364074707,-162,7088.0,53.99067687988281,827,9984.0
12870,0.365837037563324,-11.38551139831543,-154,7088.0,54.62764358520508,706,9984.0
12880,0.36537206172943115,-13.07480239868164,-148,7088.0,37.12087631225586,534,9984.0
12890,0.3648729622364044,-9.850116729736328,-125,7088.0,18.932199478149414,230,9984.0
12900,0.3644430935382843,-8.439661026000977,-143,7088.0,1.2934131622314453,-76,9984.0
12910,0.36387473344802856,-1.2262544631958008,15,7088.0,-4.430264472961426,-137,9984.0
12920,0.363385409116745,4.068188667297363,151,7088.0,-4.989511966705322,-92,9984.0
12930,0.3628320097923279,9.89567756652832,129,7088.0,-22.436304092407227,-512,9984.0
12940,0.36320585012435913,11.65869140625,179,7088.0,-55.39438247680664,-996,9984.0
12950,0.3628721535205841,28.246217727661133,590,7088.0,-62.63249588012695,-1147,9984.0
12960,0.3627980351448059,36.599403381347656,567,7088.0,-57.27262878417969,-934,9984.0
12970,0.36288705468177795,22.442216873168945,345,7088.0,-37.6353874206543,-449,9984.0
12980,0.3628654181957245,11.90322494506836,168,7088.0,-4.158476829528809,62,9984.0
12990,0.3629990220069885,7.154182434082031,191,7088.0,24.860706329345703,512,9984.0
13000,0.36290398240089417,7.856351852416992,108,7088.0,50.850765228271484,942,9984.0
13010,0.36279064416885376,-1.2787015438079834,-155,7088.0,62.80229568481445,1096,9984.0
13020,0.362488329410553,-14.366705894470215,-232,7088.0,57.06395721435547,817,9984.0
13030,0.36275514960289,-30.563814163208008,-579,7088.0,35.29682922363281,547,9984.0
13040,0.36245062947273254,-39.41914367675781,-675,7088.0,11.446595191955566,115,9984.0
13050,0.36238300800323486,-33.9903564453125,-456,7088.0,-1.7659140825271606,-206,9984.0
13060,0.3626430332660675,-19.718612670898438,-188,7088.0,-17.1380672454834,-378,9984.0
13070,0.3626999258995056,-4.680084705352783,-79,7088.0,-34.65711975097656,-615,9984.0
13080,0.36204010248184204,8.77786636352539,229,7088.0,-49.955352783203125,-961,9984.0
13090,0.3624899685382843,22.280797958374023,451,7088.0,-54.35103988647461,-913,9984.0
13100,0.3629416525363922,31.61360740661621,499,7088.0,-54.020992279052734,-773,9984.0
13110,0.36348453164100647,24.34705352783203,291,7088.0,-44.0487174987793,-551,9984.0
13120,0.3623565137386322,16.679157257080078,152,7088.0,-18.049076080322266,-58,9984.0
13130,0.36278581619262695,6.488064765930176,48,7088.0,15.68741512298584,464,9984.0
13140,0.36317092180252075,11.03504467010498,212,7088.0,42.86511993408203,843,9984.0
13150,0.3635733425617218,13.531421661376953,214,7088.0,64.40377807617188,1002,9984.0
13160,0.36387261748313904,2.8092522621154785,77,7088.0,71.55318450927734,951,9984.0
13170,0.3643321394920349,-6.999229431152344,-62,7088.0,52.471710205078125,799,9984.0
13180,0.3646814823150635,-15.832755088806152,-318,7088.0,30.800729751586914,466,9984.0
13190,0.3650065064430237,-19.80711555480957,-396,7088.0,-0.16540567576885223,-164,9984.0
13200,0.3659147620201111,-15.237102508544922,-127,7088.0,-39.564659118652344,-740,9984.0
13210,0.36684808135032654,-10.512895584106445,-179,7088.0,-59.003868103027344,-924,9984.0
13220,0.36739981174468994,-3.170297145843506,-51,7088.0,-69.41971588134766,-1196,9984.0
13230,0.3680078983306885,9.104918479919434,247,7088.0,-72.37398529052734,-1243,9984.0
13240,0.3691391348838806,17.58930015563965,374,7088.0,-59.47599411010742,-839,9984.0
13250,0.3683469593524933,21.61949348449707,389,7088.0,-25.989381790161133,-242,9984.0
13260,0.3690919578075409,22.586193084716797,213,7088.0,10.631013870239258,455,9984.0
13270,0.36977460980415344,-5.857198238372803,-311,7088.0,39.27488327026367,898,9984.0
13280,0.3703879117965698,-22.79303741455078,-497,7088.0,63.38555145263672,1163,9984.0
13290,0.3712753653526306,-30.284629821777344,-505,7088.0,77.16755676269531,1207,9984.0
13300,0.3715900480747223,-24.55373191833496,-286,7088.0,66.45491790771484,1060,9984.0
13310,0.3723020851612091,-11.737798690795898,-110,7088.0,48.366058349609375,712,9984.0
13320,0.37298843264579773,-2.7447478771209717,-28,7088.0,23.39823341369629,192,9984.0
13330,0.3734986484050751,9.114295959472656,218,7088.0,1.826533555984497,-193,9984.0
13340,0.3731667101383209,13.933979988098145,204,7088.0,-30.18051528930664,-495,9984.0
13350,0.3734833002090454,15.202837944030762,192,7088.0,-46.78152847290039,-859,9984.0
13360,0.3735947906970978,9.314399719238281,149,7088.0,-57.249366760253906,-1059,9984.0
13370,0.37366852164268494,5.82725191116333,154,7088.0,-56.818870544433594,-893,9984.0
13380,0.37229329347610474,12.125096321105957,233,7088.0,-42.176326751708984,-561,9984.0
13390,0.3723067045211792,30.74942970275879,517,7088.0,-23.89604377746582,-250,9984.0
13400,0.3723915219306946,44.05042266845703,691,7088.0,3.260629892349243,267,9984.0
13410,0.3723815381526947,40.6782112121582,540,7088.0,21.182689666748047,512,9984.0
13420,0.3723434507846832,19.24725914001465,161,7088.0,34.08385467529297,749,9984.0
13430,0.3725387454032898,-7.64802885055542,-311,7088.0,45.480873107910156,828,9984.0
13440,0.37233543395996094,-29.85981559753418,-551,7088.0,43.61691665649414,773,9984.0
13450,0.3722955286502838,-30.458023071289062,-537,7088.0,40.814369201660156,657,9984.0
13460,0.3721272051334381,-29.109329223632812,-494,7088.0,34.20478439331055,393,9984.0
13470,0.3735024631023407,-22.69817543029785,-220,7088.0,12.901653289794922,-66,9984.0
13480,0.3733522891998291,-9.085658073425293,-141,7088.0,-16.27897834777832,-288,9984.0
13490,0.373207688331604,-14.945574760437012,-296,7088.0,-26.590768814086914,-484,9984.0
13500,0.3729204833507538,-19.50827980041504,-439,7088.0,-48.871334075927734,-702,9984.0
13510,0.3715982437133789,-16.779396057128906,-260,7088.0,-59.89356994628906,-944,9984.0
13520,0.3712344765663147,-4.020498275756836,67,7088.0,-58.072181701660156,-983,9984.0
13530,0.3711162209510803,12.197675704956055,334,7088.0,-46.68412399291992,-676,9984.0
13540,0.37121644616127014,24.374784469604492,494,7088.0,-21.507261276245117,-197,9984.0
13550,0.3711496591567993,24.38125991821289,369,7088.0,5.986058235168457,250,9984.0
13560,0.36909711360931396,14.163602828979492,235,7088.0,39.408199310302734,759,9984.0
13570,0.3690532147884369,9.709083557128906,158,7088.0,66.46669006347656,1147,9984.0
13580,0.36884814500808716,1.4373095035552979,9,7088.0,80.06293487548828,1277,9984.0
13590,0.3684455454349518,-11.818344116210938,-163,7088.0,79.36279296875,1219,9984.0
13600,0.36754223704338074,-15.023524284362793,-207,7088.0,58.11160659790039,780,9984.0
13610,0.36749905347824097,-3.565873622894287,-52,7088.0,23.58505630493164,133,9984.0
13620,0.36703506112098694,3.4588029384613037,82,7088.0,-1.849352240562439,-233,9984.0
13630,0.3668005168437958,5.951813697814941,106,7088.0,-21.76253890991211,-464,9984.0
13640,0.3665369153022766,-2.2166848182678223,-208,7088.0,-41.407814025878906,-755,9984.0
13650,0.36815527081489563,-15.891870498657227,-293,7088.0,-57.62887954711914,-1063,9984.0
13660,0.3678458034992218,-8.795675277709961,-96,7088.0,-61.46298599243164,-1026,9984.0
13670,0.3675976097583771,2.1738054752349854,125,7088.0,-47.256534576416016,-715,9984.0
13680,0.36758899688720703,10.37320613861084,265,7088.0,-26.121089935302734,-375,9984.0
13690,0.36753520369529724,20.57103729248047,310,7088.0,-6.970817565917969,56,9984.0
13700,0.3676418364048004,20.428125381469727,221,7088.0,22.134153366088867,619,9984.0
13710,0.36764004826545715,20.458396911621094,268,7088.0,46.441734313964844,933,9984.0
13720,0.36764946579933167,18.649625778198242,280,7088.0,64.21292877197266,997,9984.0
13730,0.3682832419872284,12.14342212677002,236,7088.0,73.91700744628906,1070,9984.0
13740,0.36805424094200134,5.541720390319824,98,7088.0,58.20222091674805,860,9984.0
13750,0.3677268922328949,2.5360147953033447,38,7088.0,22.633258819580078,221,9984.0
13760,0.36779236793518066,11.906704902648926,257,7088.0,-3.130401372909546,-190,9984.0
13770,0.3674602806568146,19.90786361694336,388,7088.0,-11.127493858337402,-154,9984.0
13780,0.3694458603858948,24.371187210083008,296,7088.0,-27.92159652709961,-427,9984.0
13790,0.3695758879184723,9.776057243347168,6,7088.0,-50.69873046875,-940,9984.0
13800,0.3696832060813904,-12.933156967163086,-270,7088.0,-65.68189239501953,-1120,9984.0
13810,0.37007594108581543,-32.740474700927734,-567,7088.0,-67.63255310058594,-1148,9984.0
13820,0.3712826669216156,-47.000343322753906,-788,7088.0,-53.359954833984375,-800,9984.0
13830,0.3714821934700012,-46.49970626831055,-651,7088.0,-25.255136489868164,-273,9984.0
13840,0.3720048666000366,-32.11219024658203,-433,7088.0,2.806838274002075,229,9984.0
13850,0.37292349338531494,-9.826882362365723,-118,7088.0,30.059955596923828,673,9984.0
13860,0.37212809920310974,5.183558940887451,92,7088.0,43.37403869628906,887,9984.0
13870,0.3724173903465271,9.293193817138672,102,7088.0,58.050445556640625,1108,9984.0
13880,0.37256819009780884,7.575717449188232,51,7088.0,65.66387176513672,1002,9984.0
13890,0.37297627329826355,1.6222302913665771,57,7088.0,42.885231018066406,557,9984.0
13900,0.37325260043144226,-13.249645233154297,-230,7088.0,17.21502113342285,135,9984.0
13910,0.3728756606578827,-25.44813346862793,-519,7088.0,-5.54148006439209,-63,9984.0
13920,0.3729665279388428,-31.88730239868164,-499,7088.0,-29.781871795654297,-598,9984.0
13930,0.3731271028518677,-13.48473072052002,-92,7088.0,-54.11764144897461,-1102,9984.0
13940,0.37340861558914185,7.072493076324463,219,7088.0,-77.5409927368164,-1362,9984.0
13950,0.37347012758255005,12.061092376708984,261,7088.0,-93.58535766601562,-1548,9984.0
13960,0.3738303482532501,19.529003143310547,340,7088.0,-87.23284912109375,-1276,9984.0
13970,0.3745644986629486,25.349346160888672,343,7088.0,-55.8862419128418,-618,9984.0
13980,0.37591028213500977,24.05392074584961,285,7088.0,-10.904394149780273,63,9984.0
13990,0.37731820344924927,14.768813133239746,176,7088.0,40.024696350097656,921,9984.0
14000,0.3752434253692627,8.686321258544922,78,7088.0,79.5927505493164,1478,9984.0
14010,0.3757879436016083,-0.5450403690338135,-87,7088.0,107.11727142333984,1850,9984.0
