timestamp,kalman.stateZ,gyro.x,gyro.xRaw,gyro.xVariance,gyro.y,gyro.yRaw,gyro.yVariance
0,0.31225132942199707,0.007983575575053692,10,6369.0,4.244840145111084,58,9930.0
10,0.3127596080303192,1.1444206237792969,20,6369.0,1.5508935451507568,7,9930.0
20,0.31282123923301697,1.6874533891677856,34,6369.0,-1.562415599822998,-43,9930.0
30,0.31291574239730835,2.597071409225464,45,6369.0,-4.784982204437256,-90,9930.0
40,0.3130345344543457,2.4217443466186523,40,6369.0,-7.14758825302124,-130,9930.0
50,0.3106987774372101,1.6729923486709595,32,6369.0,-10.042707443237305,-170,9930.0
60,0.31068655848503113,0.8555603623390198,5,6369.0,-10.702495574951172,-173,9930.0
70,0.31067296862602234,-1.740596055984497,-36,6369.0,-10.109295845031738,-169,9930.0
80,0.31065770983695984,-2.0655477046966553,-30,6369.0,-8.571455001831055,-131,9930.0
90,0.3106297552585602,-1.7081217765808105,-29,6369.0,-6.590290546417236,-101,9930.0
100,0.31201034784317017,-2.352051019668579,-37,6369.0,-5.259069919586182,-81,9930.0
110,0.3119890093803406,-2.0208895206451416,-32,6369.0,-3.966611385345459,-59,9930.0
120,0.3119558095932007,-0.4705106317996979,1,6369.0,-3.769350528717041,-60,9930.0
130,0.31196948885917664,1.8510693311691284,46,6369.0,-4.202066898345947,-73,9930.0
140,0.3124919831752777,3.392293691635132,60,6369.0,-5.2838215827941895,-92,9930.0
150,0.31251662969589233,3.2905361652374268,54,6369.0,-6.762620449066162,-126,9930.0
160,0.3125637173652649,3.3250412940979004,48,6369.0,-8.94191837310791,-157,9930.0
170,0.31272953748703003,1.9633278846740723,23,6369.0,-11.23888111114502,-190,9930.0
180,0.3128546178340912,0.9979380965232849,23,6369.0,-13.832493782043457,-241,9930.0
190,0.31287074089050293,0.5866044163703918,16,6369.0,-17.266420364379883,-309,9930.0
200,0.3129619061946869,1.4712536334991455,28,6369.0,-23.493976593017578,-416,9930.0
210,0.3130643367767334,1.2968441247940063,21,6369.0,-32.57494354248047,-562,9930.0
220,0.3131284713745117,4.273940563201904,65,6369.0,-41.39071273803711,-725,9930.0
230,0.31336480379104614,4.154994964599609,65,6369.0,-52.01932907104492,-902,9930.0
240,0.31334051489830017,1.585672378540039,99,6369.0,-60.83419418334961,-1085,9930.0
250,0.3132033050060272,0.6604005694389343,19,6369.0,-72.51886749267578,-1219,9930.0
260,0.31348708271980286,0.263893723487854,-9,6369.0,-80.25565338134766,-1322,9930.0
270,0.31326067447662354,0.08605866879224777,-13,6369.0,-84.88581848144531,-1386,9930.0
280,0.3129017651081085,-0.002992707770317793,-17,6369.0,-84.55839538574219,-1367,9930.0
290,0.31221523880958557,-3.9589765071868896,-26,6369.0,-84.62864685058594,-1374,9930.0
300,0.313398152589798,-4.689179420471191,-11,6369.0,-71.59373474121094,-1133,9930.0
310,0.31298065185546875,-3.490753412246704,-79,6369.0,-53.26124954223633,-675,9930.0
320,0.31334519386291504,0.06820659339427948,15,6369.0,-20.964204788208008,-206,9930.0
330,0.3137262165546417,1.5408921241760254,-9,6369.0,10.966621398925781,353,9930.0
340,0.3142108619213104,2.967519521713257,116,6369.0,40.16335678100586,713,9930.0
350,0.3146161139011383,5.809840679168701,100,6369.0,61.86351013183594,1071,9930.0
360,0.3156457245349884,8.051270484924316,123,6369.0,75.13333129882812,1288,9930.0
370,0.31565430760383606,10.081854820251465,184,6369.0,77.37429809570312,1208,9930.0
380,0.31629863381385803,10.866677284240723,160,6369.0,61.47425079345703,1002,9930.0
390,0.31619536876678467,9.464277267456055,181,6369.0,38.62056350708008,532,9930.0
400,0.3145371973514557,8.139571189880371,104,6369.0,13.564447402954102,47,9930.0
410,0.3149788975715637,4.3884148597717285,85,6369.0,-14.28164005279541,-412,9930.0
420,0.31537795066833496,-0.8822494745254517,-20,6369.0,-40.02986526489258,-935,9930.0
430,0.315824955701828,-5.163689136505127,-161,6369.0,-65.5490493774414,-1179,9930.0
440,0.316082626581192,-7.8475565910339355,-145,6369.0,-88.8457260131836,-1408,9930.0
450,0.31635409593582153,-9.607919692993164,-108,6369.0,-104.54972076416016,-1711,9930.0
460,0.31738510727882385,-7.452620506286621,-50,6369.0,-111.3664321899414,-1918,9930.0
470,0.3170523941516876,-4.11592960357666,6,6369.0,-104.54182434082031,-1843,9930.0
480,0.3179255425930023,0.13819801807403564,97,6369.0,-89.15031433105469,-1363,9930.0
490,0.3191608488559723,0.24237920343875885,80,6369.0,-59.095176696777344,-745,9930.0
500,0.32047802209854126,1.1062942743301392,24,6369.0,-21.442956924438477,-191,9930.0
510,0.321249395608902,-0.7626999616622925,-67,6369.0,12.547101020812988,433,9930.0
520,0.3220467269420624,-0.6587012410163879,-48,6369.0,29.99799919128418,664,9930.0
530,0.32277441024780273,-2.2623682022094727,28,6369.0,45.149879455566406,580,9930.0
540,0.32581794261932373,3.958986282348633,103,6369.0,50.110374450683594,753,9930.0
550,0.3261449337005615,9.728195190429688,170,6369.0,50.29473114013672,1024,9930.0
560,0.32682493329048157,12.649996757507324,233,6369.0,53.56019592285156,1052,9930.0
570,0.32738083600997925,9.631978034973145,55,6369.0,51.78443908691406,876,9930.0
580,0.3246610462665558,4.179518699645996,-4,6369.0,53.16364669799805,781,9930.0
590,0.3253026604652405,-5.777832508087158,-98,6369.0,53.71706771850586,699,9930.0
600,0.32540881633758545,-8.55031967163086,-188,6369.0,45.941444396972656,503,9930.0
610,0.3254205584526062,-9.85748291015625,-67,6369.0,34.978721618652344,453,9930.0
620,0.3218490183353424,-2.969728708267212,64,6369.0,22.795228958129883,364,9930.0
630,0.32183438539505005,3.807663679122925,66,6369.0,13.847737312316895,232,9930.0
640,0.3216564953327179,5.019007205963135,59,6369.0,7.572638034820557,135,9930.0
650,0.3216032087802887,2.6270432472229004,26,6369.0,-0.8114764094352722,-55,9930.0
660,0.3217923939228058,-3.110426187515259,-99,6369.0,-10.060420036315918,-225,9930.0
670,0.32009357213974,-10.983896255493164,-47,6369.0,-13.732821464538574,-401,9930.0
680,0.3204653859138489,-11.441913604736328,-113,6369.0,-14.050095558166504,-484,9930.0
690,0.32087069749832153,-10.259272575378418,-43,6369.0,-15.007328033447266,-454,9930.0
700,0.3214297294616699,-4.4613356590271,77,6369.0,-20.60869789123535,-540,9930.0
710,0.3211780786514282,2.66945219039917,179,6369.0,-34.23295211791992,-703,9930.0
720,0.3215298354625702,9.265157699584961,200,6369.0,-40.91084671020508,-768,9930.0
730,0.32185423374176025,11.519057273864746,162,6369.0,-41.87055206298828,-648,9930.0
740,0.3221254348754883,12.34597396850586,112,6369.0,-30.651702880859375,-382,9930.0
750,0.32259032130241394,8.471199989318848,95,6369.0,-23.04885482788086,-283,9930.0
760,0.32303041219711304,1.159213662147522,0,6369.0,-13.738438606262207,-129,9930.0
770,0.32314780354499817,-3.358511447906494,-98,6369.0,-4.803938388824463,6,9930.0
780,0.32319024205207825,-6.87888240814209,-161,6369.0,6.233003616333008,123,9930.0
790,0.3231551945209503,-9.96832275390625,-104,6369.0,14.922517776489258,81,9930.0
800,0.3222731649875641,-4.99075984954834,-13,6369.0,17.378427505493164,159,9930.0
810,0.3221456706523895,2.4038071632385254,99,6369.0,12.504250526428223,197,9930.0
820,0.3220868408679962,17.26563262939453,282,6369.0,6.982264995574951,219,9930.0
830,0.3220798671245575,29.12256622314453,524,6369.0,6.176998615264893,138,9930.0
840,0.3213692903518677,33.4984016418457,547,6369.0,10.441463470458984,187,9930.0
850,0.321163147687912,22.00164031982422,190,6369.0,12.920012474060059,395,9930.0
860,0.32090291380882263,4.013489246368408,-82,6369.0,11.565337181091309,290,9930.0
870,0.3206258714199066,-13.973189353942871,-258,6369.0,8.403093338012695,199,9930.0
880,0.32029077410697937,-26.399402618408203,-452,6369.0,0.6046835780143738,65,9930.0
890,0.3200426399707794,-33.60090255737305,-639,6369.0,-8.871871948242188,-112,9930.0
900,0.31971845030784607,-38.5172233581543,-654,6369.0,-11.790668487548828,-202,9930.0
910,0.31945228576660156,-30.545917510986328,-332,6369.0,-17.275230407714844,-329,9930.0
920,0.3194049894809723,-7.548224925994873,-84,6369.0,-24.673954010009766,-204,9930.0
930,0.3188087046146393,11.915489196777344,148,6369.0,-24.62612533569336,-206,9930.0
940,0.31882908940315247,30.93656349182129,483,6369.0,-23.188522338867188,-352,9930.0
950,0.31903916597366333,34.698482513427734,501,6369.0,-20.232927322387695,-202,9930.0
960,0.3195587694644928,24.41373062133789,264,6369.0,-14.838153839111328,-70,9930.0
970,0.32004213333129883,3.2027690410614014,-58,6369.0,-5.893642425537109,19,9930.0
980,0.320516437292099,-14.215737342834473,-333,6369.0,0.19419746100902557,213,9930.0
990,0.3211037814617157,-25.077226638793945,-460,6369.0,6.965826034545898,96,9930.0
1000,0.3218221366405487,-27.447795867919922,-380,6369.0,14.287155151367188,298,9930.0
1010,0.322424054145813,-18.57931137084961,-337,6369.0,21.190702438354492,427,9930.0
1020,0.3237166404724121,-11.463656425476074,-110,6369.0,22.936935424804688,405,9930.0
1030,0.3242933452129364,-1.4223196506500244,33,6369.0,20.104461669921875,408,9930.0
1040,0.32482725381851196,6.038064956665039,45,6369.0,12.055609703063965,242,9930.0
1050,0.32543474435806274,7.628171443939209,112,6369.0,0.03299061208963394,-51,9930.0
1060,0.3237946629524231,9.639120101928711,134,6369.0,-11.909707069396973,-148,9930.0
1070,0.32438772916793823,17.151535034179688,229,6369.0,-17.186307907104492,-99,9930.0
1080,0.32496070861816406,26.04848289489746,420,6369.0,-17.944311141967773,-308,9930.0
1090,0.32561391592025757,26.842241287231445,420,6369.0,-14.251953125,-162,9930.0
1100,0.32606199383735657,24.408374786376953,332,6369.0,-4.991193771362305,-61,9930.0
1110,0.32590124011039734,19.051815032958984,220,6369.0,5.885952472686768,281,9930.0
1120,0.326336145401001,6.1585373878479,13,6369.0,18.422080993652344,501,9930.0
1130,0.32666635513305664,-7.87792444229126,-238,6369.0,29.891647338867188,669,9930.0
1140,0.3270774781703949,-23.57408905029297,-536,6369.0,39.023223876953125,749,9930.0
1150,0.32565176486968994,-34.97286605834961,-541,6369.0,41.99899673461914,749,9930.0
1160,0.3259071409702301,-31.26558494567871,-534,6369.0,38.11590576171875,625,9930.0
1170,0.32635045051574707,-22.957130432128906,-281,6369.0,30.291866302490234,291,9930.0
1180,0.3266597092151642,-12.017258644104004,-63,6369.0,20.43597412109375,200,9930.0
1190,0.327199250459671,-0.7413368225097656,20,6369.0,5.201419353485107,85,9930.0
1200,0.32443663477897644,6.054048538208008,106,6369.0,-11.19019889831543,-301,9930.0
1210,0.3249649107456207,8.464176177978516,124,6369.0,-25.279401779174805,-472,9930.0
1220,0.3255500793457031,9.540589332580566,169,6369.0,-34.246795654296875,-688,9930.0
1230,0.32628002762794495,8.169719696044922,224,6369.0,-38.184993743896484,-676,9930.0
1240,0.3254992365837097,5.4393839836120605,44,6369.0,-36.05080032348633,-472,9930.0
1250,0.32636719942092896,4.223577976226807,8,6369.0,-28.014068603515625,-237,9930.0
1260,0.3272629976272583,1.8681154251098633,28,6369.0,-19.619354248046875,-141,9930.0
1270,0.32826223969459534,0.5982896685600281,-67,6369.0,-5.850363254547119,-53,9930.0
1280,0.32583069801330566,-2.1123547554016113,-97,6369.0,6.085155963897705,314,9930.0
1290,0.32662785053253174,-1.7005504369735718,-78,6369.0,11.138916969299316,204,9930.0
1300,0.3273078203201294,-2.7099437713623047,-24,6369.0,10.879220962524414,208,9930.0
1310,0.32793283462524414,0.41277989745140076,40,6369.0,4.962901592254639,-176,9930.0
1320,0.3286016583442688,5.498083114624023,186,6369.0,-6.8992486000061035,-108,9930.0
1330,0.32791733741760254,13.84240436553955,314,6369.0,-14.174137115478516,-301,9930.0
1340,0.328441858291626,23.774320602416992,401,6369.0,-15.516965866088867,-129,9930.0
1350,0.32896777987480164,30.26808738708496,466,6369.0,-6.458991527557373,-5,9930.0
1360,0.32966506481170654,32.89982604980469,457,6369.0,3.773911952972412,141,9930.0
1370,0.32776397466659546,28.63375473022461,412,6369.0,13.127883911132812,261,9930.0
1380,0.3278500735759735,15.520649909973145,224,6369.0,24.45046615600586,340,9930.0
1390,0.327932208776474,-6.0801239013671875,-257,6369.0,32.12622833251953,437,9930.0
1400,0.3282831609249115,-28.699995040893555,-432,6369.0,35.2830924987793,561,9930.0
1410,0.3256211280822754,-42.23601531982422,-738,6369.0,31.110036849975586,396,9930.0
1420,0.32533198595046997,-43.1881103515625,-627,6369.0,10.634917259216309,206,9930.0
1430,0.3252662420272827,-32.20919418334961,-512,6369.0,-11.946019172668457,-414,9930.0
1440,0.3251323401927948,-15.280029296875,-62,6369.0,-26.031225204467773,-449,9930.0
1450,0.325086385011673,1.6029388904571533,24,6369.0,-35.30636215209961,-566,9930.0
1460,0.32354629039764404,8.0238037109375,125,6369.0,-37.55872344970703,-527,9930.0
1470,0.32353270053863525,4.961897373199463,62,6369.0,-34.56182861328125,-722,9930.0
1480,0.3235629200935364,-3.2974534034729004,-87,6369.0,-30.066261291503906,-445,9930.0
1490,0.3234659731388092,-15.386972427368164,-206,6369.0,-23.495431900024414,-295,9930.0
1500,0.32407844066619873,-18.572919845581055,-435,6369.0,-15.484253883361816,-147,9930.0
1510,0.3243643045425415,-19.224441528320312,-330,6369.0,-4.446038246154785,-7,9930.0
1520,0.3245698809623718,-12.952777862548828,-112,6369.0,5.258567810058594,-52,9930.0
1530,0.32501697540283203,-4.379889011383057,0,6369.0,12.086812973022461,327,9930.0
1540,0.3255440890789032,7.127439022064209,153,6369.0,15.737817764282227,292,9930.0
1550,0.3256477415561676,15.826945304870605,283,6369.0,15.295282363891602,123,9930.0
1560,0.32619839906692505,27.2916316986084,580,6369.0,8.049666404724121,80,9930.0
1570,0.3267155885696411,33.7337646484375,519,6369.0,2.1359148025512695,76,9930.0
1580,0.3272542357444763,34.51925277709961,605,6369.0,-0.6884848475456238,22,9930.0
1590,0.3285638988018036,38.720035552978516,655,6369.0,1.3503879308700562,-123,9930.0
1600,0.32879438996315,34.94424057006836,606,6369.0,9.775094985961914,234,9930.0
1610,0.3292027711868286,31.544801712036133,537,6369.0,12.835084915161133,242,9930.0
1620,0.3292999863624573,12.840630531311035,72,6369.0,11.318291664123535,238,9930.0
1630,0.3285941183567047,-7.035209655761719,-290,6369.0,12.721917152404785,286,9930.0
1640,0.32882025837898254,-26.13109588623047,-463,6369.0,13.760671615600586,244,9930.0
1650,0.3284911513328552,-35.91649627685547,-598,6369.0,14.130346298217773,22,9930.0
1660,0.3283595144748688,-33.83326721191406,-416,6369.0,8.657133102416992,175,9930.0
1670,0.32792192697525024,-24.316404342651367,-392,6369.0,3.131901264190674,32,9930.0
1680,0.32769545912742615,-14.539543151855469,-271,6369.0,-3.9534666538238525,-58,9930.0
1690,0.3270496428012848,-5.70098352432251,-1,6369.0,-16.13367462158203,-409,9930.0
1700,0.32643330097198486,5.216271877288818,82,6369.0,-20.730051040649414,-354,9930.0
1710,0.32594630122184753,10.166515350341797,213,6369.0,-20.831748962402344,-175,9930.0
1720,0.32490333914756775,5.571094036102295,-7,6369.0,-14.285097122192383,-222,9930.0
1730,0.3246437907218933,-3.2025139331817627,-137,6369.0,-9.192426681518555,-145,9930.0
1740,0.324912428855896,-13.684967994689941,-138,6369.0,-1.4092069864273071,-101,9930.0
1750,0.325021356344223,-19.171241760253906,-276,6369.0,7.562069892883301,165,9930.0
1760,0.32522839307785034,-13.184335708618164,-194,6369.0,17.974611282348633,489,9930.0
1770,0.32613128423690796,-0.7520545721054077,70,6369.0,27.59396743774414,431,9930.0
1780,0.326648473739624,11.8984375,209,6369.0,32.48735809326172,466,9930.0
1790,0.3272658884525299,21.033851623535156,471,6369.0,28.59819793701172,322,9930.0
1800,0.32802191376686096,24.15008544921875,393,6369.0,17.21938133239746,287,9930.0
1810,0.3288041055202484,25.50826072692871,438,6369.0,6.144765377044678,82,9930.0
1820,0.3294353485107422,31.056034088134766,525,6369.0,-3.833174705505371,-242,9930.0
1830,0.33006203174591064,32.909942626953125,533,6369.0,-15.034575462341309,-348,9930.0
1840,0.33036577701568604,25.961042404174805,391,6369.0,-19.11098861694336,-195,9930.0
1850,0.3304903209209442,8.463809967041016,14,6369.0,-11.61335277557373,-230,9930.0
1860,0.33110278844833374,-7.8538899421691895,-259,6369.0,-11.460395812988281,-76,9930.0
1870,0.3309299945831299,-15.635275840759277,-318,6369.0,-17.053926467895508,-164,9930.0
1880,0.3306768834590912,-17.897905349731445,-367,6369.0,-13.7963285446167,-188,9930.0
1890,0.3302932381629944,-26.3203182220459,-570,6369.0,-3.178255796432495,146,9930.0
1900,0.3309648931026459,-34.98384094238281,-529,6369.0,1.623548984527588,-30,9930.0
1910,0.3303433954715729,-36.963809967041016,-532,6369.0,-0.25440502166748047,-85,9930.0
1920,0.32966047525405884,-29.663759231567383,-460,6369.0,-1.5027170181274414,36,9930.0
1930,0.3287868797779083,-20.02702522277832,-269,6369.0,2.8228399753570557,-3,9930.0
1940,0.3298405110836029,-5.436445236206055,-74,6369.0,5.974360466003418,149,9930.0
1950,0.32921427488327026,9.159090042114258,247,6369.0,4.004261016845703,-59,9930.0
1960,0.3285578787326813,16.790739059448242,257,6369.0,1.6302577257156372,-12,9930.0
1970,0.32796329259872437,15.717012405395508,221,6369.0,-3.3704376220703125,43,9930.0
1980,0.3274487555027008,10.495858192443848,96,6369.0,-10.99604320526123,-269,9930.0
1990,0.3263145089149475,0.3125523030757904,-8,6369.0,-15.990656852722168,-341,9930.0
2000,0.32606542110443115,-3.339690685272217,9,6369.0,-15.563247680664062,-156,9930.0
2010,0.3260732591152191,-1.5916593074798584,-45,6369.0,-11.376795768737793,-143,9930.0
2020,0.32614651322364807,3.003171682357788,-3,6369.0,-5.447296619415283,-53,9930.0
2030,0.3254353404045105,4.20137882232666,161,6369.0,-0.14158086478710175,-37,9930.0
2040,0.3256623446941376,7.550827980041504,145,6369.0,3.7757256031036377,-25,9930.0
2050,0.3259695768356323,9.089829444885254,137,6369.0,0.9336057901382446,138,9930.0
2060,0.32634246349334717,7.316336154937744,129,6369.0,0.5663810968399048,85,9930.0
2070,0.3268270194530487,14.867986679077148,238,6369.0,5.023199081420898,24,9930.0
2080,0.3271790146827698,22.365276336669922,400,6369.0,13.498579978942871,264,9930.0
2090,0.3273884057998657,18.946083068847656,415,6369.0,23.45380401611328,329,9930.0
2100,0.32741570472717285,11.29941463470459,88,6369.0,28.526578903198242,468,9930.0
2110,0.32747718691825867,-4.3606414794921875,-153,6369.0,24.283287048339844,499,9930.0
2120,0.32946252822875977,-17.55858039855957,-373,6369.0,13.241389274597168,62,9930.0
2130,0.3293754756450653,-28.02855682373047,-514,6369.0,-0.08601364493370056,-64,9930.0
2140,0.32901352643966675,-35.33880615234375,-477,6369.0,-9.513075828552246,-211,9930.0
2150,0.32850295305252075,-25.10065460205078,-404,6369.0,-18.589879989624023,-226,9930.0
2160,0.3276907801628113,-8.72313117980957,-30,6369.0,-24.473806381225586,-483,9930.0
2170,0.3270135521888733,8.51630973815918,175,6369.0,-26.649017333984375,-469,9930.0
2180,0.3262243866920471,17.833192825317383,355,6369.0,-23.16373062133789,-302,9930.0
2190,0.32548415660858154,15.238264083862305,192,6369.0,-21.961896896362305,-355,9930.0
2200,0.32481229305267334,6.619775772094727,3,6369.0,-20.557628631591797,-430,9930.0
2210,0.3260453939437866,-4.257958889007568,-71,6369.0,-22.105241775512695,-344,9930.0
2220,0.32538294792175293,-14.471266746520996,-229,6369.0,-15.269471168518066,-206,9930.0
2230,0.3252094089984894,-22.542922973632812,-427,6369.0,-5.360659599304199,-91,9930.0
2240,0.3251122236251831,-24.322023391723633,-472,6369.0,6.215379238128662,344,9930.0
2250,0.3254704177379608,-18.187637329101562,-247,6369.0,19.431047439575195,293,9930.0
2260,0.3257232904434204,-2.78774094581604,11,6369.0,24.48663902282715,377,9930.0
2270,0.3261794447898865,15.246813774108887,389,6369.0,23.429794311523438,402,9930.0
2280,0.3269268274307251,27.847986221313477,435,6369.0,18.085643768310547,337,9930.0
2290,0.32772713899612427,31.212398529052734,452,6369.0,11.80606746673584,151,9930.0
2300,0.32854604721069336,25.5020694732666,474,6369.0,4.392543792724609,-119,9930.0
2310,0.3292998671531677,21.85650062561035,336,6369.0,0.07066936790943146,36,9930.0
2320,0.3301967680454254,18.566017150878906,311,6369.0,0.8780996799468994,83,9930.0
2330,0.33079802989959717,14.825279235839844,169,6369.0,-0.22146499156951904,54,9930.0
2340,0.3313160538673401,12.842586517333984,125,6369.0,1.234687089920044,88,9930.0
2350,0.3317511975765228,7.7096662521362305,126,6369.0,11.87165641784668,219,9930.0
2360,0.3320506811141968,-5.355148792266846,-171,6369.0,19.179412841796875,178,9930.0
2370,0.3322097063064575,-23.683895111083984,-396,6369.0,27.734516143798828,490,9930.0
2380,0.3316832184791565,-38.077388763427734,-602,6369.0,26.44012451171875,317,9930.0
2390,0.3316197991371155,-42.3092041015625,-761,6369.0,15.888836860656738,424,9930.0
2400,0.3311142027378082,-36.836669921875,-560,6369.0,4.591794490814209,-64,9930.0
2410,0.3306838274002075,-22.95867919921875,-327,6369.0,-6.103176116943359,-140,9930.0
2420,0.3298386335372925,-9.649481773376465,-5,6369.0,-18.496110916137695,-415,9930.0
2430,0.32671064138412476,5.8467912673950195,130,6369.0,-25.621475219726562,-288,9930.0
2440,0.3259961009025574,18.814661026000977,360,6369.0,-29.02879524230957,-505,9930.0
2450,0.32536569237709045,32.519554138183594,565,6369.0,-20.3577880859375,-349,9930.0
2460,0.3245595097541809,39.815921783447266,732,6369.0,-8.3167142868042,12,9930.0
2470,0.3243236839771271,37.345916748046875,491,6369.0,2.723158597946167,94,9930.0
2480,0.3237053155899048,18.14328384399414,103,6369.0,8.156693458557129,200,9930.0
2490,0.3236834704875946,-4.004241943359375,-258,6369.0,10.228856086730957,167,9930.0
2500,0.32343944907188416,-24.734846115112305,-518,6369.0,11.475238800048828,158,9930.0
2510,0.32338887453079224,-47.88821792602539,-821,6369.0,12.197128295898438,202,9930.0
2520,0.32359182834625244,-61.59366226196289,-1052,6369.0,12.424116134643555,270,9930.0
2530,0.3238881826400757,-54.997474670410156,-780,6369.0,6.389068126678467,54,9930.0
2540,0.32407909631729126,-30.837610244750977,-297,6369.0,-6.216253280639648,-229,9930.0
2550,0.32440420985221863,-0.5500081777572632,99,6369.0,-19.444091796875,-333,9930.0
2560,0.32540732622146606,23.802043914794922,551,6369.0,-32.212791442871094,-739,9930.0
2570,0.32589060068130493,39.38414001464844,724,6369.0,-39.38226318359375,-676,9930.0
2580,0.32659903168678284,45.302146911621094,771,6369.0,-36.144466400146484,-551,9930.0
2590,0.3269638419151306,45.2150993347168,668,6369.0,-21.462766647338867,-151,9930.0
2600,0.33022189140319824,48.54515075683594,816,6369.0,1.8008366823196411,80,9930.0
2610,0.3309120535850525,55.392879486083984,971,6369.0,22.440160751342773,429,9930.0
2620,0.3311251401901245,50.6634407043457,845,6369.0,33.29779815673828,452,9930.0
2630,0.3313639461994171,30.874845504760742,421,6369.0,34.00639343261719,519,9930.0
2640,0.331443190574646,8.474813461303711,7,6369.0,27.096269607543945,375,9930.0
2650,0.3323134779930115,-16.354948043823242,-292,6369.0,14.324217796325684,241,9930.0
2660,0.3324974775314331,-35.25922393798828,-664,6369.0,0.8139349818229675,-10,9930.0
2670,0.3327607810497284,-47.39744567871094,-913,6369.0,-10.859935760498047,-176,9930.0
2680,0.33282387256622314,-56.34580993652344,-891,6369.0,-23.352458953857422,-295,9930.0
2690,0.33241933584213257,-53.840641021728516,-937,6369.0,-31.73196792602539,-605,9930.0
2700,0.33246105909347534,-44.677467346191406,-653,6369.0,-34.608516693115234,-561,9930.0
2710,0.332029789686203,-32.95254898071289,-416,6369.0,-34.2342529296875,-738,9930.0
2720,0.3313354551792145,-20.059852600097656,-236,6369.0,-33.3600959777832,-502,9930.0
2730,0.33117297291755676,-6.86047887802124,-4,6369.0,-24.874710083007812,-367,9930.0
2740,0.3314857482910156,1.6712884902954102,7,6369.0,-5.052670478820801,53,9930.0
2750,0.3313237130641937,5.544613361358643,164,6369.0,21.057106018066406,577,9930.0
2760,0.33155426383018494,11.327832221984863,118,6369.0,43.666500091552734,796,9930.0
2770,0.33162522315979004,14.40212345123291,201,6369.0,54.01460647583008,966,9930.0
2780,0.33154967427253723,17.22713279724121,373,6369.0,53.42469024658203,625,9930.0
2790,0.3319742679595947,20.00579071044922,371,6369.0,34.76332092285156,573,9930.0
2800,0.33239415287971497,19.891462326049805,349,6369.0,14.455385208129883,169,9930.0
2810,0.3328931927680969,11.314396858215332,2,6369.0,-6.486320972442627,-103,9930.0
2820,0.33007222414016724,-2.3951568603515625,-41,6369.0,-22.338884353637695,-481,9930.0
2830,0.33054617047309875,-9.778616905212402,-136,6369.0,-27.8481388092041,-506,9930.0
2840,0.33099445700645447,-5.908147811889648,-46,6369.0,-22.4937744140625,-205,9930.0
2850,0.33157721161842346,5.908631801605225,182,6369.0,-6.975244045257568,-32,9930.0
2860,0.3321015536785126,20.02707862854004,281,6369.0,6.7151970863342285,222,9930.0
2870,0.3316081464290619,29.97772789001465,568,6369.0,14.045052528381348,217,9930.0
2880,0.3318583071231842,32.89546203613281,492,6369.0,18.77001190185547,146,9930.0
2890,0.3321617841720581,18.595033645629883,279,6369.0,20.19228744506836,323,9930.0
2900,0.33230602741241455,-3.783064126968384,-83,6369.0,23.451696395874023,241,9930.0
2910,0.33235180377960205,-23.409929275512695,-446,6369.0,18.32639503479004,218,9930.0
2920,0.33236658573150635,-44.0292854309082,-775,6369.0,4.964770317077637,82,9930.0
2930,0.3320590555667877,-56.20973587036133,-999,6369.0,-8.752363204956055,-129,9930.0
2940,0.3317352831363678,-53.025726318359375,-837,6369.0,-23.0991153717041,-417,9930.0
2950,0.32996341586112976,-38.83951187133789,-504,6369.0,-32.1642951965332,-595,9930.0
2960,0.32952794432640076,-3.7511794567108154,190,6369.0,-37.33498764038086,-769,9930.0
2970,0.3291030824184418,22.32872772216797,438,6369.0,-36.44241714477539,-479,9930.0
2980,0.32890793681144714,37.340576171875,662,6369.0,-24.797672271728516,-196,9930.0
2990,0.3287121653556824,38.383548736572266,552,6369.0,-5.356644630432129,-18,9930.0
3000,0.3290846049785614,27.158992767333984,281,6369.0,12.1927490234375,360,9930.0
3010,0.32910412549972534,10.420863151550293,76,6369.0,29.078285217285156,493,9930.0
3020,0.329367995262146,-9.88465690612793,-197,6369.0,41.3016357421875,560,9930.0
3030,0.32965028285980225,-21.525236129760742,-366,6369.0,41.65995788574219,661,9930.0
3040,0.3279336094856262,-19.82177734375,-215,6369.0,25.26111602783203,364,9930.0
3050,0.32814329862594604,-9.963387489318848,-154,6369.0,5.763055801391602,152,9930.0
3060,0.3285199701786041,5.527440071105957,176,6369.0,-11.946255683898926,-384,9930.0
3070,0.3286992013454437,22.40120506286621,474,6369.0,-21.59865951538086,-359,9930.0
3080,0.3288971781730652,34.960289001464844,636,6369.0,-22.20255470275879,-305,9930.0
3090,0.3278357684612274,40.755027770996094,628,6369.0,-28.7915096282959,-448,9930.0
3100,0.32769453525543213,37.328285217285156,500,6369.0,-34.52595520019531,-598,9930.0
3110,0.328041672706604,27.237186431884766,350,6369.0,-27.43219566345215,-357,9930.0
3120,0.3277304172515869,6.641071796417236,-5,6369.0,-13.786175727844238,-268,9930.0
3130,0.3296283185482025,-15.612842559814453,-370,6369.0,2.4422104358673096,-34,9930.0
3140,0.32932034134864807,-36.04981994628906,-668,6369.0,16.829875946044922,372,9930.0
3150,0.328826904296875,-49.666778564453125,-705,6369.0,33.59457015991211,482,9930.0
3160,0.3282966613769531,-47.03638458251953,-735,6369.0,28.25713348388672,391,9930.0
3170,0.32767385244369507,-34.63341522216797,-508,6369.0,15.311402320861816,337,9930.0
3180,0.3290766477584839,-14.332332611083984,-144,6369.0,2.946773052215576,-74,9930.0
3190,0.3286243975162506,5.612739562988281,262,6369.0,-2.611034631729126,-48,9930.0
3200,0.32832908630371094,22.09681510925293,409,6369.0,-5.471185684204102,-71,9930.0
3210,0.3281005024909973,27.95629119873047,486,6369.0,-3.266411304473877,25,9930.0
3220,0.3274821639060974,20.710403442382812,208,6369.0,-3.8995840549468994,-81,9930.0
3230,0.32720327377319336,7.403570175170898,54,6369.0,-13.821781158447266,-355,9930.0
3240,0.32704466581344604,-4.0853705406188965,-5,6369.0,-23.273435592651367,-427,9930.0
3250,0.3270992338657379,-10.359210014343262,-221,6369.0,-26.89873695373535,-429,9930.0
3260,0.3271019458770752,-12.399011611938477,-205,6369.0,-18.599756240844727,-120,9930.0
3270,0.32761794328689575,-4.794713020324707,-7,6369.0,-6.1595258712768555,23,9930.0
3280,0.3281148672103882,5.069401741027832,86,6369.0,12.044661521911621,77,9930.0
3290,0.32881978154182434,14.219549179077148,329,6369.0,21.71514892578125,393,9930.0
3300,0.32964348793029785,17.06365203857422,368,6369.0,29.45827865600586,418,9930.0
3310,0.32984548807144165,15.57289981842041,171,6369.0,30.110204696655273,562,9930.0
3320,0.3307233452796936,7.3588480949401855,135,6369.0,24.770132064819336,466,9930.0
3330,0.3316221237182617,3.6885898113250732,-61,6369.0,15.688577651977539,260,9930.0
3340,0.3326457440853119,6.368350028991699,174,6369.0,12.843962669372559,238,9930.0
3350,0.33325034379959106,9.085062980651855,177,6369.0,13.752184867858887,-26,9930.0
3360,0.3339153826236725,17.52933692932129,355,6369.0,4.812610149383545,84,9930.0
3370,0.3344619870185852,12.87997817993164,206,6369.0,3.8417305946350098,-34,9930.0
3380,0.3348511755466461,0.6160771250724792,-78,6369.0,4.853499889373779,209,9930.0
3390,0.33514344692230225,-18.110464096069336,-401,6369.0,0.21863208711147308,-33,9930.0
3400,0.33259260654449463,-35.78634262084961,-716,6369.0,-7.616244792938232,21,9930.0
3410,0.33220013976097107,-48.80557632446289,-826,6369.0,-12.73835277557373,-271,9930.0
3420,0.331647127866745,-48.43050765991211,-757,6369.0,-19.023771286010742,-288,9930.0
3430,0.3307238221168518,-31.82037925720215,-355,6369.0,-18.475008010864258,-439,9930.0
3440,0.32907834649086,-5.20296049118042,105,6369.0,-12.6511812210083,-112,9930.0
3450,0.3284565508365631,18.66922378540039,329,6369.0,-7.386806488037109,-77,9930.0
3460,0.327993780374527,29.492361068725586,490,6369.0,-7.266500949859619,-105,9930.0
3470,0.3275594413280487,32.839454650878906,524,6369.0,-8.804109573364258,-244,9930.0
3480,0.3244081139564514,25.27536964416504,380,6369.0,-4.27894401550293,-106,9930.0
3490,0.3240882158279419,8.330571174621582,134,6369.0,1.6830288171768188,105,9930.0
3500,0.32399415969848633,-8.507341384887695,-267,6369.0,9.534004211425781,204,9930.0
3510,0.32409951090812683,-21.273988723754883,-415,6369.0,16.70232391357422,435,9930.0
3520,0.32431069016456604,-24.00093650817871,-397,6369.0,18.657304763793945,271,9930.0
3530,0.3240801990032196,-15.018450736999512,-171,6369.0,16.203763961791992,187,9930.0
3540,0.3245423436164856,5.333137512207031,281,6369.0,10.604537963867188,122,9930.0
3550,0.325289249420166,24.968517303466797,416,6369.0,3.995943307876587,122,9930.0
3560,0.3261760175228119,33.372650146484375,527,6369.0,-6.408105373382568,-145,9930.0
3570,0.32664868235588074,29.13861083984375,394,6369.0,-17.091594696044922,-499,9930.0
3580,0.32747459411621094,18.227582931518555,390,6369.0,-32.38633728027344,-573,9930.0
3590,0.32822656631469727,16.63554573059082,238,6369.0,-35.00481414794922,-569,9930.0
3600,0.3288224935531616,16.485435485839844,279,6369.0,-30.24176788330078,-331,9930.0
3610,0.3297383487224579,18.39680290222168,225,6369.0,-24.313583374023438,-315,9930.0
3620,0.33009687066078186,-0.12674416601657867,-172,6369.0,-8.46863842010498,18,9930.0
3630,0.33026522397994995,-18.07233428955078,-384,6369.0,8.770613670349121,375,9930.0
3640,0.33025404810905457,-33.43880844116211,-623,6369.0,23.732698440551758,449,9930.0
3650,0.33013269305229187,-44.44175720214844,-835,6369.0,29.232990264892578,603,9930.0
3660,0.3323929011821747,-43.691673278808594,-620,6369.0,30.675180435180664,394,9930.0
3670,0.3317871689796448,-28.898296356201172,-404,6369.0,22.76999855041504,319,9930.0
3680,0.3314956724643707,-5.716609001159668,107,6369.0,17.480030059814453,277,9930.0
3690,0.33104175329208374,14.282463073730469,206,6369.0,10.231907844543457,235,9930.0
3700,0.3293848931789398,25.07415199279785,429,6369.0,-1.073168158531189,-173,9930.0
3710,0.3284890949726105,27.280921936035156,441,6369.0,-12.318746566772461,-331,9930.0
3720,0.3276820480823517,22.665706634521484,362,6369.0,-23.758371353149414,-365,9930.0
3730,0.32699450850486755,12.138312339782715,86,6369.0,-29.885663986206055,-421,9930.0
3740,0.3264579474925995,0.46994778513908386,-116,6369.0,-30.946081161499023,-452,9930.0
3750,0.3258359432220459,-10.188713073730469,-168,6369.0,-26.45759391784668,-481,9930.0
3760,0.3256692886352539,-15.729437828063965,-287,6369.0,-12.824503898620605,-174,9930.0
3770,0.32611680030822754,-17.386859893798828,-197,6369.0,5.421571254730225,180,9930.0
3780,0.3267463445663452,-14.841297149658203,-134,6369.0,21.578048706054688,355,9930.0
3790,0.3281005024909973,-9.738792419433594,-206,6369.0,31.881980895996094,728,9930.0
3800,0.3291930556297302,-6.138782501220703,-107,6369.0,33.41226577758789,457,9930.0
3810,0.3303673267364502,-0.05996152013540268,-25,6369.0,26.47587776184082,338,9930.0
3820,0.33166393637657166,6.208073616027832,171,6369.0,22.151607513427734,250,9930.0
3830,0.3318067193031311,3.0302107334136963,27,6369.0,24.1237850189209,372,9930.0
3840,0.3330304026603699,-1.174760103225708,8,6369.0,25.577781677246094,480,9930.0
3850,0.3341379463672638,-1.4387446641921997,-88,6369.0,24.67354393005371,496,9930.0
3860,0.3349769413471222,0.49075010418891907,-43,6369.0,17.761823654174805,144,9930.0
3870,0.33578190207481384,2.627570867538452,73,6369.0,6.3659749031066895,-45,9930.0
3880,0.3346462845802307,6.536127090454102,158,6369.0,-7.265458106994629,-194,9930.0
3890,0.3346950113773346,11.847084045410156,253,6369.0,-15.664073944091797,-339,9930.0
3900,0.33434605598449707,14.600964546203613,216,6369.0,-19.437822341918945,-140,9930.0
3910,0.3339102268218994,10.946629524230957,82,6369.0,-16.73128318786621,-278,9930.0
3920,0.33153975009918213,2.8546626567840576,15,6369.0,-13.96264934539795,-205,9930.0
3930,0.3307285010814667,-4.961955547332764,-75,6369.0,-7.247794151306152,-227,9930.0
3940,0.3299195468425751,-11.115426063537598,-164,6369.0,-2.601924180984497,-113,9930.0
3950,0.3290461301803589,-10.93675708770752,-131,6369.0,-4.277940273284912,30,9930.0
3960,0.3282654285430908,0.7249091267585754,-25,6369.0,-7.833917617797852,-4,9930.0
3970,0.32730188965797424,7.427918910980225,148,6369.0,-13.371591567993164,-250,9930.0
3980,0.3268939256668091,11.299585342407227,149,6369.0,-13.881983757019043,-317,9930.0
3990,0.3266157805919647,12.267489433288574,281,6369.0,-14.235635757446289,-339,9930.0
4000,0.32664522528648376,5.240424156188965,56,6369.0,-10.433470726013184,-179,9930.0
4010,0.3258502185344696,-4.003533363342285,-84,6369.0,-5.602978229522705,-36,9930.0
4020,0.32630085945129395,-10.717148780822754,-208,6369.0,-5.794825077056885,-48,9930.0
4030,0.3268979787826538,-10.503049850463867,-246,6369.0,-6.546463966369629,-10,9930.0
4040,0.3274686336517334,-5.5687713623046875,-102,6369.0,-13.045269966125488,-232,9930.0
4050,0.32778245210647583,2.049731731414795,10,6369.0,-21.490617752075195,-392,9930.0
4060,0.32856154441833496,11.994071006774902,360,6369.0,-22.145334243774414,-493,9930.0
4070,0.3293313980102539,23.771732330322266,430,6369.0,-8.106517791748047,-89,9930.0
4080,0.32994604110717773,24.424760818481445,476,6369.0,10.20124340057373,211,9930.0
4090,0.33097898960113525,22.08513832092285,390,6369.0,19.6236515045166,275,9930.0
4100,0.3326397240161896,11.422174453735352,46,6369.0,25.074935913085938,506,9930.0
4110,0.3328496515750885,-14.314345359802246,-327,6369.0,35.01842498779297,611,9930.0
4120,0.3328724801540375,-39.15545654296875,-778,6369.0,36.06364059448242,669,9930.0
4130,0.33250927925109863,-50.35179138183594,-860,6369.0,30.884971618652344,479,9930.0
4140,0.33164215087890625,-46.88755416870117,-786,6369.0,21.74489402770996,257,9930.0
4150,0.33151036500930786,-33.896385192871094,-348,6369.0,12.489566802978516,61,9930.0
4160,0.3308085799217224,-6.893524646759033,-14,6369.0,0.431935578584671,134,9930.0
4170,0.33055922389030457,21.18558120727539,403,6369.0,-12.126065254211426,-368,9930.0
4180,0.3275502920150757,35.653202056884766,724,6369.0,-27.187986373901367,-526,9930.0
4190,0.3268832564353943,44.729652404785156,712,6369.0,-43.286224365234375,-727,9930.0
4200,0.3262938857078552,43.10448455810547,629,6369.0,-53.4622917175293,-837,9930.0
4210,0.3256203830242157,24.657676696777344,285,6369.0,-60.60638427734375,-1104,9930.0
4220,0.3248790204524994,-1.056283712387085,-128,6369.0,-57.71822738647461,-1017,9930.0
4230,0.32503950595855713,-24.87264633178711,-431,6369.0,-42.493927001953125,-593,9930.0
4240,0.32531479001045227,-37.70888137817383,-551,6369.0,-15.148338317871094,-312,9930.0
4250,0.3261575996875763,-34.332366943359375,-507,6369.0,10.075392723083496,255,9930.0
4260,0.3273504674434662,-21.508834838867188,-227,6369.0,35.28910827636719,770,9930.0
4270,0.32906341552734375,-0.9300916194915771,85,6369.0,52.664241790771484,877,9930.0
4280,0.3303835391998291,18.846588134765625,281,6369.0,53.720890045166016,965,9930.0
4290,0.33165398240089417,26.89215850830078,488,6369.0,44.40715789794922,603,9930.0
4300,0.33282631635665894,24.902254104614258,385,6369.0,28.494184494018555,259,9930.0
4310,0.3342386782169342,16.08188819885254,298,6369.0,21.105934143066406,417,9930.0
4320,0.33551451563835144,1.426288366317749,-77,6369.0,26.762577056884766,446,9930.0
4330,0.3366405963897705,-12.188557624816895,-291,6369.0,26.688232421875,574,9930.0
4340,0.33738237619400024,-21.60744857788086,-382,6369.0,24.550813674926758,320,9930.0
4350,0.33893072605133057,-24.499711990356445,-346,6369.0,11.612716674804688,54,9930.0
4360,0.33638766407966614,-23.844444274902344,-366,6369.0,-3.067392349243164,-83,9930.0
4370,0.3363683819770813,-22.357389450073242,-272,6369.0,-9.029034614562988,-215,9930.0
4380,0.33596891164779663,-11.435171127319336,-185,6369.0,-14.717418670654297,-39,9930.0
4390,0.33526262640953064,5.080573081970215,182,6369.0,-13.13790512084961,-293,9930.0
4400,0.33445316553115845,26.959983825683594,626,6369.0,-15.766100883483887,-296,9930.0
4410,0.33129721879959106,38.525291442871094,727,6369.0,-10.550090789794922,-256,9930.0
4420,0.3301420509815216,41.0631103515625,675,6369.0,-2.418656826019287,88,9930.0
4430,0.32903894782066345,28.03826141357422,354,6369.0,6.287248611450195,91,9930.0
4440,0.32807716727256775,6.548017978668213,-116,6369.0,8.58803653717041,241,9930.0
4450,0.32688528299331665,-17.67232322692871,-463,6369.0,3.2326295375823975,124,9930.0
4460,0.3264208436012268,-36.07884216308594,-719,6369.0,0.2270330786705017,106,9930.0
4470,0.32606080174446106,-39.729610443115234,-658,6369.0,5.486748695373535,141,9930.0
4480,0.3263076841831207,-29.7451229095459,-538,6369.0,7.563558578491211,1,9930.0
4490,0.325945645570755,-10.469888687133789,-2,6369.0,4.9324951171875,22,9930.0
4500,0.3266496956348419,12.3275785446167,277,6369.0,-0.26878610253334045,12,9930.0
4510,0.32751181721687317,26.58373260498047,503,6369.0,-7.9869585037231445,-33,9930.0
4520,0.32851991057395935,30.88677406311035,396,6369.0,-16.748611450195312,-272,9930.0
4530,0.32963600754737854,24.855424880981445,382,6369.0,-28.484785079956055,-482,9930.0
4540,0.3296738862991333,12.699891090393066,142,6369.0,-29.22032928466797,-614,9930.0
4550,0.3307481110095978,-2.6759817600250244,-80,6369.0,-28.36517333984375,-473,9930.0
4560,0.3316698372364044,-16.672508239746094,-249,6369.0,-17.929122924804688,-357,9930.0
4570,0.3322048485279083,-29.879234313964844,-565,6369.0,-10.004117012023926,-185,9930.0
4580,0.3334718942642212,-36.741111755371094,-505,6369.0,-7.1338934898376465,-12,9930.0
4590,0.3334108889102936,-29.45888900756836,-500,6369.0,-6.2417707443237305,-50,9930.0
4600,0.33311522006988525,-16.132936477661133,-195,6369.0,-5.090250492095947,4,9930.0
4610,0.33286547660827637,-3.8683271408081055,-96,6369.0,3.635113000869751,5,9930.0
4620,0.33262208104133606,7.3785271644592285,253,6369.0,9.4469575881958,118,9930.0
4630,0.3347177803516388,18.356569290161133,377,6369.0,12.34046459197998,163,9930.0
4640,0.33434462547302246,28.15729522705078,489,6369.0,10.28929615020752,282,9930.0
4650,0.3340083360671997,28.443946838378906,372,6369.0,10.033787727355957,212,9930.0
4660,0.33383992314338684,19.977222442626953,287,6369.0,4.128979682922363,-14,9930.0
4670,0.3352520167827606,5.491809844970703,64,6369.0,-1.2372254133224487,-212,9930.0
4680,0.33558276295661926,-3.3231425285339355,-33,6369.0,-13.44064998626709,-306,9930.0
4690,0.3362334370613098,-10.564800262451172,-216,6369.0,-20.172794342041016,-304,9930.0
4700,0.33715319633483887,-7.563971519470215,-48,6369.0,-26.12370491027832,-400,9930.0
4710,0.3402538597583771,0.4402402937412262,-65,6369.0,-28.945171356201172,-358,9930.0
4720,0.34209033846855164,1.9996639490127563,16,6369.0,-25.200645446777344,-339,9930.0
4730,0.3443816602230072,-1.354892373085022,-134,6369.0,-18.35214614868164,-205,9930.0
4740,0.3471038043498993,-7.048340797424316,-122,6369.0,-6.044068336486816,-18,9930.0
4750,0.3501206040382385,-13.193567276000977,-271,6369.0,7.1204915046691895,235,9930.0
4760,0.35361573100090027,-10.482951164245605,-136,6369.0,12.585118293762207,168,9930.0
4770,0.35697972774505615,-2.99710750579834,-4,6369.0,20.38177490234375,457,9930.0
4780,0.36008939146995544,5.012869834899902,80,6369.0,29.143552780151367,536,9930.0
4790,0.36296576261520386,14.0755615234375,260,6369.0,35.87889099121094,660,9930.0
4800,0.36428481340408325,13.988417625427246,207,6369.0,42.53893280029297,804,9930.0
4810,0.3665417730808258,6.334555149078369,-32,6369.0,45.6090202331543,833,9930.0
4820,0.3684347867965698,-1.1301695108413696,-86,6369.0,37.86888885498047,664,9930.0
4830,0.3698234260082245,-5.838134288787842,-77,6369.0,24.496322631835938,269,9930.0
4840,0.3681233525276184,-10.41580581665039,-148,6369.0,10.347799301147461,48,9930.0
4850,0.3680998980998993,-2.529250144958496,-125,6369.0,-5.434171676635742,-120,9930.0
4860,0.36753761768341064,-4.974767684936523,-82,6369.0,-15.501659393310547,-192,9930.0
4870,0.36647218465805054,8.616742134094238,92,6369.0,-24.80766487121582,-536,9930.0
4880,0.3648841381072998,-6.934254169464111,-202,6369.0,-32.74568557739258,-712,9930.0
4890,0.36135613918304443,-15.138917922973633,-203,6369.0,-41.101261138916016,-695,9930.0
4900,0.3587341606616974,-15.637039184570312,-253,6369.0,-42.219181060791016,-790,9930.0
4910,0.35564538836479187,-12.098795890808105,-121,6369.0,-39.59580612182617,-729,9930.0
4920,0.35189709067344666,-5.732814311981201,-3,6369.0,-26.333322525024414,-407,9930.0
4930,0.34985339641571045,7.07896089553833,215,6369.0,-5.363610744476318,-20,9930.0
4940,0.3469615876674652,17.587310791015625,299,6369.0,10.144912719726562,276,9930.0
4950,0.34422194957733154,26.572477340698242,316,6369.0,28.988866806030273,663,9930.0
4960,0.3415304124355316,16.680261611938477,216,6369.0,32.77193832397461,500,9930.0
4970,0.3396010994911194,2.7204344272613525,-29,6369.0,22.669517517089844,182,9930.0
4980,0.3372148871421814,-7.987949371337891,-113,6369.0,0.2520107626914978,-38,9930.0
4990,0.33692625164985657,-11.34350872039795,-200,6369.0,-24.65244483947754,-526,9930.0
5000,0.3371701240539551,-8.324965476989746,-139,6369.0,-38.732696533203125,-672,9930.0
5010,0.3380376398563385,-1.2286776304244995,142,6369.0,-31.960168838500977,-492,9930.0
5020,0.33865606784820557,5.504907608032227,74,6369.0,-17.464956283569336,-132,9930.0
5030,0.3403416872024536,5.759219646453857,27,6369.0,1.356005072593689,195,9930.0
5040,0.34217849373817444,1.3808196783065796,-2,6369.0,10.394049644470215,145,9930.0
5050,0.343980610370636,-5.257689476013184,-185,6369.0,14.134934425354004,104,9930.0
5060,0.34573647379875183,-13.419454574584961,-160,6369.0,14.944802284240723,233,9930.0
5070,0.34760111570358276,-15.898394584655762,-267,6369.0,15.189187049865723,173,9930.0
5080,0.34875354170799255,-10.629384994506836,-40,6369.0,14.370861053466797,457,9930.0
5090,0.34962892532348633,4.214569091796875,55,6369.0,12.973066329956055,241,9930.0
5100,0.3504292368888855,11.543519020080566,238,6369.0,17.131731033325195,188,9930.0
5110,0.35282886028289795,14.698575973510742,300,6369.0,14.21108341217041,182,9930.0
5120,0.35329389572143555,17.319232940673828,396,6369.0,8.22130012512207,-194,9930.0
5130,0.3535771369934082,22.4100399017334,417,6369.0,-6.9601616859436035,-136,9930.0
5140,0.3537214696407318,25.03095054626465,367,6369.0,-21.072994232177734,-353,9930.0
5150,0.35341426730155945,16.471107482910156,87,6369.0,-36.787174224853516,-751,9930.0
5160,0.35353365540504456,-12.363147735595703,-356,6369.0,-47.37377166748047,-789,9930.0
5170,0.3536798655986786,-34.989051818847656,-533,6369.0,-48.33498764038086,-868,9930.0
5180,0.3542628288269043,-30.840511322021484,-372,6369.0,-42.629756927490234,-662,9930.0
5190,0.35501977801322937,-8.348365783691406,3,6369.0,-27.026716232299805,-575,9930.0
5200,0.3584012985229492,11.587089538574219,303,6369.0,-13.758712768554688,-181,9930.0
5210,0.35942474007606506,24.29696273803711,444,6369.0,7.036864280700684,97,9930.0
5220,0.3604081869125366,19.293222427368164,239,6369.0,26.375469207763672,572,9930.0
5230,0.36128363013267517,3.6815109252929688,-31,6369.0,45.26968002319336,696,9930.0
5240,0.3632095456123352,-19.145320892333984,-499,6369.0,57.02886962890625,998,9930.0
5250,0.3641398549079895,-34.49251174926758,-508,6369.0,60.07387924194336,972,9930.0
5260,0.365038126707077,-6.69588041305542,103,6369.0,57.49273681640625,903,9930.0
5270,0.36539575457572937,34.095542907714844,686,6369.0,48.30327606201172,734,9930.0
5280,0.36534467339515686,50.437278747558594,911,6369.0,38.733638763427734,389,9930.0
5290,0.36223989725112915,49.36033630371094,844,6369.0,22.304704666137695,290,9930.0
5300,0.36114585399627686,36.30665588378906,484,6369.0,9.364789962768555,37,9930.0
5310,0.3607194721698761,14.6858549118042,197,6369.0,-9.431891441345215,-272,9930.0
5320,0.3595055341720581,-10.931890487670898,-314,6369.0,-21.204362869262695,-272,9930.0
5330,0.3535372018814087,-39.465599060058594,-733,6369.0,-25.061134338378906,-443,9930.0
5340,0.35134589672088623,-59.32875061035156,-998,6369.0,-24.90567970275879,-305,9930.0
5350,0.348832905292511,-61.453853607177734,-1017,6369.0,-25.119754791259766,-351,9930.0
5360,0.3459807336330414,-43.60457229614258,-633,6369.0,-25.005712509155273,-425,9930.0
5370,0.343980997800827,-19.39430809020996,-226,6369.0,-24.3276424407959,-446,9930.0
5380,0.34118324518203735,4.267770767211914,251,6369.0,-22.963878631591797,-438,9930.0
5390,0.33856385946273804,23.309185028076172,404,6369.0,-15.940774917602539,-173,9930.0
5400,0.3358496129512787,28.21249771118164,465,6369.0,-9.664314270019531,-73,9930.0
5410,0.33337873220443726,18.627946853637695,172,6369.0,-2.299783706665039,-71,9930.0
5420,0.33181947469711304,1.9613059759140015,-25,6369.0,8.913895606994629,116,9930.0
5430,0.3300740122795105,-3.76017689704895,-1,6369.0,11.479267120361328,214,9930.0
5440,0.3289279341697693,-11.258048057556152,-225,6369.0,10.907776832580566,231,9930.0
5450,0.32836079597473145,-8.31684398651123,-191,6369.0,5.5051445960998535,74,9930.0
5460,0.3254123032093048,2.9126780033111572,170,6369.0,2.878674268722534,-72,9930.0
5470,0.3257042467594147,5.674921035766602,91,6369.0,-0.41557589173316956,-12,9930.0
5480,0.32646700739860535,3.611421585083008,-33,6369.0,0.09455472975969315,176,9930.0
5490,0.3276544511318207,-1.2486754655838013,-58,6369.0,4.2810750007629395,32,9930.0
5500,0.32827621698379517,-1.4807873964309692,-47,6369.0,7.667230129241943,55,9930.0
5510,0.32990992069244385,-5.917575359344482,-32,6369.0,10.713089942932129,169,9930.0
5520,0.33156970143318176,-7.807647705078125,-183,6369.0,10.31470012664795,197,9930.0
5530,0.33325499296188354,-6.816206455230713,-51,6369.0,7.870805740356445,162,9930.0
5540,0.3348977863788605,2.2885124683380127,-5,6369.0,7.728048801422119,169,9930.0
5550,0.336505651473999,12.77786636352539,282,6369.0,16.0212459564209,189,9930.0
5560,0.3378952443599701,16.65574836730957,276,6369.0,23.300800323486328,348,9930.0
5570,0.338909775018692,11.591340065002441,291,6369.0,26.740278244018555,238,9930.0
5580,0.3396855592727661,10.951446533203125,232,6369.0,12.653413772583008,109,9930.0
5590,0.3390796482563019,8.491211891174316,124,6369.0,-2.603630304336548,-92,9930.0
5600,0.33913305401802063,7.0521559715271,137,6369.0,-18.41282081604004,-336,9930.0
5610,0.33866047859191895,8.264951705932617,-12,6369.0,-26.393875122070312,-273,9930.0
5620,0.3377596437931061,3.08685302734375,38,6369.0,-23.871274948120117,-362,9930.0
5630,0.33657899498939514,-0.28498005867004395,-75,6369.0,-22.42074966430664,-193,9930.0
5640,0.3348078727722168,-5.916268348693848,-98,6369.0,-12.56494140625,-113,9930.0
5650,0.3329188823699951,-5.192664623260498,-161,6369.0,-5.093435764312744,-56,9930.0
5660,0.3308418393135071,-1.212844967842102,53,6369.0,-1.3838402032852173,-24,9930.0
5670,0.3284483551979065,5.940433502197266,125,6369.0,-0.2631058096885681,-114,9930.0
5680,0.32676181197166443,13.72392749786377,346,6369.0,4.802189350128174,154,9930.0
5690,0.32381632924079895,20.84975814819336,420,6369.0,16.162940979003906,246,9930.0
5700,0.32068467140197754,19.943124771118164,331,6369.0,23.329465866088867,397,9930.0
5710,0.31745684146881104,12.256608963012695,15,6369.0,24.262073516845703,424,9930.0
5720,0.3151906430721283,-4.56820011138916,-212,6369.0,17.31960105895996,347,9930.0
5730,0.3108806312084198,-22.362356185913086,-469,6369.0,11.311139106750488,-5,9930.0
5740,0.30746445059776306,-35.61762619018555,-585,6369.0,-0.6386911273002625,-106,9930.0
5750,0.30377617478370667,-41.43814468383789,-724,6369.0,-14.947181701660156,-160,9930.0
5760,0.30105775594711304,-36.95147705078125,-491,6369.0,-26.661890029907227,-604,9930.0
5770,0.29693832993507385,-25.799762725830078,-334,6369.0,-38.61695098876953,-596,9930.0
5780,0.2938644289970398,-12.529052734375,-237,6369.0,-43.610164642333984,-773,9930.0
5790,0.29205507040023804,-3.0269460678100586,92,6369.0,-33.723976135253906,-345,9930.0
5800,0.2908300757408142,4.060241222381592,49,6369.0,-5.983429431915283,40,9930.0
5810,0.28933069109916687,6.409829616546631,64,6369.0,20.219341278076172,323,9930.0
5820,0.2883484661579132,7.8279852867126465,150,6369.0,40.81012725830078,702,9930.0
5830,0.28790783882141113,7.416625022888184,-11,6369.0,57.08315658569336,1047,9930.0
5840,0.28732457756996155,8.567298889160156,241,6369.0,69.77039337158203,1132,9930.0
5850,0.28717684745788574,13.61332893371582,167,6369.0,74.71710205078125,1317,9930.0
5860,0.28834250569343567,15.143494606018066,329,6369.0,71.16222381591797,1195,9930.0
5870,0.2881619334220886,16.875425338745117,240,6369.0,55.47339630126953,625,9930.0
5880,0.2880825698375702,19.274532318115234,340,6369.0,30.501855850219727,423,9930.0
5890,0.2889454960823059,25.084068298339844,416,6369.0,6.655906677246094,25,9930.0
5900,0.2888827323913574,25.97269058227539,439,6369.0,-15.810784339904785,-227,9930.0
5910,0.28865671157836914,20.635101318359375,327,6369.0,-30.57386589050293,-756,9930.0
5920,0.288337379693985,9.210649490356445,107,6369.0,-41.384361267089844,-639,9930.0
5930,0.2881752848625183,-0.7439625859260559,-141,6369.0,-50.229461669921875,-845,9930.0
5940,0.2892453968524933,-11.671449661254883,-170,6369.0,-51.070560455322266,-893,9930.0
5950,0.2887584865093231,-18.183813095092773,-268,6369.0,-42.116539001464844,-505,9930.0
5960,0.28799763321876526,-20.09524154663086,-352,6369.0,-26.962451934814453,-353,9930.0
5970,0.28717002272605896,-19.860797882080078,-316,6369.0,-12.489550590515137,-283,9930.0
5980,0.2862696647644043,-17.376745223999023,-267,6369.0,-1.2607063055038452,-32,9930.0
5990,0.28809869289398193,-12.165925979614258,-241,6369.0,5.79319953918457,178,9930.0
6000,0.2875328063964844,-6.796898365020752,-111,6369.0,2.570979595184326,57,9930.0
6010,0.28667518496513367,0.027577517554163933,147,6369.0,-6.492746353149414,-130,9930.0
6020,0.2859266996383667,6.418973445892334,40,6369.0,-12.298852920532227,-123,9930.0
6030,0.2892821729183197,2.947265625,42,6369.0,-4.471980094909668,-214,9930.0
6040,0.2885911762714386,2.734776258468628,67,6369.0,-1.6552481651306152,-15,9930.0
6050,0.2878367602825165,1.6252433061599731,22,6369.0,9.17231559753418,354,9930.0
6060,0.28681445121765137,4.304571151733398,-5,6369.0,20.68259620666504,480,9930.0
6070,0.2854752838611603,2.7376632690429688,100,6369.0,26.43401527404785,332,9930.0
6080,0.28705787658691406,-0.06706812232732773,59,6369.0,27.407133102416992,490,9930.0
6090,0.28547903895378113,-3.7507688999176025,-168,6369.0,27.183115005493164,443,9930.0
6100,0.2841205894947052,-10.072137832641602,-221,6369.0,27.0847225189209,395,9930.0
6110,0.2824854552745819,-17.149927139282227,-319,6369.0,26.862083435058594,568,9930.0
6120,0.28523021936416626,-23.759601593017578,-391,6369.0,26.766931533813477,409,9930.0
6130,0.2837826609611511,-19.82296371459961,-212,6369.0,22.208677291870117,313,9930.0
6140,0.2820710837841034,-10.764444351196289,-209,6369.0,14.249940872192383,198,9930.0
6150,0.2804192900657654,0.14127996563911438,118,6369.0,4.88032865524292,81,9930.0
6160,0.2803248465061188,8.824334144592285,180,6369.0,-0.19630460441112518,74,9930.0
6170,0.2789127230644226,12.430243492126465,194,6369.0,1.628752589225769,-111,9930.0
6180,0.27703821659088135,12.460737228393555,192,6369.0,4.757287979125977,133,9930.0
6190,0.2758086323738098,8.781841278076172,48,6369.0,9.212305068969727,183,9930.0
6200,0.27439993619918823,2.0716123580932617,67,6369.0,12.113594055175781,167,9930.0
6210,0.27409911155700684,-4.376732349395752,-92,6369.0,13.977273941040039,373,9930.0
6220,0.2728371024131775,-11.398630142211914,-203,6369.0,17.74233055114746,180,9930.0
6230,0.27231720089912415,-8.902791023254395,-80,6369.0,19.21332550048828,317,9930.0
6240,0.2718504071235657,-0.7900294065475464,-93,6369.0,16.077857971191406,195,9930.0
6250,0.2717556953430176,9.991386413574219,306,6369.0,5.08882999420166,39,9930.0
6260,0.27121344208717346,20.498048782348633,397,6369.0,-10.312399864196777,-163,9930.0
6270,0.2709581255912781,21.864356994628906,418,6369.0,-24.74295425415039,-537,9930.0
6280,0.27049359679222107,21.356552124023438,288,6369.0,-32.61386489868164,-486,9930.0
6290,0.27000364661216736,11.489686012268066,102,6369.0,-26.47389793395996,-548,9930.0
6300,0.2687892019748688,-4.516120433807373,-121,6369.0,-22.66145133972168,-419,9930.0
6310,0.26833581924438477,-18.002471923828125,-398,6369.0,-16.633195877075195,-176,9930.0
6320,0.26766541600227356,-29.744556427001953,-527,6369.0,-4.139398097991943,-131,9930.0
6330,0.2670348286628723,-37.222476959228516,-583,6369.0,10.304727554321289,199,9930.0
6340,0.26360705494880676,-35.498722076416016,-614,6369.0,19.006746292114258,332,9930.0
6350,0.2627714276313782,-25.853466033935547,-303,6369.0,28.879974365234375,500,9930.0
6360,0.2618807256221771,-9.989777565002441,-98,6369.0,36.85243606567383,605,9930.0
6370,0.2612481713294983,7.713133335113525,234,6369.0,41.668338775634766,806,9930.0
6380,0.2601316571235657,21.3117618560791,443,6369.0,39.235836029052734,612,9930.0
6390,0.258035808801651,26.963504791259766,436,6369.0,31.495689392089844,461,9930.0
6400,0.25677746534347534,26.6375732421875,501,6369.0,18.169231414794922,253,9930.0
6410,0.25553351640701294,22.988924026489258,281,6369.0,4.424553871154785,-170,9930.0
6420,0.25403037667274475,16.638288497924805,322,6369.0,-8.462759971618652,-83,9930.0
6430,0.2510611116886139,13.897928237915039,192,6369.0,-13.683744430541992,-359,9930.0
6440,0.2497142255306244,13.23470401763916,250,6369.0,-16.602872848510742,-273,9930.0
6450,0.24830885231494904,12.990226745605469,114,6369.0,-18.091415405273438,-206,9930.0
6460,0.24660922586917877,7.04088830947876,112,6369.0,-17.356487274169922,-319,9930.0
6470,0.24673491716384888,0.6045311093330383,-40,6369.0,-10.882214546203613,8,9930.0
6480,0.24583745002746582,-6.18706750869751,-157,6369.0,0.09736849367618561,-8,9930.0
6490,0.24434839189052582,-11.727745056152344,-175,6369.0,8.414958953857422,242,9930.0
6500,0.24353599548339844,-12.215802192687988,-252,6369.0,12.656094551086426,200,9930.0
6510,0.2421395480632782,-11.607856750488281,-146,6369.0,18.64727020263672,356,9930.0
6520,0.2419440597295761,-11.417304992675781,-227,6369.0,23.556745529174805,287,9930.0
6530,0.24096526205539703,-14.05732250213623,-273,6369.0,18.71580696105957,364,9930.0
6540,0.2400243580341339,-21.329421997070312,-383,6369.0,16.452167510986328,131,9930.0
6550,0.2391396462917328,-22.16972541809082,-349,6369.0,12.734001159667969,210,9930.0
6560,0.23915626108646393,-16.945337295532227,-185,6369.0,9.882587432861328,129,9930.0
6570,0.2389877587556839,-7.592373371124268,-156,6369.0,3.997343063354492,-38,9930.0
6580,0.23837800323963165,-2.1294751167297363,-5,6369.0,-9.773061752319336,-50,9930.0
6590,0.23742757737636566,-1.879381537437439,-37,6369.0,-18.638954162597656,-409,9930.0
6600,0.23647646605968475,-0.9309424757957458,-29,6369.0,-21.861114501953125,-216,9930.0
6610,0.2356695830821991,1.0556964874267578,96,6369.0,-9.576730728149414,-105,9930.0
6620,0.23581267893314362,6.204280853271484,65,6369.0,15.72890567779541,417,9930.0
6630,0.23494766652584076,9.473148345947266,184,6369.0,42.037139892578125,723,9930.0
6640,0.23475874960422516,11.209497451782227,83,6369.0,54.032806396484375,924,9930.0
6650,0.23447294533252716,6.533541679382324,126,6369.0,54.075435638427734,865,9930.0
6660,0.23419083654880524,5.325501918792725,26,6369.0,45.11359786987305,547,9930.0
6670,0.23398658633232117,0.023463349789381027,46,6369.0,24.172243118286133,380,9930.0
6680,0.2336028814315796,0.5661391615867615,-10,6369.0,0.15334996581077576,-164,9930.0
6690,0.23330935835838318,-1.5081944465637207,-163,6369.0,-22.765546798706055,-406,9930.0
6700,0.232916921377182,-5.170678615570068,-56,6369.0,-33.93772888183594,-604,9930.0
6710,0.23272991180419922,-9.37123966217041,-227,6369.0,-36.593257904052734,-580,9930.0
6720,0.23249784111976624,-11.232020378112793,-148,6369.0,-30.701616287231445,-427,9930.0
6730,0.23265646398067474,-9.642821311950684,-177,6369.0,-17.923110961914062,-208,9930.0
6740,0.23268215358257294,-7.504272937774658,-54,6369.0,-1.046937108039856,96,9930.0
6750,0.23272916674613953,-5.078232288360596,-116,6369.0,14.404643058776855,235,9930.0
6760,0.2329224944114685,-1.5347020626068115,-8,6369.0,21.977170944213867,427,9930.0
6770,0.23342664539813995,-0.8158014416694641,-16,6369.0,24.015356063842773,261,9930.0
6780,0.235423743724823,1.3314334154129028,36,6369.0,18.25303077697754,346,9930.0
6790,0.23558390140533447,-0.02109411358833313,40,6369.0,7.784162998199463,-70,9930.0
6800,0.23612691462039948,2.481452226638794,-16,6369.0,-5.468561172485352,-84,9930.0
6810,0.23667532205581665,0.5093992352485657,88,6369.0,-11.651005744934082,-290,9930.0
6820,0.2401406615972519,-2.380011558532715,-122,6369.0,-12.247153282165527,-137,9930.0
6830,0.24106638133525848,-10.045281410217285,-100,6369.0,-4.776762008666992,-74,9930.0
6840,0.24163497984409332,-17.219810485839844,-349,6369.0,4.78964900970459,116,9930.0
6850,0.24240632355213165,-19.383296966552734,-241,6369.0,7.5153584480285645,115,9930.0
6860,0.2436399906873703,-15.33391284942627,-293,6369.0,8.690203666687012,87,9930.0
6870,0.2448580116033554,-7.207687854766846,34,6369.0,16.381778717041016,350,9930.0
6880,0.2456311732530594,6.986228942871094,141,6369.0,24.82211685180664,304,9930.0
6890,0.2463509440422058,19.929616928100586,392,6369.0,28.873733520507812,515,9930.0
6900,0.24768824875354767,26.7363338470459,469,6369.0,21.794551849365234,253,9930.0
6910,0.2502647340297699,31.65739631652832,502,6369.0,14.730829238891602,261,9930.0
6920,0.25082284212112427,28.07052993774414,460,6369.0,3.015122175216675,-44,9930.0
6930,0.25098735094070435,22.3131160736084,320,6369.0,-7.831399440765381,-110,9930.0
6940,0.25157374143600464,14.305438041687012,179,6369.0,-16.12372589111328,-377,9930.0
6950,0.2520008981227875,1.0216655731201172,-6,6369.0,-21.605295181274414,-343,9930.0
6960,0.2522737681865692,-12.765195846557617,-332,6369.0,-21.15631866455078,-298,9930.0
6970,0.25262534618377686,-25.747098922729492,-395,6369.0,-14.23096752166748,-214,9930.0
6980,0.2528046667575836,-29.431251525878906,-538,6369.0,-3.6226966381073,121,9930.0
6990,0.2527211904525757,-28.839885711669922,-449,6369.0,6.116561412811279,72,9930.0
7000,0.25060153007507324,-24.406158447265625,-315,6369.0,13.498416900634766,299,9930.0
7010,0.2511979937553406,-12.528566360473633,-176,6369.0,12.799189567565918,196,9930.0
7020,0.2510303556919098,0.20864316821098328,110,6369.0,8.15677547454834,177,9930.0
7030,0.2510698735713959,11.653392791748047,150,6369.0,0.6903340220451355,-56,9930.0
7040,0.24821080267429352,15.634028434753418,291,6369.0,-6.299478054046631,-25,9930.0
7050,0.24798215925693512,14.749757766723633,187,6369.0,-10.677664756774902,-256,9930.0
7060,0.2478238344192505,11.02834415435791,198,6369.0,-13.659908294677734,-205,9930.0
7070,0.24769045412540436,3.5736501216888428,-47,6369.0,-11.768702507019043,-131,9930.0
7080,0.24386300146579742,-0.14720137417316437,14,6369.0,-8.423331260681152,-121,9930.0
7090,0.24334949254989624,-5.7209014892578125,-124,6369.0,-4.461467266082764,-6,9930.0
7100,0.24288219213485718,-10.417402267456055,-284,6369.0,-1.3393330574035645,58,9930.0
7110,0.2425553947687149,-14.08663272857666,-136,6369.0,5.369350433349609,111,9930.0
7120,0.24209479987621307,-13.94825553894043,-284,6369.0,13.001385688781738,240,9930.0
7130,0.24450476467609406,-11.021217346191406,-80,6369.0,19.56734275817871,353,9930.0
7140,0.244358092546463,-4.716558456420898,-98,6369.0,28.32659912109375,400,9930.0
7150,0.24411870539188385,7.302220344543457,241,6369.0,26.17588233947754,494,9930.0
7160,0.24391910433769226,19.542720794677734,393,6369.0,17.282987594604492,238,9930.0
7170,0.24147608876228333,27.515504837036133,426,6369.0,13.742587089538574,161,9930.0
7180,0.24103981256484985,27.902690887451172,461,6369.0,6.2669291496276855,137,9930.0
7190,0.24052248895168304,19.748546600341797,278,6369.0,-2.2424426078796387,-221,9930.0
7200,0.24015378952026367,7.9910688400268555,123,6369.0,-11.624709129333496,-111,9930.0
7210,0.2396455705165863,-2.0298800468444824,17,6369.0,-13.469976425170898,-246,9930.0
7220,0.24125219881534576,-10.048579216003418,-240,6369.0,-12.849386215209961,-276,9930.0
7230,0.24081090092658997,-16.853464126586914,-215,6369.0,-10.587568283081055,-29,9930.0
7240,0.2403155118227005,-13.463706970214844,-189,6369.0,-8.318070411682129,-233,9930.0
7250,0.23987159132957458,-8.437065124511719,-182,6369.0,-7.0726542472839355,-85,9930.0
7260,0.23655244708061218,-6.075518608093262,-34,6369.0,-8.557214736938477,-80,9930.0
7270,0.2360386848449707,-3.1360857486724854,28,6369.0,-8.46200942993164,-171,9930.0
7280,0.2355126291513443,1.5334089994430542,-28,6369.0,-3.7805237770080566,-23,9930.0
7290,0.23508329689502716,3.683563709259033,137,6369.0,-2.0099968910217285,49,9930.0
7300,0.23694664239883423,2.7576448917388916,5,6369.0,-3.891573190689087,-112,9930.0
7310,0.2366703301668167,-0.5926512479782104,-78,6369.0,-9.369343757629395,-180,9930.0
7320,0.2364456057548523,-2.3956568241119385,65,6369.0,-17.12917709350586,-184,9930.0
7330,0.23651738464832306,3.1043567657470703,9,6369.0,-21.728723526000977,-467,9930.0
7340,0.23642583191394806,3.7000372409820557,75,6369.0,-23.146074295043945,-266,9930.0
7350,0.23322676122188568,3.970930337905884,103,6369.0,-15.800621032714844,-286,9930.0
7360,0.23338158428668976,2.735574722290039,21,6369.0,0.5810070037841797,101,9930.0
7370,0.23355640470981598,4.336429595947266,81,6369.0,17.7078800201416,352,9930.0
7380,0.2338099628686905,1.780186414718628,-63,6369.0,27.818056106567383,470,9930.0
7390,0.23959340155124664,-1.985603928565979,46,6369.0,27.65899658203125,557,9930.0
7400,0.24044673144817352,-1.2929996252059937,-80,6369.0,25.272945404052734,296,9930.0
7410,0.2415359914302826,-3.7053864002227783,-135,6369.0,18.111618041992188,304,9930.0
7420,0.24246814846992493,-8.515592575073242,-106,6369.0,6.910261154174805,93,9930.0
7430,0.24316714704036713,-16.127643585205078,-370,6369.0,-3.156627893447876,-181,9930.0
7440,0.24405528604984283,-21.772201538085938,-358,6369.0,-14.61084270477295,-191,9930.0
7450,0.24477159976959229,-24.129358291625977,-324,6369.0,-23.002256393432617,-475,9930.0
7460,0.24615006148815155,-15.2772216796875,-280,6369.0,-29.68707275390625,-491,9930.0
7470,0.2470327913761139,-6.567641258239746,4,6369.0,-27.97355079650879,-454,9930.0
7480,0.24667492508888245,3.506373405456543,64,6369.0,-22.216846466064453,-422,9930.0
7490,0.24749431014060974,13.180485725402832,349,6369.0,-15.436235427856445,-129,9930.0
7500,0.24815522134304047,21.248262405395508,292,6369.0,-2.8490419387817383,-74,9930.0
7510,0.248952254652977,20.829410552978516,386,6369.0,4.634403228759766,166,9930.0
7520,0.2496822029352188,15.226985931396484,164,6369.0,15.031627655029297,276,9930.0
7530,0.25031813979148865,4.016848564147949,109,6369.0,23.900381088256836,403,9930.0
7540,0.2508954405784607,-3.7587344646453857,-181,6369.0,24.645320892333984,406,9930.0
7550,0.25153008103370667,-5.551533222198486,-9,6369.0,15.827659606933594,237,9930.0
7560,0.25209125876426697,-4.264680862426758,-125,6369.0,2.6023104190826416,-107,9930.0
7570,0.25282391905784607,2.705815076828003,115,6369.0,-13.58764362335205,-211,9930.0
7580,0.25361117720603943,5.537015914916992,112,6369.0,-22.288434982299805,-481,9930.0
7590,0.2544233500957489,7.899710655212402,200,6369.0,-25.851871490478516,-387,9930.0
7600,0.25523990392684937,11.295730590820312,207,6369.0,-22.619003295898438,-395,9930.0
7610,0.25722041726112366,16.767032623291016,286,6369.0,-11.572267532348633,-57,9930.0
7620,0.25816744565963745,15.044962882995605,209,6369.0,-0.17349162697792053,29,9930.0
7630,0.2592319846153259,6.949903964996338,41,6369.0,8.569975852966309,163,9930.0
7640,0.2604350447654724,-7.540701866149902,-205,6369.0,16.275278091430664,366,9930.0
7650,0.2616926431655884,-12.574714660644531,-168,6369.0,23.508134841918945,340,9930.0
7660,0.2628505527973175,-5.722690582275391,-88,6369.0,24.620452880859375,442,9930.0
7670,0.26387715339660645,5.117670059204102,187,6369.0,22.005640029907227,266,9930.0
7680,0.26506370306015015,17.64806365966797,271,6369.0,14.763894081115723,274,9930.0
7690,0.2662903964519501,23.01904296875,416,6369.0,9.465149879455566,69,9930.0
7700,0.26714497804641724,17.372323989868164,187,6369.0,1.0206518173217773,-78,9930.0
7710,0.2680203914642334,8.217132568359375,200,6369.0,-6.5614519119262695,-204,9930.0
7720,0.268770694732666,4.868901252746582,97,6369.0,-13.87921142578125,-255,9930.0
7730,0.26943960785865784,6.1470866203308105,80,6369.0,-18.104999542236328,-385,9930.0
7740,0.2705201506614685,4.166794776916504,116,6369.0,-19.32717514038086,-249,9930.0
7750,0.27119675278663635,2.2093617916107178,-57,6369.0,-18.06178855895996,-286,9930.0
7760,0.27180376648902893,-1.027377724647522,39,6369.0,-17.122655868530273,-301,9930.0
7770,0.272422730922699,-0.3979921042919159,-71,6369.0,-13.671785354614258,-251,9930.0
7780,0.273108571767807,-1.8109666109085083,14,6369.0,-6.151629447937012,-168,9930.0
7790,0.27256065607070923,-2.9092376232147217,-86,6369.0,1.1825580596923828,110,9930.0
7800,0.2733041048049927,-8.924132347106934,-181,6369.0,7.8552656173706055,39,9930.0
7810,0.2740112543106079,-12.275520324707031,-165,6369.0,8.28420639038086,193,9930.0
7820,0.27470433712005615,-15.6283597946167,-292,6369.0,4.3083953857421875,-12,9930.0
7830,0.2753344178199768,-17.267438888549805,-226,6369.0,-1.5665252208709717,-24,9930.0
7840,0.2760579586029053,-16.579450607299805,-310,6369.0,-8.577838897705078,-240,9930.0
7850,0.2767949402332306,-16.876171112060547,-229,6369.0,-14.654266357421875,-207,9930.0
7860,0.27744027972221375,-8.341383934020996,-127,6369.0,-12.88812255859375,-287,9930.0
7870,0.27809569239616394,3.8679728507995605,140,6369.0,-7.482754230499268,-14,9930.0
7880,0.27864930033683777,12.32190990447998,152,6369.0,7.1160807609558105,186,9930.0
7890,0.27918338775634766,16.39666748046875,321,6369.0,19.836671829223633,442,9930.0
7900,0.27975568175315857,17.654041290283203,239,6369.0,23.807170867919922,272,9930.0
7910,0.28034892678260803,13.307740211486816,234,6369.0,16.62501335144043,291,9930.0
7920,0.278929740190506,9.241678237915039,115,6369.0,5.407324314117432,-61,9930.0
7930,0.2791803479194641,7.506938457489014,83,6369.0,-3.256474494934082,-18,9930.0
7940,0.27935680747032166,2.0524158477783203,53,6369.0,-11.528566360473633,-284,9930.0
7950,0.27946263551712036,-1.5110169649124146,-131,6369.0,-18.937597274780273,-298,9930.0
7960,0.27932626008987427,-6.582926273345947,-46,6369.0,-22.360214233398438,-447,9930.0
7970,0.2793641984462738,-8.18799877166748,-153,6369.0,-25.134401321411133,-420,9930.0
7980,0.2793940305709839,-9.337577819824219,-132,6369.0,-22.546451568603516,-397,9930.0
7990,0.27943286299705505,-10.262866973876953,-199,6369.0,-14.989153861999512,-93,9930.0
8000,0.27744060754776,-6.0407562255859375,-1,6369.0,-4.987873077392578,-102,9930.0
8010,0.2774249315261841,3.117919445037842,-3,6369.0,8.082228660583496,252,9930.0
8020,0.27741891145706177,8.760148048400879,235,6369.0,18.348112106323242,346,9930.0
8030,0.2773793339729309,8.206182479858398,78,6369.0,27.460941314697266,467,9930.0
8040,0.27737098932266235,10.240203857421875,224,6369.0,33.358036041259766,613,9930.0
8050,0.27684149146080017,12.124761581420898,208,6369.0,33.9464225769043,442,9930.0
8060,0.2767505347728729,15.996664047241211,277,6369.0,23.012531280517578,366,9930.0
8070,0.27730482816696167,13.47530746459961,280,6369.0,4.653903961181641,18,9930.0
8080,0.27768635749816895,4.904961109161377,-38,6369.0,-14.863748550415039,-336,9930.0
8090,0.27892830967903137,-3.9291694164276123,-41,6369.0,-26.91057014465332,-404,9930.0
8100,0.2794901132583618,-10.290258407592773,-209,6369.0,-31.792198181152344,-582,9930.0
8110,0.2800971567630768,-11.9927978515625,-153,6369.0,-32.06889724731445,-366,9930.0
8120,0.28073588013648987,-4.264555931091309,18,6369.0,-22.31183433532715,-428,9930.0
8130,0.2813854217529297,11.129589080810547,264,6369.0,-9.195223808288574,6,9930.0
8140,0.2815243601799011,27.939403533935547,468,6369.0,10.677392959594727,154,9930.0
8150,0.282015323638916,26.831912994384766,422,6369.0,21.348173141479492,507,9930.0
8160,0.28268003463745117,10.48265552520752,60,6369.0,27.720565795898438,313,9930.0
8170,0.2831815183162689,-8.897819519042969,-221,6369.0,25.930444717407227,489,9930.0
8180,0.28467267751693726,-21.69019317626953,-345,6369.0,22.520917892456055,253,9930.0
8190,0.28501006960868835,-23.668914794921875,-401,6369.0,17.94166374206543,266,9930.0
8200,0.2853773534297943,-23.928014755249023,-302,6369.0,14.904385566711426,261,9930.0
8210,0.2857038974761963,-19.3505916595459,-348,6369.0,13.091262817382812,30,9930.0
8220,0.28751662373542786,-10.409896850585938,-62,6369.0,-2.6122794151306152,-129,9930.0
8230,0.2880629003047943,3.643239974975586,182,6369.0,-26.18061637878418,-564,9930.0
8240,0.2884754240512848,12.16786003112793,160,6369.0,-45.05691909790039,-925,9930.0
8250,0.2889992594718933,9.804896354675293,186,6369.0,-53.890140533447266,-737,9930.0
8260,0.28928568959236145,9.225889205932617,48,6369.0,-44.833072662353516,-769,9930.0
8270,0.29040437936782837,1.3201236724853516,3,6369.0,-33.22941589355469,-333,9930.0
8280,0.29174989461898804,-1.8111062049865723,-48,6369.0,-16.401140213012695,-237,9930.0
8290,0.2924197018146515,-1.1196423768997192,1,6369.0,6.983907222747803,292,9930.0
8300,0.293094664812088,-0.7811641693115234,-56,6369.0,29.420730590820312,543,9930.0
8310,0.29352080821990967,0.9046425223350525,83,6369.0,37.476478576660156,625,9930.0
8320,0.2944166958332062,3.6995697021484375,-41,6369.0,32.46045684814453,485,9930.0
8330,0.29530996084213257,2.6535775661468506,73,6369.0,19.857969284057617,243,9930.0
8340,0.2962016761302948,-1.901222825050354,-120,6369.0,3.6860125064849854,-95,9930.0
8350,0.2972251772880554,-10.135828018188477,-136,6369.0,-9.778430938720703,-154,9930.0
8360,0.2977627217769623,-9.69013500213623,-185,6369.0,-17.81907081604004,-390,9930.0
8370,0.2987211346626282,-7.55697774887085,-83,6369.0,-21.035947799682617,-429,9930.0
8380,0.2997939884662628,-5.813122272491455,-122,6369.0,-19.971216201782227,-257,9930.0
8390,0.30076420307159424,-10.566266059875488,-150,6369.0,-10.777527809143066,-56,9930.0
8400,0.3014436662197113,-9.945069313049316,-153,6369.0,2.8447265625,268,9930.0
8410,0.30231034755706787,-4.017580032348633,-31,6369.0,17.459272384643555,226,9930.0
8420,0.3031198978424072,5.67467737197876,131,6369.0,27.79178237915039,634,9930.0
8430,0.30382564663887024,13.143081665039062,164,6369.0,31.928781509399414,443,9930.0
8440,0.30266326665878296,13.611270904541016,251,6369.0,26.960905075073242,530,9930.0
8450,0.30319708585739136,14.684781074523926,225,6369.0,17.136716842651367,135,9930.0
8460,0.3034020960330963,14.005147933959961,215,6369.0,4.188352108001709,106,9930.0
8470,0.30365481972694397,12.90853500366211,237,6369.0,-8.071744918823242,-220,9930.0
8480,0.3039492666721344,11.79206657409668,137,6369.0,-17.125,-235,9930.0
8490,0.30529388785362244,7.038969039916992,126,6369.0,-22.6407527923584,-420,9930.0
8500,0.3054611384868622,1.9739490747451782,31,6369.0,-23.158706665039062,-308,9930.0
8510,0.30570048093795776,-0.6923159956932068,-66,6369.0,-21.865497589111328,-431,9930.0
8520,0.30588605999946594,-7.684902667999268,-159,6369.0,-21.098278045654297,-233,9930.0
8530,0.3064282536506653,-15.078648567199707,-336,6369.0,-14.163412094116211,-230,9930.0
8540,0.3066771626472473,-21.25119400024414,-322,6369.0,-6.249581813812256,-35,9930.0
8550,0.3068857192993164,-23.67168426513672,-469,6369.0,4.971048831939697,177,9930.0
8560,0.30714234709739685,-25.080530166625977,-380,6369.0,14.63122844696045,284,9930.0
8570,0.3073228895664215,-22.994213104248047,-403,6369.0,23.143754959106445,404,9930.0
8580,0.30887076258659363,-16.725902557373047,-131,6369.0,28.47189712524414,507,9930.0
8590,0.30911505222320557,0.6439266204833984,49,6369.0,33.13310623168945,437,9930.0
8600,0.30957284569740295,16.067163467407227,398,6369.0,25.134765625,451,9930.0
8610,0.3104352056980133,23.76738166809082,435,6369.0,16.578594207763672,128,9930.0
8620,0.31091415882110596,25.5025577545166,374,6369.0,5.500289440155029,35,9930.0
8630,0.31149929761886597,24.732986450195312,393,6369.0,-6.263696670532227,-40,9930.0
8640,0.31209567189216614,22.415550231933594,409,6369.0,-10.700977325439453,-329,9930.0
8650,0.3124684989452362,24.436378479003906,419,6369.0,-14.576494216918945,-142,9930.0
8660,0.3136276304721832,26.310544967651367,461,6369.0,-16.10626220703125,-380,9930.0
8670,0.3139612376689911,22.98276138305664,321,6369.0,-19.82552146911621,-199,9930.0
8680,0.3141615092754364,15.362805366516113,246,6369.0,-16.902400970458984,-308,9930.0
8690,0.3144606649875641,-1.2668265104293823,-164,6369.0,-7.753057956695557,3,9930.0
8700,0.3148456811904907,-16.993257522583008,-340,6369.0,3.5857224464416504,39,9930.0
8710,0.31698617339134216,-29.150432586669922,-518,6369.0,10.851458549499512,270,9930.0
8720,0.3171125650405884,-35.00082015991211,-565,6369.0,16.341800689697266,172,9930.0
8730,0.31719672679901123,-30.101741790771484,-438,6369.0,14.852635383605957,235,9930.0
8740,0.31721800565719604,-14.96706485748291,-76,6369.0,7.189797878265381,63,9930.0
8750,0.3165075182914734,2.628431797027588,50,6369.0,-5.985991954803467,-174,9930.0
8760,0.3166547119617462,13.32229995727539,366,6369.0,-17.54660987854004,-266,9930.0
8770,0.316776841878891,18.44182586669922,249,6369.0,-25.834442138671875,-514,9930.0
8780,0.3170575201511383,10.280595779418945,143,6369.0,-29.466264724731445,-442,9930.0
8790,0.31738972663879395,-4.347332000732422,-131,6369.0,-28.303617477416992,-531,9930.0
8800,0.31833285093307495,-18.04392433166504,-334,6369.0,-20.46207046508789,-243,9930.0
8810,0.31872618198394775,-23.72412109375,-412,6369.0,-5.818057537078857,-82,9930.0
8820,0.31924012303352356,-26.37944221496582,-420,6369.0,6.995290756225586,210,9930.0
8830,0.31971505284309387,-22.208614349365234,-369,6369.0,20.09980583190918,341,9930.0
8840,0.3197704255580902,-10.951146125793457,-127,6369.0,26.23402976989746,548,9930.0
8850,0.32014819979667664,-2.5224380493164062,-11,6369.0,19.26152992248535,153,9930.0
8860,0.32072094082832336,1.3093587160110474,-82,6369.0,8.059290885925293,162,9930.0
8870,0.3211425542831421,0.6556226015090942,74,6369.0,-1.7149807214736938,-12,9930.0
8880,0.32171764969825745,4.074341297149658,7,6369.0,0.44733816385269165,-38,9930.0
8890,0.3221089839935303,11.897171020507812,195,6369.0,3.8753764629364014,77,9930.0
8900,0.32244354486465454,19.450849533081055,413,6369.0,4.390476703643799,92,9930.0
8910,0.3226965665817261,22.64499855041504,376,6369.0,1.2978800535202026,-89,9930.0
8920,0.3229496479034424,31.226438522338867,595,6369.0,-8.306397438049316,-36,9930.0
8930,0.3238382637500763,33.903446197509766,470,6369.0,-13.344015121459961,-411,9930.0
8940,0.3241521418094635,20.551254272460938,221,6369.0,-13.145964622497559,-105,9930.0
8950,0.3240506052970886,-3.9579720497131348,-190,6369.0,-11.073777198791504,-317,9930.0
8960,0.3240151107311249,-26.028852462768555,-504,6369.0,-14.619458198547363,-173,9930.0
8970,0.3235824406147003,-39.57756805419922,-704,6369.0,-13.84660530090332,-266,9930.0
8980,0.32355499267578125,-44.427825927734375,-666,6369.0,-6.157655239105225,28,9930.0
8990,0.3234963119029999,-35.617431640625,-467,6369.0,5.231489181518555,105,9930.0
9000,0.3235079348087311,-18.765058517456055,-235,6369.0,8.93238639831543,149,9930.0
9010,0.3235940635204315,5.699077606201172,294,6369.0,7.84900426864624,159,9930.0
9020,0.32266438007354736,31.908405303955078,623,6369.0,4.409592628479004,-30,9930.0
9030,0.3226698637008667,45.11946487426758,683,6369.0,2.3391311168670654,69,9930.0
9040,0.32267439365386963,40.17174530029297,579,6369.0,0.3448193371295929,-125,9930.0
9050,0.3229331970214844,26.057470321655273,361,6369.0,-1.1921085119247437,72,9930.0
9060,0.3217938244342804,5.484689235687256,-36,6369.0,3.7605323791503906,86,9930.0
9070,0.3221515715122223,-18.072017669677734,-392,6369.0,12.917189598083496,274,9930.0
9080,0.32237598299980164,-37.77122497558594,-660,6369.0,17.115755081176758,245,9930.0
9090,0.32259488105773926,-41.09748077392578,-716,6369.0,15.761569023132324,261,9930.0
9100,0.3228398561477661,-35.879695892333984,-478,6369.0,4.739539623260498,159,9930.0
9110,0.32332730293273926,-22.854692459106445,-321,6369.0,-1.3735672235488892,-130,9930.0
9120,0.3235591650009155,-6.787123680114746,-96,6369.0,-5.810687065124512,-81,9930.0
9130,0.3240034580230713,2.5960123538970947,151,6369.0,-7.21188497543335,-9,9930.0
9140,0.32436540722846985,10.620923042297363,291,6369.0,-5.458381175994873,-40,9930.0
9150,0.3242698013782501,21.389598846435547,329,6369.0,-0.23163197934627533,-65,9930.0
9160,0.32456526160240173,26.817432403564453,423,6369.0,2.635136127471924,186,9930.0
9170,0.3248916268348694,28.262407302856445,490,6369.0,9.466374397277832,93,9930.0
9180,0.32508230209350586,25.41619110107422,350,6369.0,8.845721244812012,138,9930.0
9190,0.32627132534980774,21.92430877685547,396,6369.0,6.203436851501465,127,9930.0
9200,0.32653212547302246,13.762301445007324,132,6369.0,5.782162666320801,-6,9930.0
9210,0.3266647458076477,2.0517780780792236,62,6369.0,5.974226474761963,150,9930.0
9220,0.3268539607524872,-4.495518207550049,-158,6369.0,4.357470989227295,-16,9930.0
9230,0.3269873857498169,-10.463826179504395,-136,6369.0,1.6836270093917847,120,9930.0
9240,0.3266661763191223,-16.92946434020996,-295,6369.0,4.8853631019592285,65,9930.0
9250,0.3266938328742981,-16.858129501342773,-319,6369.0,6.284848690032959,173,9930.0
9260,0.3266940712928772,-12.035042762756348,-77,6369.0,4.828862190246582,77,9930.0
9270,0.32676342129707336,-2.0261428356170654,-7,6369.0,3.25849986076355,-15,9930.0
9280,0.3257473111152649,7.553285121917725,184,6369.0,1.7493066787719727,135,9930.0
9290,0.3258861005306244,12.036675453186035,190,6369.0,-0.7271550297737122,-52,9930.0
9300,0.32609137892723083,12.758332252502441,88,6369.0,-4.261016845703125,-18,9930.0
9310,0.3263776898384094,6.811365604400635,116,6369.0,-6.028585910797119,-128,9930.0
9320,0.32831627130508423,-10.267607688903809,-330,6369.0,-3.0257174968719482,7,9930.0
9330,0.3287673592567444,-29.45444679260254,-506,6369.0,2.787403106689453,43,9930.0
9340,0.3291274309158325,-40.2068977355957,-729,6369.0,3.5930378437042236,-10,9930.0
9350,0.3294292688369751,-39.263431549072266,-584,6369.0,0.9282492995262146,53,9930.0
9360,0.3296956419944763,-23.904827117919922,-267,6369.0,0.8652132153511047,-32,9930.0
9370,0.332504540681839,-7.09382438659668,-51,6369.0,4.2185468673706055,-6,9930.0
9380,0.3329210877418518,12.076920509338379,334,6369.0,6.59134578704834,221,9930.0
9390,0.3332570493221283,30.049175262451172,595,6369.0,10.052053451538086,162,9930.0
9400,0.3335513770580292,35.31584930419922,544,6369.0,15.493786811828613,208,9930.0
9410,0.3338414430618286,33.538185119628906,547,6369.0,16.174821853637695,420,9930.0
9420,0.3340691030025482,23.468870162963867,237,6369.0,16.468807220458984,130,9930.0
9430,0.33457034826278687,11.00153923034668,164,6369.0,12.084787368774414,228,9930.0
9440,0.33463892340660095,6.013576507568359,107,6369.0,8.260229110717773,49,9930.0
9450,0.33434170484542847,-0.24635422229766846,-74,6369.0,-2.733802318572998,-95,9930.0
9460,0.3343861401081085,-5.9214186668396,-40,6369.0,-15.667089462280273,-262,9930.0
9470,0.33432042598724365,-13.715097427368164,-332,6369.0,-22.922266006469727,-407,9930.0
9480,0.3342365622520447,-21.258804321289062,-320,6369.0,-26.687103271484375,-393,9930.0
9490,0.33427342772483826,-23.191930770874023,-450,6369.0,-23.795698165893555,-397,9930.0
9500,0.3349611759185791,-21.571205139160156,-263,6369.0,-17.21200942993164,-139,9930.0
9510,0.33512017130851746,-13.493682861328125,-182,6369.0,-6.6302361488342285,-165,9930.0
9520,0.3352784514427185,1.0400993824005127,132,6369.0,3.553406238555908,135,9930.0
9530,0.33565494418144226,13.691084861755371,248,6369.0,5.26379919052124,42,9930.0
9540,0.33478236198425293,20.956809997558594,394,6369.0,2.7901828289031982,77,9930.0
9550,0.3351161479949951,21.300556182861328,331,6369.0,3.168424606323242,19,9930.0
9560,0.33554673194885254,9.284584999084473,43,6369.0,9.510636329650879,215,9930.0
9570,0.3360086977481842,-3.252133846282959,-60,6369.0,8.865193367004395,73,9930.0
9580,0.33645254373550415,-15.269744873046875,-320,6369.0,9.817073822021484,206,9930.0
9590,0.338407039642334,-20.14850425720215,-256,6369.0,10.869658470153809,153,9930.0
9600,0.3390555679798126,-17.290565490722656,-273,6369.0,5.004550933837891,10,9930.0
9610,0.3396727442741394,-11.01814079284668,-86,6369.0,-0.05345265939831734,56,9930.0
9620,0.34020760655403137,-4.5125298500061035,16,6369.0,-4.624345779418945,-166,9930.0
9630,0.3395775556564331,-3.3838706016540527,-137,6369.0,-15.084151268005371,-313,9930.0
9640,0.3398706614971161,-8.101615905761719,-98,6369.0,-18.573781967163086,-214,9930.0
9650,0.3400731086730957,-11.23154067993164,-175,6369.0,-13.964245796203613,-348,9930.0
9660,0.3403186798095703,-5.333745956420898,-68,6369.0,-7.67255163192749,-1,9930.0
9670,0.34031790494918823,0.6410781741142273,107,6369.0,1.7743148803710938,30,9930.0
9680,0.34055599570274353,9.393001556396484,164,6369.0,5.039887428283691,153,9930.0
9690,0.3407512903213501,20.884727478027344,453,6369.0,8.614176750183105,186,9930.0
9700,0.34093666076660156,35.41670227050781,594,6369.0,8.402750968933105,16,9930.0
9710,0.34112420678138733,46.21384811401367,784,6369.0,2.5161004066467285,131,9930.0
9720,0.3420506417751312,45.67997741699219,670,6369.0,-5.831477165222168,-231,9930.0
9730,0.3422912359237671,34.642086029052734,502,6369.0,-10.262560844421387,-84,9930.0
9740,0.3423632085323334,20.96556282043457,308,6369.0,-6.708198070526123,-195,9930.0
9750,0.3425210416316986,8.58233642578125,83,6369.0,-1.8845700025558472,43,9930.0
9760,0.34318897128105164,-4.189088344573975,-102,6369.0,-2.3628787994384766,-157,9930.0
9770,0.343456894159317,-12.336068153381348,-236,6369.0,-7.2498369216918945,-4,9930.0
9780,0.34377920627593994,-19.451671600341797,-342,6369.0,-4.785197734832764,-155,9930.0
9790,0.34412360191345215,-24.860525131225586,-409,6369.0,-2.7694671154022217,71,9930.0
9800,0.34443458914756775,-28.999408721923828,-491,6369.0,2.5186517238616943,23,9930.0
9810,0.3439459204673767,-31.547405242919922,-528,6369.0,9.68306827545166,293,9930.0
9820,0.3442460894584656,-28.573055267333984,-399,6369.0,10.210667610168457,90,9930.0
9830,0.3445177674293518,-20.835289001464844,-361,6369.0,9.991475105285645,133,9930.0
9840,0.3449769616127014,-3.7819623947143555,63,6369.0,0.8667088747024536,59,9930.0
9850,0.34546563029289246,13.724241256713867,328,6369.0,-9.352803230285645,-298,9930.0
9860,0.3457004427909851,31.1645565032959,487,6369.0,-17.478248596191406,-278,9930.0
9870,0.34596773982048035,36.41755676269531,672,6369.0,-24.6013126373291,-449,9930.0
9880,0.34599900245666504,32.36109924316406,460,6369.0,-24.75749397277832,-405,9930.0
9890,0.3442087173461914,21.233501434326172,327,6369.0,-17.017667770385742,-214,9930.0
9900,0.344196081161499,3.039494752883911,-3,6369.0,-4.933365345001221,-16,9930.0
9910,0.3441348373889923,-9.227363586425781,-180,6369.0,12.875555992126465,206,9930.0
9920,0.34408310055732727,-16.263219833374023,-282,6369.0,24.242412567138672,478,9930.0
9930,0.3440767228603363,-20.309595108032227,-291,6369.0,28.943138122558594,374,9930.0
9940,0.343138724565506,-16.878080368041992,-349,6369.0,21.420082092285156,355,9930.0
9950,0.34301629662513733,-14.789392471313477,-135,6369.0,12.347306251525879,170,9930.0
9960,0.3428746163845062,-7.222339630126953,-149,6369.0,2.4163568019866943,1,9930.0
9970,0.3427732586860657,0.6012685298919678,47,6369.0,-4.131122589111328,1,9930.0
9980,0.34199053049087524,8.395933151245117,188,6369.0,-6.122802734375,-189,9930.0
9990,0.34187671542167664,14.525931358337402,185,6369.0,-4.626108646392822,27,9930.0
10000,0.341786652803421,12.009005546569824,277,6369.0,0.8151837587356567,4,9930.0
10010,0.3417516350746155,9.149701118469238,107,6369.0,10.661377906799316,255,9930.0
10020,0.34111809730529785,7.471315860748291,187,6369.0,11.777396202087402,214,9930.0
10030,0.3411905765533447,3.936959981918335,-11,6369.0,9.948726654052734,154,9930.0
10040,0.3414188027381897,-3.514730215072632,3,6369.0,3.186439275741577,26,9930.0
10050,0.34176400303840637,-10.746715545654297,-275,6369.0,-6.006170749664307,-189,9930.0
10060,0.3421797454357147,-22.086328506469727,-338,6369.0,-8.752881050109863,-74,9930.0
10070,0.34260401129722595,-27.922840118408203,-544,6369.0,-6.380814075469971,-155,9930.0
10080,0.3430454134941101,-23.834613800048828,-305,6369.0,-3.9977903366088867,2,9930.0
10090,0.3437327444553375,-8.771431922912598,-17,6369.0,-1.2775825262069702,-47,9930.0
10100,0.34424394369125366,5.648337364196777,104,6369.0,2.698660135269165,111,9930.0
10110,0.3448871374130249,19.53873634338379,417,6369.0,8.931244850158691,187,9930.0
10120,0.3454098105430603,26.79800033569336,420,6369.0,13.259334564208984,139,9930.0
10130,0.345785528421402,24.946779251098633,456,6369.0,16.237401962280273,355,9930.0
10140,0.34612229466438293,13.27657699584961,181,6369.0,15.383635520935059,183,9930.0
10150,0.3463214337825775,-1.6564109325408936,-136,6369.0,12.494513511657715,212,9930.0
10160,0.34853118658065796,-14.885053634643555,-184,6369.0,7.72766637802124,69,9930.0
10170,0.34893524646759033,-14.264811515808105,-321,6369.0,-0.9536162614822388,-82,9930.0
10180,0.34926125407218933,-10.493867874145508,-33,6369.0,-7.154412269592285,-83,9930.0
10190,0.3495461046695709,-0.9909842610359192,5,6369.0,-16.483688354492188,-382,9930.0
10200,0.3511050343513489,0.38988691568374634,-10,6369.0,-21.219654083251953,-249,9930.0
10210,0.3514275848865509,-3.587336301803589,-54,6369.0,-21.43968963623047,-379,9930.0
10220,0.3518086075782776,-11.459915161132812,-323,6369.0,-21.878063201904297,-255,9930.0
10230,0.3522394001483917,-22.675546646118164,-377,6369.0,-18.508394241333008,-321,9930.0
10240,0.35254478454589844,-27.510757446289062,-466,6369.0,-12.539069175720215,-100,9930.0
10250,0.35074883699417114,-21.98577880859375,-233,6369.0,-9.931217193603516,-236,9930.0
10260,0.35093721747398376,-11.128134727478027,-167,6369.0,-10.788810729980469,-161,9930.0
10270,0.3513866662979126,1.7552165985107422,157,6369.0,-9.559391975402832,-126,9930.0
10280,0.3517393469810486,12.321944236755371,197,6369.0,-4.92717981338501,-90,9930.0
10290,0.35257667303085327,15.34946346282959,290,6369.0,-3.9045026302337646,22,9930.0
10300,0.35301026701927185,14.682376861572266,133,6369.0,3.180959701538086,30,9930.0
10310,0.3535025715827942,3.1790449619293213,43,6369.0,12.743120193481445,341,9930.0
10320,0.35397055745124817,-5.8692522048950195,-201,6369.0,21.82501792907715,425,9930.0
10330,0.3534177839756012,-11.325986862182617,-103,6369.0,26.942726135253906,569,9930.0
10340,0.35369399189949036,-5.882712364196777,-134,6369.0,30.508033752441406,433,9930.0
10350,0.3542926013469696,0.6383423209190369,35,6369.0,25.040077209472656,465,9930.0
10360,0.3546257019042969,5.672985553741455,109,6369.0,10.95531940460205,41,9930.0
10370,0.3549375534057617,12.122859001159668,160,6369.0,-9.294459342956543,-235,9930.0
10380,0.35477641224861145,12.45583438873291,279,6369.0,-20.383543014526367,-301,9930.0
10390,0.3548678755760193,13.885053634643555,221,6369.0,-23.34991455078125,-539,9930.0
10400,0.35494035482406616,14.038691520690918,235,6369.0,-22.814109802246094,-256,9930.0
10410,0.3549073040485382,12.696381568908691,147,6369.0,-21.56357765197754,-457,9930.0
10420,0.35406965017318726,10.50726318359375,200,6369.0,-19.602310180664062,-206,9930.0
10430,0.35393041372299194,3.569897413253784,-21,6369.0,-8.090536117553711,-213,9930.0
10440,0.35367411375045776,-10.60600471496582,-220,6369.0,6.384047031402588,297,9930.0
10450,0.3535093069076538,-20.7362060546875,-363,6369.0,23.419689178466797,304,9930.0
10460,0.3533208668231964,-17.237686157226562,-177,6369.0,31.545326232910156,582,9930.0
10470,0.35435813665390015,0.11171551048755646,79,6369.0,28.4526424407959,400,9930.0
10480,0.3544776737689972,15.898740768432617,267,6369.0,17.672163009643555,234,9930.0
10490,0.35479623079299927,23.604129791259766,489,6369.0,3.155996799468994,80,9930.0
10500,0.35508567094802856,25.16651153564453,325,6369.0,-7.1791911125183105,-303,9930.0
10510,0.35424524545669556,12.44238567352295,185,6369.0,-14.126180648803711,-172,9930.0
10520,0.35452547669410706,-0.4230875074863434,-124,6369.0,-16.80486297607422,-342,9930.0
10530,0.3548612594604492,-13.784286499023438,-276,6369.0,-19.436777114868164,-281,9930.0
10540,0.3552572727203369,-21.221851348876953,-289,6369.0,-19.836044311523438,-377,9930.0
10550,0.35490602254867554,-17.33403968811035,-290,6369.0,-11.064355850219727,-157,9930.0
10560,0.355228066444397,-10.31262493133545,-107,6369.0,2.4955451488494873,158,9930.0
10570,0.35538849234580994,-6.509732246398926,-163,6369.0,16.861251831054688,300,9930.0
10580,0.3555188775062561,-2.539513111114502,34,6369.0,25.183319091796875,592,9930.0
10590,0.3556106984615326,4.595324516296387,115,6369.0,28.645771026611328,341,9930.0
10600,0.3562406003475189,9.72318172454834,143,6369.0,24.587512969970703,447,9930.0
10610,0.3562394976615906,12.00475025177002,242,6369.0,14.906392097473145,273,9930.0
10620,0.3562469780445099,11.20655345916748,169,6369.0,8.139918327331543,-10,9930.0
10630,0.356049507856369,13.06187629699707,160,6369.0,-0.6223371624946594,26,9930.0
10640,0.3558911681175232,10.174603462219238,227,6369.0,-7.44917631149292,-206,9930.0
10650,0.3556525409221649,6.1138014793396,18,6369.0,-9.55037784576416,-137,9930.0
10660,0.35538533329963684,-1.2744019031524658,22,6369.0,-7.405202388763428,-60,9930.0
10670,0.3551258146762848,-10.489712715148926,-262,6369.0,1.4463863372802734,-2,9930.0
10680,0.35416078567504883,-16.963293075561523,-260,6369.0,8.926612854003906,230,9930.0
10690,0.3538833558559418,-16.918701171875,-225,6369.0,12.145294189453125,100,9930.0
10700,0.35364922881126404,-11.777472496032715,-219,6369.0,11.421026229858398,193,9930.0
10710,0.3534252643585205,-7.935803413391113,-54,6369.0,3.5337820053100586,-29,9930.0
10720,0.35339534282684326,-3.1152498722076416,-79,6369.0,-13.377678871154785,-359,9930.0
10730,0.35396644473075867,-2.189450740814209,-36,6369.0,-27.09588050842285,-357,9930.0
10740,0.3539165258407593,-7.053183078765869,-135,6369.0,-22.290334701538086,-382,9930.0
10750,0.35387495160102844,-14.53567123413086,-301,6369.0,-6.070035934448242,40,9930.0
10760,0.35384127497673035,-19.309865951538086,-280,6369.0,1.653693675994873,8,9930.0
10770,0.35225772857666016,-8.599422454833984,-134,6369.0,5.899715900421143,139,9930.0
10780,0.352059006690979,3.513424873352051,148,6369.0,9.049846649169922,170,9930.0
10790,0.3518509864807129,15.052924156188965,227,6369.0,7.75846004486084,41,9930.0
10800,0.35165661573410034,22.323883056640625,441,6369.0,4.745428562164307,221,9930.0
10810,0.3514605760574341,24.394582748413086,362,6369.0,2.6420810222625732,-71,9930.0
10820,0.35350650548934937,14.485081672668457,137,6369.0,-1.2827452421188354,32,9930.0
10830,0.35333752632141113,3.362489700317383,103,6369.0,-2.622588634490967,-60,9930.0
10840,0.35315704345703125,-0.5566768050193787,-103,6369.0,-1.3093584775924683,-14,9930.0
10850,0.35296693444252014,-0.3008573651313782,67,6369.0,0.22664588689804077,33,9930.0
10860,0.3544824719429016,0.1775926798582077,-44,6369.0,-1.5231447219848633,-72,9930.0
10870,0.354341596364975,0.8245260119438171,46,6369.0,0.07415524125099182,65,9930.0
10880,0.3541763126850128,-1.429552674293518,-40,6369.0,1.9306292533874512,-124,9930.0
10890,0.35398542881011963,-5.068361282348633,-53,6369.0,0.6310098171234131,73,9930.0
10900,0.3537895679473877,-3.8969101905822754,-42,6369.0,-4.518431663513184,-130,9930.0
10910,0.35496363043785095,-2.991403579711914,-62,6369.0,-9.031015396118164,-102,9930.0
10920,0.35498470067977905,0.8033236861228943,93,6369.0,-5.967108249664307,-49,9930.0
10930,0.35510823130607605,1.0116956233978271,-70,6369.0,0.3885282278060913,55,9930.0
10940,0.35527634620666504,-2.0322482585906982,-39,6369.0,7.0095672607421875,126,9930.0
10950,0.35537075996398926,-6.245611667633057,-156,6369.0,7.132470607757568,70,9930.0
10960,0.3555879294872284,-6.574249267578125,-32,6369.0,4.475935935974121,141,9930.0
10970,0.355901300907135,-4.398817539215088,-117,6369.0,-3.740720510482788,-27,9930.0
10980,0.35631701350212097,-0.49519211053848267,68,6369.0,-12.972389221191406,-290,9930.0
10990,0.35846275091171265,3.360337972640991,1,6369.0,-23.449228286743164,-467,9930.0
11000,0.3590143322944641,1.9310775995254517,76,6369.0,-21.922325134277344,-293,9930.0
11010,0.3596872389316559,-3.8512673377990723,-171,6369.0,-9.663084030151367,-103,9930.0
11020,0.36016249656677246,-7.142776012420654,-44,6369.0,-0.7746886014938354,-10,9930.0
11030,0.36058878898620605,-7.046358585357666,-149,6369.0,6.581969261169434,135,9930.0
11040,0.36230161786079407,-1.000503420829773,78,6369.0,11.642804145812988,170,9930.0
11050,0.3626849353313446,8.877717018127441,137,6369.0,12.729963302612305,260,9930.0
11060,0.36296796798706055,13.294907569885254,286,6369.0,13.178531646728516,300,9930.0
11070,0.3632476329803467,14.173778533935547,181,6369.0,16.8825626373291,194,9930.0
11080,0.3644312024116516,8.118683815002441,127,6369.0,14.505559921264648,328,9930.0
11090,0.3647448718547821,-0.992813229560852,-107,6369.0,8.63525676727295,-48,9930.0
11100,0.3649013340473175,-9.64340591430664,-211,6369.0,-5.290713310241699,-27,9930.0
11110,0.3649904131889343,-16.50102424621582,-330,6369.0,-17.223567962646484,-371,9930.0
11120,0.36492061614990234,-24.15534019470215,-443,6369.0,-18.114885330200195,-215,9930.0
11130,0.3649137020111084,-28.626176834106445,-408,6369.0,-9.2294921875,-203,9930.0
11140,0.3647121787071228,-22.587493896484375,-421,6369.0,-4.481311798095703,-31,9930.0
11150,0.3645215332508087,-15.213260650634766,-105,6369.0,-6.246281623840332,-76,9930.0
11160,0.3644131124019623,-2.821403980255127,-79,6369.0,-5.60049295425415,-127,9930.0
11170,0.36269617080688477,7.33406400680542,215,6369.0,-2.008971929550171,80,9930.0
11180,0.36255425214767456,17.493804931640625,295,6369.0,-0.22637207806110382,-20,9930.0
11190,0.3624536395072937,17.87636375427246,210,6369.0,5.2648606300354,135,9930.0
11200,0.3624098598957062,13.682618141174316,296,6369.0,7.741673946380615,202,9930.0
11210,0.36144617199897766,10.94893741607666,128,6369.0,9.657885551452637,30,9930.0
11220,0.3614291250705719,6.96159553527832,148,6369.0,0.49459975957870483,97,9930.0
11230,0.36156854033470154,5.796721935272217,84,6369.0,-6.2581400871276855,-120,9930.0
11240,0.3617505729198456,-1.2836322784423828,-159,6369.0,-11.593286514282227,-151,9930.0
11250,0.36194100975990295,-16.959796905517578,-272,6369.0,-11.079002380371094,-90,9930.0
11260,0.36223408579826355,-29.527088165283203,-595,6369.0,-8.493651390075684,-190,9930.0
11270,0.36235132813453674,-31.639665603637695,-420,6369.0,-10.274087905883789,-3,9930.0
11280,0.3626282811164856,-16.276264190673828,-140,6369.0,-7.501914024353027,-262,9930.0
11290,0.36291903257369995,11.136564254760742,271,6369.0,-8.987914085388184,-98,9930.0
11300,0.3630547821521759,34.972251892089844,691,6369.0,-3.441131353378296,-32,9930.0
11310,0.36320793628692627,38.73453903198242,500,6369.0,1.591478943824768,-14,9930.0
11320,0.36325564980506897,20.851545333862305,269,6369.0,8.070624351501465,254,9930.0
11330,0.36321118474006653,0.8694076538085938,-79,6369.0,19.34750747680664,193,9930.0
11340,0.3623155653476715,-9.156332015991211,-202,6369.0,21.66594696044922,484,9930.0
11350,0.3621479868888855,-13.011542320251465,-140,6369.0,24.201507568359375,306,9930.0
11360,0.36214083433151245,-7.626690864562988,-158,6369.0,15.06696891784668,207,9930.0
11370,0.361998587846756,-2.496656656265259,54,6369.0,5.109120845794678,77,9930.0
11380,0.3618502616882324,5.470483303070068,204,6369.0,-10.625471115112305,-322,9930.0
11390,0.36205804347991943,11.59720230102539,128,6369.0,-21.73690414428711,-484,9930.0
11400,0.36179330945014954,12.955906867980957,258,6369.0,-30.206817626953125,-361,9930.0
11410,0.36148208379745483,13.219325065612793,155,6369.0,-31.723398208618164,-582,9930.0
11420,0.3613414764404297,6.391234397888184,53,6369.0,-23.0057430267334,-246,9930.0
11430,0.36232173442840576,3.5079360008239746,51,6369.0,-7.066374778747559,-57,9930.0
11440,0.3623182773590088,8.272793769836426,59,6369.0,5.644996166229248,215,9930.0
11450,0.3624252378940582,12.527399063110352,284,6369.0,20.057743072509766,420,9930.0
11460,0.3625377118587494,15.418188095092773,250,6369.0,28.541582107543945,381,9930.0
11470,0.36273643374443054,10.605887413024902,145,6369.0,29.302778244018555,585,9930.0
11480,0.36391159892082214,-2.6770577430725098,-112,6369.0,27.7591609954834,334,9930.0
11490,0.36432695388793945,-15.611077308654785,-391,6369.0,18.706130981445312,272,9930.0
11500,0.36474356055259705,-22.42449951171875,-321,6369.0,7.3919501304626465,197,9930.0
11510,0.36529234051704407,-16.338897705078125,-178,6369.0,-1.2176439762115479,-65,9930.0
11520,0.36593344807624817,-6.255105495452881,-80,6369.0,-2.4526500701904297,-94,9930.0
11530,0.36630380153656006,6.686695098876953,223,6369.0,-1.743657112121582,107,9930.0
11540,0.36665287613868713,15.895015716552734,404,6369.0,2.5502333641052246,32,9930.0
11550,0.3669092357158661,25.631261825561523,419,6369.0,5.353370189666748,36,9930.0
11560,0.36714160442352295,32.173458099365234,503,6369.0,10.566169738769531,310,9930.0
11570,0.3683963119983673,28.41875457763672,398,6369.0,13.13657283782959,143,9930.0
11580,0.3690429627895355,18.0550594329834,210,6369.0,16.49143409729004,352,9930.0
11590,0.36902862787246704,9.086613655090332,139,6369.0,16.076414108276367,64,9930.0
11600,0.3689427077770233,2.468695640563965,-26,6369.0,8.743552207946777,215,9930.0
11610,0.3683706820011139,-3.8593289852142334,-54,6369.0,-0.30376940965652466,-27,9930.0
11620,0.3682057857513428,-3.071234941482544,-115,6369.0,-12.198722839355469,-220,9930.0
11630,0.3680097162723541,1.5739638805389404,77,6369.0,-23.94725799560547,-318,9930.0
11640,0.3678339421749115,5.278178691864014,-7,6369.0,-26.703405380249023,-502,9930.0
11650,0.3669542372226715,0.2454032599925995,18,6369.0,-21.562232971191406,-232,9930.0
11660,0.3667420446872711,-9.518534660339355,-257,6369.0,-10.762468338012695,-234,9930.0
11670,0.3666359782218933,-19.912574768066406,-351,6369.0,4.277902126312256,189,9930.0
11680,0.36660170555114746,-24.562850952148438,-460,6369.0,16.761167526245117,272,9930.0
11690,0.36663320660591125,-23.689346313476562,-315,6369.0,20.261899948120117,409,9930.0
11700,0.36808136105537415,-20.747751235961914,-316,6369.0,21.954036712646484,261,9930.0
11710,0.3683100938796997,-20.155424118041992,-425,6369.0,20.330829620361328,375,9930.0
11720,0.3685797154903412,-25.986238479614258,-386,6369.0,12.824231147766113,201,9930.0
11730,0.36882850527763367,-31.61980438232422,-597,6369.0,-5.35013484954834,-222,9930.0
11740,0.36881834268569946,-28.838285446166992,-474,6369.0,-17.669063568115234,-280,9930.0
11750,0.36897775530815125,-15.734572410583496,-139,6369.0,-18.409915924072266,-149,9930.0
11760,0.3692343831062317,3.2349863052368164,88,6369.0,-9.049774169921875,-195,9930.0
11770,0.36958080530166626,20.746639251708984,390,6369.0,-2.133336067199707,-12,9930.0
11780,0.3698381185531616,34.01560974121094,617,6369.0,0.13781315088272095,64,9930.0
11790,0.3699183464050293,35.407745361328125,568,6369.0,5.994370937347412,-20,9930.0
11800,0.36989185214042664,32.82016372680664,566,6369.0,-0.39283129572868347,26,9930.0
11810,0.3697689175605774,28.632244110107422,431,6369.0,-13.154401779174805,-409,9930.0
11820,0.36980536580085754,16.970232009887695,215,6369.0,-23.218931198120117,-325,9930.0
11830,0.368073970079422,1.6751354932785034,-24,6369.0,-24.428302764892578,-467,9930.0
11840,0.36786070466041565,-8.886994361877441,-139,6369.0,-23.551044464111328,-316,9930.0
11850,0.36755114793777466,-14.29965591430664,-213,6369.0,-18.967132568359375,-356,9930.0
11860,0.3671760559082031,-13.201998710632324,-211,6369.0,-12.243180274963379,-58,9930.0
11870,0.36606213450431824,-8.573184967041016,-58,6369.0,0.4746212661266327,-45,9930.0
11880,0.36559492349624634,2.250702381134033,90,6369.0,11.987319946289062,295,9930.0
11890,0.36520105600357056,8.907265663146973,191,6369.0,16.208438873291016,183,9930.0
11900,0.36485540866851807,7.456614971160889,1,6369.0,14.942828178405762,266,9930.0
11910,0.3646295368671417,-2.9241318702697754,-39,6369.0,12.978691101074219,256,9930.0
11920,0.3637658953666687,-11.445662498474121,-304,6369.0,6.941676616668701,-34,9930.0
11930,0.36364254355430603,-20.532777786254883,-318,6369.0,-4.627739906311035,-29,9930.0
11940,0.36357513070106506,-23.796812057495117,-369,6369.0,-14.308422088623047,-388,9930.0
11950,0.36357390880584717,-18.661075592041016,-368,6369.0,-28.166309356689453,-479,9930.0
11960,0.36235737800598145,-14.711983680725098,-170,6369.0,-33.561885833740234,-512,9930.0
11970,0.36242160201072693,-17.718143463134766,-412,6369.0,-23.649972915649414,-301,9930.0
11980,0.362507164478302,-24.650165557861328,-378,6369.0,-7.922236442565918,-2,9930.0
11990,0.36256319284439087,-28.658445358276367,-476,6369.0,7.997221946716309,97,9930.0
12000,0.36204656958580017,-20.13159942626953,-253,6369.0,20.766529083251953,454,9930.0
12010,0.36211007833480835,-7.83790397644043,-6,6369.0,25.153146743774414,353,9930.0
12020,0.36233028769493103,16.639432907104492,291,6369.0,17.65013885498047,106,9930.0
12030,0.3626044988632202,40.28981399536133,726,6369.0,0.6910457015037537,26,9930.0
12040,0.3626808226108551,48.85582733154297,891,6369.0,-12.64803695678711,-247,9930.0
12050,0.36399051547050476,43.673194885253906,573,6369.0,-14.187416076660156,-218,9930.0
12060,0.36390796303749084,26.99843978881836,415,6369.0,-5.830915927886963,-52,9930.0
12070,0.3638523817062378,7.2697906494140625,-53,6369.0,-2.152503252029419,-14,9930.0
12080,0.3637055456638336,-10.422018051147461,-215,6369.0,1.3723350763320923,0,9930.0
12090,0.3633459508419037,-19.078800201416016,-399,6369.0,-1.5098317861557007,-125,9930.0
12100,0.3631015717983246,-21.73965072631836,-301,6369.0,-7.692687034606934,-14,9930.0
12110,0.3627963960170746,-15.590533256530762,-262,6369.0,-7.601071834564209,-177,9930.0
12120,0.3626226782798767,-5.080534934997559,57,6369.0,-0.30831727385520935,134,9930.0
12130,0.3623446524143219,10.186935424804688,222,6369.0,7.267492294311523,92,9930.0
12140,0.3623311519622803,19.625619888305664,336,6369.0,12.168466567993164,295,9930.0
12150,0.36202630400657654,22.80379867553711,409,6369.0,20.846071243286133,323,9930.0
12160,0.36170250177383423,16.65691375732422,165,6369.0,30.067798614501953,634,9930.0
12170,0.3618672788143158,2.753166675567627,0,6369.0,38.20452117919922,551,9930.0
12180,0.362642377614975,-10.802802085876465,-277,6369.0,35.266353607177734,421,9930.0
12190,0.36280709505081177,-21.752479553222656,-343,6369.0,16.061012268066406,166,9930.0
12200,0.3629607558250427,-29.589702606201172,-493,6369.0,-12.061375617980957,-482,9930.0
12210,0.3631853759288788,-32.47644805908203,-627,6369.0,-37.57352066040039,-664,9930.0
12220,0.36341404914855957,-33.93526077270508,-477,6369.0,-47.18651580810547,-836,9930.0
12230,0.3648322522640228,-29.25234031677246,-548,6369.0,-39.065093994140625,-578,9930.0
12240,0.3653285503387451,-28.85204315185547,-439,6369.0,-17.993886947631836,-102,9930.0
12250,0.3664974868297577,-22.479642868041992,-225,6369.0,1.6797256469726562,94,9930.0
12260,0.36713358759880066,-9.145119667053223,-48,6369.0,18.549589157104492,434,9930.0
12270,0.36844709515571594,14.7311429977417,425,6369.0,27.016510009765625,457,9930.0
12280,0.3692020773887634,37.35370635986328,666,6369.0,25.91202735900879,271,9930.0
12290,0.36976316571235657,52.26670455932617,821,6369.0,18.689598083496094,340,9930.0
12300,0.3703749477863312,54.056373596191406,927,6369.0,16.86759376525879,256,9930.0
12310,0.37089136242866516,39.016109466552734,521,6369.0,15.450164794921875,150,9930.0
12320,0.37162017822265625,21.393951416015625,259,6369.0,9.746999740600586,198,9930.0
12330,0.3720178008079529,0.9401068687438965,-60,6369.0,0.7700148820877075,-92,9930.0
12340,0.37227368354797363,-11.985088348388672,-295,6369.0,-10.156332969665527,-120,9930.0
12350,0.37247779965400696,-19.20151710510254,-295,6369.0,-18.280136108398438,-402,9930.0
12360,0.37443122267723083,-19.06910514831543,-397,6369.0,-20.90233612060547,-294,9930.0
12370,0.37467968463897705,-17.110923767089844,-227,6369.0,-19.315547943115234,-361,9930.0
12380,0.3748651146888733,-10.23090648651123,-185,6369.0,-18.493289947509766,-216,9930.0
12390,0.3750487267971039,0.27283355593681335,115,6369.0,-14.033775329589844,-218,9930.0
12400,0.3741356134414673,8.731221199035645,128,6369.0,-3.350461959838867,8,9930.0
12410,0.3742750883102417,20.815847396850586,483,6369.0,10.129569053649902,187,9930.0
12420,0.374487966299057,30.07330322265625,417,6369.0,20.7550106048584,423,9930.0
12430,0.3746979832649231,31.126361846923828,624,6369.0,30.655851364135742,498,9930.0
12440,0.37565889954566956,24.999317169189453,322,6369.0,36.09585952758789,622,9930.0
12450,0.37584903836250305,11.8259916305542,177,6369.0,34.91742706298828,466,9930.0
12460,0.37642380595207214,-6.508890151977539,-162,6369.0,22.583242416381836,390,9930.0
12470,0.3768042325973511,-20.378259658813477,-324,6369.0,6.534395694732666,-7,9930.0
12480,0.37702465057373047,-35.53868103027344,-699,6369.0,-4.846284866333008,-116,9930.0
12490,0.37591353058815,-44.75484848022461,-692,6369.0,-14.234132766723633,-221,9930.0
12500,0.37598660588264465,-38.42082214355469,-590,6369.0,-21.892980575561523,-469,9930.0
12510,0.37586498260498047,-18.265541076660156,-95,6369.0,-23.139284133911133,-254,9930.0
12520,0.3757263422012329,9.075752258300781,276,6369.0,-16.953031539916992,-326,9930.0
12530,0.3756648600101471,27.642841339111328,463,6369.0,-6.767524719238281,-87,9930.0
12540,0.37536755204200745,31.98394775390625,578,6369.0,-0.7659523487091064,-11,9930.0
12550,0.3749827444553375,20.538314819335938,213,6369.0,10.341949462890625,188,9930.0
12560,0.37454667687416077,6.564210414886475,107,6369.0,19.179855346679688,381,9930.0
12570,0.3739757537841797,-0.37305670976638794,-26,6369.0,23.36989402770996,293,9930.0
12580,0.3737659752368927,-0.237239807844162,62,6369.0,18.289783477783203,303,9930.0
12590,0.3731786906719208,7.535769462585449,210,6369.0,5.9319891929626465,-25,9930.0
12600,0.37248194217681885,15.515685081481934,233,6369.0,-3.945255756378174,-74,9930.0
12610,0.37177541851997375,19.486448287963867,391,6369.0,-7.221625328063965,-158,9930.0
12620,0.37189197540283203,12.474510192871094,87,6369.0,-5.634385585784912,-64,9930.0
12630,0.3712790012359619,-2.747105360031128,-63,6369.0,-1.638245701789856,25,9930.0
12640,0.37071630358695984,-19.066070556640625,-375,6369.0,-0.8261311650276184,-143,9930.0
12650,0.3701781630516052,-27.831884384155273,-386,6369.0,-6.902555465698242,-45,9930.0
12660,0.368879497051239,-25.282148361206055,-429,6369.0,-6.462896347045898,-171,9930.0
12670,0.3682394325733185,-18.982227325439453,-259,6369.0,-6.064269542694092,-14,9930.0
12680,0.3676815330982208,-15.135854721069336,-184,6369.0,-2.8899433612823486,-48,9930.0
12690,0.3672609031200409,-9.997723579406738,-239,6369.0,1.3477801084518433,33,9930.0
12700,0.3669653832912445,-13.023611068725586,-170,6369.0,11.788848876953125,335,9930.0
12710,0.3659472167491913,-16.597333908081055,-352,6369.0,21.11109161376953,275,9930.0
12720,0.36572232842445374,-16.82033920288086,-301,6369.0,17.5269832611084,282,9930.0
12730,0.365477591753006,-17.155855178833008,-198,6369.0,9.345159530639648,232,9930.0
12740,0.36527353525161743,-14.57237720489502,-213,6369.0,-0.05287226289510727,-164,9930.0
12750,0.3646351993083954,-7.537158489227295,-116,6369.0,-8.563271522521973,-263,9930.0
12760,0.3645447790622711,1.4545238018035889,58,6369.0,-15.165587425231934,-185,9930.0
12770,0.3645371198654175,7.02056884765625,234,6369.0,-12.713227272033691,-162,9930.0
12780,0.36459943652153015,13.433767318725586,197,6369.0,-6.611892223358154,-109,9930.0
12790,0.3646414279937744,19.073640823364258,381,6369.0,6.452102184295654,251,9930.0
12800,0.36348840594291687,25.436359405517578,538,6369.0,17.50670051574707,296,9930.0
12810,0.36343204975128174,32.54683303833008,542,6369.0,16.110929489135742,146,9930.0
12820,0.3632497191429138,40.59996032714844,726,6369.0,7.302439212799072,170,9930.0
12830,0.36306318640708923,41.58408737182617,589,6369.0,-2.534264326095581,-189,9930.0
12840,0.36238518357276917,34.52865219116211,482,6369.0,-10.461564064025879,-118,9930.0
12850,0.3620203137397766,24.889347076416016,410,6369.0,-8.130438804626465,-195,9930.0
12860,0.36167749762535095,20.80340576171875,320,6369.0,-7.183523654937744,-76,9930.0
12870,0.36143216490745544,20.440095901489258,365,6369.0,-7.7738566398620605,-238,9930.0
12880,0.3611207902431488,13.767333984375,184,6369.0,-10.686037063598633,-102,9930.0
12890,0.3606140911579132,-2.7757413387298584,-204,6369.0,-12.016609191894531,-308,9930.0
12900,0.36036205291748047,-27.15346336364746,-582,6369.0,-17.112091064453125,-210,9930.0
12910,0.359958291053772,-39.48073196411133,-703,6369.0,-16.373985290527344,-218,9930.0
12920,0.3595775365829468,-39.848846435546875,-590,6369.0,-12.534360885620117,-160,9930.0
12930,0.3597606420516968,-33.69883346557617,-553,6369.0,-9.980696678161621,-234,9930.0
12940,0.3594586253166199,-22.49290657043457,-305,6369.0,-8.438804626464844,-83,9930.0
12950,0.35948535799980164,-13.168255805969238,-208,6369.0,-6.9586405754089355,-202,9930.0
12960,0.35939890146255493,-5.825882434844971,6,6369.0,-2.54347562789917,29,9930.0
12970,0.3596380054950714,-5.14265251159668,-161,6369.0,7.921748638153076,125,9930.0
12980,0.35968583822250366,-17.705224990844727,-372,6369.0,28.411882400512695,600,9930.0
12990,0.3598087430000305,-28.952425003051758,-409,6369.0,37.74787521362305,556,9930.0
13000,0.3599064350128174,-28.249082565307617,-542,6369.0,32.551185607910156,428,9930.0
13010,0.35999947786331177,-24.983335494995117,-348,6369.0,18.519174575805664,218,9930.0
13020,0.3609860837459564,-18.647077560424805,-200,6369.0,-0.9789387583732605,-23,9930.0
13030,0.36126476526260376,-0.5296300649642944,63,6369.0,-12.16976547241211,-323,9930.0
13040,0.3616257905960083,22.583999633789062,455,6369.0,-15.43282699584961,-360,9930.0
13050,0.36193493008613586,40.58558654785156,687,6369.0,-14.833853721618652,-189,9930.0
13060,0.36214983463287354,50.12082290649414,903,6369.0,-11.169804573059082,-63,9930.0
13070,0.36224111914634705,46.63629150390625,632,6369.0,-7.789139270782471,-208,9930.0
13080,0.36267516016960144,34.261436462402344,447,6369.0,-9.204545021057129,-97,9930.0
13090,0.3625939190387726,17.379169464111328,247,6369.0,-7.912312984466553,-181,9930.0
13100,0.36241254210472107,8.256842613220215,72,6369.0,-10.869277954101562,-226,9930.0
13110,0.36469072103500366,4.32439661026001,118,6369.0,-11.955556869506836,-157,9930.0
13120,0.3645990788936615,4.148426055908203,-10,6369.0,-5.882161617279053,-5,9930.0
13130,0.3644794523715973,7.699674606323242,263,6369.0,1.854565978050232,141,9930.0
13140,0.36428961157798767,13.607955932617188,133,6369.0,8.636786460876465,75,9930.0
13150,0.36625438928604126,16.638530731201172,285,6369.0,6.37616491317749,171,9930.0
13160,0.366039514541626,11.175249099731445,116,6369.0,5.597048282623291,4,9930.0
13170,0.3661108911037445,-3.445716381072998,-113,6369.0,2.0368690490722656,68,9930.0
13180,0.366182804107666,-15.830462455749512,-318,6369.0,-0.9153273701667786,-146,9930.0
13190,0.36818116903305054,-29.919767379760742,-535,6369.0,-4.455039978027344,-34,9930.0
13200,0.368481308221817,-41.1634407043457,-633,6369.0,-8.339104652404785,-197,9930.0
13210,0.3687863051891327,-40.8197021484375,-664,6369.0,-1.6635289192199707,25,9930.0
13220,0.36905983090400696,-29.778125762939453,-427,6369.0,3.963813066482544,107,9930.0
13230,0.36944615840911865,-21.002443313598633,-304,6369.0,12.727046012878418,120,9930.0
13240,0.3693391978740692,-14.46874713897705,-336,6369.0,14.773914337158203,222,9930.0
13250,0.36982932686805725,-16.152719497680664,-199,6369.0,13.428560256958008,279,9930.0
13260,0.3703663647174835,-10.661774635314941,-138,6369.0,8.639955520629883,1,9930.0
13270,0.37083715200424194,-5.7460174560546875,-97,6369.0,1.2657126188278198,-119,9930.0
13280,0.37184756994247437,2.2013816833496094,98,6369.0,-11.702970504760742,-185,9930.0
13290,0.3723326027393341,5.111483573913574,133,6369.0,-18.619544982910156,-290,9930.0
13300,0.3728986382484436,11.517230033874512,217,6369.0,-21.276418685913086,-469,9930.0
13310,0.37319841980934143,24.433391571044922,435,6369.0,-19.161928176879883,-290,9930.0
13320,0.37362125515937805,31.155906677246094,617,6369.0,-19.732421875,-323,9930.0
13330,0.37231579422950745,33.638648986816406,474,6369.0,-15.825478553771973,-203,9930.0
13340,0.3723837435245514,33.295616149902344,567,6369.0,-5.434140205383301,-64,9930.0
13350,0.3725361227989197,30.535184860229492,473,6369.0,5.408575057983398,139,9930.0
13360,0.372583270072937,27.680688858032227,455,6369.0,14.784461975097656,173,9930.0
13370,0.37284907698631287,21.059425354003906,337,6369.0,18.205652236938477,408,9930.0
13380,0.3727298974990845,13.688396453857422,149,6369.0,23.61481285095215,356,9930.0
13390,0.3729405701160431,5.662651062011719,93,6369.0,22.010164260864258,418,9930.0
13400,0.37290456891059875,-4.93497371673584,-204,6369.0,9.656489372253418,31,9930.0
13410,0.37088704109191895,-17.186737060546875,-309,6369.0,-5.600316524505615,-152,9930.0
13420,0.37079134583473206,-21.3096866607666,-382,6369.0,-15.856842041015625,-304,9930.0
13430,0.37046167254447937,-24.026119232177734,-355,6369.0,-20.43950653076172,-321,9930.0
13440,0.37008213996887207,-21.356658935546875,-378,6369.0,-20.13836097717285,-212,9930.0
13450,0.3698008358478546,-21.32860565185547,-294,6369.0,-9.362319946289062,-94,9930.0
13460,0.36758875846862793,-22.723604202270508,-466,6369.0,4.413838863372803,217,9930.0
13470,0.367048054933548,-25.123619079589844,-326,6369.0,21.7601375579834,484,9930.0
13480,0.36673498153686523,-18.974924087524414,-329,6369.0,33.646507263183594,654,9930.0
13490,0.3664180636405945,-9.673294067382812,-37,6369.0,45.162662506103516,806,9930.0
13500,0.3652836084365845,-2.7336761951446533,-145,6369.0,44.65937423706055,680,9930.0
13510,0.36488646268844604,-3.4591686725616455,-110,6369.0,34.81462478637695,433,9930.0
13520,0.364510178565979,-14.341943740844727,-217,6369.0,10.006773948669434,116,9930.0
13530,0.3647918999195099,-19.483570098876953,-340,6369.0,-11.76755142211914,-403,9930.0
13540,0.3644934892654419,-17.19404411315918,-341,6369.0,-35.56061935424805,-710,9930.0
13550,0.3632912337779999,-16.06672477722168,-175,6369.0,-51.28565216064453,-794,9930.0
13560,0.3628986179828644,-10.494810104370117,-215,6369.0,-60.82991027832031,-1109,9930.0
13570,0.3629411458969116,-2.9519355297088623,1,6369.0,-59.89090347290039,-768,9930.0
13580,0.36251404881477356,4.3736772537231445,96,6369.0,-45.39799880981445,-762,9930.0
13590,0.36027756333351135,8.752898216247559,169,6369.0,-21.11526107788086,-151,9930.0
13600,0.35998275876045227,17.671030044555664,349,6369.0,5.4941229820251465,149,9930.0
13610,0.3597104549407959,24.402006149291992,357,6369.0,26.986675262451172,615,9930.0
13620,0.35927557945251465,22.73011589050293,459,6369.0,42.91926574707031,713,9930.0
13630,0.35780590772628784,25.926118850708008,361,6369.0,49.93598175048828,856,9930.0
13640,0.35722237825393677,31.59326171875,584,6369.0,52.66600799560547,928,9930.0
13650,0.35665398836135864,37.17304992675781,603,6369.0,48.14393997192383,620,9930.0
13660,0.35660067200660706,40.59585952758789,698,6369.0,35.37090301513672,580,9930.0
13670,0.35610851645469666,40.5005989074707,721,6369.0,19.088029861450195,189,9930.0
13680,0.35530662536621094,37.13113784790039,526,6369.0,2.5199358463287354,-37,9930.0
13690,0.35496971011161804,28.555744171142578,506,6369.0,-15.369330406188965,-299,9930.0
13700,0.35496988892555237,13.792444229125977,91,6369.0,-32.267356872558594,-605,9930.0
13710,0.35469627380371094,-9.787431716918945,-202,6369.0,-45.64543914794922,-853,9930.0
13720,0.35351306200027466,-36.44837188720703,-723,6369.0,-45.666297912597656,-655,9930.0
13730,0.35340747237205505,-58.419960021972656,-1012,6369.0,-32.8007926940918,-541,9930.0
13740,0.3531704545021057,-67.91226196289062,-1107,6369.0,-10.941495895385742,63,9930.0
13750,0.3530152440071106,-71.60882568359375,-1186,6369.0,19.034006118774414,354,9930.0
13760,0.35176780819892883,-72.98988342285156,-1211,6369.0,40.591922760009766,785,9930.0
13770,0.35158613324165344,-62.332637786865234,-883,6369.0,49.54885482788086,890,9930.0
13780,0.3516483008861542,-36.20387268066406,-391,6369.0,46.791473388671875,735,9930.0
13790,0.3517361879348755,1.0076591968536377,156,6369.0,42.37527084350586,591,9930.0
13800,0.3517308831214905,34.026546478271484,684,6369.0,25.224023818969727,250,9930.0
13810,0.35399508476257324,52.08663558959961,878,6369.0,-4.921278953552246,-243,9930.0
13820,0.35424596071243286,63.45758056640625,1015,6369.0,-32.78737258911133,-670,9930.0
13830,0.3545561730861664,56.642059326171875,862,6369.0,-51.743736267089844,-817,9930.0
13840,0.35479646921157837,37.102027893066406,569,6369.0,-59.50177764892578,-967,9930.0
13850,0.35460540652275085,14.325483322143555,79,6369.0,-51.21626663208008,-806,9930.0
13860,0.3550224304199219,-6.074901580810547,-156,6369.0,-30.675180435180664,-301,9930.0
13870,0.35525330901145935,-21.521820068359375,-421,6369.0,-1.0342521667480469,42,9930.0
13880,0.3556741774082184,-25.707130432128906,-455,6369.0,21.594013214111328,495,9930.0
13890,0.35593828558921814,-26.251142501831055,-291,6369.0,39.06245803833008,665,9930.0
13900,0.35491058230400085,-17.18397331237793,-259,6369.0,41.1148796081543,634,9930.0
13910,0.3551214039325714,-5.811194896697998,-21,6369.0,39.55667495727539,678,9930.0
13920,0.3552917540073395,5.740287780761719,207,6369.0,27.52753448486328,448,9930.0
13930,0.35546568036079407,12.664563179016113,217,6369.0,7.625009536743164,-59,9930.0
13940,0.3546419143676758,20.375591278076172,263,6369.0,-12.213784217834473,-254,9930.0
13950,0.35478299856185913,25.230642318725586,433,6369.0,-21.028488159179688,-224,9930.0
13960,0.3550192415714264,26.624710083007812,433,6369.0,-17.681507110595703,-342,9930.0
13970,0.3553429841995239,25.65559959411621,376,6369.0,-14.134190559387207,-126,9930.0
13980,0.3565538227558136,20.029077529907227,300,6369.0,-12.002347946166992,-308,9930.0
13990,0.3571728467941284,12.944632530212402,142,6369.0,-10.364328384399414,-3,9930.0
14000,0.35773634910583496,-0.08313696086406708,-85,6369.0,-4.541718006134033,-166,9930.0
14010,0.3584367036819458,-19.66952896118164,-447,6369.0,1.0743495225906372,165,9930.0
14020,0.35918915271759033,-35.85691833496094,-664,6369.0,9.449957847595215,62,9930.0
14030,0.3605870008468628,-44.5576171875,-693,6369.0,10.652453422546387,288,9930.0
14040,0.3609870970249176,-43.065467834472656,-699,6369.0,9.426788330078125,59,9930.0
14050,0.36148467659950256,-31.63606834411621,-446,6369.0,11.032801628112793,274,9930.0
14060,0.3619517683982849,-11.176811218261719,-5,6369.0,15.217565536499023,308,9930.0
14070,0.36220425367355347,4.795539379119873,95,6369.0,15.520994186401367,150,9930.0
14080,0.3625998795032501,13.45305347442627,297,6369.0,13.02364444732666,313,9930.0
14090,0.36302411556243896,22.24400520324707,458,6369.0,9.738258361816406,93,9930.0
