timestamp,kalman.stateZ,gyro.x,gyro.xRaw,gyro.xVariance,gyro.y,gyro.yRaw,gyro.yVariance
0,0.26332035660743713,0.046000298112630844,11,7014.0,0.046359289437532425,-2,9979.0
10,0.26343128085136414,-0.07394653558731079,-1,7014.0,0.01218980923295021,0,9979.0
20,0.2635461390018463,-0.09666837006807327,0,7014.0,0.05851537734270096,0,9979.0
30,0.2636618912220001,-0.5032623410224915,2,7014.0,-0.08625181019306183,-2,9979.0
40,0.2634839713573456,-0.003509345231577754,-4,7014.0,-0.048593390733003616,-4,9979.0
50,0.26358291506767273,0.09854795783758163,-4,7014.0,-0.8122824430465698,-22,9979.0
60,0.26369214057922363,-0.022196795791387558,16,7014.0,-0.31135278940200806,-5,9979.0
70,0.26381736993789673,1.7168633937835693,26,7014.0,-2.0521700382232666,-43,9979.0
80,0.26203176379203796,2.1093928813934326,58,7014.0,-2.3647711277008057,-59,9979.0
90,0.26211944222450256,4.516456604003906,85,7014.0,-3.1377835273742676,-80,9979.0
100,0.2622087001800537,7.02672004699707,113,7014.0,-4.279603958129883,-89,9979.0
110,0.2623353898525238,6.2016682624816895,97,7014.0,-2.616238594055176,-100,9979.0
120,0.2624278664588928,10.302908897399902,159,7014.0,-4.063329696655273,-127,9979.0
130,0.2603362798690796,9.885213851928711,148,7014.0,-4.917742729187012,44,9979.0
140,0.26048192381858826,8.770304679870605,196,7014.0,-2.012512683868408,40,9979.0
150,0.26059073209762573,6.3402276039123535,93,7014.0,3.4375109672546387,-73,9979.0
160,0.26073601841926575,4.577960968017578,105,7014.0,8.14263916015625,-160,9979.0
170,0.2606351971626282,3.588505268096924,109,7014.0,10.880428314208984,-117,9979.0
180,0.2608453929424286,2.112441301345825,110,7014.0,10.515016555786133,34,9979.0
190,0.2610781490802765,1.924385905265808,144,7014.0,8.070771217346191,324,9979.0
200,0.2612341642379761,-1.0760116577148438,124,7014.0,9.953780174255371,207,9979.0
210,0.2623506188392639,3.2293853759765625,-52,7014.0,2.984344720840454,135,9979.0
220,0.26223132014274597,1.9963440895080566,-62,7014.0,7.8385910987854,89,9979.0
230,0.26195839047431946,-0.46494388580322266,-88,7014.0,0.10596007853746414,-172,9979.0
240,0.2615862190723419,-1.9420166015625,118,7014.0,-1.8893475532531738,72,9979.0
250,0.2612043023109436,-0.940035879611969,-73,7014.0,-2.062837839126587,-24,9979.0
260,0.261960506439209,-0.01979091390967369,5,7014.0,-2.9301908016204834,-120,9979.0
270,0.26173216104507446,0.28571319580078125,60,7014.0,-1.9095231294631958,3,9979.0
280,0.26156046986579895,0.996690034866333,11,7014.0,-0.6718576550483704,149,9979.0
290,0.2614482343196869,-0.025792798027396202,-82,7014.0,3.7826318740844727,-162,9979.0
300,0.26353710889816284,-2.199244976043701,109,7014.0,3.428025722503662,243,9979.0
310,0.26359444856643677,-1.77223801612854,-109,7014.0,5.669923782348633,16,9979.0
320,0.26365962624549866,-2.807765007019043,-32,7014.0,7.21221399307251,116,9979.0
330,0.26372629404067993,-1.6288009881973267,51,7014.0,6.382234573364258,196,9979.0
340,0.2653893828392029,-0.8688816428184509,-102,7014.0,8.344013214111328,-108,9979.0
350,0.2653992474079132,-1.409956455230713,105,7014.0,5.576569557189941,314,9979.0
360,0.2654433846473694,0.3509991466999054,-114,7014.0,5.720864295959473,-21,9979.0
370,0.26539117097854614,0.8409953117370605,123,7014.0,3.035693407058716,48,9979.0
380,0.2652848958969116,1.366603136062622,-1,7014.0,3.169926166534424,3,9979.0
390,0.26623207330703735,2.3639004230499268,-18,7014.0,0.6995406746864319,-6,9979.0
400,0.26618492603302,1.899915337562561,100,7014.0,0.25426021218299866,109,9979.0
410,0.26617223024368286,-1.1268482208251953,-111,7014.0,0.0723029151558876,-201,9979.0
420,0.26620736718177795,-2.074032783508301,58,7014.0,-2.6118173599243164,105,9979.0
430,0.2669440507888794,-1.5881868600845337,-89,7014.0,-1.0678932666778564,-108,9979.0
440,0.26704949140548706,-3.293623447418213,-35,7014.0,0.7255321145057678,47,9979.0
450,0.26715317368507385,-2.576988935470581,-84,7014.0,1.2607403993606567,51,9979.0
460,0.26718607544898987,-2.647690773010254,12,7014.0,3.5304031372070312,53,9979.0
470,0.26719990372657776,-2.3070571422576904,-34,7014.0,2.0348708629608154,-43,9979.0
480,0.2663262188434601,-1.2066621780395508,-24,7014.0,4.077426910400391,143,9979.0
490,0.2663164734840393,-0.9967072010040283,-37,7014.0,7.207464694976807,136,9979.0
500,0.2663381099700928,0.3994848132133484,-27,7014.0,7.185859203338623,-14,9979.0
510,0.26641109585762024,1.8999884128570557,175,7014.0,5.674189567565918,252,9979.0
520,0.2667235732078552,3.1531870365142822,-102,7014.0,6.726651668548584,-91,9979.0
530,0.26668885350227356,1.709066390991211,175,7014.0,5.453271389007568,209,9979.0
540,0.2668672502040863,2.8723559379577637,-64,7014.0,3.853799343109131,-26,9979.0
550,0.2668231427669525,0.6320872902870178,65,7014.0,1.2174502611160278,58,9979.0
560,0.2667255997657776,-0.9689979553222656,69,7014.0,-1.0462510585784912,-25,9979.0
570,0.26890861988067627,2.133542776107788,-29,7014.0,-1.8731111288070679,-103,9979.0
580,0.2690408229827881,-0.7425503134727478,-28,7014.0,-3.5814785957336426,68,9979.0
590,0.2692026197910309,-0.10918185114860535,-22,7014.0,-1.2157639265060425,-70,9979.0
600,0.2693667411804199,-1.9411264657974243,24,7014.0,-2.8718771934509277,-36,9979.0
610,0.2693651020526886,-0.2881894111633301,-7,7014.0,-3.946467399597168,-49,9979.0
620,0.2694943845272064,-1.3386651277542114,54,7014.0,-1.0689187049865723,114,9979.0
630,0.269619882106781,0.11773058772087097,-108,7014.0,-1.3240454196929932,-197,9979.0
640,0.26969751715660095,-0.7927209138870239,120,7014.0,-2.7087960243225098,-129,9979.0
650,0.2686927616596222,-2.3729522228240967,-118,7014.0,-3.331899404525757,7,9979.0
660,0.2687888741493225,-3.3638463020324707,-42,7014.0,-2.4887115955352783,-5,9979.0
670,0.2689134478569031,-5.596405982971191,-55,7014.0,-0.326930969953537,138,9979.0
680,0.2691043019294739,-5.436731338500977,-173,7014.0,1.6289969682693481,-145,9979.0
690,0.26929691433906555,-3.156240224838257,43,7014.0,-2.053976535797119,49,9979.0
700,0.270107626914978,0.4116637706756592,-118,7014.0,-3.0582807064056396,-124,9979.0
710,0.2704172432422638,0.7192800641059875,102,7014.0,-1.7310272455215454,47,9979.0
720,0.2705950438976288,2.7267954349517822,56,7014.0,-3.180690288543701,-158,9979.0
730,0.270746111869812,4.158105373382568,78,7014.0,-5.111328601837158,-181,9979.0
740,0.26951682567596436,3.577061653137207,141,7014.0,-6.345227241516113,32,9979.0
750,0.26973217725753784,4.139769077301025,-47,7014.0,-5.280472278594971,-221,9979.0
760,0.2700410485267639,3.8234128952026367,178,7014.0,-7.5411696434021,44,9979.0
770,0.27033931016921997,3.6070194244384766,-15,7014.0,-2.9333930015563965,-56,9979.0
780,0.26998642086982727,2.6404519081115723,93,7014.0,-0.8575758934020996,22,9979.0
790,0.27018922567367554,2.778214454650879,18,7014.0,1.3725990056991577,-110,9979.0
800,0.2703186273574829,2.2842817306518555,78,7014.0,1.723665714263916,144,9979.0
810,0.27039584517478943,1.093505859375,-66,7014.0,2.346036911010742,25,9979.0
820,0.2705070972442627,-1.9407442808151245,58,7014.0,1.7648100852966309,69,9979.0
830,0.26962319016456604,-0.8269639611244202,-14,7014.0,1.809146761894226,-29,9979.0
840,0.2697382867336273,1.5792527198791504,-10,7014.0,0.6152103543281555,-61,9979.0
850,0.2698696255683899,2.482811450958252,119,7014.0,-2.2157630920410156,115,9979.0
860,0.2699631452560425,5.535085678100586,-35,7014.0,-1.835111379623413,-156,9979.0
870,0.26881906390190125,5.952471733093262,181,7014.0,-4.015146255493164,131,9979.0
880,0.2687302827835083,4.715116500854492,16,7014.0,-3.6119890213012695,-124,9979.0
890,0.2686362862586975,2.950145959854126,86,7014.0,-1.2520663738250732,8,9979.0
900,0.26858964562416077,1.416898250579834,3,7014.0,-1.1956740617752075,-85,9979.0
910,0.26853954792022705,0.32794642448425293,107,7014.0,-1.090735912322998,185,9979.0
920,0.2692144215106964,1.6833114624023438,-132,7014.0,-0.5835134387016296,-197,9979.0
930,0.269279420375824,-2.328123092651367,134,7014.0,-0.4338155686855316,125,9979.0
940,0.2693735361099243,-2.669404983520508,-136,7014.0,-0.6886640787124634,-124,9979.0
950,0.26942601799964905,-4.2817864418029785,-53,7014.0,-2.356684446334839,59,9979.0
960,0.26968708634376526,-6.11649751663208,-115,7014.0,-1.6511034965515137,-69,9979.0
970,0.26973867416381836,-4.075435161590576,-1,7014.0,-2.8436200618743896,8,9979.0
980,0.2698643207550049,-1.6720194816589355,-122,7014.0,-1.9841352701187134,-138,9979.0
990,0.2701095938682556,-3.1571550369262695,94,7014.0,-3.1568286418914795,105,9979.0
1000,0.2694012522697449,0.9360231757164001,-76,7014.0,-3.1626434326171875,-199,9979.0
1010,0.2694476544857025,-0.5673096776008606,25,7014.0,-2.2381393909454346,-32,9979.0
1020,0.2695503532886505,1.6456818580627441,-21,7014.0,-3.6376051902770996,-83,9979.0
1030,0.26963216066360474,4.75723123550415,103,7014.0,-7.139909267425537,92,9979.0
1040,0.2699098289012909,4.283662796020508,-2,7014.0,-1.579132318496704,-133,9979.0
1050,0.270966500043869,0.9850082397460938,146,7014.0,-3.7647712230682373,108,9979.0
1060,0.271211177110672,0.118524931371212,-58,7014.0,3.3400590419769287,-52,9979.0
1070,0.2714698016643524,-0.055101871490478516,13,7014.0,4.2981438636779785,109,9979.0
1080,0.2716449201107025,-0.37329867482185364,23,7014.0,5.952968120574951,15,9979.0
1090,0.27081871032714844,-0.23795704543590546,30,7014.0,4.3973565101623535,129,9979.0
1100,0.27106785774230957,0.35764652490615845,-149,7014.0,5.446112155914307,1,9979.0
1110,0.2712441384792328,-0.9375466704368591,85,7014.0,2.4333620071411133,196,9979.0
1120,0.27143943309783936,0.8639481067657471,-32,7014.0,1.78862726688385,-36,9979.0
1130,0.2715902626514435,0.7599276304244995,68,7014.0,-1.8124260902404785,-31,9979.0
1140,0.27022820711135864,-0.4589083194732666,-42,7014.0,-0.22762323915958405,-150,9979.0
1150,0.2703290581703186,0.873529314994812,118,7014.0,-2.872356653213501,158,9979.0
1160,0.2704169750213623,-0.7212693691253662,-195,7014.0,-2.992154598236084,-247,9979.0
1170,0.27045029401779175,-3.0669665336608887,61,7014.0,-4.830545425415039,82,9979.0
1180,0.27111610770225525,-4.178036212921143,-142,7014.0,-1.6518515348434448,-97,9979.0
1190,0.2711634039878845,-3.5819928646087646,-26,7014.0,-0.4194202423095703,173,9979.0
1200,0.27121037244796753,-3.0579521656036377,-123,7014.0,-0.2401060163974762,-108,9979.0
1210,0.2712653577327728,-1.7837947607040405,145,7014.0,1.5067063570022583,217,9979.0
1220,0.2713157534599304,-1.5265437364578247,-122,7014.0,5.968816757202148,-49,9979.0
1230,0.2703412175178528,-0.8993069529533386,10,7014.0,5.045140266418457,98,9979.0
1240,0.2702862322330475,0.7065469622612,6,7014.0,5.424556732177734,81,9979.0
1250,0.27023229002952576,0.5620473027229309,62,7014.0,4.508760452270508,157,9979.0
1260,0.27019810676574707,2.0932226181030273,-26,7014.0,3.4787168502807617,-37,9979.0
1270,0.27048277854919434,2.1411144733428955,97,7014.0,3.2167420387268066,72,9979.0
1280,0.27044007182121277,2.72173810005188,-155,7014.0,1.7574635744094849,-171,9979.0
1290,0.27039167284965515,1.978562831878662,96,7014.0,0.2630874216556549,82,9979.0
1300,0.27034616470336914,0.30382412672042847,18,7014.0,-1.4327701330184937,-53,9979.0
1310,0.2709842026233673,-0.9979401230812073,57,7014.0,-2.7622058391571045,26,9979.0
1320,0.27100062370300293,-0.29195570945739746,-86,7014.0,-0.7753437161445618,-178,9979.0
1330,0.27098336815834045,0.7057528495788574,85,7014.0,0.5482851266860962,108,9979.0
1340,0.27096280455589294,-1.541857361793518,-10,7014.0,-1.2377959489822388,-22,9979.0
1350,0.27096229791641235,-1.319502592086792,-71,7014.0,1.8665556907653809,-34,9979.0
1360,0.2710357904434204,-1.778092622756958,-34,7014.0,-0.4839044511318207,-19,9979.0
1370,0.2710980474948883,-1.2946819067001343,-48,7014.0,1.3114439249038696,113,9979.0
1380,0.2711350917816162,0.3221648037433624,38,7014.0,0.39599016308784485,129,9979.0
1390,0.2711687982082367,2.1252224445343018,-85,7014.0,3.9993653297424316,-122,9979.0
1400,0.2719508111476898,0.1963016837835312,160,7014.0,1.8192194700241089,145,9979.0
1410,0.2720392346382141,-0.43132027983665466,-52,7014.0,3.277052402496338,-22,9979.0
1420,0.27211350202560425,0.5826237797737122,47,7014.0,0.17708612978458405,86,9979.0
1430,0.27252528071403503,2.015685558319092,-78,7014.0,2.8020129203796387,-151,9979.0
1440,0.2726981043815613,2.000412940979004,173,7014.0,-0.4597465395927429,183,9979.0
1450,0.27337777614593506,3.781510829925537,-78,7014.0,2.8814194202423096,-83,9979.0
1460,0.27356472611427307,2.3538153171539307,52,7014.0,-1.5022857189178467,3,9979.0
1470,0.2737339735031128,1.351426124572754,36,7014.0,-2.782526731491089,39,9979.0
1480,0.2739293873310089,1.6933406591415405,64,7014.0,0.2837078869342804,33,9979.0
1490,0.27312347292900085,1.3701506853103638,37,7014.0,-1.5444669723510742,-143,9979.0
1500,0.2732769548892975,1.5371036529541016,18,7014.0,0.12029791623353958,-48,9979.0
1510,0.27342382073402405,0.38906168937683105,21,7014.0,-1.6599228382110596,17,9979.0
1520,0.27355480194091797,-0.7422227263450623,-123,7014.0,1.511995792388916,2,9979.0
1530,0.2722274661064148,-2.736628532409668,-31,7014.0,2.029247522354126,72,9979.0
1540,0.2724604606628418,-2.859447479248047,-61,7014.0,2.7990686893463135,-25,9979.0
1550,0.2725788950920105,-3.882666826248169,40,7014.0,-1.6101700067520142,91,9979.0
1560,0.27260881662368774,-3.568495512008667,-151,7014.0,2.011660575866699,-182,9979.0
1570,0.2724998891353607,-2.5370349884033203,157,7014.0,1.9981322288513184,185,9979.0
1580,0.27435538172721863,-0.4884330928325653,-95,7014.0,0.6023131012916565,-59,9979.0
1590,0.2744992673397064,-2.45499324798584,10,7014.0,0.15651491284370422,54,9979.0
1600,0.27471789717674255,-0.08254048228263855,-119,7014.0,0.6737340688705444,-160,9979.0
1610,0.2748100161552429,-2.3261451721191406,75,7014.0,1.7529140710830688,233,9979.0
1620,0.273759126663208,-1.3732843399047852,-172,7014.0,4.566190242767334,70,9979.0
1630,0.27374255657196045,-1.3881644010543823,-13,7014.0,-1.0150554180145264,-3,9979.0
1640,0.27369409799575806,-2.889989137649536,29,7014.0,-2.3475356101989746,-52,9979.0
1650,0.273660272359848,-1.7786755561828613,23,7014.0,-2.5766100883483887,-64,9979.0
1660,0.2736275792121887,-1.366467833518982,-80,7014.0,-5.219010829925537,-144,9979.0
1670,0.27329862117767334,-0.7300261855125427,-53,7014.0,-3.1657369136810303,-60,9979.0
1680,0.27323079109191895,-3.4963812828063965,8,7014.0,-4.530567169189453,97,9979.0
1690,0.2731795907020569,-2.3625998497009277,-134,7014.0,-1.5081628561019897,-119,9979.0
1700,0.27330413460731506,-3.458012342453003,-25,7014.0,1.7701703310012817,47,9979.0
1710,0.2728114426136017,0.00849806610494852,-74,7014.0,2.6325953006744385,-26,9979.0
1720,0.2729160189628601,1.873194932937622,182,7014.0,5.274232864379883,345,9979.0
1730,0.2729773223400116,5.227322578430176,-74,7014.0,7.410574436187744,-31,9979.0
1740,0.27301159501075745,4.677159786224365,171,7014.0,3.6442887783050537,68,9979.0
1750,0.2715526521205902,4.386531829833984,89,7014.0,0.7328202128410339,-31,9979.0
1760,0.27157360315322876,3.4509711265563965,57,7014.0,-0.5267890095710754,-14,9979.0
1770,0.27174893021583557,2.9887702465057373,7,7014.0,-2.341697931289673,-55,9979.0
1780,0.27223533391952515,1.272351861000061,-11,7014.0,-5.391448020935059,-113,9979.0
1790,0.27238696813583374,0.8349409699440002,91,7014.0,-3.5717356204986572,87,9979.0
1800,0.2724234461784363,-0.7265318036079407,-188,7014.0,-3.533926248550415,-211,9979.0
1810,0.2726523280143738,-3.4445812702178955,20,7014.0,-1.3230650424957275,-10,9979.0
1820,0.2728005051612854,-1.0386909246444702,-87,7014.0,-1.753136396408081,-84,9979.0
1830,0.27298855781555176,-0.9002959132194519,103,7014.0,0.4019230306148529,185,9979.0
1840,0.27276208996772766,-1.365241289138794,-140,7014.0,2.2937490940093994,-208,9979.0
1850,0.2729141414165497,1.0417448282241821,151,7014.0,-1.3952745199203491,-27,9979.0
1860,0.2730533182621002,0.8575044274330139,2,7014.0,0.06089954450726509,22,9979.0
1870,0.27315574884414673,-1.4852248430252075,-15,7014.0,2.6269662380218506,106,9979.0
1880,0.2733142375946045,0.914153516292572,-62,7014.0,3.722573757171631,-155,9979.0
1890,0.2740180194377899,0.3130561411380768,151,7014.0,-1.0231839418411255,151,9979.0
1900,0.27418532967567444,0.7549469470977783,-111,7014.0,2.668210983276367,-95,9979.0
1910,0.2743436098098755,1.8437851667404175,81,7014.0,-1.158644676208496,65,9979.0
1920,0.2744568884372711,2.0999794006347656,41,7014.0,0.8939918279647827,37,9979.0
1930,0.27202466130256653,3.994703531265259,64,7014.0,0.6031814217567444,-31,9979.0
1940,0.2719489634037018,5.886073112487793,52,7014.0,0.7593857049942017,-18,9979.0
1950,0.27190107107162476,7.554784774780273,-17,7014.0,-0.6783076524734497,-115,9979.0
1960,0.2717980444431305,5.7988386154174805,225,7014.0,-3.1276168823242188,120,9979.0
1970,0.27271929383277893,4.610829830169678,-95,7014.0,0.49759936332702637,-96,9979.0
1980,0.2726817727088928,1.5528069734573364,74,7014.0,1.0881820917129517,46,9979.0
1990,0.2726728916168213,0.4030301868915558,-36,7014.0,-0.21685408055782318,-121,9979.0
2000,0.272662878036499,-1.0017293691635132,92,7014.0,-0.9527146816253662,86,9979.0
2010,0.2726486623287201,-1.44693124294281,-130,7014.0,-0.5948535203933716,-103,9979.0
2020,0.2719988226890564,-2.490112066268921,-24,7014.0,-5.503009796142578,-5,9979.0
2030,0.27199849486351013,-2.833341121673584,46,7014.0,-2.9382684230804443,41,9979.0
2040,0.27203619480133057,-2.5592234134674072,-49,7014.0,0.21922072768211365,-96,9979.0
2050,0.2720682919025421,-0.18506376445293427,28,7014.0,-0.48169365525245667,70,9979.0
2060,0.27297350764274597,0.9597348570823669,-162,7014.0,-0.0554581843316555,-160,9979.0
2070,0.2730647027492523,-1.5590320825576782,127,7014.0,-2.116760015487671,287,9979.0
2080,0.27317386865615845,-3.5536787509918213,-126,7014.0,3.7352170944213867,102,9979.0
2090,0.27326250076293945,-1.1480566263198853,-34,7014.0,1.2021260261535645,11,9979.0
2100,0.27283719182014465,-2.3337175846099854,-43,7014.0,-0.7156221270561218,-52,9979.0
2110,0.273175448179245,-2.279414176940918,-33,7014.0,-1.107861042022705,-45,9979.0
2120,0.27324721217155457,-3.72404408454895,56,7014.0,-2.7397425174713135,132,9979.0
2130,0.27330756187438965,-3.0872573852539062,-197,7014.0,-0.5960488319396973,-297,9979.0
2140,0.27343201637268066,-2.6564557552337646,111,7014.0,-3.10513973236084,41,9979.0
2150,0.2743355631828308,0.01934211514890194,-18,7014.0,-0.8982162475585938,-86,9979.0
2160,0.2750090956687927,-0.8286989331245422,8,7014.0,0.19872836768627167,24,9979.0
2170,0.27509140968322754,2.0773963928222656,-32,7014.0,0.12625117599964142,-95,9979.0
2180,0.2750987410545349,3.2006778717041016,5,7014.0,-0.6103354096412659,-11,9979.0
2190,0.2743642032146454,1.9036918878555298,81,7014.0,-0.8966191411018372,163,9979.0
2200,0.27473685145378113,0.7674238681793213,-141,7014.0,0.3198517858982086,-141,9979.0
2210,0.27487310767173767,-2.636446475982666,-2,7014.0,0.2529449462890625,73,9979.0
2220,0.27499014139175415,-3.4303855895996094,-116,7014.0,1.6973822116851807,-94,9979.0
2230,0.2751050293445587,-1.9225753545761108,42,7014.0,0.5904022455215454,188,9979.0
2240,0.27474352717399597,-1.101771593093872,-74,7014.0,0.015249657444655895,36,9979.0
2250,0.27487608790397644,2.2738263607025146,41,7014.0,0.2706649899482727,-17,9979.0
2260,0.27521198987960815,3.3375613689422607,181,7014.0,0.5843426585197449,46,9979.0
2270,0.27582651376724243,5.8088836669921875,59,7014.0,0.1821034997701645,-65,9979.0
2280,0.2752035856246948,5.796083927154541,142,7014.0,-1.1156693696975708,97,9979.0
2290,0.2752886116504669,6.384822845458984,-74,7014.0,-0.5660706758499146,-137,9979.0
2300,0.2753991186618805,1.574623942375183,139,7014.0,1.113187313079834,105,9979.0
2310,0.2755204439163208,1.1453289985656738,20,7014.0,1.4534640312194824,-13,9979.0
2320,0.27499285340309143,1.41501784324646,-57,7014.0,2.1342613697052,-84,9979.0
2330,0.27503257989883423,0.7159632444381714,1,7014.0,-0.5373886227607727,20,9979.0
2340,0.2750799059867859,-0.8781816363334656,-84,7014.0,0.9098133444786072,-9,9979.0
2350,0.27507323026657104,-3.0933785438537598,135,7014.0,1.304653525352478,157,9979.0
2360,0.2750786542892456,1.0232599973678589,-173,7014.0,0.40801191329956055,-132,9979.0
2370,0.27506041526794434,-1.9616725444793701,70,7014.0,1.0857757329940796,7,9979.0
2380,0.2750645875930786,0.11844580620527267,-3,7014.0,-1.1817419528961182,-25,9979.0
2390,0.2750319838523865,0.10871566087007523,42,7014.0,-1.111086368560791,-35,9979.0
2400,0.27502068877220154,1.130477786064148,4,7014.0,-1.7628264427185059,16,9979.0
2410,0.2750881314277649,-1.7569228410720825,-85,7014.0,0.47061583399772644,-125,9979.0
2420,0.2750908136367798,-0.20058836042881012,162,7014.0,1.4975035190582275,120,9979.0
2430,0.2750972509384155,0.3041231334209442,-65,7014.0,-0.5454663634300232,-76,9979.0
2440,0.27507585287094116,0.6623502373695374,5,7014.0,-1.4643940925598145,-21,9979.0
2450,0.2750586271286011,0.5025591850280762,-42,7014.0,1.0474796295166016,-26,9979.0
2460,0.2742132544517517,0.5647639036178589,117,7014.0,0.2159898579120636,-60,9979.0
2470,0.27415427565574646,0.17797468602657318,-80,7014.0,-0.5695508122444153,316,9979.0
2480,0.2741464674472809,1.8808683156967163,36,7014.0,-3.3406713008880615,-148,9979.0
2490,0.2741876244544983,-0.7475684285163879,119,7014.0,-0.6223901510238647,118,9979.0
2500,0.27451154589653015,0.40947020053863525,-28,7014.0,1.219136118888855,-45,9979.0
2510,0.2745197117328644,-0.09817866235971451,74,7014.0,0.39685797691345215,165,9979.0
2520,0.27455392479896545,0.5382866859436035,-126,7014.0,-1.2341431379318237,-130,9979.0
2530,0.2746557891368866,0.6837270855903625,77,7014.0,-0.9856561422348022,-2,9979.0
2540,0.2746715843677521,-0.22395338118076324,78,7014.0,-0.6988936066627502,78,9979.0
2550,0.2743951082229614,-0.15046560764312744,-90,7014.0,0.4341934323310852,-138,9979.0
2560,0.27437326312065125,-0.43162858486175537,3,7014.0,-0.08038267493247986,36,9979.0
2570,0.27437758445739746,-0.9492368698120117,-112,7014.0,-1.5057445764541626,-140,9979.0
2580,0.27440735697746277,-0.5906105637550354,50,7014.0,-0.21192225813865662,105,9979.0
2590,0.27465006709098816,-0.9460572004318237,-30,7014.0,-5.671014785766602,-2,9979.0
2600,0.27466151118278503,-0.6918776631355286,-139,7014.0,2.732426166534424,-123,9979.0
2610,0.27470242977142334,1.359918236732483,100,7014.0,-4.28472900390625,0,9979.0
2620,0.27467748522758484,1.3337732553482056,-18,7014.0,-2.1912643909454346,-120,9979.0
2630,0.2740097939968109,0.0788884311914444,90,7014.0,-2.8109445571899414,60,9979.0
2640,0.27391648292541504,-0.27499163150787354,-71,7014.0,-1.149746298789978,-5,9979.0
2650,0.27381402254104614,2.039426803588867,-97,7014.0,2.3645148277282715,-42,9979.0
2660,0.2738448977470398,-2.0154497623443604,60,7014.0,4.681330680847168,153,9979.0
2670,0.2738610506057739,-1.9554009437561035,-39,7014.0,2.4130923748016357,25,9979.0
2680,0.2742869555950165,0.15354618430137634,87,7014.0,5.133759021759033,160,9979.0
2690,0.27428287267684937,0.6744447946548462,-24,7014.0,2.8660707473754883,26,9979.0
2700,0.2742851972579956,0.7231836915016174,-67,7014.0,2.7114691734313965,-201,9979.0
2710,0.2743839919567108,-2.8555173873901367,169,7014.0,-0.7249443531036377,124,9979.0
2720,0.2750331163406372,-1.3057955503463745,-100,7014.0,-2.573472261428833,-64,9979.0
2730,0.27508947253227234,-2.4921021461486816,-36,7014.0,-5.07950496673584,-73,9979.0
2740,0.2751905024051666,-3.2488279342651367,-70,7014.0,-5.8523054122924805,-37,9979.0
2750,0.27530092000961304,-2.2333576679229736,-125,7014.0,-1.6364699602127075,-268,9979.0
2760,0.2748648226261139,-2.8339030742645264,140,7014.0,-1.0980253219604492,104,9979.0
2770,0.2748899459838867,-1.644784927368164,-113,7014.0,-0.07602255791425705,14,9979.0
2780,0.2749192416667938,-0.31594619154930115,-84,7014.0,1.4260367155075073,22,9979.0
2790,0.2750176787376404,0.5522602200508118,3,7014.0,3.814358949661255,125,9979.0
2800,0.27507978677749634,2.9645631313323975,-19,7014.0,4.128680229187012,-85,9979.0
2810,0.2754690647125244,3.8629984855651855,254,7014.0,1.808597207069397,221,9979.0
2820,0.27553343772888184,4.949632167816162,49,7014.0,2.86789608001709,-15,9979.0
2830,0.2755778133869171,3.4149675369262695,-9,7014.0,0.3354693353176117,-139,9979.0
2840,0.27561700344085693,1.4780428409576416,96,7014.0,-1.009616494178772,96,9979.0
2850,0.2773381471633911,0.6022632718086243,-50,7014.0,0.43951237201690674,-42,9979.0
2860,0.27752625942230225,-1.1390302181243896,44,7014.0,-1.4651892185211182,98,9979.0
2870,0.27770093083381653,0.6900549530982971,-62,7014.0,-4.659984111785889,-64,9979.0
2880,0.2778131663799286,-1.8822535276412964,-23,7014.0,-4.853036403656006,-222,9979.0
2890,0.2780039608478546,-2.5138330459594727,130,7014.0,-0.9012142419815063,144,9979.0
2900,0.2772999107837677,-1.5242247581481934,-19,7014.0,1.9993582963943481,-52,9979.0
2910,0.2773827612400055,-1.052192211151123,29,7014.0,3.0152816772460938,190,9979.0
2920,0.2774690091609955,-1.3418997526168823,-107,7014.0,5.162754058837891,-3,9979.0
2930,0.2775568962097168,0.15668244659900665,-29,7014.0,4.355699062347412,-48,9979.0
2940,0.27817273139953613,-1.2800462245941162,188,7014.0,0.28696149587631226,201,9979.0
2950,0.2782820761203766,0.759463369846344,-76,7014.0,2.7093265056610107,10,9979.0
2960,0.27844154834747314,-0.15977618098258972,31,7014.0,1.040585994720459,48,9979.0
2970,0.27876779437065125,-0.5529338121414185,-27,7014.0,0.33965450525283813,-67,9979.0
2980,0.27974388003349304,-0.06310705095529556,-35,7014.0,-2.5347721576690674,-186,9979.0
2990,0.2799713611602783,0.6688230037689209,216,7014.0,-1.6434816122055054,220,9979.0
3000,0.28018173575401306,1.5885671377182007,-69,7014.0,-1.8728796243667603,-46,9979.0
3010,0.28035715222358704,1.7737531661987305,-40,7014.0,0.5814307928085327,20,9979.0
3020,0.2805374264717102,1.6947518587112427,40,7014.0,1.6173101663589478,51,9979.0
3030,0.28001663088798523,5.101994037628174,3,7014.0,-0.8370413780212402,-88,9979.0
3040,0.2801372706890106,3.2481110095977783,195,7014.0,0.9937757253646851,225,9979.0
3050,0.2802276313304901,3.9612700939178467,-15,7014.0,-2.2297637462615967,-93,9979.0
3060,0.28027963638305664,1.3660095930099487,7,7014.0,-1.8844372034072876,-10,9979.0
3070,0.2791314125061035,0.6127253174781799,89,7014.0,2.038414716720581,107,9979.0
3080,0.2791230380535126,-0.7044355273246765,-68,7014.0,3.8802974224090576,-1,9979.0
3090,0.27909088134765625,-1.5822710990905762,82,7014.0,2.735132932662964,161,9979.0
3100,0.2790791094303131,0.8365072011947632,-132,7014.0,1.7127964496612549,-286,9979.0
3110,0.2790984809398651,-0.8095588088035583,130,7014.0,-1.7207858562469482,11,9979.0
3120,0.27836284041404724,-3.328453779220581,-72,7014.0,-1.332585334777832,36,9979.0
3130,0.27828824520111084,-4.207420825958252,-120,7014.0,-1.3904650211334229,-62,9979.0
3140,0.2782048285007477,-4.5243449211120605,-2,7014.0,-2.0268054008483887,117,9979.0
3150,0.2782216966152191,-1.5481083393096924,-157,7014.0,-2.899887800216675,-108,9979.0
3160,0.27843666076660156,-0.36755532026290894,32,7014.0,0.32387876510620117,-71,9979.0
3170,0.278984010219574,4.306318759918213,216,7014.0,0.2278006225824356,221,9979.0
3180,0.2790808081626892,-0.02310015633702278,-74,7014.0,1.629325032234192,-47,9979.0
3190,0.2791544795036316,0.1472788155078888,27,7014.0,4.532257556915283,49,9979.0
3200,0.27927127480506897,1.3088971376419067,-37,7014.0,4.053600311279297,22,9979.0
3210,0.280106782913208,2.366441011428833,-160,7014.0,3.9945127964019775,-119,9979.0
3220,0.2803167998790741,-0.10119518637657166,61,7014.0,-1.3221718072891235,116,9979.0
3230,0.280366450548172,-0.36040520668029785,-54,7014.0,-0.16208644211292267,89,9979.0
3240,0.2815164625644684,-1.35089111328125,-83,7014.0,3.157927989959717,-85,9979.0
3250,0.281821072101593,-1.3242374658584595,-16,7014.0,0.44688108563423157,95,9979.0
3260,0.28210189938545227,-2.2541797161102295,-130,7014.0,1.4344778060913086,-97,9979.0
3270,0.2822984755039215,-2.387895107269287,-9,7014.0,1.2629228830337524,-17,9979.0
3280,0.28257110714912415,-2.5759406089782715,19,7014.0,0.5955241918563843,204,9979.0
3290,0.28141096234321594,-2.50223708152771,-115,7014.0,1.2948516607284546,-12,9979.0
3300,0.28163692355155945,-1.8216136693954468,-37,7014.0,1.8699827194213867,121,9979.0
3310,0.2823810875415802,1.4704713821411133,-10,7014.0,1.1675857305526733,6,9979.0
3320,0.2825606167316437,3.4756901264190674,-36,7014.0,2.04602313041687,-111,9979.0
3330,0.28270861506462097,-0.11764174699783325,205,7014.0,1.704711675643921,147,9979.0
3340,0.28262197971343994,1.4493389129638672,0,7014.0,-1.966845154762268,-29,9979.0
3350,0.2828066945075989,0.9203415513038635,-20,7014.0,0.5915443897247314,-72,9979.0
3360,0.2829841077327728,1.9382456541061401,34,7014.0,-3.06304669380188,8,9979.0
3370,0.28310510516166687,0.589171826839447,-55,7014.0,-1.0543830394744873,-152,9979.0
3380,0.28242650628089905,2.9798834323883057,75,7014.0,-3.3082780838012695,51,9979.0
3390,0.2825317680835724,-0.12348644435405731,-32,7014.0,-0.6363425850868225,139,9979.0
3400,0.28265202045440674,-1.3427205085754395,-93,7014.0,-1.6112864017486572,-97,9979.0
3410,0.28286483883857727,-1.494982123374939,36,7014.0,-1.571494460105896,57,9979.0
3420,0.2829567492008209,-0.632025957107544,-10,7014.0,0.04019509255886078,-103,9979.0
3430,0.2834177017211914,2.990203619003296,32,7014.0,1.9658753871917725,-96,9979.0
3440,0.2836350202560425,-0.5244388580322266,264,7014.0,1.157660722732544,94,9979.0
3450,0.2838863730430603,-3.874203681945801,-127,7014.0,-0.22996720671653748,-82,9979.0
3460,0.2844741642475128,-3.67742919921875,-81,7014.0,-2.1787238121032715,-57,9979.0
3470,0.28368228673934937,-5.583317756652832,-109,7014.0,-3.5563457012176514,-13,9979.0
3480,0.28374990820884705,-4.549907207489014,-160,7014.0,-3.688739061355591,-251,9979.0
3490,0.28385502099990845,-4.925180912017822,68,7014.0,1.2040538787841797,103,9979.0
3500,0.28395798802375793,-2.889493703842163,-85,7014.0,-4.151639461517334,15,9979.0
3510,0.2848169505596161,-3.238098621368408,-161,7014.0,-3.7575907707214355,-143,9979.0
3520,0.28494399785995483,-3.1699271202087402,19,7014.0,-4.0011138916015625,-20,9979.0
3530,0.28507885336875916,-0.5645232796669006,-30,7014.0,-3.8164923191070557,-197,9979.0
3540,0.2852196991443634,2.305119276046753,-5,7014.0,-3.4839391708374023,-80,9979.0
3550,0.2853899598121643,2.4893453121185303,268,7014.0,-1.2964352369308472,152,9979.0
3560,0.28539469838142395,3.767235517501831,10,7014.0,-1.579824447631836,23,9979.0
3570,0.28555062413215637,4.401648998260498,45,7014.0,0.05141952261328697,44,9979.0
3580,0.2856774926185608,1.9378900527954102,63,7014.0,1.1591167449951172,141,9979.0
3590,0.28581368923187256,1.5693891048431396,-134,7014.0,1.3488836288452148,-149,9979.0
3600,0.2851635217666626,-1.3820054531097412,18,7014.0,-2.8353888988494873,36,9979.0
3610,0.28524544835090637,-0.8841708898544312,94,7014.0,-0.8855063319206238,99,9979.0
3620,0.28530463576316833,-2.6613142490386963,-56,7014.0,1.3874855041503906,-88,9979.0
3630,0.2853529751300812,-0.09899197518825531,73,7014.0,-4.216447353363037,54,9979.0
3640,0.28537559509277344,1.153421401977539,0,7014.0,-0.3764769434928894,24,9979.0
3650,0.2852369546890259,3.410151243209839,-133,7014.0,-2.735224485397339,-160,9979.0
3660,0.2852715253829956,0.18668809533119202,47,7014.0,2.476285696029663,184,9979.0
3670,0.2853078544139862,1.5536236763000488,-69,7014.0,-0.4619255065917969,-23,9979.0
3680,0.2854310870170593,0.36385229229927063,0,7014.0,-0.1574072688817978,64,9979.0
3690,0.2866058349609375,3.2957844734191895,152,7014.0,-0.6560676097869873,-4,9979.0
3700,0.2867339551448822,4.1030192375183105,-30,7014.0,-0.10751195251941681,-235,9979.0
3710,0.28692615032196045,7.111325740814209,228,7014.0,-1.4628747701644897,34,9979.0
3720,0.287289023399353,3.285400152206421,-10,7014.0,0.6497417688369751,-24,9979.0
3730,0.28776735067367554,2.4941048622131348,20,7014.0,1.1187494993209839,-41,9979.0
3740,0.2879921495914459,0.6680347323417664,121,7014.0,2.893810749053955,252,9979.0
3750,0.28828948736190796,2.05983829498291,-17,7014.0,0.35299497842788696,75,9979.0
3760,0.2888791561126709,2.392446756362915,-47,7014.0,2.0522799491882324,50,9979.0
3770,0.2896728813648224,-0.13945968449115753,42,7014.0,6.821964740753174,256,9979.0
3780,0.289395809173584,3.334131956100464,-34,7014.0,7.870478630065918,34,9979.0
3790,0.28976547718048096,2.1352603435516357,89,7014.0,7.985696315765381,148,9979.0
3800,0.29006427526474,1.8879735469818115,183,7014.0,7.368730545043945,261,9979.0
3810,0.2904226779937744,6.261410236358643,-5,7014.0,10.32276725769043,115,9979.0
3820,0.290509968996048,4.976147174835205,129,7014.0,9.889330863952637,168,9979.0
3830,0.29085773229599,5.528254985809326,79,7014.0,7.469018936157227,154,9979.0
3840,0.29103904962539673,3.8383278846740723,-61,7014.0,6.611817836761475,-58,9979.0
3850,0.29117539525032043,1.750468134880066,77,7014.0,3.910461187362671,185,9979.0
3860,0.291615754365921,-0.4605153501033783,24,7014.0,4.008192539215088,272,9979.0
3870,0.29188454151153564,-0.495646595954895,-165,7014.0,-1.006479263305664,-59,9979.0
3880,0.29208412766456604,-2.228208303451538,34,7014.0,-3.23563551902771,20,9979.0
3890,0.29228508472442627,0.23689262568950653,-32,7014.0,-2.3955612182617188,39,9979.0
3900,0.29242396354675293,2.4056429862976074,-77,7014.0,-3.142021656036377,-269,9979.0
3910,0.2923934757709503,3.9737963676452637,145,7014.0,-2.315692186355591,-7,9979.0
3920,0.2925024926662445,2.525315284729004,129,7014.0,-1.011362075805664,-47,9979.0
3930,0.29260173439979553,-0.6765453219413757,-84,7014.0,3.688716411590576,-25,9979.0
3940,0.29272815585136414,-1.3179471492767334,65,7014.0,4.940715789794922,173,9979.0
3950,0.2929237186908722,-2.143552780151367,-65,7014.0,2.208460807800293,61,9979.0
3960,0.29310834407806396,-2.0236778259277344,-234,7014.0,3.654780864715576,-40,9979.0
3970,0.2933847904205322,-0.5462467670440674,-12,7014.0,-1.4936546087265015,96,9979.0
3980,0.2936142385005951,0.15013296902179718,-23,7014.0,-1.1046961545944214,20,9979.0
3990,0.2938537001609802,1.5131257772445679,-60,7014.0,-0.7097366452217102,-125,9979.0
4000,0.2945440411567688,1.066175937652588,164,7014.0,-4.068332195281982,44,9979.0
4010,0.29479461908340454,-2.569941997528076,29,7014.0,-8.4590425491333,-135,9979.0
4020,0.2950405478477478,-1.6290980577468872,-153,7014.0,-4.196953773498535,-203,9979.0
4030,0.2952480614185333,-5.159194469451904,-24,7014.0,2.4586822986602783,59,9979.0
4040,0.295256108045578,-3.374891996383667,-81,7014.0,-0.7673307657241821,-48,9979.0
4050,0.2954232394695282,-3.4209578037261963,-102,7014.0,1.2891019582748413,-151,9979.0
4060,0.29561299085617065,-1.7697092294692993,142,7014.0,-0.7307445406913757,31,9979.0
4070,0.2958575487136841,-2.7208144664764404,-61,7014.0,2.269782543182373,11,9979.0
4080,0.29486095905303955,-2.3392105102539062,-134,7014.0,1.052147626876831,-2,9979.0
4090,0.2949492931365967,-4.641403675079346,5,7014.0,-0.08719934523105621,140,9979.0
4100,0.2950420677661896,-3.461022138595581,-104,7014.0,1.055349349975586,101,9979.0
4110,0.2951243817806244,-0.9350785613059998,-181,7014.0,-1.8527566194534302,-207,9979.0
4120,0.2952338755130768,-0.7157454490661621,96,7014.0,-2.521211862564087,-16,9979.0
4130,0.2967759966850281,0.32634487748146057,17,7014.0,-2.509024143218994,16,9979.0
4140,0.2968939244747162,2.185821771621704,22,7014.0,-0.27094629406929016,-163,9979.0
4150,0.2969649136066437,1.7037440538406372,159,7014.0,-3.4075801372528076,49,9979.0
4160,0.29704445600509644,4.393786430358887,55,7014.0,-1.8817665576934814,28,9979.0
4170,0.2978600561618805,1.4895981550216675,-132,7014.0,-1.6965820789337158,-325,9979.0
4180,0.29799529910087585,1.5741186141967773,70,7014.0,-0.8974893689155579,100,9979.0
4190,0.29815858602523804,2.6480252742767334,5,7014.0,3.1962344646453857,119,9979.0
4200,0.2984379231929779,-0.29869237542152405,-153,7014.0,5.049267292022705,-123,9979.0
4210,0.29864823818206787,-2.993936777114868,-88,7014.0,7.254245281219482,77,9979.0
4220,0.29865172505378723,1.9070477485656738,26,7014.0,4.040685653686523,173,9979.0
4230,0.29891499876976013,-1.9970836639404297,-160,7014.0,-0.5227513313293457,43,9979.0
4240,0.29918694496154785,-3.8299739360809326,-64,7014.0,0.30203670263290405,70,9979.0
4250,0.2994701862335205,-0.6685207486152649,90,7014.0,-1.1255167722702026,165,9979.0
4260,0.30025243759155273,3.1948587894439697,-69,7014.0,-0.9262212514877319,-128,9979.0
4270,0.3005831241607666,-3.822296619415283,-92,7014.0,1.6989325284957886,-78,9979.0
4280,0.3009163737297058,0.7110252976417542,108,7014.0,-2.0578389167785645,4,9979.0
4290,0.30128586292266846,0.5707743167877197,0,7014.0,-1.1919312477111816,-81,9979.0
4300,0.30179858207702637,-0.1665237545967102,106,7014.0,-3.419600486755371,52,9979.0
4310,0.3021968603134155,1.5224595069885254,-68,7014.0,-3.77976393699646,-77,9979.0
4320,0.3025965392589569,-2.289334297180176,-190,7014.0,-4.521446228027344,-281,9979.0
4330,0.30298054218292236,-2.121866226196289,56,7014.0,-3.4525809288024902,8,9979.0
4340,0.303356409072876,0.6138716340065002,-58,7014.0,-0.1536434143781662,63,9979.0
4350,0.30504247546195984,-0.7260864973068237,-29,7014.0,2.416271209716797,8,9979.0
4360,0.3054935932159424,1.08572256565094,117,7014.0,2.7757763862609863,219,9979.0
4370,0.30594602227211,-2.4189114570617676,-101,7014.0,3.445448398590088,10,9979.0
4380,0.30640920996665955,-1.6895880699157715,-85,7014.0,6.263609886169434,-65,9979.0
4390,0.3064981698989868,2.7200090885162354,79,7014.0,1.5709635019302368,44,9979.0
4400,0.30683839321136475,2.1783275604248047,15,7014.0,0.8372922539710999,-48,9979.0
4410,0.3071458041667938,2.9554452896118164,56,7014.0,-0.8481380343437195,-159,9979.0
4420,0.3074350953102112,4.713901519775391,272,7014.0,-6.763236999511719,135,9979.0
4430,0.3077258765697479,6.4925408363342285,19,7014.0,-3.1488072872161865,-141,9979.0
4440,0.30774709582328796,3.297992706298828,-16,7014.0,-3.3878562450408936,-164,9979.0
4450,0.3080472946166992,1.5051404237747192,46,7014.0,-5.121483325958252,21,9979.0
4460,0.30830174684524536,0.20367398858070374,-99,7014.0,-0.9081339240074158,-95,9979.0
4470,0.3085428476333618,-2.3284668922424316,-105,7014.0,4.378500938415527,-52,9979.0
4480,0.308458149433136,-9.20526123046875,89,7014.0,-1.324442744255066,139,9979.0
4490,0.3086452782154083,-0.9105288982391357,-102,7014.0,1.66728675365448,33,9979.0
4500,0.30885234475135803,-0.8538715243339539,-11,7014.0,3.120959997177124,98,9979.0
4510,0.3090735077857971,0.2588323652744293,97,7014.0,1.8616172075271606,206,9979.0
4520,0.3080579340457916,-0.8525983095169067,-144,7014.0,4.3580002784729,25,9979.0
4530,0.3082278370857239,2.5501158237457275,36,7014.0,5.162179946899414,-127,9979.0
4540,0.3083910644054413,2.971235752105713,133,7014.0,-0.5466141700744629,84,9979.0
4550,0.30854514241218567,0.45441529154777527,-2,7014.0,-1.2970415353775024,-72,9979.0
4560,0.3087165653705597,1.4780118465423584,16,7014.0,-5.372110843658447,-249,9979.0
4570,0.31016308069229126,-2.940237045288086,169,7014.0,-0.5264227986335754,20,9979.0
4580,0.31034213304519653,2.6000735759735107,-12,7014.0,-4.399510383605957,-68,9979.0
4590,0.3104920983314514,0.08913604170084,-60,7014.0,-1.487251877784729,-121,9979.0
4600,0.31062647700309753,-1.8124970197677612,80,7014.0,0.16499724984169006,89,9979.0
4610,0.3084876835346222,-2.8156585693359375,-118,7014.0,2.2737135887145996,60,9979.0
4620,0.30855637788772583,-2.96181058883667,-202,7014.0,2.6250295639038086,-178,9979.0
4630,0.30858901143074036,-2.177746057510376,15,7014.0,1.8757753372192383,-10,9979.0
4640,0.30862200260162354,0.660354495048523,-36,7014.0,1.2834147214889526,41,9979.0
4650,0.3086497187614441,1.0334111452102661,-53,7014.0,2.2398605346679688,-69,9979.0
4660,0.3084469139575958,1.0107544660568237,98,7014.0,3.122947931289673,106,9979.0
4670,0.30852892994880676,0.49721431732177734,111,7014.0,-2.6877386569976807,194,9979.0
4680,0.3085879981517792,0.6064751148223877,-80,7014.0,-0.1074216216802597,-35,9979.0
4690,0.3086467385292053,-1.1681519746780396,31,7014.0,-4.257430553436279,-19,9979.0
4700,0.31004276871681213,-1.3227628469467163,63,7014.0,-2.594684600830078,88,9979.0
4710,0.3101772964000702,0.2903187572956085,-100,7014.0,-0.01806609332561493,34,9979.0
4720,0.3103037476539612,-4.102530479431152,-22,7014.0,-4.704304218292236,-65,9979.0
4730,0.3106420040130615,5.5908684730529785,227,7014.0,1.865347981452942,66,9979.0
4740,0.3108428120613098,3.9549508094787598,36,7014.0,1.1829838752746582,35,9979.0
4750,0.3119393587112427,4.4063873291015625,16,7014.0,3.214688301086426,-84,9979.0
4760,0.3122211992740631,3.319958448410034,176,7014.0,-0.9231195449829102,32,9979.0
4770,0.31251272559165955,2.457460880279541,40,7014.0,1.2525138854980469,84,9979.0
4780,0.3128061294555664,-0.012449638918042183,-72,7014.0,4.226464748382568,-29,9979.0
4790,0.3143535852432251,-0.40731287002563477,55,7014.0,2.1190431118011475,120,9979.0
4800,0.31470587849617004,-3.07961368560791,-11,7014.0,1.3264151811599731,39,9979.0
4810,0.3150941729545593,-6.378371715545654,-240,7014.0,-2.8517630100250244,-217,9979.0
4820,0.31549006700515747,-10.754057884216309,-43,7014.0,-3.527113676071167,-93,9979.0
4830,0.3163278102874756,-6.482280254364014,-48,7014.0,-1.494802713394165,16,9979.0
4840,0.3166895806789398,-4.703406810760498,-140,7014.0,0.969687819480896,-205,9979.0
4850,0.3171447515487671,0.5023003816604614,126,7014.0,-0.5307276248931885,4,9979.0
4860,0.3175419270992279,0.8928907513618469,251,7014.0,2.8128280639648438,127,9979.0
4870,0.31793758273124695,2.7827258110046387,-69,7014.0,2.9667303562164307,-33,9979.0
4880,0.31793496012687683,-1.3630378246307373,-22,7014.0,3.1107287406921387,73,9979.0
4890,0.31833210587501526,-2.209108352661133,73,7014.0,6.684052467346191,302,9979.0
4900,0.31868651509284973,-3.4089980125427246,-147,7014.0,6.066187858581543,-82,9979.0
4910,0.319004625082016,-0.8683314919471741,109,7014.0,0.5094602704048157,100,9979.0
4920,0.31881943345069885,-4.055196762084961,-144,7014.0,1.779201626777649,6,9979.0
4930,0.3191635310649872,-2.0446219444274902,-92,7014.0,-0.6324150562286377,-102,9979.0
4940,0.3194757103919983,-1.844934105873108,48,7014.0,-4.590447902679443,-38,9979.0
4950,0.3198483884334564,-2.9163856506347656,27,7014.0,-7.774378776550293,-12,9979.0
4960,0.3201313316822052,-2.8491628170013428,-168,7014.0,-4.322215557098389,-240,9979.0
4970,0.3202402591705322,0.9409008026123047,37,7014.0,-8.57026195526123,-238,9979.0
4980,0.3206198215484619,0.2705007791519165,92,7014.0,2.36094069480896,70,9979.0
4990,0.3212500214576721,0.9597198367118835,-65,7014.0,8.288419723510742,20,9979.0
5000,0.32170671224594116,2.5674562454223633,43,7014.0,17.34461212158203,181,9979.0
5010,0.32296979427337646,4.989508152008057,269,7014.0,16.137866973876953,292,9979.0
5020,0.32337334752082825,2.917283535003662,6,7014.0,19.34366798400879,337,9979.0
5030,0.32380175590515137,2.029787540435791,-9,7014.0,14.806692123413086,123,9979.0
5040,0.32425832748413086,1.1737806797027588,25,7014.0,9.337251663208008,215,9979.0
5050,0.3248123526573181,-3.1009910106658936,29,7014.0,4.563694953918457,265,9979.0
5060,0.32526081800460815,-2.644515037536621,-143,7014.0,3.026655435562134,-55,9979.0
5070,0.32579487562179565,0.6995089054107666,-93,7014.0,-4.693258285522461,-275,9979.0
5080,0.3263414204120636,0.5815529227256775,94,7014.0,-11.050135612487793,-15,9979.0
5090,0.32689765095710754,4.908811569213867,80,7014.0,-7.3207597732543945,-62,9979.0
5100,0.3258659243583679,7.651479721069336,30,7014.0,-7.065234184265137,-212,9979.0
5110,0.32630011439323425,7.73752498626709,169,7014.0,-9.367613792419434,-10,9979.0
5120,0.32672053575515747,9.152310371398926,96,7014.0,0.620112955570221,136,9979.0
5130,0.32711708545684814,0.06253516674041748,-37,7014.0,0.2788565456867218,-59,9979.0
5140,0.32651618123054504,2.5055034160614014,45,7014.0,5.261245250701904,162,9979.0
5150,0.3268123269081116,-1.526241421699524,-12,7014.0,6.743386745452881,172,9979.0
5160,0.3270774781703949,0.9111375212669373,-138,7014.0,9.23190689086914,-121,9979.0
5170,0.3273182213306427,0.2931396961212158,-9,7014.0,5.513015270233154,27,9979.0
5180,0.32655104994773865,-3.7982254028320312,8,7014.0,-0.9232695698738098,52,9979.0
5190,0.3268226385116577,-4.948873043060303,-117,7014.0,-4.547585964202881,-150,9979.0
5200,0.3270357549190521,-5.159264087677002,-37,7014.0,-5.11332368850708,-212,9979.0
5210,0.3272514045238495,-0.6636567711830139,186,7014.0,-6.91402530670166,-75,9979.0
5220,0.3274328410625458,7.601714611053467,-56,7014.0,-10.088888168334961,-52,9979.0
5230,0.3262769281864166,2.8520302772521973,-130,7014.0,-8.476014137268066,-163,9979.0
5240,0.32640719413757324,-0.4364449679851532,27,7014.0,-3.274034023284912,13,9979.0
5250,0.32654839754104614,1.0757830142974854,38,7014.0,2.7734715938568115,240,9979.0
5260,0.3266589045524597,4.810187339782715,-187,7014.0,5.935116291046143,207,9979.0
5270,0.3269434869289398,-2.016700267791748,-9,7014.0,5.850218772888184,146,9979.0
5280,0.3270881474018097,-2.31815242767334,31,7014.0,6.533878326416016,249,9979.0
5290,0.3272171914577484,1.768349051475525,53,7014.0,6.332751274108887,55,9979.0
5300,0.32740360498428345,-0.3682607114315033,-78,7014.0,1.372766375541687,-128,9979.0
5310,0.32757019996643066,-0.3841143250465393,38,7014.0,-2.3141822814941406,10,9979.0
5320,0.32668572664260864,2.51019549369812,99,7014.0,-0.665883481502533,139,9979.0
5330,0.32678312063217163,2.232226610183716,-14,7014.0,-6.396760940551758,-121,9979.0
5340,0.32683247327804565,3.655423641204834,81,7014.0,-6.192863941192627,-90,9979.0
5350,0.3268536925315857,2.90167498588562,99,7014.0,-4.695780277252197,137,9979.0
5360,0.32690975069999695,4.271847248077393,-23,7014.0,-5.299933910369873,-7,9979.0
5370,0.32696086168289185,0.22942298650741577,-102,7014.0,0.34451091289520264,-81,9979.0
5380,0.32707077264785767,-3.8353922367095947,10,7014.0,1.3349945545196533,88,9979.0
5390,0.3271822929382324,-4.152397155761719,-105,7014.0,2.967149257659912,91,9979.0
5400,0.32913002371788025,-4.592033863067627,-222,7014.0,2.452434778213501,-129,9979.0
5410,0.329402357339859,-7.404417991638184,44,7014.0,-3.6609697341918945,-94,9979.0
5420,0.3296477794647217,-6.725810527801514,61,7014.0,-3.728827714920044,40,9979.0
5430,0.3298865854740143,-3.7192089557647705,-125,7014.0,-1.313925862312317,-4,9979.0
5440,0.33028385043144226,-4.41413688659668,-100,7014.0,-1.645577073097229,-152,9979.0
5450,0.3300493359565735,-2.757838249206543,50,7014.0,-5.436723709106445,-48,9979.0
5460,0.33031174540519714,-4.3586883544921875,-77,7014.0,1.2234320640563965,208,9979.0
5470,0.33068230748176575,-2.1012134552001953,-134,7014.0,-4.7912917137146,-98,9979.0
5480,0.3310253620147705,-2.7866950035095215,-54,7014.0,1.613434076309204,66,9979.0
5490,0.331300288438797,1.231649398803711,45,7014.0,0.17712602019309998,222,9979.0
5500,0.3317188024520874,4.298141956329346,12,7014.0,2.156980037689209,-127,9979.0
5510,0.3321760296821594,4.628296375274658,219,7014.0,0.6656497716903687,211,9979.0
5520,0.3327029049396515,4.092719554901123,138,7014.0,-8.366484642028809,207,9979.0
5530,0.3331539034843445,1.2224243879318237,-86,7014.0,-1.2593202590942383,80,9979.0
5540,0.33316096663475037,2.2937936782836914,53,7014.0,-6.485845565795898,-48,9979.0
5550,0.3336165249347687,-1.344186782836914,59,7014.0,-0.4435373544692993,133,9979.0
5560,0.3341551721096039,2.5206427574157715,-80,7014.0,-2.3314661979675293,-23,9979.0
5570,0.3346693813800812,2.6321983337402344,-81,7014.0,-4.087817668914795,-290,9979.0
5580,0.3339230716228485,1.4250366687774658,176,7014.0,-1.2628029584884644,57,9979.0
5590,0.33439597487449646,2.7467541694641113,38,7014.0,2.7671892642974854,56,9979.0
5600,0.33504366874694824,5.592915058135986,10,7014.0,3.1038622856140137,-15,9979.0
5610,0.33555272221565247,7.17476224899292,234,7014.0,0.7025142312049866,112,9979.0
5620,0.33616602420806885,5.45307731628418,122,7014.0,0.8089110851287842,175,9979.0
5630,0.33661001920700073,2.5105109214782715,-150,7014.0,-1.0371049642562866,-35,9979.0
5640,0.33707866072654724,1.3734627962112427,70,7014.0,0.24588848650455475,-9,9979.0
5650,0.33753329515457153,2.4180140495300293,69,7014.0,-2.9943113327026367,75,9979.0
5660,0.33796873688697815,1.788629412651062,-117,7014.0,-0.6261696815490723,-123,9979.0
5670,0.33722999691963196,-1.830453634262085,-9,7014.0,-2.2861499786376953,-162,9979.0
5680,0.33757707476615906,1.7061598300933838,99,7014.0,1.3219244480133057,129,9979.0
5690,0.3379054665565491,0.3911619186401367,-67,7014.0,2.3949525356292725,42,9979.0
5700,0.33824390172958374,-0.8352939486503601,-26,7014.0,4.280632972717285,-104,9979.0
5710,0.33874911069869995,2.017608880996704,156,7014.0,1.331608772277832,12,9979.0
5720,0.3390844762325287,-2.821230173110962,5,7014.0,-1.1372029781341553,189,9979.0
5730,0.3393922448158264,-1.4471535682678223,-153,7014.0,1.1406948566436768,-57,9979.0
5740,0.33963868021965027,-3.862292528152466,14,7014.0,6.448754787445068,91,9979.0
5750,0.33984798192977905,-2.0379743576049805,87,7014.0,4.457186698913574,180,9979.0
5760,0.3389318585395813,-2.7157816886901855,-98,7014.0,1.0401713848114014,-68,9979.0
5770,0.3390970230102539,-3.3973495960235596,-144,7014.0,10.710906028747559,-245,9979.0
5780,0.33929893374443054,-2.367013692855835,56,7014.0,-2.4773318767547607,-69,9979.0
5790,0.33948713541030884,1.6570408344268799,108,7014.0,-2.8499577045440674,56,9979.0
5800,0.340698778629303,2.170058250427246,-24,7014.0,-1.5327694416046143,-106,9979.0
5810,0.34093809127807617,5.112785816192627,76,7014.0,-2.787687063217163,-123,9979.0
5820,0.3411779999732971,3.9851250648498535,152,7014.0,-6.569508075714111,-10,9979.0
5830,0.3414294719696045,2.6401898860931396,45,7014.0,-0.6440163850784302,17,9979.0
5840,0.34099331498146057,3.2696373462677,1,7014.0,-2.674969434738159,-131,9979.0
5850,0.3413147032260895,1.8950141668319702,50,7014.0,-0.48693397641181946,-34,9979.0
5860,0.3415515124797821,-3.2303285598754883,22,7014.0,1.8474382162094116,261,9979.0
5870,0.34183695912361145,-0.9770542979240417,-143,7014.0,6.45258092880249,38,9979.0
5880,0.3420935571193695,-1.6042263507843018,-67,7014.0,4.290078639984131,-43,9979.0
5890,0.341903418302536,-0.690853476524353,93,7014.0,0.9765415191650391,158,9979.0
5900,0.3421408236026764,0.7195526361465454,35,7014.0,6.950470924377441,304,9979.0
5910,0.34236255288124084,1.7855623960494995,-147,7014.0,2.330780506134033,14,9979.0
5920,0.34256038069725037,-0.6149142980575562,11,7014.0,0.17118412256240845,44,9979.0
5930,0.3420373499393463,-1.8248827457427979,130,7014.0,3.370913505554199,336,9979.0
5940,0.3422226309776306,-4.85490608215332,-69,7014.0,4.927896022796631,26,9979.0
5950,0.3423711061477661,-0.1453201174736023,-111,7014.0,1.9807465076446533,-46,9979.0
5960,0.34254780411720276,-2.8537116050720215,21,7014.0,-1.0789965391159058,163,9979.0
5970,0.3427561819553375,-2.6792895793914795,16,7014.0,1.8824174404144287,95,9979.0
5980,0.3430909216403961,0.5697871446609497,-144,7014.0,0.222913458943367,-4,9979.0
5990,0.34332337975502014,-0.1664411574602127,13,7014.0,-0.7218056917190552,-44,9979.0
6000,0.3436434864997864,-4.855785369873047,4,7014.0,1.388380765914917,226,9979.0
6010,0.34393343329429626,-4.249320030212402,-111,7014.0,5.284975528717041,15,9979.0
6020,0.3438412845134735,-6.359960556030273,-218,7014.0,3.5741100311279297,-123,9979.0
6030,0.3440941274166107,4.164488792419434,218,7014.0,-0.1278640478849411,81,9979.0
6040,0.34435683488845825,11.918234825134277,251,7014.0,0.43181663751602173,188,9979.0
6050,0.3446355164051056,7.088576316833496,-19,7014.0,2.359130620956421,-12,9979.0
6060,0.3449403941631317,-0.564276397228241,-164,7014.0,-2.8068292140960693,-60,9979.0
6070,0.3435285687446594,-14.398578643798828,-218,7014.0,1.2238621711730957,188,9979.0
6080,0.34368032217025757,-14.717351913452148,-264,7014.0,1.4627960920333862,72,9979.0
6090,0.3439539074897766,-13.584300994873047,-318,7014.0,2.492460012435913,-177,9979.0
6100,0.34424468874931335,-10.5580415725708,-34,7014.0,-1.1777621507644653,125,9979.0
6110,0.34449899196624756,-4.9592766761779785,53,7014.0,1.195433497428894,25,9979.0
6120,0.34485095739364624,0.28444889187812805,-25,7014.0,2.571967363357544,-105,9979.0
6130,0.3452802002429962,3.662108898162842,47,7014.0,-0.42253315448760986,47,9979.0
6140,0.34568238258361816,6.591355323791504,133,7014.0,1.9252772331237793,260,9979.0
6150,0.34675222635269165,11.084253311157227,142,7014.0,-8.581515312194824,-123,9979.0
6160,0.34732264280319214,11.730265617370605,199,7014.0,-6.962735652923584,-244,9979.0
6170,0.34790560603141785,15.333927154541016,332,7014.0,-7.286336421966553,25,9979.0
6180,0.34850358963012695,16.55243492126465,271,7014.0,-2.5052897930145264,79,9979.0
6190,0.3491637706756592,13.771117210388184,81,7014.0,0.5016370415687561,-158,9979.0
6200,0.34991005063056946,11.263401985168457,250,7014.0,1.9208799600601196,27,9979.0
6210,0.3506435751914978,8.971256256103516,154,7014.0,5.430852890014648,128,9979.0
6220,0.3512333333492279,9.002518653869629,-45,7014.0,5.217898845672607,-106,9979.0
6230,0.3518330156803131,-0.21411463618278503,30,7014.0,0.23109440505504608,26,9979.0
6240,0.3532254695892334,3.3676977157592773,112,7014.0,1.6747639179229736,157,9979.0
6250,0.3538476824760437,2.7850089073181152,13,7014.0,-0.33106720447540283,28,9979.0
6260,0.3543664216995239,3.2485334873199463,34,7014.0,-1.1222436428070068,-165,9979.0
6270,0.35473358631134033,7.040149688720703,256,7014.0,-4.768468856811523,-30,9979.0
6280,0.3561822175979614,7.82385778427124,140,7014.0,-7.242462635040283,154,9979.0
6290,0.35697782039642334,15.462048530578613,227,7014.0,-10.967753410339355,-36,9979.0
6300,0.35769471526145935,13.894774436950684,256,7014.0,-1.896956443786621,-104,9979.0
6310,0.35824868083000183,20.361042022705078,407,7014.0,-0.5090746283531189,86,9979.0
6320,0.35880908370018005,22.147994995117188,282,7014.0,1.66182541847229,-8,9979.0
6330,0.35937774181365967,18.734371185302734,222,7014.0,6.182501792907715,-178,9979.0
6340,0.3598279654979706,13.334732055664062,322,7014.0,0.8437032699584961,131,9979.0
6350,0.3603878319263458,9.061854362487793,104,7014.0,3.111738443374634,51,9979.0
6360,0.3608224093914032,6.188455581665039,0,7014.0,4.022465229034424,-78,9979.0
6370,0.36070042848587036,-0.05259926989674568,155,7014.0,5.081254005432129,141,9979.0
6380,0.3610248267650604,0.19707760214805603,89,7014.0,2.8832550048828125,192,9979.0
6390,0.3613106906414032,1.821199893951416,-107,7014.0,3.214287757873535,-13,9979.0
6400,0.3615328073501587,3.438302516937256,70,7014.0,-1.0257954597473145,13,9979.0
6410,0.36172518134117126,4.411516189575195,148,7014.0,-2.119560718536377,48,9979.0
6420,0.3631569743156433,3.2029471397399902,-80,7014.0,-4.829733848571777,-150,9979.0
6430,0.3633778691291809,-1.6240565776824951,-164,7014.0,-9.057795524597168,-427,9979.0
6440,0.3636428415775299,-11.60241413116455,-16,7014.0,-12.441890716552734,-74,9979.0
6450,0.3638949692249298,-8.9037504196167,-191,7014.0,-8.539950370788574,-129,9979.0
6460,0.36532413959503174,-8.8158597946167,-242,7014.0,-4.847987174987793,-258,9979.0
6470,0.36565378308296204,-13.676178932189941,-147,7014.0,-3.252352237701416,27,9979.0
6480,0.36602944135665894,-10.526679039001465,-71,7014.0,4.2882866859436035,167,9979.0
6490,0.3663578927516937,-3.25453519821167,-202,7014.0,7.665038585662842,85,9979.0
6500,0.3651907742023468,-1.340474247932434,2,7014.0,4.320250988006592,42,9979.0
6510,0.36544233560562134,0.37474650144577026,152,7014.0,1.9898110628128052,-17,9979.0
6520,0.36569109559059143,1.9839715957641602,-48,7014.0,2.05405330657959,-20,9979.0
6530,0.36597946286201477,5.348453998565674,-139,7014.0,-2.6960487365722656,-357,9979.0
6540,0.36625099182128906,-1.7417511940002441,-28,7014.0,-2.9660089015960693,-137,9979.0
6550,0.36597350239753723,-4.04548454284668,-44,7014.0,-8.145095825195312,-33,9979.0
6560,0.36616984009742737,-9.882750511169434,-225,7014.0,-3.335380792617798,-155,9979.0
6570,0.36634355783462524,-11.083645820617676,-173,7014.0,-1.6212509870529175,-54,9979.0
6580,0.36657315492630005,-13.768486976623535,35,7014.0,4.643466949462891,233,9979.0
6590,0.36601218581199646,-6.521894454956055,-183,7014.0,3.2519569396972656,21,9979.0
6600,0.36603567004203796,-6.0457682609558105,-202,7014.0,4.85392951965332,-18,9979.0
6610,0.3661420941352844,-7.9672346115112305,-94,7014.0,7.296772003173828,133,9979.0
6620,0.3662124276161194,-7.972734451293945,-176,7014.0,4.390214920043945,45,9979.0
6630,0.36630240082740784,-11.696990966796875,-416,7014.0,1.4439945220947266,-116,9979.0
6640,0.3649239242076874,-14.733983039855957,-296,7014.0,-1.5885027647018433,-68,9979.0
6650,0.364719957113266,-13.601553916931152,-50,7014.0,-0.15561668574810028,40,9979.0
6660,0.36469078063964844,-8.043445587158203,-184,7014.0,-2.369405508041382,-87,9979.0
6670,0.36448219418525696,-11.238429069519043,-206,7014.0,-2.6376776695251465,-20,9979.0
6680,0.3638046681880951,-7.334417343139648,13,7014.0,0.7950862646102905,161,9979.0
6690,0.3637339770793915,-7.667802810668945,-73,7014.0,-4.2213134765625,-71,9979.0
6700,0.36362868547439575,-10.944543838500977,-250,7014.0,-2.1559336185455322,-65,9979.0
6710,0.36353904008865356,-8.357649803161621,-49,7014.0,3.306420087814331,135,9979.0
6720,0.3635174632072449,-4.264626502990723,-179,7014.0,1.2563430070877075,-67,9979.0
6730,0.361907422542572,-2.958261489868164,-120,7014.0,-5.778233528137207,-388,9979.0
6740,0.36198365688323975,-6.900643348693848,9,7014.0,3.0646846294403076,82,9979.0
6750,0.3618764579296112,-9.583608627319336,-188,7014.0,4.868309020996094,115,9979.0
6760,0.3620333969593048,-11.396132469177246,-304,7014.0,5.297389507293701,-101,9979.0
6770,0.3609899580478668,-12.52100658416748,-124,7014.0,0.03946533799171448,62,9979.0
6780,0.3610473871231079,-15.058940887451172,-157,7014.0,0.7710477709770203,184,9979.0
6790,0.3610244393348694,-11.806325912475586,-267,7014.0,2.981299638748169,79,9979.0
6800,0.3611863851547241,-11.527881622314453,-193,7014.0,-3.5813241004943848,-64,9979.0
6810,0.3615029454231262,-11.576794624328613,-9,7014.0,-1.2000340223312378,123,9979.0
6820,0.361686110496521,-7.026157379150391,-258,7014.0,-1.9283467531204224,18,9979.0
6830,0.36183691024780273,-6.128936290740967,-224,7014.0,-2.6669235229492188,-69,9979.0
6840,0.3620113432407379,-8.952956199645996,-75,7014.0,1.6776373386383057,70,9979.0
6850,0.36216795444488525,-6.5305914878845215,-79,7014.0,1.8829401731491089,130,9979.0
6860,0.3630455732345581,-4.045320987701416,-239,7014.0,2.7855560779571533,-4,9979.0
6870,0.36324968934059143,0.187985360622406,9,7014.0,2.874418020248413,74,9979.0
6880,0.36357957124710083,1.598486304283142,100,7014.0,0.5181335806846619,100,9979.0
6890,0.36383432149887085,0.6290615797042847,-63,7014.0,3.089456081390381,-47,9979.0
6900,0.3645782768726349,-2.528796672821045,-95,7014.0,4.482266426086426,54,9979.0
6910,0.3649194538593292,-4.972921371459961,23,7014.0,0.46086761355400085,144,9979.0
6920,0.3651825487613678,-7.6740336418151855,-177,7014.0,-0.6164565682411194,-33,9979.0
6930,0.36550599336624146,-10.939360618591309,-185,7014.0,-4.8458404541015625,-207,9979.0
6940,0.36625558137893677,-10.464973449707031,-40,7014.0,-5.7757182121276855,-12,9979.0
6950,0.3665723502635956,-7.209434986114502,-73,7014.0,-6.647796154022217,-92,9979.0
6960,0.3668724298477173,-4.019826889038086,-220,7014.0,-5.587626934051514,-214,9979.0
6970,0.3671567738056183,-2.414332389831543,45,7014.0,-3.418858528137207,-38,9979.0
6980,0.3674185276031494,-0.4206724166870117,64,7014.0,-0.41385865211486816,112,9979.0
6990,0.36788350343704224,6.2694478034973145,-5,7014.0,3.1368119716644287,-33,9979.0
7000,0.3681906759738922,5.741056442260742,72,7014.0,0.9805061221122742,-74,9979.0
7010,0.3684804439544678,8.71033763885498,197,7014.0,5.736931800842285,107,9979.0
7020,0.36874446272850037,8.61587905883789,94,7014.0,5.008330821990967,66,9979.0
7030,0.36907556653022766,8.585917472839355,88,7014.0,3.9320247173309326,-139,9979.0
7040,0.3693314492702484,10.11376953125,229,7014.0,-1.0817105770111084,98,9979.0
7050,0.3696056604385376,8.509588241577148,155,7014.0,-3.150651216506958,-17,9979.0
7060,0.36983004212379456,8.0408353805542,36,7014.0,-3.5070645809173584,-154,9979.0
7070,0.3700559735298157,8.710997581481934,223,7014.0,-5.279348850250244,-33,9979.0
7080,0.3706522583961487,5.232444763183594,259,7014.0,-7.803513050079346,49,9979.0
7090,0.3709023892879486,4.929220676422119,27,7014.0,1.7690595388412476,-43,9979.0
7100,0.3711754381656647,4.774447917938232,97,7014.0,6.420236110687256,88,9979.0
7110,0.3714134395122528,2.941260814666748,171,7014.0,13.79350471496582,376,9979.0
7120,0.3710516393184662,0.5076448321342468,-58,7014.0,8.916306495666504,159,9979.0
7130,0.3712523579597473,1.29790461063385,35,7014.0,8.608465194702148,93,9979.0
7140,0.3715418577194214,0.040720727294683456,133,7014.0,5.752795696258545,223,9979.0
7150,0.3717806935310364,-0.40174081921577454,-7,7014.0,2.1958987712860107,30,9979.0
7160,0.3724052309989929,2.9683940410614014,-131,7014.0,-7.449518203735352,-250,9979.0
7170,0.3726564347743988,2.811581611633301,67,7014.0,-5.08537483215332,-44,9979.0
7180,0.3728778064250946,-0.7340706586837769,61,7014.0,-1.3197511434555054,33,9979.0
7190,0.3730710446834564,4.547772407531738,-75,7014.0,-5.190189361572266,-133,9979.0
7200,0.37323981523513794,7.074785232543945,131,7014.0,-2.7012386322021484,-66,9979.0
7210,0.3736858069896698,5.733309745788574,237,7014.0,0.7305192351341248,181,9979.0
7220,0.37382596731185913,5.065377712249756,11,7014.0,2.9475929737091064,-75,9979.0
7230,0.3739676773548126,5.607213973999023,-35,7014.0,2.28377103805542,-187,9979.0
7240,0.3741540014743805,-0.4995082914829254,143,7014.0,-4.72619104385376,176,9979.0
7250,0.37465959787368774,4.334693431854248,1,7014.0,7.012062072753906,49,9979.0
7260,0.37492597103118896,0.7463514804840088,-72,7014.0,5.105884075164795,-81,9979.0
7270,0.3751547634601593,-0.9336077570915222,67,7014.0,2.2693207263946533,-15,9979.0
7280,0.37536901235580444,3.794959306716919,279,7014.0,-0.9392819404602051,14,9979.0
7290,0.3755970001220703,3.635608434677124,6,7014.0,-6.867812633514404,-59,9979.0
7300,0.376771479845047,1.9999498128890991,52,7014.0,-5.4259209632873535,-177,9979.0
7310,0.3769790232181549,5.198386192321777,164,7014.0,-7.831977844238281,-86,9979.0
7320,0.377175897359848,6.667335510253906,-69,7014.0,-9.386453628540039,-321,9979.0
7330,0.3773929178714752,6.762262344360352,183,7014.0,-8.780476570129395,-277,9979.0
7340,0.37788763642311096,5.757820129394531,218,7014.0,-5.635326385498047,-28,9979.0
7350,0.37811365723609924,3.978093147277832,5,7014.0,-0.3731631338596344,-60,9979.0
7360,0.37829387187957764,1.8899245262145996,24,7014.0,4.311642646789551,-120,9979.0
7370,0.3784404993057251,-1.7222427129745483,112,7014.0,3.2805473804473877,85,9979.0
7380,0.37855687737464905,-1.423158049583435,-41,7014.0,2.8295280933380127,107,9979.0
7390,0.37760066986083984,0.18901611864566803,-68,7014.0,4.691357135772705,-67,9979.0
7400,0.3776821494102478,-1.0010977983474731,93,7014.0,2.0204672813415527,-29,9979.0
7410,0.3777879774570465,0.37502625584602356,165,7014.0,0.05399976670742035,81,9979.0
7420,0.3779090940952301,2.3681015968322754,14,7014.0,-6.4696125984191895,-169,9979.0
7430,0.3756418228149414,1.5272282361984253,-44,7014.0,-3.6435904502868652,-228,9979.0
7440,0.37561535835266113,-2.1835520267486572,70,7014.0,-5.344205379486084,-13,9979.0
7450,0.37557440996170044,-2.8840835094451904,9,7014.0,-6.537386894226074,43,9979.0
7460,0.37556034326553345,4.739101886749268,-50,7014.0,-9.329224586486816,-138,9979.0
7470,0.37573376297950745,1.9036051034927368,-57,7014.0,-0.6582046151161194,77,9979.0
7480,0.3757437765598297,-1.6628987789154053,7,7014.0,1.8627040386199951,217,9979.0
7490,0.3757612705230713,0.7628584504127502,-105,7014.0,6.599722385406494,90,9979.0
7500,0.3757595717906952,-1.2269936800003052,-123,7014.0,7.304774284362793,-163,9979.0
7510,0.3758009374141693,1.7004365921020508,108,7014.0,2.5080997943878174,19,9979.0
7520,0.3759211301803589,3.283928394317627,16,7014.0,0.7684392333030701,29,9979.0
7530,0.37596604228019714,1.486554503440857,-69,7014.0,1.5077319145202637,-177,9979.0
7540,0.3760090470314026,3.030761241912842,64,7014.0,-1.1565423011779785,-75,9979.0
7550,0.37604063749313354,4.258273124694824,259,7014.0,-1.2240787744522095,67,9979.0
7560,0.3764640688896179,-1.8484201431274414,-57,7014.0,-2.4710841178894043,61,9979.0
7570,0.37652328610420227,-1.9737757444381714,33,7014.0,-3.1058170795440674,-84,9979.0
7580,0.37659963965415955,0.14688821136951447,84,7014.0,-10.592811584472656,-2,9979.0
7590,0.37666410207748413,-4.225739479064941,-66,7014.0,-10.675559043884277,-49,9979.0
7600,0.3767617642879486,-0.4915132224559784,-165,7014.0,-8.416516304016113,-160,9979.0
7610,0.3753002882003784,-1.6162357330322266,-7,7014.0,-3.7134432792663574,71,9979.0
7620,0.37530389428138733,0.3748282492160797,-67,7014.0,-1.1997965574264526,-5,9979.0
7630,0.375333696603775,0.1502312570810318,-150,7014.0,-3.3852689266204834,-296,9979.0
7640,0.375348836183548,0.6759833693504333,38,7014.0,-4.53537130355835,-74,9979.0
7650,0.3744553327560425,-0.7434449791908264,38,7014.0,-0.6878808736801147,-8,9979.0
7660,0.3745526671409607,0.7465602159500122,-67,7014.0,-1.3991847038269043,-202,9979.0
7670,0.37463414669036865,3.5924644470214844,157,7014.0,-2.1372764110565186,-10,9979.0
7680,0.37472280859947205,8.004801750183105,191,7014.0,0.49357205629348755,72,9979.0
7690,0.3745187819004059,1.4308091402053833,-106,7014.0,2.2329611778259277,-72,9979.0
7700,0.37455496191978455,-0.17800147831439972,42,7014.0,4.861286163330078,79,9979.0
7710,0.3745613992214203,1.1829742193222046,65,7014.0,2.9186995029449463,148,9979.0
7720,0.37455472350120544,2.4985132217407227,-96,7014.0,-2.119694471359253,-103,9979.0
7730,0.37454137206077576,1.9313328266143799,-7,7014.0,-0.44352492690086365,-62,9979.0
7740,0.3747325539588928,-2.8946993350982666,80,7014.0,-0.6004492044448853,104,9979.0
7750,0.37473616003990173,-0.8814774751663208,-90,7014.0,-2.3459417819976807,45,9979.0
7760,0.37473613023757935,-2.2494993209838867,-113,7014.0,-2.036547899246216,-329,9979.0
7770,0.37475770711898804,-1.1776894330978394,29,7014.0,-2.9267444610595703,-56,9979.0
7780,0.3760335147380829,-2.228827953338623,-75,7014.0,-2.767430543899536,86,9979.0
7790,0.3761560320854187,-4.686190605163574,-169,7014.0,5.205781936645508,-142,9979.0
7800,0.3762650191783905,-6.533359050750732,-28,7014.0,4.442166805267334,184,9979.0
7810,0.37636443972587585,-3.372894048690796,92,7014.0,-0.09283967316150665,224,9979.0
7820,0.376453697681427,-4.520166873931885,-123,7014.0,5.620231628417969,66,9979.0
7830,0.3783499002456665,-2.447721481323242,2,7014.0,6.601224422454834,89,9979.0
7840,0.3785421848297119,-1.0374093055725098,108,7014.0,7.777699947357178,288,9979.0
7850,0.3787200152873993,-1.7968544960021973,-7,7014.0,3.258720636367798,23,9979.0
7860,0.37885782122612,-4.783831596374512,-138,7014.0,1.2551051378250122,-323,9979.0
7870,0.38015004992485046,-1.6128838062286377,82,7014.0,-0.844347357749939,21,9979.0
7880,0.38027921319007874,0.4714633822441101,-14,7014.0,-1.276544213294983,1,9979.0
7890,0.38041049242019653,-3.268374443054199,-79,7014.0,-4.2666096687316895,-261,9979.0
7900,0.380588173866272,3.2335619926452637,157,7014.0,-6.579060077667236,-167,9979.0
7910,0.3808865547180176,0.7058773636817932,57,7014.0,-3.839195728302002,-80,9979.0
7920,0.38112491369247437,-2.1454625129699707,-43,7014.0,-3.7035417556762695,106,9979.0
7930,0.38138625025749207,-1.663286805152893,-28,7014.0,5.312033653259277,141,9979.0
7940,0.38165283203125,-4.7578325271606445,-77,7014.0,6.04243803024292,87,9979.0
7950,0.3819144666194916,-2.1172101497650146,21,7014.0,8.488130569458008,280,9979.0
7960,0.3821052312850952,-3.6117942333221436,-49,7014.0,11.240967750549316,115,9979.0
7970,0.382357656955719,-0.6303186416625977,-43,7014.0,9.488110542297363,40,9979.0
7980,0.3825768828392029,-1.8725168704986572,201,7014.0,1.9202288389205933,221,9979.0
7990,0.3827647864818573,0.9171125292778015,-117,7014.0,2.819040298461914,-56,9979.0
8000,0.3852357566356659,0.9566304683685303,0,7014.0,-1.3851405382156372,-78,9979.0
8010,0.385522723197937,-1.384063482284546,32,7014.0,-2.026977062225342,114,9979.0
8020,0.38579511642456055,-1.8929166793823242,-202,7014.0,-3.259979724884033,-214,9979.0
8030,0.38602113723754883,-2.2218101024627686,-2,7014.0,-2.164466142654419,3,9979.0
8040,0.3865278363227844,-0.5887500643730164,-1,7014.0,0.6184520721435547,40,9979.0
8050,0.38677582144737244,1.9934937953948975,-46,7014.0,1.704241156578064,-41,9979.0
8060,0.3869989514350891,0.31116095185279846,133,7014.0,3.7963037490844727,246,9979.0
8070,0.38720420002937317,3.0674209594726562,13,7014.0,9.767791748046875,171,9979.0
8080,0.3873826861381531,5.4905619621276855,-25,7014.0,7.97939920425415,65,9979.0
8090,0.38772475719451904,6.1156206130981445,189,7014.0,6.296615123748779,148,9979.0
8100,0.38789546489715576,3.4982080459594727,-44,7014.0,5.943292140960693,-39,9979.0
8110,0.3880133628845215,3.9760472774505615,50,7014.0,4.2385382652282715,-15,9979.0
8120,0.38811346888542175,2.0572433471679688,212,7014.0,-0.4836997091770172,146,9979.0
8130,0.3896309733390808,-1.9409797191619873,-40,7014.0,-0.5413979887962341,-69,9979.0
8140,0.3898041546344757,-3.390716314315796,16,7014.0,-2.2424380779266357,-8,9979.0
8150,0.38996192812919617,-3.5391685962677,4,7014.0,-11.513702392578125,79,9979.0
8160,0.3901176154613495,-3.5789294242858887,-140,7014.0,-3.883043050765991,-137,9979.0
8170,0.39032652974128723,-3.447779655456543,17,7014.0,-2.5902764797210693,48,9979.0
8180,0.3907046616077423,-0.8818066120147705,10,7014.0,0.7281673550605774,111,9979.0
8190,0.39087751507759094,-0.9875852465629578,-203,7014.0,1.3400639295578003,-110,9979.0
8200,0.3911040127277374,-1.3160561323165894,-18,7014.0,-2.3543243408203125,0,9979.0
8210,0.39124956727027893,1.0997934341430664,-31,7014.0,5.657885551452637,76,9979.0
8220,0.39053279161453247,0.16537299752235413,-68,7014.0,6.907478332519531,-72,9979.0
8230,0.3906768560409546,-2.207639217376709,161,7014.0,5.8955817222595215,117,9979.0
8240,0.39081892371177673,-3.3801352977752686,-80,7014.0,1.671685814857483,128,9979.0
8250,0.3908800184726715,-7.615756511688232,-111,7014.0,-0.047055453062057495,-34,9979.0
8260,0.38943836092948914,-8.073113441467285,-73,7014.0,-2.605623960494995,123,9979.0
8270,0.3893800377845764,-8.103531837463379,-228,7014.0,-7.438500881195068,-123,9979.0
8280,0.3892890214920044,-10.770885467529297,-147,7014.0,-3.566211700439453,-175,9979.0
8290,0.38919320702552795,-7.460046291351318,-43,7014.0,-4.740751266479492,-4,9979.0
8300,0.3891003727912903,-6.765982151031494,-177,7014.0,-0.8550246953964233,-163,9979.0
8310,0.38900306820869446,-3.1015074253082275,-32,7014.0,0.34749481081962585,-16,9979.0
8320,0.3889167904853821,1.7789641618728638,128,7014.0,3.068544626235962,308,9979.0
8330,0.388849139213562,-1.9905319213867188,-143,7014.0,3.737968683242798,69,9979.0
8340,0.3887878358364105,-0.09111910313367844,62,7014.0,6.710235118865967,119,9979.0
8350,0.38842424750328064,0.137145534157753,28,7014.0,5.650091171264648,258,9979.0
8360,0.3883044123649597,1.3387062549591064,-143,7014.0,0.48862844705581665,-129,9979.0
8370,0.38820719718933105,1.588528037071228,82,7014.0,-1.015559434890747,-75,9979.0
8380,0.3880879282951355,1.7108004093170166,41,7014.0,-1.3278571367263794,-13,9979.0
8390,0.38801831007003784,-0.08999194949865341,-61,7014.0,-5.127654075622559,-207,9979.0
8400,0.38756540417671204,1.342774748802185,59,7014.0,-8.885457992553711,-145,9979.0
8410,0.3875204026699066,5.1917405128479,156,7014.0,-14.545754432678223,-38,9979.0
8420,0.38748088479042053,0.19540970027446747,-77,7014.0,-6.148475646972656,-126,9979.0
8430,0.38747480511665344,-2.792738437652588,-14,7014.0,-3.677603244781494,110,9979.0
8440,0.38842564821243286,-1.5323349237442017,8,7014.0,2.397787094116211,47,9979.0
8450,0.3885030746459961,-2.3912487030029297,-122,7014.0,3.113079786300659,45,9979.0
8460,0.38858965039253235,1.128588080406189,98,7014.0,7.453822612762451,110,9979.0
8470,0.38865208625793457,4.146759033203125,37,7014.0,5.343999862670898,48,9979.0
8480,0.38872846961021423,6.476404666900635,20,7014.0,3.271991491317749,-162,9979.0
8490,0.3889002501964569,1.4713801145553589,135,7014.0,-0.1661725491285324,83,9979.0
8500,0.3889601528644562,2.6151251792907715,-50,7014.0,-1.682681918144226,-46,9979.0
8510,0.3890564441680908,1.3650153875350952,5,7014.0,-7.698102951049805,-207,9979.0
8520,0.3891638517379761,0.925108790397644,-28,7014.0,-9.555821418762207,-184,9979.0
8530,0.3891553580760956,1.8895267248153687,-55,7014.0,-8.189692497253418,-347,9979.0
8540,0.38923007249832153,0.9637721180915833,130,7014.0,-10.463457107543945,-92,9979.0
8550,0.3893297612667084,-0.06524919718503952,-99,7014.0,-6.354426860809326,-192,9979.0
8560,0.38939782977104187,-3.0006985664367676,44,7014.0,0.7883001565933228,114,9979.0
8570,0.38927462697029114,-2.7485949993133545,82,7014.0,-0.5231244564056396,58,9979.0
8580,0.38933882117271423,-2.3948543071746826,-76,7014.0,0.5586791634559631,-28,9979.0
8590,0.38941818475723267,-1.7884520292282104,145,7014.0,4.999488353729248,241,9979.0
8600,0.3895053267478943,-2.9565491676330566,-97,7014.0,1.498572587966919,25,9979.0
8610,0.38961172103881836,-0.056593067944049835,-13,7014.0,5.146998405456543,-30,9979.0
8620,0.38785940408706665,-1.441154956817627,52,7014.0,1.7513010501861572,176,9979.0
8630,0.3879076838493347,0.8980075120925903,-134,7014.0,1.9417146444320679,-134,9979.0
8640,0.3879474401473999,0.07967658340930939,65,7014.0,-1.1120771169662476,-9,9979.0
8650,0.3879911005496979,0.8525208234786987,93,7014.0,-1.3975847959518433,-15,9979.0
8660,0.38763535022735596,2.133816719055176,-10,7014.0,-5.062249183654785,-231,9979.0
8670,0.3876100778579712,2.6628506183624268,169,7014.0,-7.215031147003174,-13,9979.0
8680,0.3875604271888733,3.335845947265625,17,7014.0,-7.736583232879639,-68,9979.0
8690,0.387491375207901,1.898909330368042,-47,7014.0,-5.0580854415893555,-130,9979.0
8700,0.38836777210235596,0.8682317137718201,88,7014.0,1.7469505071640015,197,9979.0
8710,0.38835254311561584,0.47527167201042175,-134,7014.0,3.7349002361297607,5,9979.0
8720,0.3883468210697174,0.5865290760993958,12,7014.0,8.51321792602539,90,9979.0
8730,0.388335257768631,-0.22758246958255768,70,7014.0,8.8336820602417,216,9979.0
8740,0.3883264362812042,1.184372901916504,-113,7014.0,9.584004402160645,-8,9979.0
8750,0.38820385932922363,1.0965629816055298,146,7014.0,6.016531944274902,89,9979.0
8760,0.3882175385951996,1.7872402667999268,61,7014.0,-2.2979371547698975,153,9979.0
8770,0.388197124004364,-0.4509303867816925,-73,7014.0,-0.007404264062643051,-113,9979.0
8780,0.388195276260376,-3.9767987728118896,81,7014.0,-3.6180789470672607,30,9979.0
8790,0.3881136178970337,-2.3223066329956055,-50,7014.0,-4.1856794357299805,1,9979.0
8800,0.38804560899734497,-2.7663424015045166,-169,7014.0,-8.195120811462402,-206,9979.0
8810,0.38796764612197876,-0.5656512379646301,56,7014.0,-9.527764320373535,-33,9979.0
8820,0.3879278898239136,-1.867568850517273,-102,7014.0,-5.376009464263916,-145,9979.0
8830,0.387850284576416,1.9293372631072998,3,7014.0,-1.3287713527679443,-53,9979.0
8840,0.3854914605617523,-3.139023542404175,28,7014.0,3.1788041591644287,122,9979.0
8850,0.3853234648704529,-1.6405540704727173,-119,7014.0,6.710037708282471,-40,9979.0
8860,0.3851557672023773,-3.0893514156341553,29,7014.0,8.799850463867188,167,9979.0
8870,0.3849782943725586,-1.8340057134628296,25,7014.0,6.016818523406982,188,9979.0
8880,0.3841230571269989,-3.4224348068237305,-67,7014.0,7.023263454437256,29,9979.0
8890,0.383914977312088,-0.013378987088799477,120,7014.0,3.8761024475097656,154,9979.0
8900,0.38365527987480164,-1.1836531162261963,1,7014.0,1.8392423391342163,211,9979.0
8910,0.3834375739097595,3.1882481575012207,-114,7014.0,-1.725954294204712,-110,9979.0
8920,0.3831987977027893,-3.6249215602874756,16,7014.0,-7.839315414428711,-48,9979.0
8930,0.38304001092910767,-1.1716971397399902,-131,7014.0,-9.924385070800781,-166,9979.0
8940,0.38286396861076355,-1.4797189235687256,-68,7014.0,-7.702779769897461,-344,9979.0
8950,0.38269302248954773,-0.047966375946998596,97,7014.0,-9.01050853729248,-10,9979.0
8960,0.3825235962867737,-1.152478814125061,-79,7014.0,-1.7683440446853638,-137,9979.0
8970,0.38259807229042053,1.8981778621673584,24,7014.0,2.0363285541534424,53,9979.0
8980,0.3824440538883209,-0.097196564078331,63,7014.0,5.326661586761475,186,9979.0
8990,0.3822796046733856,0.32696402072906494,-37,7014.0,10.574625968933105,51,9979.0
9000,0.382101446390152,0.5945625901222229,116,7014.0,10.710028648376465,297,9979.0
9010,0.38271409273147583,1.3088200092315674,-59,7014.0,8.195527076721191,60,9979.0
9020,0.38254672288894653,-0.867861270904541,-113,7014.0,3.069615125656128,-58,9979.0
9030,0.3823619782924652,-2.1666979789733887,21,7014.0,-3.3413290977478027,7,9979.0
9040,0.3821709454059601,-4.15762186050415,-155,7014.0,-4.402689456939697,-43,9979.0
9050,0.381969153881073,-4.644686698913574,-78,7014.0,-8.70180892944336,-302,9979.0
9060,0.38104522228240967,-4.072689533233643,-24,7014.0,-6.805257797241211,-58,9979.0
9070,0.38080427050590515,-4.1155314445495605,-107,7014.0,-6.720216751098633,-164,9979.0
9080,0.380636602640152,-4.335395336151123,-43,7014.0,-2.1759984493255615,-157,9979.0
9090,0.38043680787086487,-4.27870512008667,109,7014.0,0.2236792892217636,270,9979.0
9100,0.3797449767589569,0.1921941339969635,-13,7014.0,2.475538492202759,80,9979.0
9110,0.3795534670352936,2.7030444145202637,-7,7014.0,5.6790642738342285,12,9979.0
9120,0.37939271330833435,0.3471764624118805,77,7014.0,6.904980182647705,248,9979.0
9130,0.3792523741722107,1.2400883436203003,-69,7014.0,3.2148807048797607,-111,9979.0
9140,0.37912482023239136,1.5536400079727173,117,7014.0,-0.21933914721012115,68,9979.0
9150,0.37931957840919495,-0.79954594373703,54,7014.0,0.5586397051811218,22,9979.0
9160,0.37921983003616333,5.328668117523193,27,7014.0,-1.0342026948928833,-104,9979.0
9170,0.3791511058807373,5.108142375946045,107,7014.0,-1.2214330434799194,72,9979.0
9180,0.37911444902420044,3.7229251861572266,57,7014.0,-1.602315068244934,0,9979.0
9190,0.38023078441619873,2.767076015472412,-158,7014.0,0.4586782455444336,-172,9979.0
9200,0.3802569806575775,0.8301102519035339,123,7014.0,0.0777270719408989,24,9979.0
9210,0.3802783191204071,-3.1038460731506348,-68,7014.0,5.12009334564209,70,9979.0
9220,0.3803199529647827,-2.5718910694122314,-56,7014.0,5.1757941246032715,-18,9979.0
9230,0.38060981035232544,-2.5033466815948486,155,7014.0,5.533660411834717,261,9979.0
9240,0.3807031214237213,-5.361619472503662,-83,7014.0,3.515373706817627,-21,9979.0
9250,0.38080891966819763,-1.0794157981872559,1,7014.0,0.5818246006965637,-59,9979.0
9260,0.3809499144554138,1.34463369846344,105,7014.0,-0.261254221200943,55,9979.0
9270,0.3811134994029999,5.62813663482666,63,7014.0,-1.5570482015609741,-124,9979.0
9280,0.38076892495155334,7.048996448516846,107,7014.0,-3.284597396850586,-147,9979.0
9290,0.3809286952018738,9.109455108642578,326,7014.0,-2.8246307373046875,164,9979.0
9300,0.3811224400997162,8.925543785095215,6,7014.0,-7.394312858581543,-79,9979.0
9310,0.3812970519065857,6.495544910430908,117,7014.0,-3.311633825302124,-45,9979.0
9320,0.3809189200401306,4.636435508728027,77,7014.0,0.8893761038780212,156,9979.0
9330,0.3810606300830841,7.298574447631836,-144,7014.0,3.8530282974243164,-140,9979.0
9340,0.3811512887477875,1.1515567302703857,103,7014.0,5.0214924812316895,133,9979.0
9350,0.38120901584625244,-1.7984497547149658,-90,7014.0,7.083263397216797,123,9979.0
9360,0.38079607486724854,-3.135033130645752,-43,7014.0,7.79667329788208,140,9979.0
9370,0.38081955909729004,-4.956071853637695,100,7014.0,6.3291015625,397,9979.0
9380,0.380851149559021,-1.336768388748169,-40,7014.0,5.171113014221191,17,9979.0
9390,0.3808745741844177,-2.7737512588500977,-109,7014.0,1.1847405433654785,-47,9979.0
9400,0.38085654377937317,-3.1183340549468994,-8,7014.0,-0.9396803975105286,-58,9979.0
9410,0.38086390495300293,3.7044248580932617,41,7014.0,-4.13731050491333,-150,9979.0
9420,0.3808125853538513,7.93057107925415,241,7014.0,-10.131082534790039,-64,9979.0
9430,0.3807354271411896,10.568531036376953,228,7014.0,-5.321836948394775,146,9979.0
9440,0.3806629180908203,8.81148910522461,-9,7014.0,-6.456726551055908,-128,9979.0
9450,0.37880825996398926,6.039953231811523,51,7014.0,-1.376428484916687,56,9979.0
9460,0.3785625696182251,3.965987205505371,57,7014.0,-0.14835770428180695,12,9979.0
9470,0.3782249987125397,3.737227439880371,-6,7014.0,6.11976432800293,-72,9979.0
9480,0.3779469430446625,0.9289555549621582,178,7014.0,3.279250144958496,170,9979.0
9490,0.3776065707206726,2.0545334815979004,37,7014.0,1.4583024978637695,27,9979.0
9500,0.37715160846710205,1.6108356714248657,-11,7014.0,-1.286165475845337,-105,9979.0
9510,0.3768252432346344,5.43922758102417,112,7014.0,-4.002193450927734,38,9979.0
9520,0.3764727711677551,7.059363842010498,57,7014.0,-5.931533336639404,-200,9979.0
9530,0.3762531876564026,8.087691307067871,120,7014.0,-5.702234268188477,-279,9979.0
9540,0.37759116291999817,5.543697357177734,212,7014.0,-6.752857208251953,-53,9979.0
9550,0.3775191307067871,7.415433883666992,67,7014.0,-7.64034366607666,-151,9979.0
9560,0.3775036931037903,6.839244365692139,190,7014.0,-11.106989860534668,-201,9979.0
9570,0.37747666239738464,4.88319206237793,165,7014.0,-3.704369306564331,153,9979.0
9580,0.3776822090148926,1.9640687704086304,-31,7014.0,0.6185098886489868,-21,9979.0
9590,0.37773066759109497,4.049034118652344,53,7014.0,6.510439872741699,143,9979.0
9600,0.3777433931827545,-1.027994155883789,-71,7014.0,13.323694229125977,171,9979.0
9610,0.37778934836387634,-0.040808744728565216,-37,7014.0,11.599197387695312,73,9979.0
9620,0.3778459429740906,-0.8412705659866333,126,7014.0,13.543049812316895,283,9979.0
9630,0.3767489492893219,-0.8713443279266357,-86,7014.0,11.826302528381348,101,9979.0
9640,0.3767535388469696,-0.4784533381462097,26,7014.0,7.049593925476074,81,9979.0
9650,0.3768215477466583,-1.726498007774353,80,7014.0,4.297418594360352,268,9979.0
9660,0.37701067328453064,-1.8071602582931519,-178,7014.0,-3.03912615776062,-214,9979.0
9670,0.3766358494758606,-5.4973907470703125,-65,7014.0,-8.337367057800293,-54,9979.0
9680,0.37673449516296387,-4.556142330169678,-72,7014.0,-5.419965744018555,-81,9979.0
9690,0.3768025040626526,-3.908374786376953,-55,7014.0,-6.106791973114014,-204,9979.0
9700,0.3768864870071411,-0.10858168452978134,191,7014.0,-5.1335225105285645,115,9979.0
9710,0.3770157992839813,-2.8206305503845215,-55,7014.0,-2.037367105484009,-135,9979.0
9720,0.37677010893821716,-0.537199854850769,-3,7014.0,0.35150033235549927,70,9979.0
9730,0.3768921494483948,-1.957572340965271,-49,7014.0,3.451117992401123,-87,9979.0
9740,0.37700897455215454,-3.3292715549468994,101,7014.0,2.8232383728027344,237,9979.0
9750,0.377158522605896,-3.255080223083496,-129,7014.0,6.231487274169922,54,9979.0
9760,0.37876978516578674,-4.756784915924072,-76,7014.0,5.4819746017456055,79,9979.0
9770,0.379019170999527,-3.7942752838134766,-67,7014.0,1.1844547986984253,9,9979.0
9780,0.37923601269721985,-2.8828108310699463,-113,7014.0,-0.4741247296333313,-163,9979.0
9790,0.3794213831424713,-4.145220756530762,138,7014.0,-1.194214105606079,135,9979.0
9800,0.3796180784702301,-0.9210386872291565,-47,7014.0,-3.009401321411133,-134,9979.0
9810,0.38193249702453613,2.5685737133026123,49,7014.0,-3.3678884506225586,0,9979.0
9820,0.382175087928772,1.5705749988555908,-33,7014.0,0.23913247883319855,-65,9979.0
9830,0.38242077827453613,1.42164945602417,17,7014.0,2.062476634979248,6,9979.0
9840,0.38267379999160767,4.209160327911377,148,7014.0,1.1241174936294556,170,9979.0
9850,0.3825320899486542,0.36769139766693115,-60,7014.0,5.2655348777771,17,9979.0
9860,0.38268333673477173,-0.46138671040534973,34,7014.0,4.48498010635376,176,9979.0
9870,0.38283249735832214,1.6212167739868164,-149,7014.0,4.182287693023682,-109,9979.0
9880,0.3829866051673889,-0.5508622527122498,120,7014.0,-0.3641669452190399,112,9979.0
9890,0.3849792778491974,-1.2725310325622559,-30,7014.0,1.327958106994629,-55,9979.0
9900,0.38521045446395874,-1.6452795267105103,24,7014.0,-1.7786049842834473,-96,9979.0
9910,0.3853923976421356,-2.6848318576812744,-58,7014.0,-2.2230498790740967,-20,9979.0
9920,0.3855781555175781,-3.659940719604492,-72,7014.0,-1.259394884109497,-100,9979.0
9930,0.3857363164424896,-4.164434432983398,-6,7014.0,-4.192523002624512,-3,9979.0
9940,0.38634079694747925,-0.5210833549499512,-67,7014.0,-4.639786243438721,-166,9979.0
9950,0.3864632248878479,0.4023871123790741,154,7014.0,-3.452420234680176,115,9979.0
9960,0.38655534386634827,2.789957284927368,-102,7014.0,-0.3485667109489441,-200,9979.0
9970,0.38668960332870483,1.0187830924987793,19,7014.0,0.49439138174057007,36,9979.0
9980,0.3880693018436432,0.6871886253356934,-55,7014.0,1.2152106761932373,-94,9979.0
9990,0.3881760835647583,-2.9891321659088135,-2,7014.0,3.6834630966186523,120,9979.0
10000,0.3883088529109955,-4.0202507972717285,19,7014.0,4.720203399658203,128,9979.0
10010,0.38840335607528687,-2.23947811126709,42,7014.0,4.8517632484436035,131,9979.0
10020,0.3879503905773163,-4.829224586486816,14,7014.0,3.7997992038726807,218,9979.0
10030,0.388028085231781,-3.3229873180389404,-140,7014.0,2.3940913677215576,-65,9979.0
10040,0.3880656063556671,-1.9529452323913574,27,7014.0,0.024394752457737923,65,9979.0
10050,0.3881041705608368,0.17312130331993103,-83,7014.0,-3.749145030975342,-188,9979.0
10060,0.3880925178527832,-0.6128242015838623,69,7014.0,-8.156597137451172,8,9979.0
10070,0.38886624574661255,-3.0040946006774902,-7,7014.0,-7.590648651123047,-131,9979.0
10080,0.38885554671287537,0.47412368655204773,-63,7014.0,-5.664943218231201,-24,9979.0
10090,0.38881102204322815,-1.654586911201477,-70,7014.0,-1.3700826168060303,9,9979.0
10100,0.38872429728507996,-1.2023077011108398,-85,7014.0,-1.818811058998108,-54,9979.0
10110,0.3883911669254303,-4.446013450622559,-59,7014.0,0.730841338634491,130,9979.0
10120,0.3882048428058624,-6.013939380645752,-217,7014.0,7.424838066101074,-95,9979.0
10130,0.3879646062850952,-7.114446640014648,28,7014.0,2.738677501678467,118,9979.0
10140,0.3877505660057068,-7.913780212402344,-176,7014.0,3.471961259841919,-62,9979.0
10150,0.38753145933151245,-7.752939224243164,-2,7014.0,2.9198601245880127,120,9979.0
10160,0.386679083108902,-7.773355007171631,-121,7014.0,-0.5757361650466919,-79,9979.0
10170,0.38639748096466064,-5.731119155883789,-141,7014.0,-6.437246322631836,-157,9979.0
10180,0.38608047366142273,-6.332109451293945,-27,7014.0,-9.436991691589355,-30,9979.0
10190,0.3857843577861786,-6.4963908195495605,-293,7014.0,-8.21858024597168,-299,9979.0
10200,0.38448938727378845,-4.808716773986816,18,7014.0,-6.914201736450195,-50,9979.0
10210,0.3841556906700134,-5.034805774688721,-120,7014.0,-3.497185230255127,-113,9979.0
10220,0.3838809132575989,-7.361973285675049,-100,7014.0,-3.5951287746429443,7,9979.0
10230,0.38359934091567993,-6.798439979553223,-102,7014.0,-2.0180249214172363,24,9979.0
10240,0.3832719326019287,-7.651324272155762,-156,7014.0,-1.590242862701416,-77,9979.0
10250,0.3836246430873871,-8.395981788635254,-4,7014.0,0.7235399484634399,241,9979.0
10260,0.3834029734134674,-5.139153003692627,-130,7014.0,0.4453212320804596,-78,9979.0
10270,0.38315534591674805,-1.7916830778121948,31,7014.0,-0.0766257718205452,71,9979.0
10280,0.38291797041893005,0.6543775200843811,-9,7014.0,0.6995829939842224,71,9979.0
10290,0.38360634446144104,-1.2702890634536743,-22,7014.0,2.931288957595825,-39,9979.0
10300,0.38343915343284607,1.7096080780029297,108,7014.0,0.0354771688580513,87,9979.0
10310,0.3832659125328064,3.5636098384857178,5,7014.0,-1.0497280359268188,-181,9979.0
10320,0.3831038773059845,3.0903189182281494,99,7014.0,0.3788169324398041,37,9979.0
10330,0.3837389647960663,0.7840976715087891,-4,7014.0,-2.516523838043213,-92,9979.0
10340,0.38370779156684875,-1.5158991813659668,40,7014.0,-3.315720319747925,77,9979.0
10350,0.3837079405784607,-2.070650100708008,11,7014.0,-0.30934929847717285,-85,9979.0
10360,0.383713036775589,-4.189450263977051,-54,7014.0,-1.5343520641326904,22,9979.0
10370,0.38378575444221497,-3.9853200912475586,-159,7014.0,0.6332042813301086,-39,9979.0
10380,0.38435956835746765,-2.6050236225128174,-30,7014.0,3.2474918365478516,-10,9979.0
10390,0.38450685143470764,-0.6663755178451538,-5,7014.0,2.6086063385009766,45,9979.0
10400,0.3846021890640259,-1.6831681728363037,-27,7014.0,0.560804009437561,-52,9979.0
10410,0.3847631812095642,-3.422135591506958,52,7014.0,1.4153180122375488,105,9979.0
10420,0.3837703764438629,-2.8321328163146973,-86,7014.0,-0.03847122937440872,-41,9979.0
10430,0.38387709856033325,-2.9314844608306885,44,7014.0,-3.011810064315796,89,9979.0
10440,0.3839883506298065,-1.6773163080215454,-142,7014.0,-0.613862931728363,-186,9979.0
10450,0.38403230905532837,0.8006666302680969,41,7014.0,-2.045595645904541,86,9979.0
10460,0.38440021872520447,2.1725127696990967,-101,7014.0,-0.7895826697349548,-159,9979.0
10470,0.3844326436519623,2.264726400375366,153,7014.0,-1.7496675252914429,61,9979.0
10480,0.38447123765945435,1.7596405744552612,-15,7014.0,1.6500729322433472,-147,9979.0
10490,0.38449662923812866,-1.029750108718872,229,7014.0,0.7259453535079956,84,9979.0
10500,0.38448643684387207,1.2954411506652832,-58,7014.0,1.6441442966461182,-56,9979.0
10510,0.38424938917160034,-2.790985345840454,76,7014.0,-2.122744560241699,160,9979.0
10520,0.3841611444950104,-0.27943485975265503,-198,7014.0,1.071144700050354,-155,9979.0
10530,0.38407373428344727,-1.78992760181427,3,7014.0,1.186767816543579,66,9979.0
10540,0.38399624824523926,2.238858461380005,-69,7014.0,3.4953627586364746,-79,9979.0
10550,0.38241004943847656,3.7590630054473877,197,7014.0,3.7986583709716797,212,9979.0
10560,0.38221752643585205,1.7107256650924683,15,7014.0,4.267038822174072,11,9979.0
10570,0.38197746872901917,0.7352023720741272,116,7014.0,1.3088749647140503,218,9979.0
10580,0.38171520829200745,-0.5653711557388306,-243,7014.0,-1.7103967666625977,-111,9979.0
10590,0.3814665377140045,0.4260266423225403,63,7014.0,-2.259814739227295,35,9979.0
10600,0.3806518018245697,1.1167237758636475,-40,7014.0,-3.929175853729248,-177,9979.0
10610,0.38037875294685364,0.6988669633865356,176,7014.0,-2.5958592891693115,73,9979.0
10620,0.38008326292037964,2.046058416366577,-13,7014.0,-5.296703338623047,-43,9979.0
10630,0.3797641098499298,5.389185428619385,160,7014.0,-4.507836818695068,17,9979.0
10640,0.3808179497718811,7.201810359954834,10,7014.0,-2.5745935440063477,-108,9979.0
10650,0.3805946111679077,3.634589672088623,126,7014.0,2.4606893062591553,65,9979.0
10660,0.380363404750824,5.823763847351074,81,7014.0,3.5113861560821533,-30,9979.0
10670,0.3801233768463135,5.2349090576171875,167,7014.0,6.0628862380981445,176,9979.0
10680,0.37878161668777466,5.161247730255127,72,7014.0,4.576208591461182,56,9979.0
10690,0.3784814774990082,4.890261173248291,122,7014.0,5.037386894226074,220,9979.0
10700,0.3781989514827728,3.4358904361724854,15,7014.0,7.533151149749756,94,9979.0
10710,0.3778930604457855,0.37680649757385254,12,7014.0,3.5812277793884277,30,9979.0
10720,0.3775748610496521,1.1287968158721924,16,7014.0,3.967149496078491,-95,9979.0
10730,0.3762441575527191,0.1547696888446808,11,7014.0,-1.9728305339813232,-91,9979.0
10740,0.3759166896343231,-2.762885808944702,31,7014.0,-4.7420454025268555,-12,9979.0
10750,0.3756420314311981,-1.257796287536621,17,7014.0,-8.311779975891113,-192,9979.0
10760,0.37539276480674744,-3.0654687881469727,-37,7014.0,-7.426931381225586,-92,9979.0
10770,0.37467455863952637,-1.9367910623550415,-108,7014.0,-7.449094295501709,-198,9979.0
10780,0.3743332326412201,-3.992903232574463,-22,7014.0,-6.195255279541016,-44,9979.0
10790,0.3740425109863281,0.5854472517967224,-39,7014.0,-2.8805360794067383,-101,9979.0
10800,0.37378591299057007,-0.4161636233329773,91,7014.0,3.48178768157959,124,9979.0
10810,0.3735858201980591,3.8270998001098633,28,7014.0,4.812880992889404,42,9979.0
10820,0.3748108744621277,5.809277534484863,144,7014.0,5.394298076629639,195,9979.0
10830,0.37474679946899414,9.63776683807373,14,7014.0,6.770607948303223,-53,9979.0
10840,0.37466609477996826,5.9564032554626465,147,7014.0,2.159209966659546,54,9979.0
10850,0.374628484249115,6.299582481384277,-10,7014.0,-2.5193402767181396,-230,9979.0
10860,0.3743738532066345,3.25543475151062,161,7014.0,-2.130661964416504,64,9979.0
10870,0.3743659257888794,4.834767818450928,4,7014.0,-6.405980587005615,-124,9979.0
10880,0.37439486384391785,2.923548936843872,118,7014.0,-5.483584403991699,6,9979.0
10890,0.3744478225708008,0.6273938417434692,-102,7014.0,-3.540919065475464,-157,9979.0
10900,0.3744480013847351,-0.24935564398765564,42,7014.0,-3.5447354316711426,28,9979.0
10910,0.37509188055992126,-1.2647477388381958,-97,7014.0,0.4082549810409546,22,9979.0
10920,0.3751966953277588,-1.0822986364364624,-26,7014.0,5.180361747741699,82,9979.0
10930,0.37534791231155396,-0.800701379776001,12,7014.0,6.940939903259277,173,9979.0
10940,0.37552452087402344,-2.939279079437256,-193,7014.0,6.544414043426514,-56,9979.0
10950,0.3754827678203583,-2.7851500511169434,62,7014.0,5.908118724822998,138,9979.0
10960,0.37557369470596313,-0.6600750088691711,-111,7014.0,4.499118804931641,-104,9979.0
10970,0.37564554810523987,-0.5456345081329346,158,7014.0,0.0839102640748024,242,9979.0
10980,0.37573182582855225,1.6810040473937988,-28,7014.0,-1.3486076593399048,-32,9979.0
10990,0.3762986958026886,1.7001384496688843,136,7014.0,-0.8110790848731995,112,9979.0
11000,0.3764333426952362,4.188406944274902,-77,7014.0,-1.7605929374694824,-233,9979.0
11010,0.37652668356895447,5.192356586456299,139,7014.0,-0.6156433820724487,8,9979.0
11020,0.3765318989753723,2.6501784324645996,-42,7014.0,-0.9163537621498108,-105,9979.0
11030,0.3765115737915039,-2.093305826187134,83,7014.0,0.10634644329547882,123,9979.0
11040,0.37674808502197266,-2.4165048599243164,-61,7014.0,0.17298318445682526,35,9979.0
11050,0.3768501281738281,-4.026999473571777,-43,7014.0,3.7264211177825928,90,9979.0
11060,0.3768931031227112,-3.8361434936523438,-160,7014.0,4.776372909545898,-39,9979.0
11070,0.37715762853622437,-4.6455464363098145,-30,7014.0,2.374507188796997,111,9979.0
11080,0.3762935400009155,-2.372407913208008,-74,7014.0,3.21077561378479,-38,9979.0
11090,0.3762650489807129,-1.7045040130615234,109,7014.0,4.5038323402404785,197,9979.0
11100,0.37624549865722656,-0.7864213585853577,13,7014.0,1.4381091594696045,-3,9979.0
11110,0.3762614130973816,0.5061715841293335,130,7014.0,0.7106244564056396,141,9979.0
11120,0.3753562271595001,4.229742050170898,-116,7014.0,1.5733535289764404,-158,9979.0
11130,0.3753070831298828,2.247123956680298,61,7014.0,-3.8635294437408447,-51,9979.0
11140,0.37518611550331116,2.713155746459961,-10,7014.0,-1.5997607707977295,-147,9979.0
11150,0.3750377893447876,1.405152440071106,122,7014.0,-3.5130228996276855,58,9979.0
11160,0.3748210072517395,0.5832193493843079,-49,7014.0,-3.899695634841919,4,9979.0
11170,0.3739774525165558,2.508894681930542,31,7014.0,0.4925038516521454,85,9979.0
11180,0.373809278011322,2.7953529357910156,59,7014.0,2.699861764907837,113,9979.0
11190,0.3736543655395508,1.1135553121566772,10,7014.0,6.291438579559326,-19,9979.0
11200,0.3735361695289612,6.221404552459717,119,7014.0,5.7236223220825195,189,9979.0
11210,0.3728809654712677,3.5913898944854736,4,7014.0,5.420310020446777,-58,9979.0
11220,0.37276729941368103,0.3459613621234894,129,7014.0,3.6236510276794434,256,9979.0
11230,0.372666597366333,-0.4348994493484497,-64,7014.0,4.1413140296936035,-22,9979.0
11240,0.37255510687828064,1.688535451889038,7,7014.0,-1.2948282957077026,-29,9979.0
11250,0.3724311590194702,-0.3881891071796417,10,7014.0,-3.794196844100952,-56,9979.0
11260,0.37135016918182373,5.2263665199279785,66,7014.0,-2.206474781036377,-149,9979.0
11270,0.37115898728370667,6.221010208129883,199,7014.0,-3.5477068424224854,16,9979.0
11280,0.3709917366504669,9.999480247497559,83,7014.0,-0.6859623789787292,-133,9979.0
11290,0.37084171175956726,6.841462135314941,218,7014.0,-1.3962253332138062,240,9979.0
11300,0.37123194336891174,4.541599273681641,27,7014.0,4.754150390625,1,9979.0
11310,0.3711088001728058,0.43713948130607605,42,7014.0,7.2989821434021,72,9979.0
11320,0.3709562122821808,0.7981797456741333,4,7014.0,4.7226481437683105,31,9979.0
11330,0.37075287103652954,-0.2630227208137512,-123,7014.0,1.3479018211364746,-89,9979.0
11340,0.37003108859062195,-1.195661187171936,76,7014.0,-0.15325245261192322,66,9979.0
11350,0.3698478043079376,3.976449728012085,-1,7014.0,1.689477562904358,-107,9979.0
11360,0.36965325474739075,3.3098397254943848,184,7014.0,-3.486607074737549,28,9979.0
11370,0.3694263696670532,2.99314022064209,87,7014.0,-4.556350231170654,-9,9979.0
11380,0.36917415261268616,2.2121050357818604,27,7014.0,-2.116816520690918,-52,9979.0
11390,0.36800989508628845,2.648000955581665,51,7014.0,-2.4469900131225586,101,9979.0
11400,0.3677001893520355,0.7594116926193237,-162,7014.0,-2.90629243850708,-191,9979.0
11410,0.3674454987049103,0.9786419868469238,-14,7014.0,2.0990865230560303,20,9979.0
11420,0.3672373592853546,-1.6714723110198975,-78,7014.0,-0.5920674800872803,-125,9979.0
11430,0.36703112721443176,-1.9926903247833252,-61,7014.0,-0.3321945369243622,103,9979.0
11440,0.36688628792762756,-2.9731671810150146,65,7014.0,-1.0895192623138428,30,9979.0
11450,0.3667641580104828,-1.825323224067688,-66,7014.0,-0.13083627820014954,-80,9979.0
11460,0.3666168749332428,-1.5944432020187378,86,7014.0,-0.20811206102371216,185,9979.0
11470,0.36644288897514343,-0.8443771004676819,-23,7014.0,-1.9725459814071655,-90,9979.0
11480,0.36524248123168945,-0.5357165932655334,6,7014.0,-0.7757933139801025,56,9979.0
11490,0.3649885654449463,0.7831189036369324,29,7014.0,5.907050132751465,130,9979.0
11500,0.3647337257862091,0.3833647668361664,-45,7014.0,4.032074451446533,-197,9979.0
11510,0.3645026683807373,1.3863989114761353,178,7014.0,1.5747326612472534,111,9979.0
11520,0.3645886778831482,2.197568655014038,-14,7014.0,-1.080980896949768,-58,9979.0
11530,0.3644202649593353,-0.3672560751438141,72,7014.0,-1.02987539768219,-58,9979.0
11540,0.36426424980163574,1.079656720161438,-158,7014.0,-5.0101141929626465,197,9979.0
11550,0.3641400933265686,-1.6553430557250977,-38,7014.0,-4.500208377838135,-243,9979.0
11560,0.3640831410884857,-1.7975908517837524,7,7014.0,-6.375678062438965,-115,9979.0
11570,0.36601921916007996,-2.5387349128723145,-105,7014.0,-5.285414695739746,-246,9979.0
11580,0.3660898804664612,-1.3099639415740967,103,7014.0,-3.3734660148620605,30,9979.0
11590,0.3661690652370453,2.2183635234832764,-38,7014.0,2.847425699234009,6,9979.0
11600,0.36627307534217834,-1.2215157747268677,19,7014.0,1.877608060836792,143,9979.0
11610,0.3674580156803131,-6.25846004486084,-91,7014.0,4.907685279846191,139,9979.0
11620,0.36761847138404846,-3.390364408493042,-132,7014.0,4.664849758148193,-72,9979.0
11630,0.36780405044555664,-7.156566619873047,-70,7014.0,4.046570301055908,40,9979.0
11640,0.36800169944763184,-7.5294294357299805,-174,7014.0,-2.0716161727905273,-140,9979.0
11650,0.3680996894836426,-5.246035575866699,-24,7014.0,-5.385488986968994,-46,9979.0
11660,0.3683125972747803,-3.144545555114746,21,7014.0,-9.190672874450684,-43,9979.0
11670,0.36856159567832947,-3.237074851989746,-117,7014.0,-6.131536483764648,-225,9979.0
11680,0.36875733733177185,-0.9291560649871826,18,7014.0,-7.45985746383667,-74,9979.0
11690,0.3689369559288025,0.6944054961204529,-63,7014.0,-6.221347808837891,-257,9979.0
11700,0.368321031332016,2.0372023582458496,135,7014.0,-5.874838352203369,18,9979.0
11710,0.3684387505054474,3.025374412536621,39,7014.0,-1.7803269624710083,-25,9979.0
11720,0.3685452342033386,2.087935209274292,41,7014.0,-0.8062567114830017,56,9979.0
11730,0.3686637282371521,2.1448850631713867,-7,7014.0,3.710134983062744,28,9979.0
11740,0.3681527078151703,3.283182144165039,-16,7014.0,1.843662977218628,-79,9979.0
11750,0.36831796169281006,0.9554987549781799,118,7014.0,1.3104002475738525,104,9979.0
11760,0.36851802468299866,-0.9593918919563293,-57,7014.0,4.781517505645752,23,9979.0
11770,0.3687037527561188,-1.1741183996200562,39,7014.0,2.3662805557250977,170,9979.0
11780,0.36887237429618835,-0.40569156408309937,-167,7014.0,2.1375322341918945,-149,9979.0
11790,0.3689190149307251,-1.111831545829773,35,7014.0,-1.709740400314331,116,9979.0
11800,0.36896273493766785,-0.9964722394943237,-72,7014.0,-2.8226680755615234,-38,9979.0
11810,0.3689925968647003,-3.1435563564300537,-9,7014.0,-2.163242816925049,27,9979.0
11820,0.3689941465854645,0.00820103194564581,-78,7014.0,-3.1055819988250732,-173,9979.0
11830,0.36897486448287964,2.1975817680358887,24,7014.0,-2.583658218383789,-68,9979.0
11840,0.3690001964569092,-1.2063894271850586,19,7014.0,0.6278776526451111,13,9979.0
11850,0.36901044845581055,3.898674249649048,24,7014.0,-4.2209248542785645,-130,9979.0
11860,0.36899301409721375,3.025453805923462,76,7014.0,-5.109284400939941,-85,9979.0
11870,0.36937302350997925,3.5189156532287598,-27,7014.0,-2.3958747386932373,-128,9979.0
11880,0.3692942261695862,0.8736435770988464,208,7014.0,-5.7123026847839355,90,9979.0
11890,0.3692971169948578,1.0093724727630615,-36,7014.0,-1.3162522315979004,-101,9979.0
11900,0.3692893385887146,1.5280003547668457,10,7014.0,-4.064398288726807,21,9979.0
11910,0.36927616596221924,-1.4059535264968872,-146,7014.0,-1.9978351593017578,-256,9979.0
11920,0.36872047185897827,-4.216833591461182,78,7014.0,-2.78855299949646,65,9979.0
11930,0.36867934465408325,-3.7752795219421387,-106,7014.0,-3.6009414196014404,-101,9979.0
11940,0.3686399459838867,-3.6246418952941895,-24,7014.0,-4.853625774383545,33,9979.0
11950,0.3685944080352783,-6.5317583084106445,-234,7014.0,-1.4083765745162964,-188,9979.0
11960,0.3674858808517456,-8.46474552154541,-133,7014.0,-0.7973877191543579,-8,9979.0
11970,0.36729323863983154,-8.24232292175293,-140,7014.0,-2.3984107971191406,-67,9979.0
11980,0.367112934589386,-8.157567024230957,-106,7014.0,-3.793806552886963,-47,9979.0
11990,0.366939902305603,-7.168325901031494,-87,7014.0,-3.4220077991485596,-8,9979.0
12000,0.3664502799510956,-7.004502773284912,-198,7014.0,-2.082493543624878,-140,9979.0
12010,0.3662431836128235,-0.9657436013221741,41,7014.0,-2.6889967918395996,-30,9979.0
12020,0.3660191595554352,2.231395721435547,-22,7014.0,-2.1280393600463867,-127,9979.0
12030,0.3657878339290619,7.201684951782227,204,7014.0,-4.6135382652282715,203,9979.0
12040,0.36547762155532837,4.774399280548096,-21,7014.0,0.4074132442474365,-181,9979.0
12050,0.3640888035297394,5.406132221221924,112,7014.0,-2.1158251762390137,-39,9979.0
12060,0.363618403673172,6.07019567489624,16,7014.0,0.1060948446393013,-119,9979.0
12070,0.3631666898727417,4.17203950881958,46,7014.0,0.3313397765159607,-19,9979.0
12080,0.36271655559539795,3.770084857940674,55,7014.0,2.4336137771606445,68,9979.0
12090,0.3625698387622833,1.242653727531433,77,7014.0,2.3920726776123047,54,9979.0
12100,0.36217644810676575,-1.3552467823028564,18,7014.0,3.029014825820923,70,9979.0
12110,0.36179450154304504,-0.8427624702453613,-128,7014.0,2.648277521133423,82,9979.0
12120,0.36146876215934753,-4.535082817077637,-9,7014.0,-1.432621955871582,79,9979.0
12130,0.3611917197704315,-4.156123638153076,-148,7014.0,4.601731777191162,-222,9979.0
12140,0.3604488968849182,-5.425873756408691,51,7014.0,-0.9075540900230408,20,9979.0
12150,0.36023855209350586,-1.5583235025405884,-60,7014.0,-2.068284749984741,-74,9979.0
12160,0.360056072473526,-3.7389960289001465,-4,7014.0,1.7193595170974731,173,9979.0
12170,0.3598622679710388,-4.484730243682861,-181,7014.0,7.5895562171936035,0,9979.0
12180,0.3581067621707916,-4.323477745056152,-82,7014.0,4.028758525848389,82,9979.0
12190,0.35785025358200073,-5.244938850402832,-200,7014.0,3.495314121246338,-125,9979.0
12200,0.35757994651794434,-5.469385147094727,-38,7014.0,3.1880545616149902,64,9979.0
12210,0.35740426182746887,-1.5610122680664062,-23,7014.0,1.083560585975647,21,9979.0
12220,0.35721898078918457,-2.6840872764587402,-32,7014.0,-1.4772735834121704,-14,9979.0
12230,0.3565416932106018,-3.7395095825195312,-55,7014.0,0.40623939037323,72,9979.0
12240,0.35633668303489685,-2.408795118331909,-154,7014.0,0.3736305236816406,-132,9979.0
12250,0.3561386466026306,-1.6970900297164917,21,7014.0,0.5319237112998962,64,9979.0
12260,0.3560411334037781,-1.7958416938781738,-105,7014.0,1.4822524785995483,-149,9979.0
12270,0.3563477694988251,-1.1074243783950806,106,7014.0,2.167438507080078,209,9979.0
12280,0.3562798500061035,0.061100490391254425,-31,7014.0,3.475975513458252,16,9979.0
12290,0.3562230169773102,1.0156608819961548,85,7014.0,4.589327335357666,189,9979.0
12300,0.3562251627445221,-0.1962011456489563,-26,7014.0,1.5160770416259766,-3,9979.0
12310,0.35695624351501465,1.7886431217193604,18,7014.0,4.203416347503662,28,9979.0
12320,0.3570575714111328,1.5192307233810425,19,7014.0,0.8903035521507263,14,9979.0
12330,0.3571494221687317,1.0729050636291504,16,7014.0,3.171403169631958,3,9979.0
12340,0.3572348356246948,0.7606983184814453,82,7014.0,2.7813382148742676,57,9979.0
12350,0.35738644003868103,-2.5670454502105713,-47,7014.0,4.104759216308594,38,9979.0
12360,0.35821598768234253,-1.7730644941329956,-36,7014.0,5.2795562744140625,91,9979.0
12370,0.358419805765152,-1.229813814163208,-65,7014.0,2.41481351852417,-7,9979.0
12380,0.3585800230503082,-2.3962180614471436,-11,7014.0,-2.2296600341796875,2,9979.0
12390,0.35870641469955444,-1.5454983711242676,-66,7014.0,4.380209922790527,-58,9979.0
12400,0.3589631915092468,0.12369085848331451,74,7014.0,-0.2118833065032959,-1,9979.0
12410,0.35917314887046814,1.2433751821517944,49,7014.0,0.21821992099285126,-50,9979.0
12420,0.3594137728214264,0.0866762101650238,40,7014.0,-0.31911173462867737,109,9979.0
12430,0.35963696241378784,3.397653102874756,10,7014.0,-0.21233271062374115,-70,9979.0
12440,0.36025410890579224,3.760241985321045,78,7014.0,-0.2270396202802658,27,9979.0
12450,0.36034920811653137,6.409282207489014,70,7014.0,2.374527931213379,-75,9979.0
12460,0.36043471097946167,2.006582736968994,101,7014.0,1.1234631538391113,29,9979.0
12470,0.36056849360466003,2.422739267349243,21,7014.0,4.313962936401367,61,9979.0
12480,0.3606939911842346,0.8514391779899597,40,7014.0,5.695330619812012,192,9979.0
12490,0.3593111038208008,2.1292991638183594,-9,7014.0,9.111419677734375,70,9979.0
12500,0.3593118488788605,0.8073850274085999,16,7014.0,7.62298059463501,187,9979.0
12510,0.35918277502059937,0.11448699235916138,-69,7014.0,8.357728004455566,58,9979.0
12520,0.35904166102409363,-2.2752609252929688,9,7014.0,4.646434783935547,129,9979.0
12530,0.35942262411117554,-1.8210411071777344,-89,7014.0,1.8420944213867188,-43,9979.0
12540,0.3593660593032837,-2.1023788452148438,52,7014.0,2.153078317642212,234,9979.0
12550,0.3592796325683594,-1.844264268875122,-149,7014.0,3.029228925704956,-51,9979.0
12560,0.35913988947868347,-1.9236263036727905,-44,7014.0,-0.608627438545227,82,9979.0
12570,0.3589479625225067,0.6651008725166321,-61,7014.0,0.6450371742248535,-122,9979.0
12580,0.35670408606529236,0.267894446849823,28,7014.0,2.792081832885742,94,9979.0
12590,0.3563378155231476,5.945674419403076,115,7014.0,1.830849051475525,28,9979.0
12600,0.35592445731163025,5.249962329864502,71,7014.0,2.558929443359375,15,9979.0
12610,0.3554907739162445,4.31537389755249,121,7014.0,4.355421543121338,258,9979.0
12620,0.35565420985221863,4.514790058135986,-67,7014.0,5.879162311553955,-78,9979.0
12630,0.3552069067955017,2.464815855026245,92,7014.0,2.9660561084747314,87,9979.0
12640,0.35472944378852844,4.0245184898376465,-35,7014.0,3.9684371948242188,12,9979.0
12650,0.35426363348960876,0.6220673322677612,35,7014.0,0.8057911396026611,40,9979.0
12660,0.3538048565387726,-2.355778455734253,72,7014.0,5.6845598220825195,132,9979.0
12670,0.35427096486091614,-2.6833889484405518,-104,7014.0,-1.8474241495132446,-77,9979.0
12680,0.3538607954978943,-0.9853856563568115,69,7014.0,-0.4490569233894348,236,9979.0
12690,0.3535144627094269,-4.005070686340332,-101,7014.0,1.6794090270996094,-7,9979.0
12700,0.3532208800315857,1.4830297231674194,4,7014.0,0.3759164810180664,-68,9979.0
12710,0.35446664690971375,-2.6117188930511475,27,7014.0,-3.8956103324890137,14,9979.0
12720,0.3542686104774475,-2.2464163303375244,-209,7014.0,-2.3826963901519775,-218,9979.0
12730,0.35411974787712097,0.2167147994041443,90,7014.0,-6.0190958976745605,-118,9979.0
12740,0.35400983691215515,-0.02419360727071762,-65,7014.0,-3.8193185329437256,-126,9979.0
12750,0.3523218333721161,-1.2014821767807007,-10,7014.0,-1.014430284500122,232,9979.0
12760,0.3521212339401245,-1.6333496570587158,84,7014.0,-2.4791831970214844,-117,9979.0
12770,0.35195034742355347,-0.6397919654846191,41,7014.0,-2.9559314250946045,-48,9979.0
12780,0.3518160283565521,1.3465768098831177,-30,7014.0,-4.633753776550293,-38,9979.0
12790,0.35171717405319214,-0.2395867258310318,16,7014.0,-0.018198959529399872,-119,9979.0
12800,0.35218316316604614,1.3288406133651733,62,7014.0,-2.804879903793335,-29,9979.0
12810,0.3522217273712158,2.245455503463745,-51,7014.0,-4.580471992492676,-228,9979.0
12820,0.35231050848960876,0.633956789970398,138,7014.0,-5.294098377227783,70,9979.0
12830,0.35239464044570923,0.029474293813109398,-61,7014.0,-3.093473196029663,-85,9979.0
12840,0.352681428194046,0.6614555716514587,121,7014.0,-2.1920695304870605,164,9979.0
12850,0.3527543246746063,0.7242103815078735,-47,7014.0,-5.635473728179932,-135,9979.0
12860,0.3528888523578644,1.6577032804489136,41,7014.0,-4.8268256187438965,-26,9979.0
12870,0.35305261611938477,-0.9647378325462341,-87,7014.0,-2.5182576179504395,-83,9979.0
12880,0.3532137870788574,-1.302136778831482,-74,7014.0,-1.130743384361267,-118,9979.0
12890,0.35328027606010437,-2.7891931533813477,-18,7014.0,-1.935732126235962,-44,9979.0
12900,0.35344240069389343,-1.3359816074371338,-47,7014.0,-1.1862499713897705,-33,9979.0
12910,0.353607177734375,-5.882242202758789,11,7014.0,-5.4729743003845215,25,9979.0
12920,0.35374489426612854,1.7398130893707275,-2,7014.0,0.3291933238506317,34,9979.0
12930,0.35233554244041443,0.3045620024204254,27,7014.0,4.2239990234375,260,9979.0
12940,0.3523215353488922,0.5714424848556519,-114,7014.0,5.765732765197754,14,9979.0
12950,0.3523106873035431,1.3497021198272705,37,7014.0,2.020972967147827,177,9979.0
12960,0.35229602456092834,0.5459503531455994,-92,7014.0,5.306921482086182,-112,9979.0
12970,0.35059401392936707,0.491771936416626,151,7014.0,-1.64769446849823,168,9979.0
12980,0.3504123389720917,-0.7270781993865967,-39,7014.0,3.2447831630706787,64,9979.0
12990,0.35017502307891846,0.9243395924568176,69,7014.0,-1.4547898769378662,169,9979.0
13000,0.34990236163139343,-0.319160133600235,-54,7014.0,-5.0826945304870605,-127,9979.0
13010,0.3496014177799225,-2.186943769454956,-52,7014.0,-3.503140687942505,-5,9979.0
13020,0.3502545654773712,-2.013925313949585,-6,7014.0,-5.20458984375,-112,9979.0
13030,0.34994208812713623,0.5961650013923645,-29,7014.0,-1.3758611679077148,-65,9979.0
13040,0.349651962518692,0.14718492329120636,103,7014.0,-0.7086648941040039,62,9979.0
13050,0.349399209022522,-0.18557417392730713,-22,7014.0,3.3115153312683105,-23,9979.0
13060,0.34901073575019836,1.6120848655700684,147,7014.0,0.028606167063117027,170,9979.0
13070,0.3487868010997772,4.108447074890137,-75,7014.0,0.9644062519073486,-19,9979.0
13080,0.34859561920166016,0.36369138956069946,27,7014.0,0.7352131009101868,190,9979.0
13090,0.34844082593917847,3.3105220794677734,-27,7014.0,2.447417974472046,36,9979.0
13100,0.346998006105423,-0.6343262791633606,-94,7014.0,-7.181362628936768,-101,9979.0
13110,0.3468197286128998,-1.407366156578064,-23,7014.0,0.2519238293170929,16,9979.0
13120,0.34663939476013184,-2.912376880645752,-159,7014.0,-0.9081453680992126,-126,9979.0
13130,0.34650567173957825,-6.120963096618652,94,7014.0,0.11779347062110901,127,9979.0
13140,0.34634479880332947,0.518280029296875,-46,7014.0,-0.5437889695167542,-40,9979.0
13150,0.34563586115837097,0.15889063477516174,46,7014.0,1.0287836790084839,135,9979.0
13160,0.34544456005096436,-0.19076794385910034,-25,7014.0,-1.0882114171981812,19,9979.0
13170,0.3452758491039276,-0.2608029842376709,-29,7014.0,-1.9137625694274902,-46,9979.0
13180,0.34512215852737427,-2.3675894737243652,-12,7014.0,-1.3303265571594238,28,9979.0
13190,0.34371572732925415,-2.027379274368286,-182,7014.0,-5.595511436462402,-316,9979.0
13200,0.3434951603412628,-0.8368911147117615,82,7014.0,-2.986386299133301,-14,9979.0
13210,0.34333598613739014,2.0620155334472656,11,7014.0,-0.8173731565475464,-179,9979.0
13220,0.34321388602256775,1.0622695684432983,86,7014.0,-2.0591187477111816,-65,9979.0
13230,0.34308722615242004,0.5915894508361816,-22,7014.0,-3.6072521209716797,-88,9979.0
13240,0.343757688999176,-0.04895910620689392,38,7014.0,0.4064575731754303,2,9979.0
13250,0.34366878867149353,3.71260929107666,105,7014.0,2.5918543338775635,132,9979.0
13260,0.3435903787612915,3.332080602645874,-126,7014.0,7.951748371124268,-74,9979.0
13270,0.3435125946998596,2.5292892456054688,56,7014.0,6.202393054962158,81,9979.0
13280,0.34280967712402344,0.2020415961742401,-86,7014.0,2.6511311531066895,-102,9979.0
13290,0.34272485971450806,0.7389353513717651,84,7014.0,-2.213348865509033,131,9979.0
13300,0.3426850736141205,0.749171793460846,-34,7014.0,2.427722215652466,-40,9979.0
13310,0.3426746726036072,-0.22925081849098206,-8,7014.0,-3.925269603729248,-4,9979.0
13320,0.342646986246109,-2.0126681327819824,-33,7014.0,-2.4355554580688477,-104,9979.0
13330,0.34191760420799255,-4.890144348144531,-69,7014.0,-7.966297626495361,-145,9979.0
13340,0.3418646454811096,-1.3134576082229614,27,7014.0,-7.859354019165039,-59,9979.0
13350,0.3418300747871399,0.3239624798297882,-47,7014.0,-7.088846206665039,-241,9979.0
13360,0.34180861711502075,-0.593116283416748,108,7014.0,-4.532680988311768,-39,9979.0
13370,0.3409936726093292,-1.2382594347000122,-18,7014.0,-1.1058151721954346,-138,9979.0
13380,0.3408670723438263,1.6882407665252686,-33,7014.0,1.4894604682922363,-100,9979.0
13390,0.34075096249580383,-1.9051799774169922,13,7014.0,3.358333110809326,37,9979.0
13400,0.34067532420158386,-1.151708960533142,-47,7014.0,2.4155287742614746,4,9979.0
13410,0.3383634090423584,-1.1254016160964966,-34,7014.0,-0.5491238832473755,30,9979.0
13420,0.33816471695899963,-1.6832116842269897,-25,7014.0,5.723348140716553,61,9979.0
13430,0.3379853367805481,0.0066084349527955055,1,7014.0,1.6321518421173096,34,9979.0
13440,0.33781367540359497,1.5263632535934448,23,7014.0,0.9285405278205872,33,9979.0
13450,0.3376774191856384,3.1517157554626465,-56,7014.0,1.6957452297210693,-92,9979.0
13460,0.33684393763542175,1.2061597108840942,30,7014.0,-2.6588878631591797,-39,9979.0
13470,0.3366522192955017,2.8129618167877197,20,7014.0,-1.1654014587402344,-37,9979.0
13480,0.3364259600639343,0.08700612187385559,78,7014.0,-3.92218017578125,18,9979.0
13490,0.3361625373363495,-2.746736526489258,-65,7014.0,-3.144810199737549,-7,9979.0
13500,0.33623206615448,-3.7409298419952393,-32,7014.0,-0.387738436460495,63,9979.0
13510,0.3360224962234497,-3.8867199420928955,-102,7014.0,6.557745933532715,-7,9979.0
13520,0.3358018696308136,-2.398893356323242,-45,7014.0,0.8559321165084839,39,9979.0
13530,0.33555760979652405,-1.3347100019454956,-18,7014.0,3.8270251750946045,-11,9979.0
13540,0.3352680504322052,-3.3195440769195557,1,7014.0,6.5190815925598145,130,9979.0
13550,0.3357540965080261,-0.4458766579627991,-7,7014.0,6.78274393081665,72,9979.0
13560,0.33557114005088806,0.4584210515022278,40,7014.0,2.813288927078247,89,9979.0
13570,0.33546018600463867,-0.12062060832977295,-79,7014.0,2.1385080814361572,-76,9979.0
13580,0.33532947301864624,-0.7516584992408752,23,7014.0,0.1987963616847992,31,9979.0
13590,0.3334244191646576,-0.04241526499390602,-22,7014.0,-0.4107936918735504,-58,9979.0
13600,0.33315303921699524,-0.34098929166793823,50,7014.0,2.482849597930908,144,9979.0
13610,0.3328900635242462,2.9735333919525146,17,7014.0,1.0772863626480103,26,9979.0
13620,0.3327178657054901,4.753106117248535,77,7014.0,2.0914793014526367,85,9979.0
13630,0.33190205693244934,4.49072790145874,33,7014.0,6.695546627044678,40,9979.0
13640,0.33175021409988403,5.530636787414551,136,7014.0,7.310966491699219,93,9979.0
13650,0.3316079080104828,7.637043476104736,109,7014.0,8.086787223815918,161,9979.0
13660,0.3314244747161865,3.19378662109375,71,7014.0,8.336050987243652,218,9979.0
13670,0.33123132586479187,3.696141004562378,56,7014.0,5.2836995124816895,192,9979.0
13680,0.33229678869247437,0.6500014066696167,-74,7014.0,6.445343017578125,11,9979.0
13690,0.33232563734054565,-2.9853708744049072,-90,7014.0,-0.25808751583099365,-46,9979.0
13700,0.3323862552642822,-8.076756477355957,-93,7014.0,-3.247123956680298,-63,9979.0
13710,0.33242446184158325,-8.49967098236084,-108,7014.0,-4.021061420440674,41,9979.0
13720,0.3335059583187103,-10.291976928710938,-207,7014.0,-2.087630271911621,-119,9979.0
13730,0.3335728049278259,-6.871068477630615,-117,7014.0,-2.092183828353882,-130,9979.0
13740,0.33379313349723816,-3.2284598350524902,-52,7014.0,-3.560396194458008,-84,9979.0
13750,0.3339427411556244,-0.6416639089584351,69,7014.0,-0.6205779314041138,97,9979.0
13760,0.33405616879463196,0.569762110710144,-3,7014.0,1.1941721439361572,13,9979.0
13770,0.3342995047569275,3.103383779525757,37,7014.0,3.5215959548950195,100,9979.0
13780,0.3344576358795166,4.434970378875732,-25,7014.0,1.4170631170272827,-118,9979.0
13790,0.3344111740589142,0.38890567421913147,119,7014.0,2.380002737045288,73,9979.0
13800,0.3347099721431732,1.1624490022659302,-29,7014.0,1.3639336824417114,37,9979.0
13810,0.33418965339660645,0.7800087332725525,39,7014.0,-6.0163702964782715,71,9979.0
13820,0.33420294523239136,-4.543334484100342,-287,7014.0,-2.4122869968414307,-234,9979.0
13830,0.3344101011753082,-7.868257999420166,-79,7014.0,-7.089127540588379,-13,9979.0
13840,0.3346153199672699,-11.141349792480469,-220,7014.0,-4.6321587562561035,-191,9979.0
13850,0.33410435914993286,-8.785643577575684,-76,7014.0,-6.744056701660156,-11,9979.0
13860,0.33422380685806274,-8.276041984558105,-149,7014.0,-5.950417995452881,-32,9979.0
13870,0.33434170484542847,-5.343289375305176,-160,7014.0,0.9522570967674255,-115,9979.0
13880,0.3343562185764313,-3.399982213973999,5,7014.0,1.8419159650802612,113,9979.0
13890,0.3343563675880432,-0.9976160526275635,-55,7014.0,2.6074185371398926,18,9979.0
13900,0.33422186970710754,-0.43571746349334717,81,7014.0,3.799168109893799,251,9979.0
13910,0.33424100279808044,-0.23796623945236206,-182,7014.0,3.931332588195801,-110,9979.0
13920,0.33425962924957275,-1.0367356538772583,57,7014.0,3.9656667709350586,63,9979.0
13930,0.3342425525188446,0.5594926476478577,-11,7014.0,1.3610506057739258,-44,9979.0
13940,0.33335864543914795,2.8868215084075928,118,7014.0,-0.7114532589912415,16,9979.0
13950,0.3332798480987549,2.441610336303711,10,7014.0,-2.7442896366119385,-151,9979.0
13960,0.3331319987773895,3.873934268951416,75,7014.0,-1.732386827468872,28,9979.0
13970,0.3330090045928955,4.398425102233887,147,7014.0,-3.7873504161834717,172,9979.0
13980,0.33282703161239624,4.0714192390441895,89,7014.0,2.9981086254119873,-32,9979.0
13990,0.3328278958797455,5.513139724731445,143,7014.0,-0.4237437844276428,87,9979.0
14000,0.3327561318874359,8.662450790405273,101,7014.0,0.2507278621196747,28,9979.0
14010,0.3327357769012451,5.619141578674316,91,7014.0,2.5853116512298584,14,9979.0
14020,0.3326842486858368,5.36053466796875,113,7014.0,2.3313403129577637,9,9979.0
14030,0.3324681520462036,4.587916851043701,28,7014.0,0.274819552898407,-89,9979.0
14040,0.33239611983299255,4.7581377029418945,146,7014.0,2.243773937225342,251,9979.0
14050,0.3323330879211426,3.7609598636627197,46,7014.0,-3.010683536529541,-142,9979.0
14060,0.33228039741516113,4.542986869812012,91,7014.0,-4.716519355773926,10,9979.0
14070,0.3332708179950714,3.97702956199646,-52,7014.0,-4.132139205932617,-204,9979.0
14080,0.333322137594223,4.835971355438232,141,7014.0,-7.972395896911621,-2,9979.0
14090,0.3334342837333679,3.923551559448242,81,7014.0,0.7768177390098572,13,9979.0
14100,0.3335839807987213,2.840343952178955,-22,7014.0,1.5293347835540771,-46,9979.0
14110,0.3337576985359192,1.1225340366363525,85,7014.0,3.995638370513916,131,9979.0
14120,0.33158788084983826,-0.07249823957681656,-36,7014.0,6.2986626625061035,43,9979.0
14130,0.33157166838645935,-2.154329538345337,49,7014.0,6.672879219055176,220,9979.0
14140,0.33149635791778564,-4.039124011993408,-176,7014.0,7.635930061340332,40,9979.0
14150,0.3313589096069336,-4.5273566246032715,-38,7014.0,5.411260604858398,104,9979.0
14160,0.3303697109222412,-3.952378034591675,-28,7014.0,2.789073944091797,133,9979.0
14170,0.33010873198509216,-4.821162223815918,-172,7014.0,1.8483422994613647,-88,9979.0
14180,0.32985445857048035,-3.526231527328491,6,7014.0,-4.58687162399292,-12,9979.0
14190,0.32966092228889465,0.8361912965774536,-7,7014.0,-6.085119247436523,-142,9979.0
