timestamp,kalman.stateZ,gyro.x,gyro.xRaw,gyro.xVariance,gyro.y,gyro.yRaw,gyro.yVariance
0,0.2869071960449219,-0.2218979150056839,3,7014.0,0.15149714052677155,-1,9979.0
10,0.2869286835193634,-0.09509482979774475,1,7014.0,0.07279747724533081,1,9979.0
20,0.2869500517845154,-0.1320788860321045,0,7014.0,-0.20263391733169556,6,9979.0
30,0.2869715094566345,-0.08979063481092453,5,7014.0,-0.021073225885629654,8,9979.0
40,0.2861175835132599,-0.01711253821849823,3,7014.0,-0.007838569581508636,-3,9979.0
50,0.2864187955856323,0.04522641375660896,-5,7014.0,-0.09459799528121948,1,9979.0
60,0.28641262650489807,-0.15546263754367828,-4,7014.0,-0.12372171878814697,1,9979.0
70,0.28644582629203796,-0.17505165934562683,-4,7014.0,-0.32599619030952454,0,9979.0
80,0.28700581192970276,-0.07313787192106247,-2,7014.0,-0.16328586637973785,-4,9979.0
90,0.2870467007160187,0.0299521517008543,2,7014.0,0.07732667773962021,1,9979.0
100,0.2870895564556122,0.006989975925534964,3,7014.0,-0.17400270700454712,1,9979.0
110,0.28713226318359375,-0.07048904150724411,5,7014.0,-0.1667608618736267,-3,9979.0
120,0.2871739864349365,-0.034331053495407104,1,7014.0,-0.2799835205078125,-2,9979.0
130,0.2870817184448242,-0.21722497045993805,5,7014.0,-0.17933756113052368,-2,9979.0
140,0.2871403694152832,-0.12505888938903809,2,7014.0,-0.025523360818624496,-4,9979.0
150,0.28718823194503784,-0.04857980087399483,1,7014.0,-0.3417840898036957,-4,9979.0
160,0.28724583983421326,-0.06989529728889465,-6,7014.0,-0.3090231418609619,-4,9979.0
170,0.28721240162849426,-0.1208067387342453,4,7014.0,-0.14717496931552887,-3,9979.0
180,0.28735238313674927,-0.33400896191596985,-15,7014.0,-1.391884207725525,-24,9979.0
190,0.2874566614627838,-0.49273279309272766,15,7014.0,-0.4711453318595886,-9,9979.0
200,0.28757327795028687,2.9097681045532227,20,7014.0,-5.385451316833496,-89,9979.0
210,0.2873929440975189,3.7870702743530273,109,7014.0,-6.240527629852295,-176,9979.0
220,0.2875038683414459,4.2295355796813965,145,7014.0,-9.313077926635742,-231,9979.0
230,0.28767699003219604,3.230393171310425,141,7014.0,-10.910429954528809,-249,9979.0
240,0.2878701686859131,11.902762413024902,169,7014.0,-15.96133041381836,-240,9979.0
250,0.2881318926811218,5.669425010681152,167,7014.0,-18.061710357666016,-301,9979.0
260,0.2878594398498535,8.043724060058594,118,7014.0,-14.62363052368164,-191,9979.0
270,0.28810274600982666,6.463347911834717,111,7014.0,-13.188192367553711,-105,9979.0
280,0.2884594798088074,5.2679314613342285,121,7014.0,-6.362853527069092,-169,9979.0
290,0.2887410521507263,4.6478447914123535,179,7014.0,-0.024273693561553955,-190,9979.0
300,0.28941217064857483,3.685537099838257,241,7014.0,5.131021976470947,-101,9979.0
310,0.2898107171058655,4.738953590393066,251,7014.0,5.308294773101807,-34,9979.0
320,0.2902805209159851,3.0735623836517334,151,7014.0,7.418038845062256,68,9979.0
330,0.2907036244869232,1.8696094751358032,-15,7014.0,7.790148735046387,172,9979.0
340,0.29177892208099365,1.9867100715637207,-80,7014.0,3.137629270553589,165,9979.0
350,0.29214468598365784,1.5151922702789307,22,7014.0,0.610917329788208,79,9979.0
360,0.2925817370414734,-0.2773601710796356,85,7014.0,0.008613867685198784,-65,9979.0
370,0.2931065261363983,1.2053236961364746,75,7014.0,1.4883594512939453,-127,9979.0
380,0.2937801480293274,-0.6077012419700623,91,7014.0,-1.4609709978103638,111,9979.0
390,0.2935476303100586,1.4283075332641602,-105,7014.0,-3.9025115966796875,75,9979.0
400,0.2943643033504486,1.4841355085372925,-20,7014.0,-3.989152669906616,-200,9979.0
410,0.295036643743515,-1.4464901685714722,135,7014.0,-2.43769907951355,-99,9979.0
420,0.29567405581474304,-1.1245068311691284,-85,7014.0,-0.23290090262889862,139,9979.0
430,0.294614315032959,-2.0880024433135986,-63,7014.0,1.1676980257034302,-29,9979.0
440,0.2950509190559387,-3.584174633026123,-7,7014.0,2.8075945377349854,6,9979.0
450,0.29551491141319275,-3.9797744750976562,23,7014.0,3.939655065536499,158,9979.0
460,0.29599103331565857,-0.7755279541015625,-85,7014.0,5.181267261505127,164,9979.0
470,0.2964216470718384,-1.5652565956115723,-26,7014.0,7.79931116104126,-4,9979.0
480,0.2952992916107178,-1.4311169385910034,93,7014.0,5.073643207550049,104,9979.0
490,0.29566481709480286,0.2743156850337982,-83,7014.0,4.8368306159973145,168,9979.0
500,0.2960085868835449,0.17669180035591125,56,7014.0,3.6978042125701904,-92,9979.0
510,0.2963854670524597,0.7741398811340332,23,7014.0,0.5342019200325012,108,9979.0
520,0.2957077920436859,1.429323673248291,-15,7014.0,-0.8367017507553101,-47,9979.0
530,0.296091765165329,0.2131250500679016,36,7014.0,-1.3727134466171265,-67,9979.0
540,0.29654189944267273,1.257491111755371,41,7014.0,-3.709681749343872,-20,9979.0
550,0.2970781624317169,0.5965906381607056,-72,7014.0,-3.8806726932525635,-1,9979.0
560,0.29593855142593384,-1.5481866598129272,53,7014.0,-1.1790788173675537,-148,9979.0
570,0.296536386013031,-2.40167498588562,-44,7014.0,-1.4999314546585083,108,9979.0
580,0.29716312885284424,-2.8083131313323975,-118,7014.0,2.7200427055358887,-27,9979.0
590,0.2978028357028961,-2.791851282119751,2,7014.0,0.9621817469596863,33,9979.0
600,0.2984669506549835,-2.13287353515625,-67,7014.0,1.4183002710342407,99,9979.0
610,0.29675519466400146,-2.785216808319092,-127,7014.0,2.512998580932617,36,9979.0
620,0.2974742650985718,-0.7225268483161926,67,7014.0,0.9163478016853333,-54,9979.0
630,0.29825079441070557,-1.552930474281311,-49,7014.0,1.8520965576171875,208,9979.0
640,0.2990635633468628,-0.26195427775382996,-75,7014.0,0.7024775147438049,-164,9979.0
650,0.29842936992645264,0.6285122036933899,147,7014.0,0.41038382053375244,43,9979.0
660,0.29924604296684265,1.8061234951019287,-86,7014.0,-2.9413745403289795,43,9979.0
670,0.3000822961330414,1.7564802169799805,67,7014.0,-2.385925054550171,-114,9979.0
680,0.3009445369243622,1.6225800514221191,32,7014.0,-2.006974220275879,-6,9979.0
690,0.30195069313049316,-0.6699991226196289,22,7014.0,-2.5526275634765625,22,9979.0
700,0.29975858330726624,-0.4245079755783081,-59,7014.0,-1.200376033782959,-101,9979.0
710,0.3007286787033081,-0.45418277382850647,143,7014.0,-3.0645394325256348,-109,9979.0
720,0.3018127679824829,-1.8046705722808838,-124,7014.0,-1.4877150058746338,204,9979.0
730,0.30297714471817017,-1.4286799430847168,-131,7014.0,-0.032074231654405594,-175,9979.0
740,0.3013935983181,-0.9370288252830505,38,7014.0,0.43585482239723206,74,9979.0
750,0.30245473980903625,-0.08212286978960037,41,7014.0,0.765706479549408,50,9979.0
760,0.30358293652534485,-0.6533084511756897,-61,7014.0,2.95200252532959,207,9979.0
770,0.30473148822784424,0.8882554173469543,-67,7014.0,1.3998774290084839,-71,9979.0
780,0.30599939823150635,1.1059319972991943,174,7014.0,0.4585206210613251,-75,9979.0
790,0.3014064133167267,2.2113873958587646,-20,7014.0,-0.003445192240178585,188,9979.0
800,0.30252382159233093,2.7183613777160645,-59,7014.0,0.019308650866150856,-119,9979.0
810,0.3036833107471466,0.6967467665672302,157,7014.0,-0.5843735933303833,-72,9979.0
820,0.30483072996139526,0.5729455351829529,-67,7014.0,-0.269902765750885,110,9979.0
830,0.3016398847103119,0.6851570010185242,-4,7014.0,-0.21098241209983826,-46,9979.0
840,0.3024236261844635,-0.27839362621307373,-10,7014.0,-1.1162078380584717,-76,9979.0
850,0.3031242787837982,0.1811048537492752,122,7014.0,-2.26194167137146,-122,9979.0
860,0.3037737011909485,2.149946451187134,-68,7014.0,-2.044677734375,174,9979.0
870,0.30157527327537537,0.91192227602005,-26,7014.0,-1.4931074380874634,-211,9979.0
880,0.3020055890083313,-1.430219054222107,110,7014.0,-2.6655561923980713,-14,9979.0
890,0.3023921549320221,-0.44717633724212646,-100,7014.0,-1.2924771308898926,77,9979.0
900,0.3027292788028717,-0.6031306982040405,6,7014.0,-1.271864652633667,-63,9979.0
910,0.3030362129211426,-1.286087989807129,23,7014.0,-0.19961456954479218,-62,9979.0
920,0.29922986030578613,-2.368928909301758,0,7014.0,3.5934934616088867,241,9979.0
930,0.299243301153183,0.17928636074066162,-84,7014.0,1.5896306037902832,-99,9979.0
940,0.299229234457016,1.7289165258407593,182,7014.0,-0.9073411226272583,-68,9979.0
950,0.29918503761291504,2.4834470748901367,-66,7014.0,-1.1280626058578491,205,9979.0
960,0.2971539795398712,1.6523634195327759,67,7014.0,0.8986033797264099,-238,9979.0
970,0.2969166338443756,1.7227203845977783,116,7014.0,-0.7115856409072876,81,9979.0
980,0.2966897189617157,2.9039173126220703,-12,7014.0,-1.7582015991210938,-52,9979.0
990,0.29646992683410645,2.3823070526123047,66,7014.0,-2.720860242843628,-61,9979.0
1000,0.2950417697429657,1.946382761001587,50,7014.0,-2.291774034500122,-39,9979.0
1010,0.2947167456150055,1.1815402507781982,-45,7014.0,-0.8071285486221313,28,9979.0
1020,0.29429715871810913,0.6461843252182007,125,7014.0,-0.7734235525131226,-72,9979.0
1030,0.293822705745697,0.3471526503562927,-99,7014.0,1.1627790927886963,137,9979.0
1040,0.29330581426620483,-1.5688914060592651,38,7014.0,2.0654239654541016,-107,9979.0
1050,0.2936485707759857,-1.560477375984192,-56,7014.0,1.4279814958572388,150,9979.0
1060,0.2931385636329651,-1.003807783126831,2,7014.0,0.8454461693763733,-63,9979.0
1070,0.29258501529693604,-1.4512828588485718,-33,7014.0,0.9248260855674744,36,9979.0
1080,0.29202306270599365,-0.0827883630990982,-29,7014.0,0.6354056000709534,-22,9979.0
1090,0.2936180531978607,1.603395700454712,175,7014.0,-1.710418701171875,-93,9979.0
1100,0.29337769746780396,1.9434791803359985,-123,7014.0,-1.7472108602523804,125,9979.0
1110,0.2931990921497345,1.459299921989441,149,7014.0,1.3828842639923096,-195,9979.0
1120,0.29305413365364075,3.2384090423583984,-36,7014.0,-2.8651046752929688,100,9979.0
1130,0.2929186522960663,0.10856254398822784,83,7014.0,1.8295559883117676,-77,9979.0
1140,0.29406994581222534,-0.4872446656227112,-52,7014.0,1.0527883768081665,60,9979.0
1150,0.29399070143699646,-0.919835090637207,-28,7014.0,1.2535183429718018,-1,9979.0
1160,0.29385632276535034,-1.082608699798584,41,7014.0,0.9643543362617493,61,9979.0
1170,0.2936471998691559,-1.6526944637298584,-120,7014.0,0.9128917455673218,-54,9979.0
1180,0.2944002151489258,-1.5732008218765259,131,7014.0,1.5693272352218628,113,9979.0
1190,0.29424428939819336,-0.9589704275131226,-210,7014.0,-1.4066085815429688,-4,9979.0
1200,0.2940885126590729,-3.445167303085327,106,7014.0,0.9468466639518738,-84,9979.0
1210,0.29391130805015564,-1.1951014995574951,-102,7014.0,0.07798689603805542,-58,9979.0
1220,0.2953416407108307,0.01819383166730404,61,7014.0,-0.3950193524360657,62,9979.0
1230,0.2952718734741211,0.6540573835372925,-77,7014.0,-0.2591659724712372,42,9979.0
1240,0.2951752543449402,2.1931443214416504,52,7014.0,0.6688388586044312,-97,9979.0
1250,0.2950252890586853,1.9077199697494507,-8,7014.0,0.43001723289489746,89,9979.0
1260,0.29487183690071106,2.989288091659546,72,7014.0,0.05625252053141594,-228,9979.0
1270,0.29446056485176086,3.6673085689544678,14,7014.0,-0.29828396439552307,225,9979.0
1280,0.2943979799747467,3.2693331241607666,36,7014.0,-0.9770612120628357,-145,9979.0
1290,0.29437869787216187,-2.026998996734619,-50,7014.0,1.3039422035217285,100,9979.0
1300,0.2943805158138275,-1.4773691892623901,28,7014.0,2.630756378173828,-87,9979.0
1310,0.29538455605506897,-1.9055736064910889,-24,7014.0,1.4117217063903809,78,9979.0
1320,0.29538047313690186,-1.8685033321380615,-69,7014.0,-1.132494568824768,13,9979.0
1330,0.29531991481781006,-1.891772747039795,68,7014.0,2.200310230255127,26,9979.0
1340,0.295267254114151,0.2674357295036316,-115,7014.0,0.8648952841758728,-8,9979.0
1350,0.2952733039855957,0.14493855834007263,109,7014.0,1.7797185182571411,-204,9979.0
1360,0.29559841752052307,-0.9201854467391968,-125,7014.0,0.9727210998535156,222,9979.0
1370,0.29570046067237854,1.2750794887542725,5,7014.0,-1.7839105129241943,-32,9979.0
1380,0.2958175539970398,0.4764021337032318,-42,7014.0,2.5725724697113037,56,9979.0
1390,0.29595649242401123,2.385468006134033,98,7014.0,0.46776464581489563,-59,9979.0
1400,0.2964198589324951,2.2303061485290527,58,7014.0,0.6202252507209778,126,9979.0
1410,0.29653415083885193,1.375746250152588,-74,7014.0,1.2102338075637817,-93,9979.0
1420,0.29666879773139954,0.33545252680778503,136,7014.0,-2.810350179672241,47,9979.0
1430,0.2968524098396301,-0.6076505184173584,-124,7014.0,0.8205254077911377,-81,9979.0
1440,0.29706287384033203,-2.6139252185821533,82,7014.0,-0.4018140435218811,103,9979.0
1450,0.2968561351299286,-3.7662787437438965,-136,7014.0,1.1220752000808716,-86,9979.0
1460,0.2970649302005768,-4.008939743041992,14,7014.0,0.467938095331192,105,9979.0
1470,0.2972783148288727,-1.7760597467422485,-67,7014.0,1.8549631834030151,-4,9979.0
1480,0.29745957255363464,0.004136931151151657,58,7014.0,0.492522269487381,-97,9979.0
1490,0.29736337065696716,1.998504877090454,28,7014.0,-1.9024657011032104,80,9979.0
1500,0.29748788475990295,3.2173242568969727,89,7014.0,-0.9643864035606384,-92,9979.0
1510,0.2976509630680084,2.6252403259277344,-61,7014.0,-2.0044474601745605,147,9979.0
1520,0.29787662625312805,1.119523286819458,65,7014.0,0.14976224303245544,-207,9979.0
1530,0.29770681262016296,0.2864210605621338,-47,7014.0,-3.3058526515960693,120,9979.0
1540,0.2979591488838196,-0.5343455672264099,23,7014.0,0.4398376941680908,-137,9979.0
1550,0.29824554920196533,-0.13899166882038116,-18,7014.0,-1.3116025924682617,91,9979.0
1560,0.29854145646095276,-0.2766234576702118,-40,7014.0,-0.6909258961677551,-49,9979.0
1570,0.298785537481308,-0.5281639695167542,100,7014.0,-1.9428963661193848,-85,9979.0
1580,0.297881543636322,0.9503253102302551,-120,7014.0,-1.1364840269088745,32,9979.0
1590,0.29799509048461914,-1.197274923324585,105,7014.0,-1.248615026473999,-47,9979.0
1600,0.2981376349925995,-0.7521230578422546,-174,7014.0,-2.0848443508148193,71,9979.0
1610,0.29830989241600037,-3.130417585372925,92,7014.0,1.4779689311981201,-85,9979.0
1620,0.2971295416355133,-0.4853167235851288,-84,7014.0,1.140550136566162,78,9979.0
1630,0.29725125432014465,0.19502276182174683,49,7014.0,1.0266482830047607,-2,9979.0
1640,0.29736512899398804,0.0526764877140522,7,7014.0,1.4501851797103882,138,9979.0
1650,0.2974492609500885,2.678492784500122,-31,7014.0,1.2518117427825928,-54,9979.0
1660,0.2972874641418457,1.763674259185791,155,7014.0,-0.02142145484685898,1,9979.0
1670,0.29723718762397766,1.2025513648986816,-84,7014.0,1.4567968845367432,-12,9979.0
1680,0.297188937664032,0.4837503731250763,137,7014.0,-1.0395760536193848,38,9979.0
1690,0.2971673309803009,1.1839133501052856,-161,7014.0,-4.132453918457031,-111,9979.0
1700,0.29716622829437256,-1.612486481666565,151,7014.0,-5.336329460144043,-87,9979.0
1710,0.2975054681301117,-1.0381243228912354,-108,7014.0,-3.2792913913726807,-24,9979.0
1720,0.29756835103034973,-1.4017925262451172,13,7014.0,-2.029954195022583,-54,9979.0
1730,0.2976726293563843,-1.2487869262695312,-41,7014.0,-2.024763345718384,61,9979.0
1740,0.29783061146736145,-0.8883577585220337,-58,7014.0,0.5519474148750305,-120,9979.0
1750,0.2968447804450989,2.6707894802093506,99,7014.0,-3.138601303100586,60,9979.0
1760,0.29690805077552795,0.8965586423873901,-20,7014.0,0.20645231008529663,-125,9979.0
1770,0.2969701290130615,1.1456447839736938,38,7014.0,1.126334309577942,229,9979.0
1780,0.297052800655365,2.047208309173584,-64,7014.0,3.556105852127075,-182,9979.0
1790,0.2971448600292206,1.0789161920547485,77,7014.0,1.3414713144302368,117,9979.0
1800,0.2971843183040619,0.2492266744375229,-30,7014.0,1.7806715965270996,13,9979.0
1810,0.29729726910591125,-0.21901212632656097,29,7014.0,2.0459651947021484,-4,9979.0
1820,0.2974589765071869,0.29395127296447754,-48,7014.0,0.8959429860115051,89,9979.0
1830,0.297635555267334,-1.4936091899871826,22,7014.0,0.19387207925319672,-148,9979.0
1840,0.2974557876586914,-0.26221299171447754,-63,7014.0,-1.3121477365493774,139,9979.0
1850,0.297526478767395,-1.8482818603515625,33,7014.0,0.4797382652759552,-151,9979.0
1860,0.29755330085754395,-2.489617109298706,-73,7014.0,0.28686630725860596,247,9979.0
1870,0.2975769340991974,0.5054618716239929,-33,7014.0,0.5105969309806824,-188,9979.0
1880,0.2976144254207611,-1.9877796173095703,28,7014.0,0.6329827904701233,65,9979.0
1890,0.29741981625556946,1.3994202613830566,41,7014.0,-2.1699917316436768,-70,9979.0
1900,0.29749444127082825,1.2990483045578003,21,7014.0,-0.9808012247085571,28,9979.0
1910,0.29762130975723267,2.078192949295044,-37,7014.0,-0.7480756044387817,-23,9979.0
1920,0.2977741062641144,2.521503448486328,122,7014.0,-0.14309848845005035,-56,9979.0
1930,0.29795268177986145,2.8754830360412598,-92,7014.0,-0.9515343904495239,106,9979.0
1940,0.29801151156425476,1.2356375455856323,132,7014.0,1.0448954105377197,-70,9979.0
1950,0.29805833101272583,1.0826581716537476,-117,7014.0,1.4543858766555786,158,9979.0
1960,0.2981039881706238,0.6323155164718628,76,7014.0,1.4432296752929688,-77,9979.0
1970,0.2980731427669525,-0.7564103007316589,-68,7014.0,1.5313042402267456,50,9979.0
1980,0.2980691194534302,-1.7935709953308105,20,7014.0,3.288198709487915,-7,9979.0
1990,0.298086941242218,-0.2256128042936325,-23,7014.0,-0.06135470047593117,-29,9979.0
2000,0.29818058013916016,0.12187380343675613,-16,7014.0,-1.4032596349716187,-11,9979.0
2010,0.29827743768692017,-0.8843016028404236,63,7014.0,-1.1062135696411133,-93,9979.0
2020,0.29663920402526855,0.6092782020568848,-75,7014.0,-3.5978524684906006,59,9979.0
2030,0.2965618669986725,0.4443826973438263,116,7014.0,-2.013716459274292,-194,9979.0
2040,0.29647746682167053,0.33096784353256226,-72,7014.0,-2.3286263942718506,160,9979.0
2050,0.2964227497577667,-0.15537460148334503,70,7014.0,-3.1695501804351807,-169,9979.0
2060,0.2966132164001465,0.46946197748184204,-10,7014.0,1.8472992181777954,112,9979.0
2070,0.2965909540653229,0.8904046416282654,46,7014.0,0.3147982656955719,18,9979.0
2080,0.2966134548187256,1.5757383108139038,-2,7014.0,0.7020092606544495,67,9979.0
2090,0.2967056930065155,1.304612636566162,-11,7014.0,1.65827476978302,-62,9979.0
2100,0.2976578176021576,1.3947904109954834,117,7014.0,-2.622009515762329,94,9979.0
2110,0.29779520630836487,-0.01785416342318058,-139,7014.0,1.3040350675582886,-13,9979.0
2120,0.2978772222995758,-1.141595721244812,119,7014.0,-0.6749106049537659,0,9979.0
2130,0.29795041680336,-1.1125344038009644,-164,7014.0,1.2590864896774292,-18,9979.0
2140,0.29803505539894104,-3.12576961517334,54,7014.0,1.6996504068374634,41,9979.0
2150,0.2976757884025574,-0.5242043137550354,-65,7014.0,1.7955961227416992,-53,9979.0
2160,0.297757625579834,0.22845976054668427,59,7014.0,2.24372935295105,72,9979.0
2170,0.2978864312171936,0.3545331656932831,-60,7014.0,1.598073959350586,116,9979.0
2180,0.2980167269706726,1.2115622758865356,10,7014.0,1.1661877632141113,-180,9979.0
2190,0.2972869873046875,0.12872537970542908,48,7014.0,1.1989986896514893,152,9979.0
2200,0.2972091734409332,0.7259581685066223,16,7014.0,1.8615449666976929,-140,9979.0
2210,0.29707878828048706,1.2569712400436401,-7,7014.0,-0.5868923664093018,183,9979.0
2220,0.29695671796798706,-0.6137205362319946,-8,7014.0,2.465343713760376,-147,9979.0
2230,0.29685357213020325,0.022032426670193672,-5,7014.0,-1.342228651046753,138,9979.0
2240,0.29605185985565186,0.23298120498657227,24,7014.0,-2.6522011756896973,-176,9979.0
2250,0.2959754765033722,-0.06589711457490921,14,7014.0,-2.0236284732818604,47,9979.0
2260,0.2959485650062561,-0.05158676579594612,-41,7014.0,-3.222698450088501,-25,9979.0
2270,0.2959374189376831,-1.44281005859375,69,7014.0,-1.6672228574752808,-65,9979.0
2280,0.29634079337120056,0.21010038256645203,-89,7014.0,-0.843852698802948,-14,9979.0
2290,0.296281635761261,-0.2860405743122101,164,7014.0,0.6383447051048279,2,9979.0
2300,0.2962319552898407,0.5063621997833252,-153,7014.0,0.8185905814170837,74,9979.0
2310,0.2962137758731842,-1.5755077600479126,120,7014.0,4.321869373321533,10,9979.0
2320,0.29612621665000916,0.07776456326246262,-84,7014.0,1.3872501850128174,21,9979.0
2330,0.29612258076667786,1.1549607515335083,100,7014.0,0.6450744271278381,25,9979.0
2340,0.29616618156433105,0.5641587972640991,-31,7014.0,0.35606327652931213,12,9979.0
2350,0.29621750116348267,0.03662949427962303,4,7014.0,-0.12074416130781174,-32,9979.0
2360,0.29624220728874207,1.3683454990386963,-24,7014.0,-2.369253635406494,111,9979.0
2370,0.29649817943573,1.6101417541503906,-10,7014.0,-2.439931869506836,-192,9979.0
2380,0.2964673936367035,2.007375955581665,50,7014.0,-1.7296260595321655,144,9979.0
2390,0.2964577078819275,0.6380773186683655,1,7014.0,-1.3921778202056885,-179,9979.0
2400,0.29648077487945557,1.0746644735336304,-21,7014.0,-2.7571840286254883,157,9979.0
2410,0.2974965572357178,-0.7104097008705139,-23,7014.0,-0.932024359703064,-264,9979.0
2420,0.2976028025150299,-1.9147391319274902,-54,7014.0,0.017443714663386345,60,9979.0
2430,0.2977522611618042,-2.2237253189086914,-56,7014.0,0.473986953496933,-34,9979.0
2440,0.29792749881744385,-1.9649872779846191,-9,7014.0,1.4994032382965088,27,9979.0
2450,0.29808151721954346,-1.0835503339767456,-111,7014.0,1.8272778987884521,74,9979.0
2460,0.29778778553009033,-1.4319021701812744,118,7014.0,2.645179510116577,1,9979.0
2470,0.2979382276535034,0.6176502704620361,-114,7014.0,1.7965041399002075,57,9979.0
2480,0.2981528639793396,0.5458000302314758,202,7014.0,3.1784110069274902,-35,9979.0
2490,0.2984001636505127,0.9103581309318542,-104,7014.0,4.029694557189941,186,9979.0
2500,0.2983911633491516,0.8998488783836365,109,7014.0,4.974066734313965,2,9979.0
2510,0.2986443042755127,2.3690335750579834,-67,7014.0,-1.5625767707824707,59,9979.0
2520,0.2988913357257843,2.2177791595458984,102,7014.0,-0.03284216299653053,-22,9979.0
2530,0.2990926206111908,0.9125657677650452,-20,7014.0,-0.6487531065940857,51,9979.0
2540,0.29923009872436523,0.95103919506073,-3,7014.0,-2.618666887283325,-130,9979.0
2550,0.29838448762893677,-0.07836243510246277,69,7014.0,-3.4789955615997314,17,9979.0
2560,0.29837945103645325,0.3648049235343933,-37,7014.0,-3.058149576187134,-168,9979.0
2570,0.2984081506729126,0.12727800011634827,123,7014.0,-3.116813898086548,8,9979.0
2580,0.2984603941440582,0.1467359960079193,-123,7014.0,-2.176058292388916,-50,9979.0
2590,0.29791319370269775,-1.3484649658203125,66,7014.0,0.5874912738800049,107,9979.0
2600,0.29794827103614807,-2.7714691162109375,-43,7014.0,0.4487527906894684,121,9979.0
2610,0.2979995608329773,-1.212530493736267,14,7014.0,1.7185200452804565,-33,9979.0
2620,0.29804474115371704,-1.4719222784042358,-73,7014.0,1.7018293142318726,94,9979.0
2630,0.2972722053527832,-0.7238304018974304,9,7014.0,-0.057806916534900665,-87,9979.0
2640,0.29720836877822876,-0.7203251719474792,40,7014.0,-0.7882502675056458,35,9979.0
2650,0.2971557676792145,0.5001832246780396,-31,7014.0,0.5782966613769531,-11,9979.0
2660,0.29718539118766785,2.895082950592041,133,7014.0,0.5310088992118835,43,9979.0
2670,0.29728782176971436,2.247623920440674,-116,7014.0,1.5354335308074951,16,9979.0
2680,0.29768285155296326,2.5326766967773438,176,7014.0,-3.715284824371338,-23,9979.0
2690,0.297781378030777,3.5532474517822266,-67,7014.0,-4.081682205200195,-169,9979.0
2700,0.2978633642196655,0.5102196931838989,207,7014.0,-3.3469784259796143,-54,9979.0
2710,0.29794102907180786,-0.7743822336196899,-136,7014.0,-1.557294487953186,18,9979.0
2720,0.29838594794273376,-1.6229218244552612,7,7014.0,0.5252406001091003,47,9979.0
2730,0.2984204888343811,-2.5036704540252686,-59,7014.0,-0.6243026256561279,-56,9979.0
2740,0.29848456382751465,-2.1832051277160645,2,7014.0,-0.45444199442863464,-55,9979.0
2750,0.298625648021698,-1.129001259803772,-21,7014.0,-1.080791711807251,148,9979.0
2760,0.2987917959690094,-1.5062644481658936,-35,7014.0,-0.835399866104126,-175,9979.0
2770,0.29820531606674194,-0.7907665967941284,9,7014.0,-0.6519654393196106,229,9979.0
2780,0.29823482036590576,0.19085383415222168,1,7014.0,3.120990037918091,-174,9979.0
2790,0.2982505261898041,0.24200105667114258,46,7014.0,1.861873745918274,196,9979.0
2800,0.2982739508152008,0.05560405179858208,25,7014.0,1.0351661443710327,-137,9979.0
2810,0.2985808551311493,2.117246627807617,-16,7014.0,-1.202337384223938,138,9979.0
2820,0.29866155982017517,1.005158543586731,35,7014.0,-0.40834611654281616,-157,9979.0
2830,0.2988080382347107,1.2136149406433105,35,7014.0,-1.5288528203964233,39,9979.0
2840,0.2990460991859436,1.272701382637024,7,7014.0,-2.746471881866455,-39,9979.0
2850,0.29763200879096985,0.929459273815155,104,7014.0,-4.500749111175537,-72,9979.0
2860,0.29768165946006775,0.13689804077148438,-119,7014.0,-3.077113389968872,-76,9979.0
2870,0.29766976833343506,-1.1466829776763916,122,7014.0,-2.652574062347412,-63,9979.0
2880,0.297666072845459,-1.4938359260559082,-156,7014.0,-1.8103114366531372,24,9979.0
2890,0.2976981997489929,-2.4579005241394043,126,7014.0,-0.6380499601364136,-48,9979.0
2900,0.29785844683647156,-2.8440592288970947,-140,7014.0,1.0122673511505127,77,9979.0
2910,0.2979227304458618,-1.025809645652771,19,7014.0,3.0832462310791016,73,9979.0
2920,0.29801973700523376,-0.8072883486747742,-46,7014.0,3.6481926441192627,65,9979.0
2930,0.2980971932411194,-0.929336667060852,20,7014.0,3.5273172855377197,-10,9979.0
2940,0.29806625843048096,1.2632946968078613,41,7014.0,1.4051264524459839,171,9979.0
2950,0.2980027198791504,2.179229497909546,-31,7014.0,2.8955886363983154,-130,9979.0
2960,0.2978821396827698,3.1092147827148438,57,7014.0,-0.6252980828285217,147,9979.0
2970,0.2978113293647766,2.2158164978027344,-20,7014.0,-1.0199978351593018,-173,9979.0
2980,0.29779523611068726,0.11217611283063889,47,7014.0,-1.6858808994293213,140,9979.0
2990,0.2978799641132355,0.2122570127248764,10,7014.0,-0.8862690925598145,-222,9979.0
3000,0.2978776693344116,-0.2734941244125366,4,7014.0,-6.562796592712402,111,9979.0
3010,0.29788491129875183,-0.5381249189376831,-31,7014.0,-2.3042914867401123,-120,9979.0
3020,0.29788824915885925,-1.7059496641159058,-32,7014.0,-0.8571378588676453,-22,9979.0
3030,0.2967063784599304,-0.974934458732605,-39,7014.0,0.01952078565955162,-7,9979.0
3040,0.29658645391464233,-1.7753314971923828,90,7014.0,0.7722434997558594,40,9979.0
3050,0.29652339220046997,0.21457576751708984,-143,7014.0,1.6260703802108765,54,9979.0
3060,0.2965618073940277,-0.02995320037007332,168,7014.0,0.8640997409820557,-20,9979.0
3070,0.29718852043151855,0.44044846296310425,-105,7014.0,1.958924651145935,-2,9979.0
3080,0.29736876487731934,1.7025463581085205,176,7014.0,0.4343957304954529,6,9979.0
3090,0.29753994941711426,-0.11607112735509872,-116,7014.0,-0.5096198916435242,-28,9979.0
3100,0.2976977229118347,0.8166826367378235,82,7014.0,2.127871036529541,93,9979.0
3110,0.2978237569332123,1.2630659341812134,-46,7014.0,0.6660150289535522,17,9979.0
3120,0.2967800796031952,0.22016428411006927,34,7014.0,2.640956163406372,-69,9979.0
3130,0.2968001663684845,-0.855334997177124,26,7014.0,1.804945707321167,83,9979.0
3140,0.2968766391277313,-0.02777925133705139,42,7014.0,1.718940258026123,-110,9979.0
3150,0.2969573140144348,-1.4644055366516113,-112,7014.0,-1.7186660766601562,158,9979.0
3160,0.2958017587661743,-0.40411272644996643,28,7014.0,1.058484673500061,-208,9979.0
3170,0.295733779668808,-1.0069113969802856,-48,7014.0,-1.2513974905014038,172,9979.0
3180,0.2956433594226837,-2.2204747200012207,0,7014.0,4.2678914070129395,-119,9979.0
3190,0.2955535054206848,-1.6501861810684204,-47,7014.0,-0.7582884430885315,101,9979.0
3200,0.2954730689525604,0.09065757691860199,81,7014.0,0.8147866725921631,-58,9979.0
3210,0.2960380017757416,-0.3040606379508972,-38,7014.0,0.5906369090080261,40,9979.0
3220,0.2960783839225769,1.0767676830291748,8,7014.0,0.27066147327423096,1,9979.0
3230,0.29615527391433716,2.05653977394104,119,7014.0,-1.4269864559173584,-28,9979.0
3240,0.29621410369873047,2.0926473140716553,-96,7014.0,-0.574439525604248,79,9979.0
3250,0.2961515784263611,0.50666743516922,131,7014.0,1.8529165983200073,-119,9979.0
3260,0.29619115591049194,1.197644591331482,-84,7014.0,-1.7878975868225098,65,9979.0
3270,0.2962479889392853,0.057792823761701584,113,7014.0,-0.5092507004737854,-26,9979.0
3280,0.29631632566452026,-0.7939837574958801,-146,7014.0,1.0029014348983765,47,9979.0
3290,0.29700297117233276,-1.5637733936309814,66,7014.0,1.1550475358963013,19,9979.0
3300,0.2971218526363373,-0.9371234774589539,-69,7014.0,0.8222336173057556,28,9979.0
3310,0.29722219705581665,-2.2203330993652344,-13,7014.0,2.5593297481536865,-38,9979.0
3320,0.29723235964775085,0.3163835108280182,82,7014.0,-0.5581163763999939,39,9979.0
3330,0.29716718196868896,-0.9734911322593689,-20,7014.0,0.8277230262756348,-59,9979.0
3340,0.2974325716495514,0.7943331003189087,-76,7014.0,-0.5786911249160767,180,9979.0
3350,0.2974478006362915,1.3809332847595215,56,7014.0,-0.8457004427909851,-271,9979.0
3360,0.2974984347820282,0.8419616222381592,-13,7014.0,-2.0744235515594482,174,9979.0
3370,0.2975771129131317,0.32919344305992126,53,7014.0,-1.3886545896530151,-167,9979.0
3380,0.29776450991630554,-0.021588124334812164,-61,7014.0,-1.1314257383346558,107,9979.0
3390,0.29779645800590515,0.4372195899486542,77,7014.0,-2.0462141036987305,-92,9979.0
3400,0.2978020906448364,-0.2633785903453827,3,7014.0,-1.1038483381271362,39,9979.0
3410,0.29774242639541626,0.8460293412208557,-26,7014.0,2.752631902694702,-31,9979.0
3420,0.29764389991760254,1.2473949193954468,85,7014.0,2.0325257778167725,107,9979.0
3430,0.29693615436553955,0.5795929431915283,-35,7014.0,1.1096954345703125,-100,9979.0
3440,0.2969048321247101,1.4055086374282837,25,7014.0,0.9463562369346619,214,9979.0
3450,0.29684528708457947,1.8444186449050903,-38,7014.0,2.0173988342285156,-169,9979.0
3460,0.29676109552383423,-0.32295429706573486,58,7014.0,2.566807270050049,226,9979.0
3470,0.2959788739681244,-0.8883824348449707,0,7014.0,2.38401198387146,-111,9979.0
3480,0.29585233330726624,-0.05818573012948036,-21,7014.0,-0.324941486120224,68,9979.0
3490,0.29571259021759033,-0.2395075112581253,16,7014.0,-1.6055591106414795,-102,9979.0
3500,0.29562684893608093,-0.08331817388534546,23,7014.0,-1.4921377897262573,37,9979.0
3510,0.2957077622413635,0.27390056848526,-44,7014.0,-2.734180450439453,-98,9979.0
3520,0.2955752909183502,-0.5968173742294312,70,7014.0,-3.2104852199554443,5,9979.0
3530,0.2953743040561676,-1.2367875576019287,-62,7014.0,-1.9319578409194946,-168,9979.0
3540,0.2951458990573883,-0.20861384272575378,64,7014.0,-2.9622442722320557,168,9979.0
3550,0.2949683964252472,1.7172517776489258,-39,7014.0,-6.150285720825195,-262,9979.0
3560,0.2951788604259491,-2.570627212524414,-6,7014.0,-1.4777066707611084,89,9979.0
3570,0.2950018346309662,-0.6487216949462891,40,7014.0,0.26677170395851135,-115,9979.0
3580,0.29485657811164856,-0.9304776787757874,-29,7014.0,0.3667968213558197,105,9979.0
3590,0.29473525285720825,-0.3761684000492096,-21,7014.0,1.5164759159088135,-1,9979.0
3600,0.2955499291419983,0.7255430221557617,89,7014.0,1.396533727645874,90,9979.0
3610,0.2954387664794922,1.4595082998275757,-58,7014.0,0.19407792389392853,-142,9979.0
3620,0.29553094506263733,0.8745329976081848,23,7014.0,0.8117138147354126,137,9979.0
3630,0.2955223023891449,0.7374022006988525,-9,7014.0,2.1978759765625,-201,9979.0
3640,0.2955334782600403,2.3065097332000732,68,7014.0,-0.9770275354385376,211,9979.0
3650,0.2965462803840637,1.386866569519043,22,7014.0,3.645015239715576,-60,9979.0
3660,0.29660066962242126,2.0899546146392822,-64,7014.0,-1.05564546585083,80,9979.0
3670,0.29662173986434937,0.030277017503976822,10,7014.0,-0.5164570808410645,-102,9979.0
3680,0.29660943150520325,-2.7968907356262207,-12,7014.0,-1.6518921852111816,51,9979.0
3690,0.296397864818573,-1.4050681591033936,-37,7014.0,-3.120615005493164,-138,9979.0
3700,0.2964663505554199,-3.3927364349365234,29,7014.0,-0.038464028388261795,104,9979.0
3710,0.2965438663959503,0.3424183428287506,-26,7014.0,-1.7688828706741333,-225,9979.0
3720,0.2965850532054901,-2.905587911605835,-37,7014.0,-1.5662732124328613,219,9979.0
3730,0.2967647910118103,-1.2306854724884033,-27,7014.0,3.657214403152466,-123,9979.0
3740,0.2967986762523651,-2.8345754146575928,-51,7014.0,-0.01710178703069687,49,9979.0
3750,0.2968214154243469,-0.07202677428722382,117,7014.0,-0.5145007967948914,-104,9979.0
3760,0.29683762788772583,2.807511329650879,33,7014.0,-1.0845394134521484,126,9979.0
3770,0.2968916893005371,2.3208022117614746,8,7014.0,-0.17342203855514526,-65,9979.0
3780,0.29741203784942627,4.068713665008545,99,7014.0,-0.9622883796691895,149,9979.0
3790,0.29746848344802856,2.255232572555542,30,7014.0,-2.077877998352051,-215,9979.0
3800,0.29750868678092957,-0.03903267905116081,136,7014.0,-1.887549638748169,162,9979.0
3810,0.29758554697036743,-0.3800344169139862,-159,7014.0,-0.6254005432128906,-218,9979.0
3820,0.29738470911979675,-3.340649366378784,108,7014.0,0.11726558208465576,236,9979.0
3830,0.2974274754524231,-0.07147568464279175,-149,7014.0,-1.6479676961898804,-17,9979.0
3840,0.2974777817726135,-0.5409244894981384,70,7014.0,-0.7131672501564026,-29,9979.0
3850,0.2975556254386902,-0.028433702886104584,-4,7014.0,1.0855294466018677,-18,9979.0
3860,0.2976153790950775,-0.3274584710597992,58,7014.0,-0.36339086294174194,24,9979.0
3870,0.29655730724334717,1.6116223335266113,-77,7014.0,-0.893217921257019,86,9979.0
3880,0.2965089976787567,1.914963722229004,130,7014.0,-0.8863630294799805,-137,9979.0
3890,0.29651933908462524,1.5690852403640747,-103,7014.0,-0.37153369188308716,43,9979.0
3900,0.2965662181377411,-0.9552979469299316,140,7014.0,0.35902515053749084,-6,9979.0
3910,0.2967889904975891,0.703229546546936,-128,7014.0,-0.6420481204986572,-19,9979.0
3920,0.29685312509536743,-2.501516342163086,91,7014.0,2.4910597801208496,37,9979.0
3930,0.2968950867652893,-2.8206114768981934,-83,7014.0,0.7270990610122681,32,9979.0
3940,0.2969060242176056,-0.6737394332885742,5,7014.0,0.9737493991851807,31,9979.0
3950,0.2965477705001831,1.1771184206008911,-23,7014.0,0.6623263955116272,-45,9979.0
3960,0.29656603932380676,0.6456776857376099,141,7014.0,0.638940155506134,-126,9979.0
3970,0.29660502076148987,0.47886303067207336,-95,7014.0,0.3874273896217346,141,9979.0
3980,0.29662585258483887,-0.12116670608520508,124,7014.0,0.4510684013366699,6,9979.0
3990,0.2966268062591553,0.4516201317310333,-161,7014.0,2.319516897201538,21,9979.0
4000,0.2967730760574341,-0.20515647530555725,149,7014.0,0.5801955461502075,59,9979.0
4010,0.29679426550865173,0.4937688410282135,-97,7014.0,2.8701400756835938,36,9979.0
4020,0.29680922627449036,0.9299444556236267,68,7014.0,0.6391283273696899,72,9979.0
4030,0.2968416213989258,-1.0603713989257812,-33,7014.0,2.4641952514648438,4,9979.0
4040,0.2973616421222687,-0.8036535978317261,44,7014.0,0.20523019134998322,-41,9979.0
4050,0.2974947392940521,-0.3358531892299652,-145,7014.0,-3.4752113819122314,4,9979.0
4060,0.2975693345069885,-1.4796534776687622,97,7014.0,-2.047212600708008,-105,9979.0
4070,0.29761451482772827,-0.07439690828323364,-125,7014.0,-2.0025718212127686,-75,9979.0
4080,0.2976767420768738,-2.045105218887329,165,7014.0,-1.4260761737823486,38,9979.0
4090,0.29871538281440735,-0.8320114612579346,-147,7014.0,0.3968921899795532,-12,9979.0
4100,0.29890212416648865,-0.31066998839378357,53,7014.0,-2.0830142498016357,60,9979.0
4110,0.2991250455379486,-0.07939808070659637,-27,7014.0,0.03920948505401611,-18,9979.0
4120,0.29929718375205994,-1.355665922164917,4,7014.0,2.0930352210998535,64,9979.0
4130,0.2988797426223755,2.0042800903320312,-52,7014.0,1.6914665699005127,11,9979.0
4140,0.2989266514778137,0.6032787561416626,150,7014.0,0.730372965335846,-31,9979.0
4150,0.2990235388278961,1.6251860857009888,-97,7014.0,1.6305677890777588,43,9979.0
4160,0.2991805374622345,1.0098917484283447,149,7014.0,1.1901752948760986,98,9979.0
4170,0.2984251081943512,2.6743061542510986,-155,7014.0,1.382043480873108,15,9979.0
4180,0.2985285520553589,0.9629771709442139,107,7014.0,0.8277345895767212,84,9979.0
4190,0.29863670468330383,1.0943924188613892,9,7014.0,-1.2133835554122925,-87,9979.0
4200,0.2986517548561096,0.343465119600296,10,7014.0,-1.6071805953979492,35,9979.0
4210,0.2986030578613281,-0.4402853846549988,-51,7014.0,-2.351396083831787,-33,9979.0
4220,0.2974960505962372,0.354739785194397,118,7014.0,-4.5807085037231445,-112,9979.0
4230,0.2974165380001068,1.201767921447754,-95,7014.0,-3.007248878479004,-4,9979.0
4240,0.2973184287548065,0.8106280565261841,154,7014.0,-0.32239463925361633,-6,9979.0
4250,0.2972944974899292,2.8356049060821533,-90,7014.0,0.11473572999238968,-52,9979.0
4260,0.2971724569797516,1.7127585411071777,173,7014.0,-3.9852025508880615,80,9979.0
4270,0.2970481514930725,2.782335042953491,-42,7014.0,2.4022350311279297,45,9979.0
4280,0.2969236969947815,2.248680353164673,51,7014.0,3.62583065032959,93,9979.0
4290,0.2968257963657379,1.5542832612991333,-38,7014.0,4.689554214477539,111,9979.0
4300,0.2967767119407654,-0.2938345968723297,144,7014.0,5.904185771942139,-30,9979.0
4310,0.2976783812046051,0.4940016269683838,-154,7014.0,3.807431697845459,80,9979.0
4320,0.29766789078712463,-1.813827395439148,133,7014.0,5.883680820465088,35,9979.0
4330,0.29764610528945923,-2.4574904441833496,-144,7014.0,1.8099204301834106,-46,9979.0
4340,0.2976413071155548,-1.797096610069275,52,7014.0,0.28188636898994446,115,9979.0
4350,0.29814258217811584,-2.425692081451416,-76,7014.0,1.1301460266113281,-15,9979.0
4360,0.2981889843940735,-1.661054015159607,-10,7014.0,-0.4585994780063629,5,9979.0
4370,0.29821592569351196,-0.02060340903699398,-39,7014.0,-1.6766207218170166,-108,9979.0
4380,0.29822343587875366,1.861390233039856,89,7014.0,-1.9774746894836426,8,9979.0
4390,0.29852232336997986,1.545766830444336,-76,7014.0,-3.034759283065796,-118,9979.0
4400,0.2985338270664215,1.301518440246582,110,7014.0,-1.8056344985961914,83,9979.0
4410,0.298591285943985,1.8191044330596924,-79,7014.0,0.3395628035068512,-170,9979.0
4420,0.2986575663089752,-0.6643508076667786,13,7014.0,-1.4546409845352173,-50,9979.0
4430,0.29877185821533203,0.08733508735895157,-3,7014.0,-1.3050528764724731,-40,9979.0
4440,0.2989627718925476,-1.312388300895691,-45,7014.0,1.7176228761672974,-18,9979.0
4450,0.29907384514808655,-1.0256074666976929,25,7014.0,1.1059366464614868,14,9979.0
4460,0.29912620782852173,1.1254076957702637,114,7014.0,-0.5776505470275879,1,9979.0
4470,0.29920727014541626,-1.378014087677002,-190,7014.0,0.953455924987793,60,9979.0
4480,0.29919198155403137,-2.5521421432495117,122,7014.0,-0.41615381836891174,-86,9979.0
4490,0.2992987632751465,-1.0729304552078247,-162,7014.0,-3.2153573036193848,-99,9979.0
4500,0.29939907789230347,-1.8417181968688965,77,7014.0,-5.005889892578125,17,9979.0
4510,0.29949137568473816,-0.8825873136520386,-105,7014.0,-3.1511142253875732,-146,9979.0
4520,0.29957154393196106,-1.4346708059310913,16,7014.0,-2.6468505859375,-31,9979.0
4530,0.2974134385585785,-1.143075942993164,-28,7014.0,-0.5809146165847778,-4,9979.0
4540,0.2974596619606018,-1.521836757659912,55,7014.0,0.12319201976060867,32,9979.0
4550,0.29749926924705505,1.4295177459716797,-77,7014.0,-0.08329689502716064,-60,9979.0
4560,0.29753005504608154,-0.20855513215065002,140,7014.0,0.8299447894096375,12,9979.0
4570,0.29813483357429504,0.9042679071426392,-105,7014.0,2.483808755874634,-48,9979.0
4580,0.29818740487098694,1.5829575061798096,111,7014.0,0.41084009408950806,184,9979.0
4590,0.29824358224868774,0.8717663288116455,-1,7014.0,1.5457757711410522,-118,9979.0
4600,0.2983120083808899,1.296281337738037,36,7014.0,1.6397597789764404,56,9979.0
4610,0.29864633083343506,0.9527257680892944,33,7014.0,1.5647894144058228,-5,9979.0
4620,0.2987741529941559,0.6059505343437195,89,7014.0,0.8586338758468628,73,9979.0
4630,0.29886969923973083,1.9966957569122314,-68,7014.0,-0.7904018759727478,-149,9979.0
4640,0.29894280433654785,-0.5402645468711853,60,7014.0,-0.4399476647377014,64,9979.0
4650,0.2990655303001404,-2.0088958740234375,-18,7014.0,-0.8682528138160706,-191,9979.0
4660,0.2983890473842621,-0.5692132711410522,-20,7014.0,1.4942126274108887,243,9979.0
4670,0.2984916567802429,-3.5892136096954346,-28,7014.0,0.11936449259519577,-137,9979.0
4680,0.29859429597854614,-0.7995701432228088,-48,7014.0,-1.767378330230713,40,9979.0
4690,0.29867660999298096,-0.37443533539772034,22,7014.0,-2.8170535564422607,-68,9979.0
4700,0.29965391755104065,0.8541043400764465,11,7014.0,-2.4707889556884766,94,9979.0
4710,0.2997782230377197,0.4784020185470581,-11,7014.0,-1.4309321641921997,-155,9979.0
4720,0.29994603991508484,2.454698324203491,-19,7014.0,-2.437069892883301,37,9979.0
4730,0.300124853849411,1.6555172204971313,152,7014.0,0.039804607629776,-123,9979.0
4740,0.30029812455177307,1.636017084121704,-74,7014.0,-1.97391939163208,133,9979.0
4750,0.2994897663593292,0.8738512992858887,136,7014.0,1.7958709001541138,11,9979.0
4760,0.2995675802230835,0.8545162677764893,-119,7014.0,1.673872470855713,-6,9979.0
4770,0.2996142506599426,-1.1427898406982422,24,7014.0,1.4362661838531494,6,9979.0
4780,0.2996930778026581,-0.5650004148483276,-74,7014.0,0.2899301052093506,72,9979.0
4790,0.2994990646839142,-0.44087648391723633,101,7014.0,1.5188238620758057,5,9979.0
4800,0.29976531863212585,0.3195306658744812,-109,7014.0,1.1335022449493408,-16,9979.0
4810,0.2998562157154083,0.499097615480423,171,7014.0,-0.2071981132030487,69,9979.0
4820,0.29997244477272034,-2.1495697498321533,-146,7014.0,1.2190237045288086,-98,9979.0
4830,0.29847514629364014,-2.2516443729400635,18,7014.0,2.6492481231689453,196,9979.0
4840,0.29854685068130493,-2.144472122192383,-26,7014.0,3.4227192401885986,-162,9979.0
4850,0.2986326217651367,-0.34756138920783997,-15,7014.0,-0.86627197265625,5,9979.0
4860,0.2986900806427002,-1.4113740921020508,22,7014.0,0.7902960777282715,-63,9979.0
4870,0.29874610900878906,1.655958652496338,6,7014.0,-2.563450813293457,40,9979.0
4880,0.29893606901168823,0.6768660545349121,21,7014.0,-3.5097358226776123,-189,9979.0
4890,0.29908475279808044,1.6983563899993896,-39,7014.0,-2.0539422035217285,118,9979.0
4900,0.29920193552970886,0.8156472444534302,145,7014.0,-2.235184669494629,-89,9979.0
4910,0.29927656054496765,1.5486881732940674,-136,7014.0,-1.0458667278289795,39,9979.0
4920,0.29926085472106934,-1.8132083415985107,118,7014.0,3.495990753173828,41,9979.0
4930,0.299329549074173,0.005103941075503826,-49,7014.0,2.7204079627990723,-19,9979.0
4940,0.2994806170463562,0.9850360751152039,46,7014.0,3.0891201496124268,154,9979.0
4950,0.29957088828086853,0.2295684665441513,3,7014.0,4.353226184844971,-5,9979.0
4960,0.2996150255203247,0.2933697998523712,23,7014.0,0.2057458907365799,18,9979.0
4970,0.29894763231277466,1.1088382005691528,-26,7014.0,-2.498110294342041,-152,9979.0
4980,0.2989559471607208,-0.5082961916923523,37,7014.0,-3.1138651371002197,127,9979.0
4990,0.299011766910553,0.289551705121994,-37,7014.0,-5.608546257019043,-227,9979.0
5000,0.29909759759902954,-0.26022252440452576,-84,7014.0,-4.1651763916015625,132,9979.0
5010,0.2986644506454468,0.6807077527046204,140,7014.0,-0.46482324600219727,-163,9979.0
5020,0.2986814081668854,-0.5087618231773376,-149,7014.0,-3.4232711791992188,26,9979.0
5030,0.29881536960601807,-2.9689459800720215,87,7014.0,-0.4348948299884796,54,9979.0
5040,0.29896673560142517,-0.10130440443754196,-85,7014.0,-0.9238556027412415,-37,9979.0
5050,0.2994862496852875,-0.7562927603721619,-10,7014.0,1.5865720510482788,36,9979.0
5060,0.29967573285102844,-0.11012227088212967,19,7014.0,2.324568271636963,142,9979.0
5070,0.2998080551624298,1.2005547285079956,77,7014.0,1.7229942083358765,-46,9979.0
5080,0.29992440342903137,1.468103289604187,-112,7014.0,8.103965759277344,132,9979.0
5090,0.3000110685825348,2.6453256607055664,208,7014.0,1.9525493383407593,78,9979.0
5100,0.30004119873046875,3.0299453735351562,-107,7014.0,5.546779632568359,30,9979.0
5110,0.2999612092971802,3.7145445346832275,109,7014.0,-0.16956095397472382,198,9979.0
5120,0.29975414276123047,2.3877875804901123,15,7014.0,1.2965954542160034,-227,9979.0
5130,0.2994679808616638,-1.4156980514526367,-34,7014.0,-2.2746362686157227,1,9979.0
5140,0.29807382822036743,-2.3908586502075195,9,7014.0,-3.8433642387390137,-113,9979.0
5150,0.29748156666755676,-1.8664910793304443,-44,7014.0,-4.585935115814209,65,9979.0
5160,0.29674744606018066,-1.1508474349975586,-23,7014.0,-2.5932891368865967,-99,9979.0
5170,0.2958952486515045,-1.8520045280456543,-144,7014.0,-3.3378405570983887,47,9979.0
5180,0.2949957549571991,-0.14492486417293549,170,7014.0,-2.6972568035125732,-88,9979.0
5190,0.29566818475723267,0.4507395327091217,-145,7014.0,-4.752499580383301,-142,9979.0
5200,0.2945619523525238,-5.434147834777832,-2,7014.0,1.4322075843811035,152,9979.0
5210,0.2933940291404724,-4.066404342651367,-91,7014.0,3.0204432010650635,-34,9979.0
5220,0.29233992099761963,-8.710277557373047,-137,7014.0,4.362695217132568,102,9979.0
5230,0.2909606993198395,-14.480463027954102,-192,7014.0,5.9045186042785645,-120,9979.0
5240,0.2897091507911682,-9.879725456237793,-256,7014.0,2.223902940750122,127,9979.0
5250,0.288435697555542,-9.879533767700195,64,7014.0,1.3429406881332397,69,9979.0
5260,0.28708723187446594,-6.051454067230225,-120,7014.0,0.4567897617816925,-194,9979.0
5270,0.28653401136398315,-2.902904748916626,-91,7014.0,-0.37271901965141296,109,9979.0
5280,0.2849385142326355,-0.8349775671958923,129,7014.0,-0.9721084237098694,57,9979.0
5290,0.28306177258491516,-5.560978412628174,-155,7014.0,-1.6819616556167603,-111,9979.0
5300,0.2817121744155884,-13.487563133239746,-213,7014.0,-5.347606658935547,-26,9979.0
5310,0.28051161766052246,-17.007003784179688,-299,7014.0,-4.98930025100708,-158,9979.0
5320,0.27909567952156067,-20.419509887695312,-483,7014.0,-5.19620943069458,-203,9979.0
5330,0.27762123942375183,-23.704465866088867,-351,7014.0,-2.3724184036254883,163,9979.0
5340,0.27617165446281433,-24.917198181152344,-82,7014.0,-5.325356960296631,-298,9979.0
5350,0.2750645875930786,-19.310649871826172,-320,7014.0,3.354095220565796,-111,9979.0
5360,0.2741149663925171,-14.892821311950684,-328,7014.0,9.28331184387207,99,9979.0
5370,0.27298250794410706,-14.249381065368652,-114,7014.0,9.736163139343262,219,9979.0
5380,0.27166542410850525,-6.9577789306640625,-146,7014.0,9.520296096801758,121,9979.0
5390,0.27046677470207214,-1.9760109186172485,-77,7014.0,7.083385944366455,176,9979.0
5400,0.26916658878326416,-0.40699437260627747,131,7014.0,-0.4481337368488312,138,9979.0
5410,0.26875773072242737,1.8023911714553833,108,7014.0,-2.725233554840088,-74,9979.0
5420,0.2676982283592224,2.106105327606201,-55,7014.0,-1.4059698581695557,-204,9979.0
5430,0.26669421792030334,0.7558867931365967,-133,7014.0,-0.9756697416305542,61,9979.0
5440,0.2657110393047333,-3.1657981872558594,-1,7014.0,5.059725284576416,463,9979.0
5450,0.26560312509536743,-6.412703037261963,48,7014.0,2.843398332595825,16,9979.0
5460,0.2647051513195038,-0.5616645216941833,-66,7014.0,3.4999005794525146,7,9979.0
5470,0.26393646001815796,0.23774205148220062,-4,7014.0,4.049388885498047,117,9979.0
5480,0.26313501596450806,-1.3608614206314087,35,7014.0,6.9721808433532715,100,9979.0
5490,0.26186278462409973,4.4610915184021,1,7014.0,4.336091995239258,-33,9979.0
5500,0.26102107763290405,2.2794430255889893,-36,7014.0,2.2497541904449463,171,9979.0
5510,0.26020103693008423,-1.3693718910217285,60,7014.0,2.3319509029388428,218,9979.0
5520,0.25934144854545593,-8.744945526123047,-176,7014.0,7.377068519592285,51,9979.0
5530,0.259162575006485,-7.314531326293945,-272,7014.0,-0.5078468322753906,-37,9979.0
5540,0.2594201862812042,-6.831566333770752,-171,7014.0,-1.6142826080322266,96,9979.0
5550,0.25890985131263733,-11.23324966430664,-102,7014.0,-7.403848648071289,-28,9979.0
5560,0.25848695635795593,-3.290598154067993,-171,7014.0,-2.2192094326019287,-12,9979.0
5570,0.2580834925174713,1.4814685583114624,172,7014.0,-2.355816602706909,106,9979.0
5580,0.2572479844093323,4.384317874908447,252,7014.0,0.31036895513534546,-40,9979.0
5590,0.25693395733833313,6.206942558288574,6,7014.0,-0.5435253977775574,-146,9979.0
5600,0.25661322474479675,8.460883140563965,253,7014.0,3.4549388885498047,219,9979.0
5610,0.2565334439277649,9.422745704650879,339,7014.0,3.98648738861084,26,9979.0
5620,0.256608247756958,9.285344123840332,115,7014.0,5.375648498535156,81,9979.0
5630,0.2552288770675659,10.129961967468262,233,7014.0,4.526988506317139,145,9979.0
5640,0.25479814410209656,6.497720241546631,147,7014.0,2.67462420463562,-139,9979.0
5650,0.25441867113113403,9.855093955993652,-40,7014.0,1.2736718654632568,-1,9979.0
5660,0.25400856137275696,9.047441482543945,257,7014.0,2.403923988342285,91,9979.0
5670,0.2515142858028412,10.089226722717285,154,7014.0,3.713106393814087,-19,9979.0
5680,0.2509995996952057,11.42929458618164,258,7014.0,2.0604214668273926,105,9979.0
5690,0.2503906786441803,10.729582786560059,41,7014.0,1.1632320880889893,-57,9979.0
5700,0.24981242418289185,12.085872650146484,83,7014.0,3.4379875659942627,146,9979.0
5710,0.24937498569488525,5.361220836639404,127,7014.0,1.0094032287597656,33,9979.0
5720,0.2511557936668396,3.8691275119781494,4,7014.0,2.134486675262451,81,9979.0
5730,0.2508305609226227,-1.8177241086959839,68,7014.0,1.618873119354248,132,9979.0
5740,0.25045058131217957,-2.9943954944610596,-136,7014.0,1.6295396089553833,-218,9979.0
5750,0.2502012848854065,-3.1285197734832764,-114,7014.0,4.339707851409912,85,9979.0
5760,0.2500508427619934,-3.5911083221435547,-29,7014.0,2.994534730911255,34,9979.0
5770,0.24966999888420105,-1.9174028635025024,-128,7014.0,4.122267246246338,29,9979.0
5780,0.24922578036785126,-3.369112730026245,-1,7014.0,4.655668258666992,257,9979.0
5790,0.24877910315990448,-1.8206710815429688,111,7014.0,1.3996033668518066,20,9979.0
5800,0.24774841964244843,3.29026460647583,-115,7014.0,1.2238472700119019,-33,9979.0
5810,0.24726782739162445,3.6613643169403076,123,7014.0,-0.07643504440784454,70,9979.0
5820,0.24699100852012634,8.803421974182129,161,7014.0,-0.6692495942115784,-117,9979.0
5830,0.246755912899971,10.795968055725098,46,7014.0,-1.2734466791152954,-50,9979.0
5840,0.24657607078552246,11.276823997497559,256,7014.0,-5.092408180236816,192,9979.0
5850,0.2456350177526474,5.473739147186279,280,7014.0,1.199428915977478,-60,9979.0
5860,0.24545423686504364,11.368850708007812,72,7014.0,-3.3394670486450195,-113,9979.0
5870,0.24517875909805298,5.197449684143066,79,7014.0,-3.1197164058685303,2,9979.0
5880,0.24499450623989105,-0.04985707625746727,-8,7014.0,-2.7405807971954346,-258,9979.0
5890,0.24560309946537018,-2.7396128177642822,-241,7014.0,-2.0371720790863037,-48,9979.0
5900,0.24553357064723969,-5.506595611572266,0,7014.0,-0.26906678080558777,97,9979.0
5910,0.24548189342021942,-7.729095935821533,-158,7014.0,-2.6718356609344482,-168,9979.0
5920,0.24539674818515778,-5.129940986633301,-117,7014.0,-1.060174584388733,91,9979.0
5930,0.2452477365732193,-7.072580814361572,88,7014.0,1.601283311843872,24,9979.0
5940,0.24518325924873352,-6.021308422088623,-124,7014.0,0.9252151846885681,-174,9979.0
5950,0.24515603482723236,0.5184035897254944,-138,7014.0,0.19242486357688904,126,9979.0
5960,0.24520395696163177,2.064511299133301,129,7014.0,2.6653616428375244,42,9979.0
5970,0.24522186815738678,4.438104152679443,64,7014.0,3.2054059505462646,-137,9979.0
5980,0.24559029936790466,6.277072906494141,-3,7014.0,6.482348442077637,170,9979.0
5990,0.24568277597427368,4.332242488861084,172,7014.0,1.5518418550491333,172,9979.0
6000,0.24577632546424866,9.547354698181152,76,7014.0,2.2891438007354736,-40,9979.0
6010,0.24586935341358185,7.169702529907227,82,7014.0,2.761141061782837,52,9979.0
6020,0.24642138183116913,2.3804850578308105,116,7014.0,3.4550745487213135,77,9979.0
6030,0.24653731286525726,2.4043147563934326,-58,7014.0,0.643366813659668,-116,9979.0
6040,0.24662552773952484,3.51648211479187,-43,7014.0,-2.6644794940948486,27,9979.0
6050,0.24674589931964874,3.1687698364257812,167,7014.0,-2.831774950027466,104,9979.0
6060,0.24689270555973053,2.7430412769317627,-1,7014.0,-6.18119478225708,-119,9979.0
6070,0.24827590584754944,1.2012792825698853,-29,7014.0,-1.451539397239685,71,9979.0
6080,0.2485891431570053,-0.8117417097091675,73,7014.0,2.382730484008789,5,9979.0
6090,0.2488323599100113,0.0652318149805069,-149,7014.0,1.232093334197998,-175,9979.0
6100,0.24911803007125854,-2.534514904022217,-64,7014.0,2.035735845565796,301,9979.0
6110,0.2484121322631836,-1.5823628902435303,83,7014.0,4.72897481918335,75,9979.0
6120,0.24861803650856018,-3.192579746246338,-129,7014.0,7.12969446182251,63,9979.0
6130,0.24879856407642365,0.6626648902893066,62,7014.0,1.5105448961257935,64,9979.0
6140,0.24892228841781616,-1.049386978149414,-35,7014.0,0.2799232602119446,-152,9979.0
6150,0.24924175441265106,1.424013376235962,-136,7014.0,-1.6282833814620972,-100,9979.0
6160,0.24972273409366608,1.2790145874023438,153,7014.0,-3.9713268280029297,75,9979.0
6170,0.24995121359825134,2.694566011428833,-7,7014.0,-11.355097770690918,-505,9979.0
6180,0.25020718574523926,0.7361595034599304,-132,7014.0,-5.124133586883545,-201,9979.0
6190,0.2503763735294342,-0.10064791887998581,73,7014.0,-3.5171797275543213,-47,9979.0
6200,0.2491512894630432,3.65895938873291,55,7014.0,-4.1323723793029785,-152,9979.0
6210,0.24929200112819672,6.375518798828125,161,7014.0,-0.8186561465263367,141,9979.0
6220,0.24943691492080688,5.497308731079102,184,7014.0,3.8784050941467285,46,9979.0
6230,0.24950562417507172,5.458410263061523,27,7014.0,1.3763067722320557,-51,9979.0
6240,0.24977551400661469,3.6168015003204346,102,7014.0,4.244856357574463,167,9979.0
6250,0.2497762143611908,3.716679334640503,118,7014.0,4.006269454956055,51,9979.0
6260,0.2499585747718811,0.2441839724779129,30,7014.0,1.9007707834243774,9,9979.0
6270,0.25008076429367065,3.626291275024414,103,7014.0,-0.32271236181259155,80,9979.0
6280,0.250207781791687,7.123006343841553,56,7014.0,-4.507137298583984,-180,9979.0
6290,0.24944399297237396,6.152604103088379,148,7014.0,-4.812744617462158,165,9979.0
6300,0.2495098114013672,3.08878493309021,179,7014.0,2.2238290309906006,-80,9979.0
6310,0.24960261583328247,3.503183603286743,-74,7014.0,-5.0403642654418945,-127,9979.0
6320,0.24969543516635895,1.0605372190475464,-20,7014.0,-6.673336505889893,34,9979.0
6330,0.25031134486198425,0.28397947549819946,-42,7014.0,-6.655263423919678,-112,9979.0
6340,0.2505350112915039,1.382752776145935,-72,7014.0,-8.35112476348877,-67,9979.0
6350,0.2507825791835785,1.5469650030136108,121,7014.0,-8.215166091918945,84,9979.0
6360,0.25112032890319824,-1.3439750671386719,-44,7014.0,0.31288403272628784,-122,9979.0
6370,0.2512857913970947,-4.998136520385742,-217,7014.0,1.6785796880722046,-1,9979.0
6380,0.2516206204891205,-3.5997233390808105,-59,7014.0,-0.6665089726448059,115,9979.0
6390,0.25190940499305725,-6.955804824829102,-142,7014.0,7.282156467437744,36,9979.0
6400,0.2521968483924866,-5.100017547607422,-144,7014.0,5.604557991027832,109,9979.0
6410,0.25248825550079346,-5.579227447509766,28,7014.0,6.220946311950684,179,9979.0
6420,0.252481073141098,-4.860334873199463,-140,7014.0,1.557159662246704,-160,9979.0
6430,0.2528304159641266,-4.200573921203613,-356,7014.0,5.331086158752441,221,9979.0
6440,0.25319838523864746,-9.23222541809082,-44,7014.0,-6.418211460113525,184,9979.0
6450,0.2535892128944397,-2.836123466491699,-16,7014.0,-5.732113838195801,-141,9979.0
6460,0.25552648305892944,-1.8716092109680176,-102,7014.0,-4.9365105628967285,-135,9979.0
6470,0.25606924295425415,-0.32838186621665955,-16,7014.0,-6.492193222045898,8,9979.0
6480,0.25660011172294617,1.0450644493103027,53,7014.0,-4.6367950439453125,-106,9979.0
6490,0.2571195065975189,5.701208591461182,-40,7014.0,-2.1095590591430664,30,9979.0
6500,0.25765731930732727,3.472085475921631,134,7014.0,-1.4779126644134521,176,9979.0
6510,0.2590995728969574,0.18544477224349976,9,7014.0,-1.0989512205123901,-142,9979.0
6520,0.25968554615974426,-0.8147202730178833,-223,7014.0,0.7397924065589905,-29,9979.0
6530,0.2602814733982086,-2.850715160369873,-5,7014.0,-0.8335940837860107,224,9979.0
6540,0.260860800743103,-7.384923934936523,4,7014.0,5.0112481117248535,-99,9979.0
6550,0.2616468667984009,-6.069547653198242,-221,7014.0,0.11269593983888626,-78,9979.0
6560,0.26223331689834595,-7.136755466461182,-88,7014.0,0.03760882839560509,77,9979.0
6570,0.2628304362297058,-6.153506278991699,-78,7014.0,-1.2756047248840332,-67,9979.0
6580,0.263442724943161,-4.8130598068237305,-137,7014.0,-3.1625521183013916,-108,9979.0
6590,0.2644391655921936,-0.6712560653686523,72,7014.0,-6.034476280212402,-20,9979.0
6600,0.26514339447021484,0.9867713451385498,23,7014.0,-3.2505481243133545,-173,9979.0
6610,0.26583102345466614,4.56006383895874,-30,7014.0,-5.147735118865967,-102,9979.0
6620,0.2665596604347229,2.717742919921875,187,7014.0,4.241410255432129,167,9979.0
6630,0.26727232336997986,2.4425899982452393,180,7014.0,0.038324251770973206,-70,9979.0
6640,0.26680615544319153,2.404282808303833,-55,7014.0,0.7213226556777954,-144,9979.0
6650,0.2674511671066284,2.9866726398468018,60,7014.0,-1.5129507780075073,288,9979.0
6660,0.26806217432022095,0.8924073576927185,186,7014.0,5.482142448425293,-24,9979.0
6670,0.26865822076797485,-0.5724840760231018,-95,7014.0,1.253641963005066,-52,9979.0
6680,0.2702704668045044,-2.3269200325012207,-6,7014.0,-1.5100862979888916,54,9979.0
6690,0.27083685994148254,-1.7377878427505493,-10,7014.0,-1.5225098133087158,-43,9979.0
6700,0.2716728746891022,1.834144115447998,-16,7014.0,-5.432317733764648,-1,9979.0
6710,0.2722141146659851,3.542255163192749,110,7014.0,-5.207922458648682,101,9979.0
6720,0.27274245023727417,6.421913146972656,164,7014.0,-1.4942867755889893,-184,9979.0
6730,0.2740751802921295,4.69151496887207,-178,7014.0,-5.06475830078125,-44,9979.0
6740,0.274565190076828,3.9097392559051514,106,7014.0,-1.4123241901397705,220,9979.0
6750,0.27536237239837646,9.31787109375,231,7014.0,2.337843656539917,-89,9979.0
6760,0.27614250779151917,6.943062782287598,40,7014.0,7.324823379516602,17,9979.0
6770,0.2764512002468109,11.659965515136719,176,7014.0,3.6101126670837402,87,9979.0
6780,0.2771092653274536,12.14017391204834,187,7014.0,6.673045635223389,5,9979.0
6790,0.27771514654159546,12.028852462768555,130,7014.0,4.671722888946533,51,9979.0
6800,0.27831509709358215,8.28480052947998,202,7014.0,-1.5711216926574707,74,9979.0
6810,0.2800600826740265,5.350976467132568,79,7014.0,1.7667615413665771,-158,9979.0
6820,0.28065475821495056,-0.5098173022270203,-222,7014.0,5.524834632873535,122,9979.0
6830,0.28118598461151123,-4.641369342803955,72,7014.0,3.331153631210327,148,9979.0
6840,0.2817138135433197,-4.812717914581299,24,7014.0,-2.2998032569885254,-127,9979.0
6850,0.28227242827415466,-4.1251349449157715,-199,7014.0,0.2930469512939453,12,9979.0
6860,0.28168779611587524,-5.43515682220459,-51,7014.0,-0.6238558888435364,-66,9979.0
6870,0.2822139859199524,-3.235224962234497,-146,7014.0,-3.8805811405181885,-130,9979.0
6880,0.28274863958358765,-1.5076904296875,-4,7014.0,-4.056369304656982,36,9979.0
6890,0.2832704186439514,-1.0965286493301392,-41,7014.0,-2.6466238498687744,-7,9979.0
6900,0.28309574723243713,-2.9350380897521973,-182,7014.0,-3.63515567779541,-42,9979.0
6910,0.2835612893104553,-2.634538173675537,56,7014.0,-2.8428304195404053,162,9979.0
6920,0.2840989828109741,-3.236741065979004,61,7014.0,5.771292686462402,-52,9979.0
6930,0.28459417819976807,-1.1682018041610718,-201,7014.0,2.309856653213501,0,9979.0
6940,0.2853238880634308,1.7008756399154663,35,7014.0,3.4033308029174805,164,9979.0
6950,0.28692036867141724,3.471707820892334,84,7014.0,2.815258264541626,29,9979.0
6960,0.28761038184165955,0.7530107498168945,-18,7014.0,4.601330280303955,43,9979.0
6970,0.2882083058357239,2.5131688117980957,117,7014.0,0.856062114238739,-6,9979.0
6980,0.28872302174568176,1.0190317630767822,72,7014.0,-4.287155628204346,-125,9979.0
6990,0.2891134023666382,-2.257920265197754,-44,7014.0,-3.4135308265686035,-119,9979.0
7000,0.2897622287273407,2.4598548412323,27,7014.0,0.9720422625541687,99,9979.0
7010,0.2904171645641327,3.099106550216675,187,7014.0,-0.1837647259235382,133,9979.0
7020,0.2909643352031708,1.0219383239746094,-45,7014.0,3.673456907272339,-39,9979.0
7030,0.2917618751525879,7.852397441864014,72,7014.0,6.431573867797852,56,9979.0
7040,0.29241669178009033,9.270340919494629,159,7014.0,0.5925624966621399,378,9979.0
7050,0.2930598855018616,-1.461684226989746,-20,7014.0,8.043116569519043,113,9979.0
7060,0.29375070333480835,2.074192523956299,-113,7014.0,9.205764770507812,123,9979.0
7070,0.29439878463745117,0.7437078356742859,-69,7014.0,8.073280334472656,211,9979.0
7080,0.29498472809791565,-1.6932817697525024,-6,7014.0,6.258460521697998,62,9979.0
7090,0.2955457866191864,3.925767183303833,0,7014.0,-1.4655835628509521,-53,9979.0
7100,0.2961263954639435,1.325905680656433,5,7014.0,-3.583146333694458,-19,9979.0
7110,0.2966436743736267,-1.2800365686416626,80,7014.0,-5.392772197723389,-74,9979.0
7120,0.2970734238624573,-0.23832494020462036,-84,7014.0,-3.778334617614746,-189,9979.0
7130,0.29759660363197327,-4.283462047576904,-225,7014.0,-0.6217616200447083,48,9979.0
7140,0.29810652136802673,-4.1036200523376465,88,7014.0,-5.005223274230957,54,9979.0
7150,0.2986450791358948,-2.7998087406158447,52,7014.0,-3.99216890335083,-163,9979.0
7160,0.29918983578681946,-2.5070126056671143,-103,7014.0,-6.6727681159973145,-300,9979.0
7170,0.3000737130641937,-0.434671014547348,7,7014.0,7.022228717803955,166,9979.0
7180,0.3006259500980377,-2.2760791778564453,123,7014.0,5.687994480133057,103,9979.0
7190,0.30117082595825195,0.950752854347229,-4,7014.0,2.9422168731689453,-19,9979.0
7200,0.30167391896247864,-0.35541877150535583,-93,7014.0,1.5049049854278564,27,9979.0
7210,0.30092135071754456,0.6977764964103699,142,7014.0,0.7570593357086182,58,9979.0
7220,0.30133986473083496,1.913179874420166,67,7014.0,-3.5651626586914062,-43,9979.0
7230,0.30176493525505066,0.6984725594520569,-29,7014.0,-4.069237232208252,-35,9979.0
7240,0.3021865487098694,2.3107001781463623,92,7014.0,-4.59215784072876,111,9979.0
7250,0.302362859249115,-0.8508981466293335,128,7014.0,-3.1645874977111816,-101,9979.0
7260,0.30276328325271606,-3.3738675117492676,-166,7014.0,-5.333953380584717,-239,9979.0
7270,0.3031916916370392,-2.515965461730957,-243,7014.0,-2.3134889602661133,8,9979.0
7280,0.303622305393219,-12.497734069824219,-78,7014.0,5.438910007476807,223,9979.0
7290,0.30402809381484985,-8.486602783203125,-97,7014.0,6.746232509613037,19,9979.0
7300,0.3038501739501953,-5.620466709136963,-202,7014.0,0.7861419320106506,-93,9979.0
7310,0.3042301833629608,-6.772984504699707,-124,7014.0,0.5460058450698853,-5,9979.0
7320,0.30462446808815,-4.414249897003174,-23,7014.0,-1.3034743070602417,30,9979.0
7330,0.305061936378479,0.45042186975479126,-14,7014.0,-0.24002400040626526,-111,9979.0
7340,0.3060937225818634,2.0466673374176025,-47,7014.0,-3.6864683628082275,-129,9979.0
7350,0.3065977990627289,1.5153273344039917,-1,7014.0,-5.382328987121582,-28,9979.0
7360,0.30712148547172546,5.725013732910156,135,7014.0,-7.034559726715088,-2,9979.0
7370,0.3076372444629669,4.875351428985596,189,7014.0,-2.417123556137085,-221,9979.0
7380,0.30816328525543213,2.73233699798584,-14,7014.0,-4.753889560699463,-258,9979.0
7390,0.3098370134830475,-0.43430379033088684,-53,7014.0,6.815033435821533,59,9979.0
7400,0.3104669749736786,0.45226362347602844,11,7014.0,0.33120661973953247,190,9979.0
7410,0.31109124422073364,1.803419589996338,204,7014.0,0.041766125708818436,23,9979.0
7420,0.3117336630821228,-3.922060966491699,-117,7014.0,0.4158901870250702,-135,9979.0
7430,0.3126251697540283,-3.418816089630127,-51,7014.0,-1.9995193481445312,31,9979.0
7440,0.3132660686969757,-2.0427122116088867,20,7014.0,-0.9095197319984436,48,9979.0
7450,0.3139004707336426,-0.05227180942893028,-32,7014.0,-1.3901447057724,-97,9979.0
7460,0.31461066007614136,1.2334086894989014,-68,7014.0,-5.000693321228027,-51,9979.0
7470,0.3151756525039673,2.3641743659973145,70,7014.0,-3.059159755706787,23,9979.0
7480,0.3156646192073822,1.44855535030365,106,7014.0,0.41663405299186707,34,9979.0
7490,0.3164348602294922,0.93901526927948,-88,7014.0,1.9983099699020386,-72,9979.0
7500,0.317213237285614,4.6755170822143555,6,7014.0,-1.4164092540740967,145,9979.0
7510,0.3176977038383484,8.128777503967285,326,7014.0,-4.234686374664307,-82,9979.0
7520,0.3178602457046509,8.536323547363281,69,7014.0,3.5004332065582275,-95,9979.0
7530,0.3186081349849701,15.165364265441895,160,7014.0,6.940191268920898,160,9979.0
7540,0.3192916810512543,7.425387859344482,310,7014.0,6.242582321166992,257,9979.0
7550,0.3198642432689667,10.144379615783691,154,7014.0,-0.7337620258331299,-53,9979.0
7560,0.32065266370773315,5.308652877807617,28,7014.0,-3.7313454151153564,-41,9979.0
7570,0.3212975561618805,3.132634401321411,60,7014.0,-2.1561455726623535,194,9979.0
7580,0.32186830043792725,5.444009780883789,177,7014.0,-1.948866367340088,9,9979.0
7590,0.32249754667282104,5.903692722320557,35,7014.0,-0.3092300295829773,-48,9979.0
7600,0.3231048882007599,4.200900077819824,56,7014.0,0.6816489696502686,55,9979.0
7610,0.3240267038345337,5.1575236320495605,149,7014.0,-1.2102383375167847,-34,9979.0
7620,0.32459786534309387,5.330626010894775,-4,7014.0,-1.6952154636383057,-162,9979.0
7630,0.3251952826976776,5.48451042175293,-36,7014.0,-4.21055269241333,61,9979.0
7640,0.3259173631668091,2.950662136077881,164,7014.0,-1.1830105781555176,184,9979.0
7650,0.32596686482429504,0.5353952646255493,67,7014.0,1.1571638584136963,-92,9979.0
7660,0.3265743553638458,-0.8873823881149292,-223,7014.0,2.22942852973938,-93,9979.0
7670,0.3271792232990265,1.2597603797912598,-65,7014.0,0.37019407749176025,114,9979.0
7680,0.3277815282344818,2.1018097400665283,328,7014.0,3.9624521732330322,-11,9979.0
7690,0.32823386788368225,-1.548531413078308,-27,7014.0,4.644516468048096,-224,9979.0
7700,0.328814297914505,3.2753987312316895,-126,7014.0,4.672217845916748,24,9979.0
7710,0.329378604888916,2.8594918251037598,111,7014.0,-1.8289389610290527,8,9979.0
7720,0.32993704080581665,3.6170339584350586,101,7014.0,-1.506420612335205,-61,9979.0
7730,0.3304896950721741,2.6514365673065186,-2,7014.0,-0.9669943451881409,-67,9979.0
7740,0.3314182758331299,2.6064953804016113,100,7014.0,-0.47082334756851196,56,9979.0
7750,0.3320256471633911,2.46671724319458,115,7014.0,0.6319376230239868,-127,9979.0
7760,0.33264562487602234,0.7654940485954285,-53,7014.0,-2.17128586769104,-134,9979.0
7770,0.33337488770484924,0.1977185606956482,-33,7014.0,-0.9629002213478088,126,9979.0
7780,0.3328585922718048,-5.08773136138916,118,7014.0,-3.932286262512207,-13,9979.0
7790,0.3334755599498749,-6.2176313400268555,-131,7014.0,-0.17156153917312622,-195,9979.0
7800,0.3340833783149719,-9.839113235473633,-209,7014.0,5.6645827293396,137,9979.0
7810,0.33467093110084534,-8.649025917053223,-40,7014.0,1.9139320850372314,90,9979.0
7820,0.3352448344230652,-5.2414984703063965,-86,7014.0,5.0279459953308105,-4,9979.0
7830,0.33573344349861145,-2.111036539077759,23,7014.0,2.133563280105591,16,9979.0
7840,0.33632925152778625,0.9810865521430969,110,7014.0,2.390406608581543,-3,9979.0
7850,0.3368975520133972,1.944819450378418,-49,7014.0,-3.6250174045562744,-117,9979.0
7860,0.3374323546886444,1.7324228286743164,-121,7014.0,-2.2666943073272705,-3,9979.0
7870,0.33599379658699036,-0.6042550802230835,183,7014.0,-3.8732733726501465,101,9979.0
7880,0.33643433451652527,2.560192108154297,74,7014.0,-8.900077819824219,-208,9979.0
7890,0.33687731623649597,1.9161608219146729,-133,7014.0,-0.34481850266456604,17,9979.0
7900,0.3372734487056732,-0.3825662136077881,34,7014.0,4.29639196395874,172,9979.0
7910,0.3373836874961853,-2.4171247482299805,-35,7014.0,8.250123977661133,119,9979.0
7920,0.33773910999298096,-3.3803253173828125,-103,7014.0,9.466958045959473,187,9979.0
7930,0.33810874819755554,-0.4420769512653351,138,7014.0,0.748776376247406,124,9979.0
7940,0.33850955963134766,-0.5989764332771301,-6,7014.0,5.39756441116333,-149,9979.0
7950,0.3389722406864166,-4.662051677703857,-235,7014.0,4.263323783874512,17,9979.0
7960,0.3392564058303833,-5.08031702041626,-11,7014.0,1.1874991655349731,229,9979.0
7970,0.3397226929664612,-0.16026176512241364,138,7014.0,3.8505442142486572,-22,9979.0
7980,0.3402286171913147,0.3357345759868622,-41,7014.0,2.0252933502197266,-152,9979.0
7990,0.340697318315506,0.3925732672214508,-18,7014.0,1.266273856163025,67,9979.0
8000,0.3410780429840088,1.0463852882385254,35,7014.0,-2.398538827896118,13,9979.0
8010,0.3415184020996094,0.7262689471244812,-36,7014.0,-0.2879418134689331,-64,9979.0
8020,0.341993123292923,2.0157554149627686,53,7014.0,-1.8134876489639282,0,9979.0
8030,0.3424914479255676,3.6090755462646484,119,7014.0,-3.6048779487609863,-26,9979.0
8040,0.3430044651031494,0.06629391759634018,-127,7014.0,1.582129955291748,-178,9979.0
8050,0.3426758944988251,-2.0658814907073975,-238,7014.0,2.9881844520568848,85,9979.0
8060,0.3430984616279602,-5.492044448852539,105,7014.0,4.336060047149658,283,9979.0
8070,0.3435300290584564,0.11966164410114288,-69,7014.0,6.717870712280273,47,9979.0
8080,0.34397831559181213,-5.544965744018555,-99,7014.0,7.470325469970703,116,9979.0
8090,0.3430465757846832,-4.370148181915283,-21,7014.0,6.639959335327148,154,9979.0
8100,0.34340164065361023,-1.2870217561721802,-74,7014.0,1.6335448026657104,-69,9979.0
8110,0.34374767541885376,-1.8566349744796753,-75,7014.0,0.09139148890972137,35,9979.0
8120,0.3440813422203064,-1.1657308340072632,141,7014.0,1.5712802410125732,81,9979.0
8130,0.3450380265712738,2.733617067337036,182,7014.0,-4.255941867828369,-36,9979.0
8140,0.34544095396995544,0.7519791722297668,-135,7014.0,3.1294264793395996,140,9979.0
8150,0.3459170162677765,1.6769218444824219,131,7014.0,-5.9462151527404785,291,9979.0
8160,0.34641462564468384,2.1305854320526123,36,7014.0,7.7662529945373535,124,9979.0
8170,0.34689611196517944,1.4599785804748535,-106,7014.0,5.260511875152588,-53,9979.0
8180,0.34681522846221924,-0.8687487840652466,32,7014.0,7.958941459655762,199,9979.0
8190,0.3472299873828888,-0.6584304571151733,89,7014.0,0.09327488392591476,-15,9979.0
8200,0.34762850403785706,0.38485950231552124,8,7014.0,0.1967686414718628,-160,9979.0
8210,0.3480512201786041,1.2114613056182861,-26,7014.0,-2.3102798461914062,36,9979.0
8220,0.34823882579803467,-1.657012701034546,115,7014.0,-2.441678047180176,78,9979.0
8230,0.34855785965919495,0.4738676846027374,67,7014.0,-4.276667594909668,-178,9979.0
8240,0.34886693954467773,-2.325136184692383,-197,7014.0,-5.729548931121826,-199,9979.0
8250,0.3491782546043396,-0.36946427822113037,18,7014.0,-3.4202840328216553,1,9979.0
8260,0.34946271777153015,-3.1016063690185547,183,7014.0,1.3700463771820068,70,9979.0
8270,0.34876278042793274,0.18697981536388397,-38,7014.0,-0.8098652362823486,-10,9979.0
8280,0.34897661209106445,-1.570965051651001,-107,7014.0,1.2442675828933716,66,9979.0
8290,0.34919318556785583,0.5020337700843811,60,7014.0,-0.24228189885616302,55,9979.0
8300,0.34943249821662903,2.457099437713623,37,7014.0,4.753514766693115,-92,9979.0
8310,0.35020527243614197,2.6675658226013184,-99,7014.0,2.7948355674743652,-87,9979.0
8320,0.35054975748062134,-2.5206799507141113,-41,7014.0,-0.8521157503128052,205,9979.0
8330,0.35088032484054565,-3.346619129180908,160,7014.0,0.2123142033815384,127,9979.0
8340,0.3512670695781708,-2.5905587673187256,-71,7014.0,-7.193150997161865,-315,9979.0
8350,0.3521890938282013,0.050827011466026306,-105,7014.0,-4.083797454833984,-32,9979.0
8360,0.35264185070991516,-8.766969680786133,-67,7014.0,-0.19370529055595398,57,9979.0
8370,0.3531269431114197,-4.8776535987854,-72,7014.0,-3.0262887477874756,-86,9979.0
8380,0.3536084294319153,-2.817690372467041,-76,7014.0,-2.239570140838623,-153,9979.0
8390,0.35413113236427307,-1.982250690460205,-15,7014.0,-2.1141815185546875,110,9979.0
8400,0.3545641601085663,0.029584961012005806,252,7014.0,-1.9623605012893677,90,9979.0
8410,0.3550560474395752,3.2924282550811768,159,7014.0,-0.6246747374534607,-223,9979.0
8420,0.3555815517902374,3.671563148498535,-160,7014.0,3.5040273666381836,-41,9979.0
8430,0.3561438024044037,4.094244003295898,25,7014.0,0.4741998016834259,119,9979.0
8440,0.3579847514629364,2.035202980041504,108,7014.0,0.050559766590595245,19,9979.0
8450,0.35858264565467834,4.382180690765381,5,7014.0,-0.439259797334671,-59,9979.0
8460,0.3590961694717407,2.40781831741333,36,7014.0,-2.890004873275757,97,9979.0
8470,0.359609454870224,1.7569966316223145,122,7014.0,-4.640714168548584,10,9979.0
8480,0.36012372374534607,-0.7183207869529724,-22,7014.0,0.6999817490577698,-174,9979.0
8490,0.36058706045150757,-4.826427936553955,-329,7014.0,-0.33303937315940857,3,9979.0
8500,0.3610951602458954,-1.3506577014923096,2,7014.0,-4.954488277435303,111,9979.0
8510,0.36161985993385315,-9.209029197692871,-46,7014.0,-1.1788097620010376,-35,9979.0
8520,0.3621057868003845,-2.89644718170166,-52,7014.0,-0.16473212838172913,-147,9979.0
8530,0.36274516582489014,-4.145822525024414,-13,7014.0,-1.5815088748931885,60,9979.0
8540,0.36324188113212585,2.1953670978546143,130,7014.0,-0.023567557334899902,-63,9979.0
8550,0.3637681007385254,3.5993692874908447,-17,7014.0,-2.235185384750366,-139,9979.0
8560,0.364326536655426,10.98179817199707,-14,7014.0,-0.606197714805603,29,9979.0
8570,0.3649252653121948,8.057414054870605,191,7014.0,-1.1359546184539795,132,9979.0
8580,0.36547592282295227,3.9606881141662598,152,7014.0,1.4975942373275757,61,9979.0
8590,0.3660567104816437,0.9497261047363281,60,7014.0,3.8005783557891846,-215,9979.0
8600,0.3666352331638336,-1.2015312910079956,-113,7014.0,-4.467225074768066,66,9979.0
8610,0.3671840727329254,-4.889559268951416,101,7014.0,2.7329537868499756,37,9979.0
8620,0.36880141496658325,0.2533619999885559,-65,7014.0,-1.801821231842041,-61,9979.0
8630,0.36931103467941284,-0.9737304449081421,4,7014.0,-1.055132508277893,18,9979.0
8640,0.36980584263801575,1.6369999647140503,135,7014.0,-0.7661314010620117,63,9979.0
8650,0.3703012466430664,3.405993938446045,45,7014.0,-0.4496006369590759,-180,9979.0
8660,0.3692593276500702,2.7449004650115967,-214,7014.0,-1.9321151971817017,13,9979.0
8670,0.3696829378604889,-0.5568524599075317,90,7014.0,-5.497055530548096,316,9979.0
8680,0.37011078000068665,-3.349701166152954,153,7014.0,-2.3656554222106934,-49,9979.0
8690,0.3705644905567169,-3.150150775909424,-33,7014.0,3.686875343322754,-133,9979.0
8700,0.37095215916633606,-4.591853618621826,-11,7014.0,1.215049147605896,19,9979.0
8710,0.3721819818019867,-1.1278138160705566,30,7014.0,0.1510980874300003,-25,9979.0
8720,0.3725837171077728,-0.3512043356895447,-20,7014.0,1.059630274772644,-136,9979.0
8730,0.37294939160346985,1.9031978845596313,-32,7014.0,-2.3746609687805176,38,9979.0
8740,0.37333181500434875,0.8290061354637146,74,7014.0,-4.373101711273193,-256,9979.0
8750,0.37301209568977356,-0.3145899772644043,-172,7014.0,-4.209540367126465,-168,9979.0
8760,0.37334591150283813,-4.372889041900635,-71,7014.0,-6.352049350738525,65,9979.0
8770,0.37368258833885193,-3.2352700233459473,139,7014.0,-3.39626407623291,-33,9979.0
8780,0.373996764421463,-3.002854108810425,-106,7014.0,-9.182775497436523,-74,9979.0
8790,0.37571245431900024,3.021552085876465,22,7014.0,1.4363188743591309,141,9979.0
8800,0.37608036398887634,4.596755027770996,162,7014.0,2.7385308742523193,69,9979.0
8810,0.37640368938446045,5.968839168548584,27,7014.0,4.96560001373291,-95,9979.0
8820,0.3767121732234955,6.13470983505249,32,7014.0,1.1511448621749878,72,9979.0
8830,0.3770812749862671,5.577071666717529,99,7014.0,-2.5806775093078613,316,9979.0
8840,0.37898704409599304,3.791914939880371,167,7014.0,-3.9237935543060303,-150,9979.0
8850,0.37944352626800537,-3.2457478046417236,-203,7014.0,-0.7995729446411133,-56,9979.0
8860,0.37991905212402344,-5.778321266174316,-53,7014.0,-1.8557240962982178,120,9979.0
8870,0.3803887665271759,-2.8629825115203857,16,7014.0,-1.2008707523345947,-29,9979.0
8880,0.3805289566516876,1.6411285400390625,-83,7014.0,4.167211055755615,-96,9979.0
8890,0.3809974491596222,0.10560905188322067,9,7014.0,2.5160834789276123,136,9979.0
8900,0.38146376609802246,-0.38324758410453796,231,7014.0,-3.029949188232422,62,9979.0
8910,0.3819614350795746,3.725764751434326,-3,7014.0,7.7026896476745605,-31,9979.0
8920,0.38243427872657776,3.759155750274658,-14,7014.0,4.679018497467041,55,9979.0
8930,0.3827030658721924,3.9775736331939697,101,7014.0,3.2359325885772705,81,9979.0
8940,0.38318997621536255,4.9780402183532715,40,7014.0,-0.18888318538665771,-19,9979.0
8950,0.38363975286483765,7.564487934112549,-19,7014.0,-3.1440389156341553,-17,9979.0
8960,0.38410890102386475,4.749920845031738,124,7014.0,-0.8944858908653259,230,9979.0
8970,0.3843553066253662,4.281059741973877,175,7014.0,-4.635786056518555,-148,9979.0
8980,0.3848601281642914,0.7878774404525757,-135,7014.0,-7.255620956420898,-161,9979.0
8990,0.3853900134563446,-4.068700790405273,-67,7014.0,-2.1767754554748535,7,9979.0
9000,0.3858833909034729,-3.6250789165496826,-94,7014.0,-2.1561145782470703,-250,9979.0
9010,0.38580960035324097,-1.4467551708221436,-205,7014.0,-0.5982660055160522,-39,9979.0
9020,0.3861941397190094,-2.1731181144714355,36,7014.0,7.140948295593262,257,9979.0
9030,0.386608749628067,2.337428092956543,72,7014.0,3.2885537147521973,-54,9979.0
9040,0.3870433270931244,2.3555455207824707,10,7014.0,5.16786527633667,136,9979.0
9050,0.38753536343574524,4.916587829589844,145,7014.0,4.708432674407959,170,9979.0
9060,0.3877590298652649,7.118234157562256,58,7014.0,5.74714994430542,-44,9979.0
9070,0.3881604075431824,5.19229793548584,-80,7014.0,7.629016399383545,166,9979.0
9080,0.38852620124816895,6.209179878234863,139,7014.0,-1.2966210842132568,61,9979.0
9090,0.3889140784740448,2.0888571739196777,44,7014.0,-2.37847638130188,-135,9979.0
9100,0.38879117369651794,-1.66036856174469,-23,7014.0,-2.919588804244995,21,9979.0
9110,0.3891500234603882,0.05733245238661766,138,7014.0,-6.324401378631592,-94,9979.0
9120,0.38948720693588257,-1.8025473356246948,-115,7014.0,1.0998376607894897,-185,9979.0
9130,0.3898502588272095,-2.291810989379883,-99,7014.0,-1.402897596359253,79,9979.0
9140,0.39022666215896606,-2.1762077808380127,47,7014.0,0.13694795966148376,-87,9979.0
9150,0.38929659128189087,-1.6472887992858887,-97,7014.0,3.3672940731048584,52,9979.0
9160,0.38963425159454346,-1.3071635961532593,126,7014.0,3.2070717811584473,203,9979.0
9170,0.3899526596069336,-0.09530147165060043,18,7014.0,4.520927429199219,-87,9979.0
9180,0.3902808725833893,1.3156477212905884,-90,7014.0,1.9306429624557495,30,9979.0
9190,0.38952621817588806,2.0631918907165527,60,7014.0,2.7893640995025635,126,9979.0
9200,0.3897204101085663,0.7589489817619324,-22,7014.0,3.3254036903381348,-67,9979.0
9210,0.3898266851902008,2.2470319271087646,-88,7014.0,0.6385548114776611,108,9979.0
9220,0.39049848914146423,-2.0844507217407227,142,7014.0,-3.648960828781128,120,9979.0
9230,0.39085814356803894,-2.798654079437256,-80,7014.0,-0.3570796251296997,-187,9979.0
9240,0.39118602871894836,-6.71390962600708,-132,7014.0,0.5519373416900635,22,9979.0
9250,0.3914678692817688,-7.371218681335449,-31,7014.0,2.5633859634399414,-24,9979.0
9260,0.39154988527297974,-5.413886070251465,-198,7014.0,0.22434470057487488,-91,9979.0
9270,0.3919897973537445,-6.363265514373779,-156,7014.0,-2.0557026863098145,82,9979.0
9280,0.39132094383239746,-12.6497163772583,-78,7014.0,-1.4037094116210938,1,9979.0
9290,0.39161649346351624,-13.37004566192627,-247,7014.0,-5.572490215301514,-107,9979.0
9300,0.39206913113594055,-13.346717834472656,-172,7014.0,-5.2343316078186035,-53,9979.0
9310,0.3925336003303528,-10.768771171569824,-154,7014.0,-12.842243194580078,-379,9979.0
9320,0.3930095136165619,-10.414982795715332,-335,7014.0,-13.589471817016602,-233,9979.0
9330,0.3934720754623413,-9.186914443969727,-102,7014.0,-13.815481185913086,132,9979.0
9340,0.393981009721756,-5.374180316925049,-75,7014.0,-4.401434898376465,-135,9979.0
9350,0.394493043422699,-3.6037373542785645,-118,7014.0,-4.562862873077393,39,9979.0
9360,0.39497363567352295,-0.49563300609588623,105,7014.0,-3.892277956008911,-156,9979.0
9370,0.3958626389503479,2.788930892944336,39,7014.0,-0.42036518454551697,204,9979.0
9380,0.39636728167533875,0.6456596851348877,235,7014.0,3.2025234699249268,77,9979.0
9390,0.39686450362205505,3.7470033168792725,-6,7014.0,-1.5863053798675537,-198,9979.0
9400,0.3973274230957031,-0.5663920044898987,27,7014.0,5.099606037139893,149,9979.0
9410,0.39706408977508545,-0.19902898371219635,0,7014.0,5.027913570404053,-75,9979.0
9420,0.39748603105545044,0.7758086919784546,-67,7014.0,-0.1449686884880066,44,9979.0
9430,0.3979310393333435,-1.9866456985473633,93,7014.0,0.9583295583724976,91,9979.0
9440,0.3983655869960785,0.13783079385757446,-26,7014.0,2.207838535308838,-114,9979.0
9450,0.3981354534626007,-0.2444181889295578,-41,7014.0,-4.10976505279541,-20,9979.0
9460,0.3985496461391449,0.45002028346061707,7,7014.0,-1.5571539402008057,-85,9979.0
9470,0.3989527225494385,0.8327032923698425,-82,7014.0,1.8398456573486328,90,9979.0
9480,0.39932936429977417,-4.5663886070251465,36,7014.0,6.849813938140869,188,9979.0
9490,0.39974913001060486,-3.7564926147460938,-97,7014.0,2.821049928665161,-100,9979.0
9500,0.40058839321136475,-3.9450504779815674,-68,7014.0,0.5886394381523132,122,9979.0
9510,0.4009617269039154,-3.6264538764953613,-32,7014.0,2.6808342933654785,-71,9979.0
9520,0.40131422877311707,-2.1303296089172363,-101,7014.0,2.743790626525879,126,9979.0
9530,0.4016680419445038,0.3810942769050598,192,7014.0,2.7270665168762207,121,9979.0
9540,0.4012376070022583,1.2829265594482422,-3,7014.0,0.8009901642799377,-172,9979.0
9550,0.4015519618988037,4.444810390472412,29,7014.0,3.0560474395751953,127,9979.0
9560,0.4018130302429199,2.969947338104248,87,7014.0,1.9032121896743774,-67,9979.0
9570,0.40206313133239746,3.88106107711792,-49,7014.0,0.986728310585022,132,9979.0
9580,0.40228527784347534,3.1492176055908203,198,7014.0,2.3085389137268066,115,9979.0
9590,0.4007600247859955,3.38969349861145,-18,7014.0,2.005627393722534,-127,9979.0
9600,0.40082207322120667,2.7062809467315674,-30,7014.0,1.4472650289535522,88,9979.0
9610,0.4008825421333313,1.6882063150405884,31,7014.0,0.16267941892147064,-55,9979.0
9620,0.40096354484558105,0.5943341255187988,-87,7014.0,0.24356000125408173,108,9979.0
9630,0.40260231494903564,1.6859843730926514,194,7014.0,-7.230262279510498,-24,9979.0
9640,0.4027280807495117,-2.2818732261657715,-40,7014.0,3.4950573444366455,-62,9979.0
9650,0.4028819799423218,0.6273555755615234,-6,7014.0,2.8128087520599365,122,9979.0
9660,0.4030528664588928,1.3682245016098022,61,7014.0,3.7800893783569336,-29,9979.0
9670,0.40470051765441895,2.564830780029297,-102,7014.0,2.9916040897369385,88,9979.0
9680,0.4049436151981354,2.607882261276245,108,7014.0,5.860450267791748,216,9979.0
9690,0.4052049219608307,2.494042158126831,20,7014.0,2.620959520339966,-92,9979.0
9700,0.4054655134677887,2.755080223083496,15,7014.0,-0.4707215130329132,78,9979.0
9710,0.4057249128818512,1.9298555850982666,145,7014.0,1.1434712409973145,-62,9979.0
9720,0.40611737966537476,4.938191890716553,-84,7014.0,0.9565220475196838,-31,9979.0
9730,0.40641671419143677,4.898835182189941,124,7014.0,-0.01905890926718712,263,9979.0
9740,0.40671977400779724,6.423830509185791,132,7014.0,3.4538259506225586,22,9979.0
9750,0.4070342779159546,4.867277145385742,30,7014.0,3.7036020755767822,142,9979.0
9760,0.40804725885391235,2.9417309761047363,120,7014.0,4.003877639770508,56,9979.0
9770,0.40843841433525085,0.46494534611701965,-170,7014.0,7.703700542449951,-17,9979.0
9780,0.408796101808548,0.624298632144928,16,7014.0,5.264373779296875,315,9979.0
9790,0.4091019630432129,1.9151029586791992,30,7014.0,7.204534530639648,44,9979.0
9800,0.40943270921707153,1.7232149839401245,29,7014.0,4.1202545166015625,167,9979.0
9810,0.40834176540374756,0.6699002981185913,103,7014.0,5.664658069610596,44,9979.0
9820,0.40854743123054504,-0.4309297800064087,-127,7014.0,6.581071376800537,-62,9979.0
9830,0.40872567892074585,-2.8494668006896973,8,7014.0,1.4532179832458496,153,9979.0
9840,0.4088941216468811,-1.0128244161605835,-4,7014.0,-0.6398281455039978,-95,9979.0
9850,0.4083225429058075,-1.4792416095733643,-40,7014.0,-2.340317726135254,26,9979.0
9860,0.40845170617103577,1.1561896800994873,140,7014.0,-0.34683412313461304,-35,9979.0
9870,0.40851375460624695,2.608192205429077,-103,7014.0,-1.1244654655456543,-140,9979.0
9880,0.4085804522037506,1.7689839601516724,22,7014.0,0.3862234652042389,64,9979.0
9890,0.40918245911598206,-0.8253690004348755,58,7014.0,6.992790699005127,105,9979.0
9900,0.40927577018737793,-0.9808444380760193,-81,7014.0,5.6860151290893555,185,9979.0
9910,0.4093528389930725,0.05185316503047943,156,7014.0,8.337101936340332,174,9979.0
9920,0.4094398021697998,-0.9177783131599426,-78,7014.0,2.4647910594940186,-273,9979.0
9930,0.4095139801502228,-3.92297625541687,-151,7014.0,2.6679704189300537,106,9979.0
9940,0.41057372093200684,-2.9253807067871094,52,7014.0,-0.8466651439666748,6,9979.0
9950,0.4106490910053253,-1.9988057613372803,-22,7014.0,-2.0551626682281494,-155,9979.0
9960,0.41073426604270935,-1.8054893016815186,74,7014.0,-4.69498348236084,84,9979.0
9970,0.4108036458492279,1.0885058641433716,-67,7014.0,-4.990364074707031,-287,9979.0
9980,0.41094979643821716,2.6712422370910645,-54,7014.0,-1.9681785106658936,101,9979.0
9990,0.41107773780822754,2.7503085136413574,121,7014.0,-1.919203519821167,-30,9979.0
10000,0.41121628880500793,5.502410888671875,2,7014.0,-0.1286155730485916,-47,9979.0
10010,0.4113311469554901,1.935152530670166,89,7014.0,3.5652685165405273,240,9979.0
10020,0.41143113374710083,-0.6178663969039917,89,7014.0,6.630454063415527,135,9979.0
10030,0.41140061616897583,3.5895326137542725,-80,7014.0,7.512114524841309,25,9979.0
10040,0.4115152657032013,2.2562055587768555,71,7014.0,5.351165294647217,160,9979.0
10050,0.41158953309059143,3.3188316822052,62,7014.0,2.963926315307617,-14,9979.0
10060,0.41167429089546204,4.047268867492676,-34,7014.0,1.4663234949111938,20,9979.0
10070,0.41300326585769653,4.291151523590088,105,7014.0,2.202589273452759,319,9979.0
10080,0.41308629512786865,-2.2289693355560303,75,7014.0,-0.4461286962032318,-111,9979.0
10090,0.41318413615226746,4.603017807006836,2,7014.0,-6.808566093444824,-60,9979.0
10100,0.4132302403450012,2.6779122352600098,72,7014.0,-0.5495259761810303,113,9979.0
10110,0.4147526025772095,3.090669631958008,25,7014.0,-0.02962072566151619,-217,9979.0
10120,0.41488489508628845,3.059678792953491,-142,7014.0,0.2915850579738617,-38,9979.0
10130,0.41505372524261475,0.47547033429145813,23,7014.0,4.029619216918945,113,9979.0
10140,0.41523095965385437,-2.09826397895813,-39,7014.0,5.663329601287842,-158,9979.0
10150,0.4154067933559418,-2.015174627304077,-63,7014.0,3.5080089569091797,177,9979.0
10160,0.4162220358848572,-1.9366419315338135,93,7014.0,-2.4418394565582275,234,9979.0
10170,0.41642656922340393,-4.129289627075195,-162,7014.0,3.988356590270996,-54,9979.0
10180,0.4165892004966736,-2.2420260906219482,-122,7014.0,-0.12172295898199081,70,9979.0
10190,0.4167535603046417,-3.0996782779693604,28,7014.0,0.4398779273033142,32,9979.0
10200,0.4161144196987152,-0.8130172491073608,-43,7014.0,-2.7161428928375244,-240,9979.0
10210,0.41617944836616516,3.5506489276885986,-135,7014.0,-4.5371479988098145,-93,9979.0
10220,0.4162568747997284,3.417670249938965,130,7014.0,-4.329805850982666,39,9979.0
10230,0.41631144285202026,6.509112358093262,134,7014.0,-6.295826435089111,-96,9979.0
10240,0.41633814573287964,5.653307914733887,63,7014.0,-4.110910892486572,-1,9979.0
10250,0.415406197309494,4.1640944480896,175,7014.0,-3.7491960525512695,72,9979.0
10260,0.4153534770011902,-0.16642893850803375,-2,7014.0,3.7637217044830322,-211,9979.0
10270,0.41525837779045105,1.0483039617538452,-131,7014.0,-1.6120688915252686,28,9979.0
10280,0.41512635350227356,0.42626091837882996,77,7014.0,1.8273162841796875,0,9979.0
10290,0.4156860113143921,-0.3540843427181244,-77,7014.0,2.806337833404541,-82,9979.0
10300,0.41553840041160583,-1.2058701515197754,-110,7014.0,-0.2655509412288666,55,9979.0
10310,0.4153948426246643,-1.642488718032837,109,7014.0,3.299978494644165,245,9979.0
10320,0.4152378737926483,-1.8672317266464233,-71,7014.0,-4.203354358673096,-95,9979.0
10330,0.415025919675827,-4.325552463531494,-72,7014.0,-2.7134158611297607,-117,9979.0
10340,0.4148087203502655,-0.20797307789325714,123,7014.0,-0.5842891335487366,79,9979.0
10350,0.4145888686180115,3.8628084659576416,130,7014.0,-1.2708293199539185,-221,9979.0
10360,0.4143652319908142,4.771240234375,-150,7014.0,-4.099017143249512,-182,9979.0
10370,0.4141644835472107,-0.6565325856208801,-31,7014.0,-4.168684959411621,38,9979.0
10380,0.4146915674209595,-1.9878467321395874,-34,7014.0,-1.4259368181228638,-61,9979.0
10390,0.4145340323448181,0.21870988607406616,-122,7014.0,1.5821025371551514,-66,9979.0
10400,0.4143805503845215,3.938631534576416,15,7014.0,1.0290285348892212,233,9979.0
10410,0.4142475724220276,-0.47321972250938416,37,7014.0,-1.3885293006896973,-6,9979.0
10420,0.4152643382549286,-0.2764841318130493,-84,7014.0,-2.7881853580474854,-63,9979.0
10430,0.415211945772171,-1.674133539199829,17,7014.0,-0.8328239917755127,136,9979.0
10440,0.4151959717273712,-1.885291337966919,114,7014.0,0.5428869128227234,-42,9979.0
10450,0.41522476077079773,-1.3716756105422974,-142,7014.0,-6.242632865905762,-259,9979.0
10460,0.41525697708129883,-4.948734760284424,-38,7014.0,-2.3127517700195312,108,9979.0
10470,0.4143488109111786,-5.797794818878174,-19,7014.0,-2.6619174480438232,-109,9979.0
10480,0.4143817722797394,-7.653383731842041,-211,7014.0,-2.0836997032165527,-109,9979.0
10490,0.4144272208213806,-2.706009864807129,-16,7014.0,-5.1912007331848145,63,9979.0
10500,0.4145171642303467,-2.4448177814483643,-13,7014.0,-0.20649167895317078,-63,9979.0
10510,0.41523852944374084,-1.6646970510482788,-121,7014.0,2.685985803604126,34,9979.0
10520,0.41542956233024597,-1.0808570384979248,11,7014.0,4.288516521453857,263,9979.0
10530,0.41563552618026733,-0.24371512234210968,49,7014.0,3.5103952884674072,58,9979.0
10540,0.4158549904823303,-1.610543966293335,-86,7014.0,6.212152481079102,76,9979.0
10550,0.41602492332458496,-0.3268531858921051,85,7014.0,1.7104436159133911,182,9979.0
10560,0.4162019193172455,3.3701484203338623,35,7014.0,-2.1994194984436035,-208,9979.0
10570,0.4163806736469269,-0.6293964982032776,-214,7014.0,-4.292545795440674,63,9979.0
10580,0.41653871536254883,-2.64617657661438,-27,7014.0,-8.163116455078125,-170,9979.0
10590,0.4166572690010071,-3.4164934158325195,-148,7014.0,-7.052529335021973,-3,9979.0
10600,0.41771239042282104,-4.672779560089111,104,7014.0,-5.313528537750244,77,9979.0
10610,0.417851984500885,-4.415919780731201,-51,7014.0,-3.6078174114227295,-85,9979.0
10620,0.41797924041748047,-3.8329083919525146,-131,7014.0,2.2396607398986816,58,9979.0
10630,0.41810497641563416,-2.679575204849243,83,7014.0,3.0442187786102295,44,9979.0
10640,0.4173402488231659,-1.44245183467865,-107,7014.0,6.36431884765625,-59,9979.0
10650,0.41737663745880127,0.9927636981010437,-45,7014.0,6.464655876159668,177,9979.0
10660,0.4173978567123413,-2.9615941047668457,6,7014.0,9.064750671386719,127,9979.0
10670,0.41744303703308105,-0.8804193139076233,-55,7014.0,3.882361650466919,-24,9979.0
10680,0.41750726103782654,-0.882265567779541,-14,7014.0,-0.9400317072868347,83,9979.0
10690,0.41695457696914673,0.09619427472352982,129,7014.0,-6.051971435546875,-140,9979.0
10700,0.4169682562351227,-3.819956064224243,-128,7014.0,-6.879657745361328,-252,9979.0
10710,0.41695743799209595,0.3767670691013336,16,7014.0,-8.369986534118652,-128,9979.0
10720,0.41693925857543945,-1.2123814821243286,20,7014.0,-8.62508773803711,-232,9979.0
10730,0.4172869324684143,-0.4039805233478546,-106,7014.0,-4.335448741912842,-175,9979.0
10740,0.41722413897514343,-2.6481566429138184,-21,7014.0,1.339825987815857,177,9979.0
10750,0.41712501645088196,-3.471369504928589,-2,7014.0,0.16701753437519073,45,9979.0
10760,0.41697609424591064,-1.1846356391906738,-98,7014.0,3.3936567306518555,125,9979.0
10770,0.4180840253829956,-3.0378952026367188,-24,7014.0,5.70612907409668,256,9979.0
10780,0.4180294871330261,-5.408322334289551,-47,7014.0,6.4367241859436035,-29,9979.0
10790,0.4179675281047821,-5.79511833190918,-265,7014.0,7.810104846954346,-117,9979.0
10800,0.41795775294303894,-3.478597640991211,-69,7014.0,-1.916667103767395,84,9979.0
10810,0.41791850328445435,-6.796679973602295,-28,7014.0,-3.7424511909484863,-107,9979.0
10820,0.4178810119628906,-4.04184627532959,-118,7014.0,-4.13490104675293,-152,9979.0
10830,0.41782665252685547,1.848670244216919,70,7014.0,-6.662147521972656,83,9979.0
10840,0.4177300035953522,4.20350456237793,215,7014.0,-3.0069305896759033,-70,9979.0
10850,0.4176173508167267,4.990274429321289,-9,7014.0,-2.1767024993896484,-108,9979.0
10860,0.41840800642967224,3.4953346252441406,54,7014.0,3.628840446472168,179,9979.0
10870,0.4183023273944855,4.443301677703857,136,7014.0,3.637991189956665,-24,9979.0
10880,0.41815492510795593,6.217946529388428,-128,7014.0,9.205005645751953,168,9979.0
10890,0.41802486777305603,1.4144068956375122,17,7014.0,5.560766696929932,195,9979.0
10900,0.4178996980190277,-0.23329274356365204,33,7014.0,5.921169281005859,56,9979.0
10910,0.4153296947479248,0.05454930290579796,-90,7014.0,2.031932830810547,43,9979.0
10920,0.4150643050670624,1.858130693435669,72,7014.0,0.6918637752532959,191,9979.0
10930,0.4147864282131195,-1.4595075845718384,183,7014.0,-1.5477267503738403,-30,9979.0
10940,0.414473295211792,-3.5411853790283203,-151,7014.0,2.7086877822875977,-64,9979.0
10950,0.4143401086330414,-2.6965551376342773,-65,7014.0,2.5269980430603027,104,9979.0
10960,0.41401004791259766,-2.5580313205718994,38,7014.0,3.0484683513641357,-48,9979.0
10970,0.4136912524700165,0.2707212567329407,-112,7014.0,1.464733600616455,-98,9979.0
10980,0.41338181495666504,-1.3978359699249268,-161,7014.0,4.167295455932617,160,9979.0
10990,0.4126397967338562,-0.8283175230026245,38,7014.0,-0.0011839818907901645,232,9979.0
11000,0.41230079531669617,-1.0825083255767822,86,7014.0,1.8866069316864014,-91,9979.0
11010,0.4119887948036194,4.014551639556885,-6,7014.0,0.186635360121727,-42,9979.0
11020,0.41170552372932434,5.8777689933776855,147,7014.0,-1.7780086994171143,99,9979.0
11030,0.41144856810569763,7.804141044616699,219,7014.0,-4.452017307281494,-146,9979.0
11040,0.4110240638256073,7.868151664733887,33,7014.0,-2.826519727706909,-153,9979.0
11050,0.4108102321624756,8.29846477508545,89,7014.0,1.7835214138031006,159,9979.0
11060,0.4106365740299225,3.5013206005096436,129,7014.0,1.9472036361694336,209,9979.0
11070,0.4104265570640564,8.393620491027832,19,7014.0,3.4941017627716064,-21,9979.0
11080,0.4092162251472473,3.516584634780884,-27,7014.0,-0.6858629584312439,52,9979.0
11090,0.40889689326286316,1.1475379467010498,155,7014.0,4.10838508605957,183,9979.0
11100,0.4085780680179596,7.1096110343933105,128,7014.0,4.8193678855896,5,9979.0
11110,0.4082610607147217,0.5753665566444397,-173,7014.0,2.8455400466918945,-215,9979.0
11120,0.40798038244247437,-1.5092625617980957,-70,7014.0,-0.4072272777557373,1,9979.0
11130,0.40857231616973877,-1.8218621015548706,33,7014.0,3.4368364810943604,121,9979.0
11140,0.40837734937667847,-2.3402557373046875,-15,7014.0,-0.41059979796409607,-90,9979.0
11150,0.40818727016448975,1.6879496574401855,-86,7014.0,-4.290839195251465,-37,9979.0
11160,0.40798619389533997,1.7468758821487427,20,7014.0,-5.91767692565918,106,9979.0
11170,0.40817123651504517,0.011485673487186432,242,7014.0,0.7405035495758057,-10,9979.0
11180,0.4079519510269165,7.9483962059021,-153,7014.0,-0.07557458430528641,-276,9979.0
11190,0.4077110290527344,-4.473855972290039,-180,7014.0,-2.7798497676849365,20,9979.0
11200,0.40747058391571045,-3.3611485958099365,-10,7014.0,-1.36272394657135,35,9979.0
11210,0.40632006525993347,-0.9997984766960144,-54,7014.0,-0.20075064897537231,-49,9979.0
11220,0.40602031350135803,-3.7539665699005127,16,7014.0,0.5676344633102417,168,9979.0
11230,0.40574535727500916,-1.1401344537734985,204,7014.0,0.6837549805641174,91,9979.0
11240,0.40548938512802124,1.9730864763259888,-10,7014.0,1.266217589378357,-208,9979.0
11250,0.4052119553089142,-1.2901936769485474,-124,7014.0,-3.1208107471466064,-89,9979.0
11260,0.40443161129951477,-0.6344603300094604,32,7014.0,-4.327582836151123,54,9979.0
11270,0.40409186482429504,4.073248863220215,147,7014.0,0.060642849653959274,-27,9979.0
11280,0.40375691652297974,3.92421555519104,-14,7014.0,0.050284676253795624,-90,9979.0
11290,0.4034239947795868,3.015737771987915,-48,7014.0,6.0897650718688965,125,9979.0
11300,0.4028957486152649,0.6165062785148621,52,7014.0,1.4343451261520386,319,9979.0
11310,0.40252116322517395,1.4814631938934326,198,7014.0,1.3515498638153076,36,9979.0
11320,0.4021400213241577,-0.8504392504692078,-39,7014.0,5.059852600097656,1,9979.0
11330,0.40174734592437744,1.977693796157837,26,7014.0,3.7709264755249023,75,9979.0
11340,0.40135130286216736,-0.2531854808330536,64,7014.0,1.975066900253296,116,9979.0
11350,0.4016013741493225,-1.0692217350006104,68,7014.0,-2.821748971939087,-44,9979.0
11360,0.4012182056903839,1.2963505983352661,-43,7014.0,-4.613129615783691,-344,9979.0
11370,0.40072372555732727,2.438889741897583,-136,7014.0,-2.2501890659332275,-81,9979.0
11380,0.4003593325614929,-0.7617422342300415,83,7014.0,-4.603240489959717,99,9979.0
11390,0.3994676172733307,5.493348598480225,134,7014.0,-1.0155470371246338,-43,9979.0
11400,0.39907148480415344,7.949418067932129,86,7014.0,-1.5812264680862427,-90,9979.0
11410,0.3986952602863312,10.158432960510254,39,7014.0,2.9894397258758545,47,9979.0
11420,0.3984587490558624,6.823991775512695,218,7014.0,2.4536969661712646,234,9979.0
11430,0.3985193967819214,9.245210647583008,298,7014.0,-2.955124855041504,89,9979.0
11440,0.3983418047428131,7.421481132507324,99,7014.0,1.6000823974609375,-98,9979.0
11450,0.3981531262397766,3.506861448287964,-16,7014.0,2.609031915664673,36,9979.0
11460,0.39793431758880615,2.2704577445983887,76,7014.0,1.3953896760940552,169,9979.0
11470,0.39771127700805664,-0.8247373700141907,106,7014.0,-0.9772088527679443,-93,9979.0
11480,0.3972150981426239,-4.908779621124268,-71,7014.0,-0.6137922406196594,-282,9979.0
11490,0.3970278799533844,-2.812988758087158,-277,7014.0,-2.114797592163086,-152,9979.0
11500,0.3968638479709625,-8.919011116027832,-115,7014.0,0.6404739618301392,223,9979.0
11510,0.39673012495040894,-6.399406433105469,-62,7014.0,-0.8331513404846191,1,9979.0
11520,0.3971158564090729,-4.7847442626953125,-154,7014.0,-0.25286516547203064,-166,9979.0
11530,0.3970317840576172,-4.755324363708496,-152,7014.0,-3.543187141418457,-108,9979.0
11540,0.39694201946258545,-4.237606048583984,-16,7014.0,-2.078508138656616,96,9979.0
11550,0.3968445658683777,-0.49925145506858826,208,7014.0,-5.793562889099121,-189,9979.0
11560,0.396734356880188,-0.08627158403396606,-30,7014.0,-9.089618682861328,-201,9979.0
11570,0.39711079001426697,-0.5940223336219788,-91,7014.0,-1.3563721179962158,-312,9979.0
11580,0.39694905281066895,-2.4845330715179443,5,7014.0,-3.0413694381713867,-48,9979.0
11590,0.3967750668525696,-2.389362096786499,18,7014.0,1.476653814315796,86,9979.0
11600,0.39661622047424316,-0.20608490705490112,-36,7014.0,1.4188711643218994,-71,9979.0
11610,0.3965720534324646,-0.0540953055024147,-122,7014.0,0.8925861716270447,43,9979.0
11620,0.3963770568370819,1.4411640167236328,132,7014.0,2.9544827938079834,243,9979.0
11630,0.39617499709129333,2.9531612396240234,319,7014.0,1.3400285243988037,-2,9979.0
11640,0.3959902822971344,1.3959901332855225,69,7014.0,-0.5842668414115906,-177,9979.0
11650,0.3946700990200043,4.3819966316223145,-51,7014.0,-0.08707793802022934,11,9979.0
11660,0.394429087638855,1.68892502784729,46,7014.0,2.2729029655456543,175,9979.0
11670,0.3941940367221832,2.155160427093506,85,7014.0,1.9681243896484375,-59,9979.0
11680,0.39396414160728455,2.4961278438568115,-89,7014.0,1.3481866121292114,-148,9979.0
11690,0.393721342086792,-1.107515573501587,-120,7014.0,-3.099207639694214,49,9979.0
11700,0.3943789601325989,1.5097260475158691,13,7014.0,-2.751904249191284,173,9979.0
11710,0.39415568113327026,-3.32782244682312,-73,7014.0,-4.944371223449707,-81,9979.0
11720,0.39391711354255676,-3.5355515480041504,-99,7014.0,-2.7170889377593994,-63,9979.0
11730,0.393667608499527,-3.7575631141662598,11,7014.0,-2.29145884513855,76,9979.0
11740,0.3939707279205322,-2.358281373977661,64,7014.0,0.41717010736465454,-21,9979.0
11750,0.39376509189605713,0.76243656873703,15,7014.0,-4.573116302490234,-330,9979.0
11760,0.3935803174972534,2.9552998542785645,-199,7014.0,-5.13588809967041,6,9979.0
11770,0.393466591835022,1.462548017501831,36,7014.0,-0.5135360956192017,175,9979.0
11780,0.39335471391677856,1.360870361328125,62,7014.0,1.422609567642212,-24,9979.0
11790,0.3947972357273102,2.215740442276001,-40,7014.0,1.39979088306427,30,9979.0
11800,0.3948032557964325,1.5323148965835571,84,7014.0,3.6133599281311035,149,9979.0
11810,0.3947911560535431,3.760981798171997,210,7014.0,3.520101547241211,13,9979.0
11820,0.39476412534713745,3.764488458633423,-38,7014.0,0.5598196387290955,-48,9979.0
11830,0.39279448986053467,2.024876356124878,136,7014.0,-6.02122163772583,74,9979.0
11840,0.3926698565483093,4.711372375488281,53,7014.0,-4.935403347015381,-81,9979.0
11850,0.39253026247024536,1.4039735794067383,-48,7014.0,-4.245028018951416,-35,9979.0
11860,0.3924100399017334,0.5526459217071533,104,7014.0,-2.7037196159362793,81,9979.0
11870,0.39227578043937683,-0.5679524540901184,46,7014.0,-3.0334270000457764,-152,9979.0
11880,0.3928755521774292,-3.990567684173584,-143,7014.0,1.7603131532669067,-43,9979.0
11890,0.39279991388320923,-4.382571697235107,-57,7014.0,7.907625675201416,219,9979.0
11900,0.39271149039268494,-2.9084718227386475,-24,7014.0,1.9931533336639404,29,9979.0
11910,0.3926412761211395,-3.1316466331481934,-113,7014.0,2.023768424987793,-73,9979.0
11920,0.3939085900783539,-1.0485248565673828,-43,7014.0,-2.8973538875579834,146,9979.0
11930,0.393873929977417,-3.110583782196045,177,7014.0,-7.142151355743408,-24,9979.0
11940,0.39385971426963806,1.0736387968063354,-57,7014.0,-7.651188373565674,-238,9979.0
11950,0.3938235938549042,1.7972190380096436,-33,7014.0,-5.193345546722412,-58,9979.0
11960,0.3942505121231079,2.435826301574707,111,7014.0,-2.7772796154022217,-20,9979.0
11970,0.39425283670425415,3.3435792922973633,-43,7014.0,-1.3892059326171875,-184,9979.0
11980,0.3942597508430481,2.7071962356567383,-119,7014.0,2.0156102180480957,87,9979.0
11990,0.3942655622959137,-2.3021674156188965,20,7014.0,2.859912157058716,47,9979.0
12000,0.39430055022239685,-3.3279106616973877,-123,7014.0,3.7846288681030273,-32,9979.0
12010,0.394192636013031,-4.471782684326172,-99,7014.0,3.6127614974975586,232,9979.0
12020,0.39418452978134155,-3.6682868003845215,135,7014.0,2.3478775024414062,134,9979.0
12030,0.3941987454891205,-6.073830604553223,-125,7014.0,2.0084776878356934,-58,9979.0
12040,0.3942373991012573,-4.63560152053833,-132,7014.0,0.4539615213871002,50,9979.0
12050,0.39498135447502136,-6.024753570556641,-17,7014.0,1.827781319618225,7,9979.0
12060,0.3950888216495514,-2.0380325317382812,-72,7014.0,-2.533898115158081,-174,9979.0
12070,0.3952150046825409,-2.1505465507507324,-170,7014.0,-1.487022876739502,-43,9979.0
12080,0.3952118456363678,-0.8015031218528748,109,7014.0,-1.90442955493927,135,9979.0
12090,0.3968673050403595,0.4224835932254791,39,7014.0,-1.269612193107605,-56,9979.0
12100,0.39686769247055054,2.872795820236206,20,7014.0,0.4851934015750885,72,9979.0
12110,0.3972488343715668,4.5807623863220215,192,7014.0,1.8404014110565186,81,9979.0
12120,0.3972505033016205,3.437385320663452,30,7014.0,4.689784526824951,-124,9979.0
12130,0.39744070172309875,1.6725380420684814,-63,7014.0,3.5114998817443848,84,9979.0
12140,0.39816054701805115,-1.6253714561462402,4,7014.0,2.0124764442443848,23,9979.0
12150,0.3983195722103119,-3.7507333755493164,-150,7014.0,-0.26242202520370483,-94,9979.0
12160,0.39843422174453735,-4.430948257446289,-63,7014.0,-0.43478572368621826,144,9979.0
12170,0.39852961897850037,-7.395161151885986,35,7014.0,2.7706217765808105,6,9979.0
12180,0.39875200390815735,-3.87882661819458,-103,7014.0,0.831302285194397,-44,9979.0
12190,0.39876610040664673,-3.9059274196624756,-17,7014.0,-1.3048945665359497,187,9979.0
12200,0.39873018860816956,-0.8917400240898132,22,7014.0,0.6490292549133301,-152,9979.0
12210,0.39866623282432556,2.626774549484253,-139,7014.0,1.4042861461639404,37,9979.0
12220,0.39839744567871094,3.8186280727386475,132,7014.0,3.6132161617279053,117,9979.0
12230,0.3990432620048523,4.879019260406494,66,7014.0,1.4665403366088867,-34,9979.0
12240,0.3987346291542053,3.2555348873138428,22,7014.0,-0.7218581438064575,88,9979.0
12250,0.3987322151660919,3.1410412788391113,217,7014.0,-2.299509048461914,-81,9979.0
12260,0.3984833359718323,-2.5619523525238037,-130,7014.0,0.21098197996616364,-185,9979.0
12270,0.39851224422454834,-1.5366497039794922,-33,7014.0,-4.017761707305908,18,9979.0
12280,0.3982653319835663,-2.3536276817321777,-43,7014.0,-2.8720734119415283,-139,9979.0
12290,0.39800116419792175,-2.8549516201019287,-175,7014.0,-0.12072574347257614,81,9979.0
12300,0.39770832657814026,-1.0601356029510498,111,7014.0,-3.6158409118652344,122,9979.0
12310,0.39763468503952026,-1.5197068452835083,-64,7014.0,8.295599937438965,3,9979.0
12320,0.39736059308052063,-2.4518795013427734,-5,7014.0,4.30290412902832,203,9979.0
12330,0.3970660865306854,-1.1351110935211182,77,7014.0,5.3582258224487305,6,9979.0
12340,0.39676016569137573,0.1865968108177185,-174,7014.0,6.207919597625732,-49,9979.0
12350,0.39644724130630493,0.2720808684825897,5,7014.0,2.5965018272399902,294,9979.0
12360,0.3981003761291504,1.5325939655303955,41,7014.0,1.8913586139678955,32,9979.0
12370,0.3979001045227051,0.8634111881256104,-17,7014.0,-0.021710455417633057,28,9979.0
12380,0.39763879776000977,3.451514482498169,128,7014.0,-0.6146030426025391,107,9979.0
12390,0.3973788022994995,3.4592950344085693,11,7014.0,-3.104689121246338,-265,9979.0
12400,0.3970855474472046,3.373791456222534,-132,7014.0,1.102792501449585,92,9979.0
12410,0.39684978127479553,0.9709405303001404,48,7014.0,-3.6213672161102295,-45,9979.0
12420,0.39663729071617126,-1.555320143699646,-77,7014.0,-3.704761266708374,-90,9979.0
12430,0.39638417959213257,-1.7968194484710693,6,7014.0,-3.210341691970825,139,9979.0
12440,0.3960922062397003,-2.808643102645874,-107,7014.0,2.070584297180176,-144,9979.0
12450,0.3974784314632416,0.6948990225791931,-4,7014.0,0.47108352184295654,76,9979.0
12460,0.39727064967155457,0.25430768728256226,11,7014.0,3.9793965816497803,45,9979.0
12470,0.3970695734024048,1.7351795434951782,-110,7014.0,5.4896039962768555,103,9979.0
12480,0.39690008759498596,-0.22125683724880219,108,7014.0,5.177992820739746,157,9979.0
12490,0.39760157465934753,-2.182002067565918,6,7014.0,5.509261608123779,-55,9979.0
12500,0.39752209186553955,-2.316138982772827,-55,7014.0,6.716644763946533,126,9979.0
12510,0.3974492847919464,-0.6118084192276001,65,7014.0,5.751929759979248,32,9979.0
12520,0.39741501212120056,1.6575713157653809,-114,7014.0,4.543022632598877,-81,9979.0
12530,0.3976025879383087,2.338759660720825,-30,7014.0,3.565711736679077,116,9979.0
12540,0.3975682854652405,0.7625899314880371,135,7014.0,-3.300785779953003,-42,9979.0
12550,0.3975200951099396,1.01577889919281,-74,7014.0,-4.376636981964111,-37,9979.0
12560,0.3974517583847046,0.4156773090362549,93,7014.0,-6.645726203918457,35,9979.0
12570,0.39738965034484863,-3.3645193576812744,-42,7014.0,-2.403637170791626,-288,9979.0
12580,0.39680716395378113,0.6305036544799805,-53,7014.0,-5.661989212036133,-38,9979.0
12590,0.39669671654701233,-0.36051684617996216,28,7014.0,-1.9824199676513672,-69,9979.0
12600,0.39658355712890625,-1.1627053022384644,-154,7014.0,0.03824017196893692,-72,9979.0
12610,0.3964828848838806,-0.3233582675457001,45,7014.0,3.721320867538452,181,9979.0
12620,0.3951088488101959,-0.6542959213256836,-36,7014.0,1.4980829954147339,40,9979.0
12630,0.39491701126098633,-1.966761589050293,-34,7014.0,5.7789154052734375,190,9979.0
12640,0.3946952521800995,0.7734595537185669,152,7014.0,4.632387638092041,93,9979.0
12650,0.394512802362442,1.2755112648010254,-75,7014.0,7.666274547576904,11,9979.0
12660,0.394535094499588,2.7901194095611572,29,7014.0,5.463532447814941,143,9979.0
12670,0.3942205011844635,-0.2549930214881897,10,7014.0,5.40008544921875,-60,9979.0
12680,0.39387935400009155,-0.21085137128829956,-97,7014.0,1.6420226097106934,43,9979.0
12690,0.3935526907444,-1.1869701147079468,149,7014.0,1.3926589488983154,71,9979.0
12700,0.39320051670074463,-0.07724236696958542,-30,7014.0,3.1594979763031006,-16,9979.0
12710,0.39409512281417847,2.290649175643921,67,7014.0,-0.5065670013427734,149,9979.0
12720,0.3938487768173218,-0.05464097857475281,55,7014.0,-1.845175862312317,-159,9979.0
12730,0.39361971616744995,3.0552847385406494,-91,7014.0,0.6168164610862732,1,9979.0
12740,0.3934257924556732,1.6874394416809082,85,7014.0,-3.2874951362609863,8,9979.0
12750,0.39351147413253784,-0.42036861181259155,-132,7014.0,4.314739227294922,-37,9979.0
12760,0.3933373987674713,-3.4485654830932617,-55,7014.0,2.7189669609069824,265,9979.0
12770,0.3931654095649719,-1.5309181213378906,-28,7014.0,5.421050548553467,51,9979.0
12780,0.39296138286590576,-5.7368879318237305,-153,7014.0,8.188946723937988,162,9979.0
12790,0.39274710416793823,-6.544693946838379,94,7014.0,5.507763385772705,38,9979.0
12800,0.3939008116722107,-3.902736186981201,-106,7014.0,3.8309566974639893,-177,9979.0
12810,0.393717885017395,-1.6830981969833374,11,7014.0,1.6918524503707886,77,9979.0
12820,0.3935200273990631,1.7692594528198242,46,7014.0,0.26895269751548767,-26,9979.0
12830,0.3933323919773102,2.641371011734009,-58,7014.0,-0.005512389820069075,49,9979.0
12840,0.3946288228034973,4.9200849533081055,140,7014.0,-5.819974422454834,81,9979.0
12850,0.39456772804260254,2.8745436668395996,9,7014.0,-1.9473971128463745,-125,9979.0
12860,0.39451679587364197,0.4989300072193146,24,7014.0,-1.3531790971755981,51,9979.0
12870,0.3944595456123352,0.6573713421821594,14,7014.0,-1.7271994352340698,-171,9979.0
12880,0.39461949467658997,-2.663302183151245,-188,7014.0,-1.5384571552276611,-27,9979.0
12890,0.39457061886787415,-0.6823974847793579,-9,7014.0,-2.2653069496154785,-8,9979.0
12900,0.39450350403785706,-1.738812804222107,-99,7014.0,2.0855274200439453,-59,9979.0
12910,0.39439040422439575,-1.523774266242981,19,7014.0,0.8261978030204773,291,9979.0
12920,0.39428266882896423,-2.1941263675689697,21,7014.0,0.49057677388191223,-132,9979.0
12930,0.39209234714508057,-1.3999539613723755,-6,7014.0,-1.9447414875030518,29,9979.0
12940,0.3918699026107788,-1.2842272520065308,11,7014.0,-2.4561290740966797,-150,9979.0
12950,0.39161059260368347,-1.4899121522903442,-167,7014.0,-0.9067974090576172,2,9979.0
12960,0.39132633805274963,-1.770984411239624,153,7014.0,-2.6172358989715576,-79,9979.0
12970,0.39102715253829956,0.5452636480331421,-56,7014.0,-5.613713264465332,-61,9979.0
12980,0.39074403047561646,-1.6001720428466797,94,7014.0,-2.3146347999572754,25,9979.0
12990,0.39040613174438477,2.049487590789795,-50,7014.0,-3.0549092292785645,-236,9979.0
13000,0.39003029465675354,-1.5249329805374146,-6,7014.0,-0.6257855892181396,42,9979.0
13010,0.38965168595314026,-1.5021413564682007,-9,7014.0,2.586973190307617,-46,9979.0
13020,0.39037925004959106,0.05642512068152428,-81,7014.0,-0.18124382197856903,140,9979.0
13030,0.3900686502456665,-1.3094619512557983,-87,7014.0,1.0615688562393188,-12,9979.0
13040,0.389727383852005,0.3586483895778656,-65,7014.0,-3.5923237800598145,-141,9979.0
13050,0.3893616795539856,-2.27030086517334,36,7014.0,-1.9509650468826294,-60,9979.0
13060,0.3886062204837799,-2.438201665878296,-127,7014.0,-3.414475440979004,-3,9979.0
13070,0.38822537660598755,-3.0640664100646973,82,7014.0,-3.2016401290893555,-46,9979.0
13080,0.3878135085105896,-5.897818565368652,-103,7014.0,-1.1221675872802734,-294,9979.0
13090,0.38738346099853516,-1.308335781097412,-110,7014.0,-2.0061395168304443,52,9979.0
13100,0.38696712255477905,-0.3298923671245575,29,7014.0,1.64194655418396,77,9979.0
13110,0.3869742453098297,0.11360426992177963,-39,7014.0,-0.26608750224113464,-15,9979.0
13120,0.38661903142929077,3.4700124263763428,178,7014.0,-1.8676459789276123,75,9979.0
13130,0.3862268328666687,6.248768329620361,112,7014.0,-1.4119142293930054,-226,9979.0
13140,0.38584864139556885,7.564707279205322,-48,7014.0,0.1735273003578186,25,9979.0
13150,0.38608041405677795,6.162563800811768,128,7014.0,-2.87259578704834,93,9979.0
13160,0.3857332170009613,3.6840078830718994,34,7014.0,-0.4148196876049042,-69,9979.0
13170,0.3853701949119568,2.958982467651367,52,7014.0,-2.1300771236419678,142,9979.0
13180,0.3850230574607849,-1.0203033685684204,75,7014.0,0.703312337398529,-4,9979.0
13190,0.38403740525245667,-0.914400041103363,-143,7014.0,-4.202015399932861,-124,9979.0
13200,0.3836199641227722,-2.7866709232330322,-58,7014.0,-3.196169376373291,-29,9979.0
13210,0.38321927189826965,-6.264936923980713,-68,7014.0,-1.654543399810791,-102,9979.0
13220,0.38286682963371277,-3.8862030506134033,-113,7014.0,-5.919668197631836,-28,9979.0
13230,0.38251355290412903,-6.272272109985352,50,7014.0,-8.798347473144531,0,9979.0
13240,0.38207924365997314,-2.314336061477661,-70,7014.0,-4.055093765258789,-209,9979.0
13250,0.3817148208618164,-0.6828624606132507,-153,7014.0,-4.465971946716309,-119,9979.0
13260,0.3813682198524475,1.8893758058547974,11,7014.0,-5.5892744064331055,27,9979.0
13270,0.38099774718284607,2.5846505165100098,40,7014.0,-2.2351176738739014,-119,9979.0
13280,0.38079309463500977,2.100440263748169,-58,7014.0,-2.017662525177002,75,9979.0
13290,0.38043010234832764,3.167712688446045,199,7014.0,0.535556972026825,70,9979.0
13300,0.3800273835659027,5.237080097198486,-4,7014.0,2.546424627304077,-170,9979.0
13310,0.3796407878398895,2.030238389968872,-88,7014.0,0.5288529992103577,-2,9979.0
13320,0.3794848918914795,1.8007903099060059,96,7014.0,0.45162272453308105,71,9979.0
13330,0.3791405260562897,1.4330378770828247,21,7014.0,0.1678483486175537,-78,9979.0
13340,0.3787640631198883,2.266073703765869,-35,7014.0,2.431302785873413,137,9979.0
13350,0.3783673644065857,3.4683454036712646,180,7014.0,-1.7771388292312622,68,9979.0
13360,0.37797021865844727,3.806363105773926,97,7014.0,3.5443811416625977,-192,9979.0
13370,0.3776918053627014,11.24872875213623,-21,7014.0,3.664064884185791,23,9979.0
13380,0.37733349204063416,4.501775741577148,68,7014.0,-5.864748954772949,142,9979.0
13390,0.37691831588745117,4.077869415283203,77,7014.0,-1.7889225482940674,-146,9979.0
13400,0.3764595687389374,3.9191994667053223,10,7014.0,-7.426250457763672,-82,9979.0
13410,0.37866219878196716,4.226183891296387,160,7014.0,-7.663210868835449,-8,9979.0
13420,0.37833088636398315,4.439792156219482,57,7014.0,-1.7450776100158691,-322,9979.0
13430,0.3780343532562256,0.5422590374946594,-160,7014.0,-2.5116686820983887,-17,9979.0
13440,0.37775832414627075,4.30595064163208,63,7014.0,-1.1779122352600098,68,9979.0
13450,0.3774711787700653,-1.1769447326660156,-18,7014.0,4.9260406494140625,-36,9979.0
13460,0.3771003782749176,-0.9382467865943909,-95,7014.0,5.732575416564941,204,9979.0
13470,0.3767980933189392,-3.023784637451172,49,7014.0,8.019479751586914,227,9979.0
13480,0.37656933069229126,-8.254684448242188,-146,7014.0,8.874621391296387,21,9979.0
13490,0.3763541877269745,-7.356292724609375,-246,7014.0,2.391446590423584,45,9979.0
13500,0.37764212489128113,-4.36979866027832,-13,7014.0,1.3472658395767212,80,9979.0
13510,0.3774935305118561,-1.4105509519577026,20,7014.0,0.8960496783256531,-86,9979.0
13520,0.3773466944694519,2.550553798675537,-70,7014.0,-0.937976062297821,-33,9979.0
13530,0.37723633646965027,3.887331962585449,86,7014.0,-3.23523211479187,73,9979.0
13540,0.37713852524757385,2.0371549129486084,172,7014.0,-3.4155049324035645,-87,9979.0
13550,0.3778455853462219,1.4238344430923462,-170,7014.0,-5.613391399383545,-65,9979.0
13560,0.3778820037841797,1.2421519756317139,182,7014.0,-1.3681156635284424,153,9979.0
13570,0.3779011070728302,2.6695375442504883,173,7014.0,1.176051378250122,-2,9979.0
13580,0.3778136372566223,3.1262359619140625,15,7014.0,-0.8269850015640259,-27,9979.0
13590,0.37743648886680603,2.721933364868164,75,7014.0,-0.8440427184104919,41,9979.0
13600,0.3772948384284973,3.860598564147949,52,7014.0,-0.738606333732605,-109,9979.0
13610,0.3771269917488098,2.0799715518951416,-117,7014.0,-1.4481394290924072,-40,9979.0
13620,0.3769710659980774,-0.040183886885643005,119,7014.0,-2.133793592453003,133,9979.0
13630,0.3764771521091461,-0.5697142481803894,70,7014.0,-1.2048875093460083,-71,9979.0
13640,0.37624692916870117,-2.507847547531128,-143,7014.0,-5.830776214599609,-35,9979.0
13650,0.37596675753593445,0.2510214149951935,-42,7014.0,-0.19834427535533905,5,9979.0
13660,0.3756619095802307,-0.11427583545446396,-8,7014.0,-1.2626185417175293,-32,9979.0
13670,0.3753567337989807,2.636137008666992,112,7014.0,-1.220692753791809,59,9979.0
13680,0.3754497170448303,4.863287925720215,41,7014.0,-1.4256141185760498,-113,9979.0
13690,0.37515735626220703,7.588797569274902,39,7014.0,1.152693271636963,77,9979.0
13700,0.3748803734779358,6.911827087402344,304,7014.0,0.9874953627586365,239,9979.0
13710,0.3745783567428589,8.14240550994873,86,7014.0,-2.255146026611328,-116,9979.0
13720,0.3749101459980011,2.9764530658721924,-42,7014.0,0.7891121506690979,133,9979.0
13730,0.37464457750320435,-0.8165028691291809,57,7014.0,4.782390117645264,34,9979.0
13740,0.3743758201599121,1.060221552848816,-97,7014.0,5.242136478424072,-36,9979.0
13750,0.3741000294685364,-2.377051830291748,12,7014.0,5.05957555770874,257,9979.0
13760,0.3738413453102112,-6.2318902015686035,-27,7014.0,5.071498394012451,57,9979.0
13770,0.3740578889846802,-5.973154544830322,-185,7014.0,0.22829937934875488,-55,9979.0
13780,0.373837947845459,-2.781991481781006,-90,7014.0,-3.532721996307373,76,9979.0
13790,0.37358972430229187,-5.459919452667236,-59,7014.0,1.8373457193374634,-49,9979.0
13800,0.37331730127334595,-3.3657026290893555,-105,7014.0,0.10734540969133377,46,9979.0
13810,0.37343376874923706,0.6401216983795166,85,7014.0,0.6047514081001282,72,9979.0
13820,0.3731982409954071,-1.9239697456359863,-98,7014.0,3.765718460083008,-134,9979.0
13830,0.3729620575904846,2.279507875442505,-123,7014.0,2.9037506580352783,69,9979.0
13840,0.37273189425468445,3.3479974269866943,250,7014.0,5.474006175994873,176,9979.0
13850,0.37192150950431824,-0.3161810040473938,21,7014.0,0.36328956484794617,-105,9979.0
13860,0.3716220259666443,0.8671573400497437,-19,7014.0,-2.204385995864868,95,9979.0
13870,0.37133869528770447,-0.32253357768058777,132,7014.0,-1.1997357606887817,-150,9979.0
13880,0.3710537254810333,0.06627131253480911,-151,7014.0,-4.360814094543457,-145,9979.0
13890,0.3707468509674072,-1.1146098375320435,-6,7014.0,-6.956116199493408,61,9979.0
13900,0.370927095413208,-3.5905683040618896,-27,7014.0,-1.3278812170028687,-107,9979.0
13910,0.37067538499832153,-4.0976667404174805,-43,7014.0,0.685798704624176,21,9979.0
13920,0.37041980028152466,-3.099540948867798,45,7014.0,4.596371650695801,49,9979.0
13930,0.3701278567314148,-1.560166358947754,-210,7014.0,5.676382064819336,-17,9979.0
13940,0.3691175878047943,-2.0638906955718994,-30,7014.0,8.614664077758789,295,9979.0
13950,0.368833988904953,-0.9410215020179749,116,7014.0,6.229833126068115,122,9979.0
13960,0.36856743693351746,0.8371791243553162,-57,7014.0,2.5494625568389893,91,9979.0
13970,0.36832132935523987,-0.24116575717926025,54,7014.0,-0.1454392969608307,85,9979.0
13980,0.36651885509490967,-2.8237359523773193,-47,7014.0,2.6892943382263184,-115,9979.0
13990,0.36620765924453735,0.1306801587343216,-72,7014.0,-5.593156814575195,-18,9979.0
14000,0.36591842770576477,-2.779442310333252,100,7014.0,-5.879071235656738,-73,9979.0
14010,0.36563190817832947,-1.479628086090088,-72,7014.0,-3.0731074810028076,-120,9979.0
14020,0.36539965867996216,-1.2763898372650146,19,7014.0,-0.8687953948974609,57,9979.0
14030,0.3651178181171417,-0.5330925583839417,-7,7014.0,1.9464912414550781,-100,9979.0
14040,0.36485570669174194,0.4228082299232483,-112,7014.0,3.358755111694336,114,9979.0
14050,0.3646089732646942,-0.862381100654602,111,7014.0,6.438908100128174,256,9979.0
14060,0.3643539845943451,1.3320956230163574,-25,7014.0,3.271420478820801,33,9979.0
14070,0.3636614680290222,-0.009603094309568405,-34,7014.0,5.638474941253662,122,9979.0
14080,0.36332938075065613,-0.32050350308418274,17,7014.0,4.963932991027832,-41,9979.0
14090,0.36296647787094116,1.5242998600006104,-69,7014.0,1.3802216053009033,-26,9979.0
14100,0.3626455068588257,0.6747714877128601,139,7014.0,-0.7204548716545105,122,9979.0
14110,0.3623354136943817,-1.8842509984970093,22,7014.0,-0.009175370447337627,-212,9979.0
14120,0.3606777787208557,-1.414542317390442,-89,7014.0,-1.7755272388458252,-20,9979.0
14130,0.36028793454170227,-1.925248622894287,22,7014.0,-3.110647439956665,-71,9979.0
14140,0.3599303066730499,-3.4052467346191406,-97,7014.0,-4.8938493728637695,-78,9979.0
14150,0.3595648407936096,-2.547544479370117,7,7014.0,-5.278809070587158,56,9979.0
14160,0.35876578092575073,-3.9209203720092773,24,7014.0,-3.4054040908813477,-163,9979.0
