timestamp,kalman.stateZ,gyro.x,gyro.xRaw,gyro.xVariance,gyro.y,gyro.yRaw,gyro.yVariance
0,0.2671664357185364,-0.16039495170116425,-3,9918.0,0.20399801433086395,4,8384.0
10,0.26598092913627625,0.26257315278053284,1,9918.0,0.4586011469364166,12,8384.0
20,0.26603859663009644,0.1944543719291687,2,9918.0,0.3501175045967102,9,8384.0
30,0.26607269048690796,0.06417910754680634,-6,9918.0,0.2725617289543152,10,8384.0
40,0.2661067843437195,0.04991142451763153,3,9918.0,0.0759044885635376,2,8384.0
50,0.2661381661891937,0.006609703414142132,-4,9918.0,0.12610825896263123,-3,8384.0
60,0.2652416229248047,0.25123390555381775,2,9918.0,-0.0670916885137558,-2,8384.0
70,0.265220582485199,-0.004464985337108374,4,9918.0,-0.4930736720561981,-2,8384.0
80,0.26520299911499023,0.24620820581912994,10,9918.0,-0.348799467086792,-8,8384.0
90,0.26518717408180237,0.17423303425312042,6,9918.0,-0.3827318847179413,-1,8384.0
100,0.26465460658073425,0.08613462746143341,5,9918.0,-0.5627195835113525,-15,8384.0
110,0.2646154463291168,0.07865695655345917,-3,9918.0,-0.7568469643592834,-13,8384.0
120,0.26457643508911133,0.1601085364818573,1,9918.0,-0.7954896688461304,-11,8384.0
130,0.2645353376865387,0.06326755881309509,2,9918.0,-0.6770208477973938,-15,8384.0
140,0.26466134190559387,0.05048553645610809,7,9918.0,-0.9119679927825928,-12,8384.0
150,0.26462966203689575,-0.31390172243118286,0,9918.0,-0.9228591322898865,-10,8384.0
160,0.26459968090057373,-0.3033365309238434,-3,9918.0,-0.7920141816139221,-11,8384.0
170,0.26458075642585754,0.23346750438213348,5,9918.0,-0.7038434743881226,-11,8384.0
180,0.2645604908466339,0.09201867878437042,-2,9918.0,-0.7491261959075928,-15,8384.0
190,0.26506105065345764,0.42105692625045776,9,9918.0,-1.416679859161377,-20,8384.0
200,0.2650645077228546,0.8054590821266174,20,9918.0,-2.1615545749664307,-35,8384.0
210,0.26516735553741455,1.1450687646865845,25,9918.0,-2.200291872024536,-42,8384.0
220,0.26529714465141296,1.061582088470459,48,9918.0,-2.4600777626037598,-49,8384.0
230,0.26438814401626587,4.296548843383789,39,9918.0,-5.6689348220825195,-82,8384.0
240,0.26438501477241516,5.350039958953857,146,9918.0,-5.596779823303223,-149,8384.0
250,0.2644595503807068,4.342567443847656,148,9918.0,-6.168027400970459,-147,8384.0
260,0.26445719599723816,7.08428430557251,116,9918.0,-7.881911277770996,-134,8384.0
270,0.2644553780555725,8.227065086364746,121,9918.0,-8.845613479614258,-131,8384.0
280,0.2651180624961853,7.840577125549316,113,9918.0,-9.095579147338867,-149,8384.0
290,0.2651206851005554,6.525528907775879,90,9918.0,-7.4236297607421875,-135,8384.0
300,0.2651608884334564,4.707596302032471,68,9918.0,-8.867408752441406,-130,8384.0
310,0.2651938199996948,5.695867538452148,100,9918.0,-3.623115062713623,-29,8384.0
320,0.2639068067073822,2.3557209968566895,1,9918.0,0.551804780960083,-37,8384.0
330,0.26387956738471985,-0.39020752906799316,18,9918.0,0.7039156556129456,55,8384.0
340,0.26386794447898865,-1.3446961641311646,-6,9918.0,4.075218677520752,70,8384.0
350,0.26385873556137085,-2.155261993408203,-52,9918.0,5.447506904602051,69,8384.0
360,0.26428911089897156,-0.739648699760437,-31,9918.0,7.013529300689697,139,8384.0
370,0.26429593563079834,-0.6754766702651978,30,9918.0,7.278265476226807,82,8384.0
380,0.2642684876918793,0.49031198024749756,12,9918.0,5.849626541137695,114,8384.0
390,0.2642558217048645,3.144611358642578,35,9918.0,3.998518466949463,92,8384.0
400,0.26423734426498413,2.626636505126953,86,9918.0,2.8139450550079346,-32,8384.0
410,0.26491814851760864,3.6626667976379395,37,9918.0,0.07988382875919342,31,8384.0
420,0.26488959789276123,3.532702684402466,76,9918.0,-3.050929546356201,-4,8384.0
430,0.2648659348487854,3.7351300716400146,70,9918.0,-3.196826934814453,-153,8384.0
440,0.2648468017578125,2.782548189163208,28,9918.0,-4.864428520202637,-94,8384.0
450,0.2656959593296051,1.5894697904586792,44,9918.0,-6.968553066253662,-30,8384.0
460,0.26572126150131226,0.1976373791694641,20,9918.0,-5.937984943389893,-119,8384.0
470,0.2657460868358612,-0.584457278251648,-1,9918.0,-4.074385166168213,-121,8384.0
480,0.2657455801963806,-1.9594544172286987,-57,9918.0,-3.1391661167144775,-67,8384.0
490,0.2674344480037689,-2.0439505577087402,-64,9918.0,-1.3933539390563965,30,8384.0
500,0.2675706744194031,-2.234896659851074,-97,9918.0,-0.3692554533481598,60,8384.0
510,0.2676994800567627,-2.0263240337371826,-84,9918.0,1.4349167346954346,128,8384.0
520,0.267833411693573,-1.5585319995880127,-21,9918.0,3.0236403942108154,189,8384.0
530,0.26798513531684875,-1.2750542163848877,46,9918.0,4.500319004058838,135,8384.0
540,0.2685156762599945,-1.0264959335327148,40,9918.0,5.366600036621094,-11,8384.0
550,0.2686445116996765,0.1608085334300995,24,9918.0,6.736270904541016,-80,8384.0
560,0.2687646150588989,1.0175973176956177,-13,9918.0,6.683560848236084,-10,8384.0
570,0.2688642740249634,1.116538166999817,-60,9918.0,5.137333393096924,102,8384.0
580,0.26744887232780457,1.995008111000061,-72,9918.0,2.0600523948669434,228,8384.0
590,0.2675020694732666,3.299058437347412,-31,9918.0,-2.4132044315338135,270,8384.0
600,0.2675180435180664,1.805972933769226,-8,9918.0,-4.153095722198486,199,8384.0
610,0.2675522267818451,1.1755871772766113,43,9918.0,-5.020191669464111,55,8384.0
620,0.26757463812828064,-0.12032478302717209,98,9918.0,-3.986349105834961,-147,8384.0
630,0.2665528357028961,-0.9577809572219849,132,9918.0,-3.687382936477661,-232,8384.0
640,0.2665467858314514,-1.401303768157959,44,9918.0,-1.9599239826202393,-241,8384.0
650,0.2665269374847412,-1.8257824182510376,16,9918.0,-1.0037771463394165,-170,8384.0
660,0.26649153232574463,-1.9220860004425049,-29,9918.0,-0.41699740290641785,-50,8384.0
670,0.266232430934906,-2.7731032371520996,-10,9918.0,0.575894296169281,15,8384.0
680,0.2661341428756714,-2.4886012077331543,23,9918.0,0.9442825317382812,-15,8384.0
690,0.26599013805389404,-2.1484787464141846,35,9918.0,3.661546468734741,-34,8384.0
700,0.2657654285430908,-1.6862894296646118,40,9918.0,5.694524765014648,-98,8384.0
710,0.2663976848125458,-0.7141508460044861,33,9918.0,7.616430759429932,-141,8384.0
720,0.26616013050079346,1.0880141258239746,24,9918.0,6.675332546234131,-113,8384.0
730,0.2659132778644562,1.9014204740524292,-37,9918.0,6.037558555603027,-21,8384.0
740,0.2656417191028595,2.0337681770324707,-40,9918.0,2.38626766204834,33,8384.0
750,0.26543787121772766,3.847700595855713,-81,9918.0,1.1783537864685059,58,8384.0
760,0.2675926387310028,2.8423962593078613,-89,9918.0,-1.5765535831451416,178,8384.0
770,0.2675228714942932,2.081116199493408,-76,9918.0,-3.263902187347412,161,8384.0
780,0.2674471437931061,1.7377510070800781,-61,9918.0,-4.626138210296631,153,8384.0
790,0.2673872113227844,0.4421536326408386,-50,9918.0,-4.484878063201904,110,8384.0
800,0.26643532514572144,-1.3518106937408447,-27,9918.0,-4.086338996887207,6,8384.0
810,0.26645514369010925,1.0729840993881226,-65,9918.0,-3.5826427936553955,-127,8384.0
820,0.2664537727832794,-1.0741751194000244,-68,9918.0,-1.7963879108428955,-190,8384.0
830,0.2664491534233093,-0.24026738107204437,-80,9918.0,-0.2109927386045456,-93,8384.0
840,0.26643890142440796,-1.9279059171676636,-68,9918.0,-1.6884105205535889,12,8384.0
850,0.26712191104888916,-1.5540235042572021,-45,9918.0,-1.9521665573120117,211,8384.0
860,0.26716408133506775,0.5613418221473694,21,9918.0,-0.30305245518684387,245,8384.0
870,0.2671631872653961,1.7155637741088867,14,9918.0,1.9353163242340088,248,8384.0
880,0.26715946197509766,2.1363730430603027,16,9918.0,3.3712658882141113,222,8384.0
890,0.26790669560432434,1.564027190208435,3,9918.0,2.0889015197753906,184,8384.0
900,0.26794368028640747,0.629965603351593,12,9918.0,2.075162887573242,121,8384.0
910,0.2680467963218689,0.2852630019187927,63,9918.0,1.5813381671905518,80,8384.0
920,0.26813000440597534,-0.3172534108161926,89,9918.0,0.32537227869033813,-3,8384.0
930,0.26857468485832214,-1.9352900981903076,77,9918.0,1.0793278217315674,-56,8384.0
940,0.2686687111854553,-2.270728588104248,53,9918.0,-3.9649465084075928,-57,8384.0
950,0.26877865195274353,-1.1546880006790161,-18,9918.0,-3.2236247062683105,-33,8384.0
960,0.26891565322875977,-2.153656244277954,-13,9918.0,-4.553188800811768,25,8384.0
970,0.26905912160873413,-1.746756911277771,6,9918.0,-4.839263439178467,-28,8384.0
980,0.26915955543518066,-0.033598367124795914,59,9918.0,-5.774425506591797,-87,8384.0
990,0.26921674609184265,-0.25248458981513977,99,9918.0,-2.9616858959198,-146,8384.0
1000,0.2692413330078125,1.5693538188934326,183,9918.0,-0.7661927342414856,-140,8384.0
1010,0.2692835330963135,1.4406720399856567,171,9918.0,-0.8119381070137024,-143,8384.0
1020,0.2687424123287201,2.2986249923706055,140,9918.0,-0.1287112832069397,-178,8384.0
1030,0.2686845362186432,1.9524661302566528,90,9918.0,0.23108594119548798,-183,8384.0
1040,0.2686019241809845,0.5315579175949097,81,9918.0,0.9734698534011841,-169,8384.0
1050,0.2684347331523895,0.1491691917181015,19,9918.0,0.2533119320869446,-131,8384.0
1060,0.2681823670864105,-1.5173208713531494,3,9918.0,3.112795114517212,50,8384.0
1070,0.2677701413631439,-1.5082504749298096,30,9918.0,1.565629243850708,169,8384.0
1080,0.26738956570625305,-1.9410269260406494,67,9918.0,2.7240185737609863,167,8384.0
1090,0.26705944538116455,-1.5012667179107666,49,9918.0,2.884918212890625,30,8384.0
1100,0.26679727435112,-0.24860966205596924,21,9918.0,2.6447534561157227,-111,8384.0
1110,0.26701655983924866,0.5563650131225586,69,9918.0,6.62235689163208,-130,8384.0
1120,0.26670196652412415,0.7226258516311646,42,9918.0,3.2674736976623535,-197,8384.0
1130,0.2663489282131195,0.16205108165740967,89,9918.0,2.91520357131958,-217,8384.0
1140,0.2660250663757324,1.7210274934768677,82,9918.0,2.402503728866577,-226,8384.0
1150,0.26647108793258667,1.0968841314315796,43,9918.0,1.7992769479751587,-210,8384.0
1160,0.26618728041648865,1.5517661571502686,4,9918.0,1.3622080087661743,-190,8384.0
1170,0.26592138409614563,0.6256820559501648,-56,9918.0,0.9567241668701172,-110,8384.0
1180,0.2657034993171692,-0.7324356436729431,-78,9918.0,-0.689559280872345,-15,8384.0
1190,0.26555442810058594,-1.9286301136016846,-71,9918.0,-0.9500071406364441,49,8384.0
1200,0.2660053074359894,-3.5791704654693604,-86,9918.0,-0.8375149369239807,76,8384.0
1210,0.26589235663414,-4.3770928382873535,-39,9918.0,1.1658480167388916,-15,8384.0
1220,0.2657191753387451,-5.506740570068359,-52,9918.0,2.1403822898864746,-112,8384.0
1230,0.2655119299888611,-4.356460094451904,-41,9918.0,4.52615213394165,-188,8384.0
1240,0.2664092481136322,-2.561591148376465,-23,9918.0,2.750150680541992,-199,8384.0
1250,0.2663116157054901,0.14684823155403137,84,9918.0,4.672167778015137,-101,8384.0
1260,0.26613080501556396,1.3913006782531738,65,9918.0,5.112649917602539,-70,8384.0
1270,0.2659505009651184,5.052785873413086,33,9918.0,2.515061140060425,0,8384.0
1280,0.2661743760108948,3.6572487354278564,35,9918.0,2.827831745147705,48,8384.0
1290,0.26601940393447876,5.353903293609619,6,9918.0,2.189532995223999,61,8384.0
1300,0.2658628523349762,3.1114609241485596,9,9918.0,0.3045367896556854,130,8384.0
1310,0.26565203070640564,2.9630367755889893,-28,9918.0,-2.1302740573883057,177,8384.0
1320,0.26534557342529297,1.8334776163101196,-58,9918.0,-2.307112693786621,136,8384.0
1330,0.26725348830223083,-0.6811388731002808,30,9918.0,0.2052915394306183,41,8384.0
1340,0.2668578028678894,-2.172625780105591,-34,9918.0,1.0621092319488525,-36,8384.0
1350,0.266428679227829,-3.786973714828491,-73,9918.0,0.9788694977760315,-181,8384.0
1360,0.2659699022769928,-3.5007259845733643,-85,9918.0,1.758063554763794,-242,8384.0
1370,0.2659469544887543,-2.8990745544433594,-26,9918.0,3.7604427337646484,-273,8384.0
1380,0.2655222713947296,-3.503659963607788,0,9918.0,2.8265011310577393,-218,8384.0
1390,0.26507851481437683,-0.8099879026412964,-13,9918.0,0.6822909712791443,-157,8384.0
1400,0.2646200656890869,0.21587757766246796,-9,9918.0,-0.2730054259300232,-117,8384.0
1410,0.26461952924728394,1.8203715085983276,-45,9918.0,0.20103299617767334,-102,8384.0
1420,0.26668643951416016,2.610276222229004,-33,9918.0,-0.5107623934745789,-69,8384.0
1430,0.2666839063167572,1.6817377805709839,-23,9918.0,-0.2034410685300827,45,8384.0
1440,0.2660689949989319,1.1659694910049438,1,9918.0,-0.6395789384841919,141,8384.0
1450,0.2660698890686035,0.05778978765010834,47,9918.0,0.45186546444892883,111,8384.0
1460,0.26659685373306274,0.370138555765152,27,9918.0,1.5335075855255127,82,8384.0
1470,0.2662884593009949,0.9037338495254517,38,9918.0,2.4977803230285645,-33,8384.0
1480,0.2659969627857208,-0.5306383371353149,8,9918.0,3.3182525634765625,-145,8384.0
1490,0.2656848430633545,-0.4840598404407501,122,9918.0,3.798168897628784,-176,8384.0
1500,0.26630541682243347,-0.20362220704555511,163,9918.0,4.771551609039307,-108,8384.0
1510,0.2658832371234894,-1.4127914905548096,117,9918.0,1.7770957946777344,-173,8384.0
1520,0.26552075147628784,1.107549786567688,74,9918.0,1.328856348991394,-218,8384.0
1530,0.2651662826538086,0.5517796277999878,72,9918.0,0.7962875366210938,-258,8384.0
1540,0.2648038864135742,0.11595231294631958,28,9918.0,-0.16734741628170013,-224,8384.0
1550,0.26588162779808044,-0.7193235158920288,39,9918.0,-2.85967755317688,-211,8384.0
1560,0.2655860483646393,1.2745758295059204,-27,9918.0,-0.3287712037563324,-85,8384.0
1570,0.2652985155582428,-0.5008134245872498,16,9918.0,-4.172043323516846,60,8384.0
1580,0.2650887668132782,0.2540959119796753,42,9918.0,-3.004445791244507,-82,8384.0
1590,0.26607656478881836,0.20593564212322235,27,9918.0,-3.762171983718872,-209,8384.0
1600,0.26593127846717834,-1.068055510520935,55,9918.0,-0.7866197228431702,-78,8384.0
1610,0.2657903730869293,-1.3289575576782227,42,9918.0,-0.11610755324363708,-272,8384.0
1620,0.2656403183937073,-0.9936585426330566,164,9918.0,-0.23457419872283936,-276,8384.0
1630,0.26544004678726196,-1.9847711324691772,81,9918.0,-0.08876155316829681,-202,8384.0
1640,0.26510152220726013,-1.5578242540359497,46,9918.0,0.5377395153045654,-179,8384.0
1650,0.2648167908191681,-1.996745228767395,5,9918.0,1.017853856086731,-141,8384.0
1660,0.2645352780818939,-1.3969221115112305,9,9918.0,0.5736649632453918,-122,8384.0
1670,0.26424863934516907,-2.4245684146881104,47,9918.0,1.2920036315917969,-86,8384.0
1680,0.26551365852355957,-0.46770018339157104,12,9918.0,0.8358619213104248,36,8384.0
1690,0.26532119512557983,-1.0396021604537964,92,9918.0,0.344957560300827,129,8384.0
1700,0.26512378454208374,-0.5388303399085999,-5,9918.0,-3.5512094497680664,45,8384.0
1710,0.2650849223136902,2.945537805557251,83,9918.0,-1.7076181173324585,24,8384.0
1720,0.26472142338752747,1.974704384803772,58,9918.0,-2.551079511642456,-75,8384.0
1730,0.264791339635849,1.7970036268234253,84,9918.0,-2.6306633949279785,-145,8384.0
1740,0.2649388015270233,1.607910394668579,122,9918.0,-2.2645585536956787,-81,8384.0
1750,0.2651042342185974,1.3251243829727173,111,9918.0,-1.3923612833023071,-160,8384.0
1760,0.26529139280319214,-0.11732570827007294,69,9918.0,-2.0393314361572266,-211,8384.0
1770,0.26611465215682983,-1.9635727405548096,57,9918.0,-2.1448960304260254,-180,8384.0
1780,0.2664248049259186,-3.2142152786254883,39,9918.0,-0.8145070672035217,-85,8384.0
1790,0.26673707365989685,-4.798511981964111,-7,9918.0,1.1149053573608398,-28,8384.0
1800,0.26710423827171326,-5.205267906188965,-32,9918.0,2.15676212310791,68,8384.0
1810,0.266971617937088,-1.6492290496826172,-73,9918.0,2.283296585083008,169,8384.0
1820,0.26749131083488464,-1.701767086982727,-36,9918.0,2.794144630432129,207,8384.0
1830,0.2680554986000061,-0.7481794953346252,-67,9918.0,0.8496676683425903,249,8384.0
1840,0.2686433792114258,2.4695022106170654,71,9918.0,0.6954707503318787,293,8384.0
1850,0.2692013382911682,2.5912344455718994,81,9918.0,2.3692917823791504,170,8384.0
1860,0.26867446303367615,2.7711832523345947,115,9918.0,2.905320405960083,116,8384.0
1870,0.26928067207336426,6.14780855178833,143,9918.0,-0.4328189790248871,2,8384.0
1880,0.2699214220046997,2.9462103843688965,122,9918.0,0.6893124580383301,-84,8384.0
1890,0.2705294191837311,1.4420645236968994,101,9918.0,0.9617310166358948,-118,8384.0
1900,0.2691883146762848,0.2601557970046997,145,9918.0,-1.0177524089813232,-199,8384.0
1910,0.2697232663631439,-2.968684196472168,83,9918.0,-1.179054856300354,-252,8384.0
1920,0.270271360874176,-4.125303268432617,24,9918.0,-0.5871840715408325,-253,8384.0
1930,0.2708902657032013,-4.146109104156494,-12,9918.0,-4.295589447021484,-251,8384.0
1940,0.2702236771583557,-4.6431145668029785,-63,9918.0,-1.7370752096176147,-128,8384.0
1950,0.27022120356559753,-3.5865166187286377,-18,9918.0,-0.6025444269180298,-37,8384.0
1960,0.2706150412559509,-2.8727686405181885,-46,9918.0,0.11700847744941711,108,8384.0
1970,0.27100732922554016,2.1640982627868652,74,9918.0,1.234163761138916,99,8384.0
1980,0.27149924635887146,0.9659275412559509,47,9918.0,3.0338544845581055,124,8384.0
1990,0.26924362778663635,2.8783037662506104,51,9918.0,1.6327593326568604,18,8384.0
2000,0.26968976855278015,4.176585674285889,139,9918.0,3.6580722332000732,47,8384.0
2010,0.2701457738876343,2.0549116134643555,197,9918.0,6.750613689422607,90,8384.0
2020,0.2705935537815094,1.3099336624145508,123,9918.0,1.3434970378875732,-41,8384.0
2030,0.2702616751194,0.23264175653457642,143,9918.0,3.427264928817749,-157,8384.0
2040,0.27066314220428467,0.22751154005527496,60,9918.0,1.1888054609298706,-236,8384.0
2050,0.27110570669174194,-0.10654319822788239,104,9918.0,1.4254584312438965,-272,8384.0
2060,0.2715204358100891,-1.2428112030029297,60,9918.0,0.1158415749669075,-234,8384.0
2070,0.27186936140060425,-1.9060735702514648,-4,9918.0,-2.310404062271118,-207,8384.0
2080,0.26971855759620667,-1.5693053007125854,-5,9918.0,-2.980630397796631,-172,8384.0
2090,0.269991934299469,-0.6960298418998718,-38,9918.0,-3.006856918334961,-170,8384.0
2100,0.27021750807762146,0.8593208193778992,-61,9918.0,-2.1676440238952637,-106,8384.0
2110,0.27042704820632935,2.0159080028533936,-89,9918.0,-2.81095290184021,-35,8384.0
2120,0.2696165442466736,1.3629045486450195,-86,9918.0,-1.368289589881897,62,8384.0
2130,0.26982784271240234,0.3833724558353424,-47,9918.0,-0.65822833776474,117,8384.0
2140,0.27004656195640564,-0.5233878493309021,-79,9918.0,-0.9026526808738708,93,8384.0
2150,0.2702133357524872,-1.0741592645645142,-95,9918.0,-0.1665402054786682,133,8384.0
2160,0.26905515789985657,0.15920120477676392,-100,9918.0,-1.1334285736083984,93,8384.0
2170,0.2689756751060486,-1.141461730003357,-111,9918.0,1.5347601175308228,-7,8384.0
2180,0.2687377333641052,-0.7513214945793152,31,9918.0,0.177902489900589,53,8384.0
2190,0.26832467317581177,2.0147135257720947,22,9918.0,2.5213496685028076,-12,8384.0
2200,0.2678599953651428,4.438336372375488,-6,9918.0,1.9599028825759888,16,8384.0
2210,0.2668415606021881,2.8147153854370117,22,9918.0,0.37175697088241577,56,8384.0
2220,0.26633375883102417,6.3069987297058105,-68,9918.0,0.6927183866500854,13,8384.0
2230,0.2657817304134369,5.186007022857666,-30,9918.0,-0.7805548906326294,92,8384.0
2240,0.2651209235191345,4.64991569519043,-16,9918.0,-3.811807870864868,91,8384.0
2250,0.2657971978187561,1.615929126739502,-48,9918.0,-3.0100717544555664,76,8384.0
2260,0.2652011811733246,2.0469090938568115,-99,9918.0,-3.359846830368042,-15,8384.0
2270,0.26460403203964233,1.103097677230835,-120,9918.0,-4.957418918609619,-87,8384.0
2280,0.26403966546058655,-1.2636491060256958,-88,9918.0,-3.2724709510803223,-260,8384.0
2290,0.26336148381233215,-2.4560463428497314,-88,9918.0,-3.2033181190490723,-119,8384.0
2300,0.2643416225910187,-2.3022382259368896,-51,9918.0,-2.750624179840088,-131,8384.0
2310,0.2636471390724182,-2.542280912399292,-53,9918.0,-0.400203138589859,-134,8384.0
2320,0.2629854083061218,-2.469647169113159,42,9918.0,0.17743432521820068,-87,8384.0
2330,0.26224932074546814,0.16492989659309387,134,9918.0,1.4527004957199097,-177,8384.0
2340,0.263986736536026,2.049438953399658,113,9918.0,-0.06383825093507767,-206,8384.0
2350,0.2636703848838806,2.5316162109375,124,9918.0,2.2040116786956787,-73,8384.0
2360,0.2632777690887451,4.039591312408447,188,9918.0,0.7393572330474854,9,8384.0
2370,0.2628856897354126,2.0486700534820557,120,9918.0,0.21090349555015564,67,8384.0
2380,0.26419106125831604,2.2196285724639893,6,9918.0,4.705879211425781,-15,8384.0
2390,0.26384809613227844,1.6207189559936523,70,9918.0,2.651966094970703,60,8384.0
2400,0.263392835855484,0.6016221642494202,20,9918.0,2.106717586517334,16,8384.0
2410,0.26291996240615845,-1.510778546333313,8,9918.0,0.718298614025116,74,8384.0
2420,0.2625960111618042,-1.626515507698059,5,9918.0,-1.2944148778915405,158,8384.0
2430,0.26489555835723877,-0.6456080675125122,-42,9918.0,-0.4276067614555359,102,8384.0
2440,0.2647334337234497,0.02908485382795334,-130,9918.0,0.36649829149246216,125,8384.0
2450,0.2649116516113281,1.5314918756484985,-138,9918.0,-0.8998754620552063,208,8384.0
2460,0.2649306654930115,4.805861473083496,-35,9918.0,0.46322503685951233,113,8384.0
2470,0.2668001353740692,3.4518380165100098,-36,9918.0,-0.1418602466583252,26,8384.0
2480,0.266849547624588,2.2494468688964844,45,9918.0,0.0401587150990963,-73,8384.0
2490,0.2668483257293701,2.380829334259033,53,9918.0,0.7470070123672485,-219,8384.0
2500,0.2668728530406952,1.1901899576187134,76,9918.0,0.3038840889930725,-243,8384.0
2510,0.266936719417572,1.2023589611053467,149,9918.0,-0.47622165083885193,-122,8384.0
2520,0.26752811670303345,1.3670156002044678,131,9918.0,-0.3523501753807068,-42,8384.0
2530,0.26760920882225037,1.2948130369186401,66,9918.0,0.03843202069401741,59,8384.0
2540,0.26772746443748474,0.523639440536499,20,9918.0,0.9498640298843384,139,8384.0
2550,0.2679515480995178,0.2412787228822708,-71,9918.0,1.863386631011963,151,8384.0
2560,0.26805442571640015,-0.6184177994728088,-120,9918.0,0.6384941339492798,172,8384.0
2570,0.26825615763664246,-2.066194534301758,-63,9918.0,2.862224817276001,231,8384.0
2580,0.2685438394546509,-0.6900528073310852,-62,9918.0,2.8808929920196533,197,8384.0
2590,0.2687728703022003,-1.1210461854934692,-111,9918.0,2.522796869277954,84,8384.0
2600,0.2684755027294159,-0.10386037826538086,-51,9918.0,3.1201164722442627,117,8384.0
2610,0.268927663564682,-1.9799529314041138,-32,9918.0,1.0197323560714722,83,8384.0
2620,0.2694106101989746,-1.9745757579803467,-100,9918.0,0.13666141033172607,50,8384.0
2630,0.269797146320343,-1.2562390565872192,-86,9918.0,-2.2096621990203857,84,8384.0
2640,0.27024608850479126,-2.5018796920776367,-21,9918.0,-1.3410438299179077,121,8384.0
2650,0.2704930007457733,-1.090952754020691,-141,9918.0,-1.7360445261001587,63,8384.0
2660,0.27111494541168213,-1.1628950834274292,-184,9918.0,-2.625549554824829,21,8384.0
2670,0.27179595828056335,0.5610225796699524,-115,9918.0,-0.4427535831928253,95,8384.0
2680,0.2724801301956177,1.0135509967803955,-68,9918.0,-1.5401250123977661,89,8384.0
2690,0.27106767892837524,1.0315417051315308,17,9918.0,-2.1938750743865967,2,8384.0
2700,0.2715146243572235,2.864530086517334,43,9918.0,-2.4454967975616455,13,8384.0
2710,0.27195754647254944,2.940624475479126,19,9918.0,-2.4783272743225098,-95,8384.0
2720,0.2724929451942444,3.3900938034057617,20,9918.0,-1.0381133556365967,-216,8384.0
2730,0.2729175090789795,3.072389841079712,26,9918.0,0.2047043740749359,-195,8384.0
2740,0.27136901021003723,1.6897902488708496,49,9918.0,1.4662964344024658,-151,8384.0
2750,0.2716822922229767,0.08888339251279831,45,9918.0,2.1537628173828125,-109,8384.0
2760,0.27203062176704407,-1.8252924680709839,12,9918.0,2.9342598915100098,-102,8384.0
2770,0.27238914370536804,-3.2474987506866455,25,9918.0,3.537912368774414,-95,8384.0
2780,0.2708400785923004,-3.4658865928649902,122,9918.0,3.5537004470825195,-146,8384.0
2790,0.27101486921310425,-3.4743616580963135,22,9918.0,3.1208910942077637,-196,8384.0
2800,0.27121829986572266,-1.7154649496078491,15,9918.0,2.0610032081604004,-137,8384.0
2810,0.27140113711357117,-0.49680569767951965,35,9918.0,3.4142417907714844,-19,8384.0
2820,0.27054139971733093,-2.616633653640747,67,9918.0,0.30446791648864746,-59,8384.0
2830,0.27068662643432617,-1.5078539848327637,31,9918.0,-0.1251498907804489,-69,8384.0
2840,0.27093425393104553,0.626444399356842,-94,9918.0,0.2295973151922226,146,8384.0
2850,0.2711552083492279,0.04159190505743027,-103,9918.0,-2.166093349456787,107,8384.0
2860,0.2713949978351593,-0.8816149234771729,-14,9918.0,-0.5277419090270996,51,8384.0
2870,0.26974979043006897,0.5827706456184387,-152,9918.0,-1.2631430625915527,-94,8384.0
2880,0.2697877287864685,0.593558669090271,-110,9918.0,-2.9391934871673584,-19,8384.0
2890,0.26981082558631897,3.100789785385132,24,9918.0,-1.0046560764312744,-36,8384.0
2900,0.26993328332901,2.2064218521118164,58,9918.0,-1.5786919593811035,-229,8384.0
2910,0.26999369263648987,1.4356131553649902,39,9918.0,-1.7052794694900513,-268,8384.0
2920,0.27008679509162903,1.497246265411377,98,9918.0,-1.1105135679244995,-230,8384.0
2930,0.27026140689849854,1.2693015336990356,130,9918.0,-1.5050811767578125,-220,8384.0
2940,0.27047085762023926,1.8643254041671753,132,9918.0,-1.3544156551361084,-109,8384.0
2950,0.270699143409729,1.6373945474624634,119,9918.0,-0.43074047565460205,7,8384.0
2960,0.2710534632205963,0.37284934520721436,32,9918.0,0.6606345772743225,0,8384.0
2970,0.27127477526664734,-0.06203222647309303,-33,9918.0,0.5154864192008972,32,8384.0
2980,0.2714346945285797,0.8970552086830139,-23,9918.0,-0.3246656358242035,154,8384.0
2990,0.27145954966545105,0.5009886622428894,-91,9918.0,1.5342375040054321,188,8384.0
3000,0.2705221474170685,-0.4479445517063141,-122,9918.0,0.42457836866378784,197,8384.0
3010,0.27050644159317017,0.5226067900657654,-7,9918.0,0.34352266788482666,156,8384.0
3020,0.27048248052597046,-1.1032568216323853,-29,9918.0,1.7836921215057373,92,8384.0
3030,0.2705540955066681,-1.0346421003341675,-60,9918.0,1.769788384437561,84,8384.0
3040,0.2697051763534546,-1.7031186819076538,-49,9918.0,-0.2113935351371765,162,8384.0
3050,0.26972541213035583,-1.4330083131790161,-78,9918.0,-2.783155679702759,6,8384.0
3060,0.26954931020736694,0.6450442671775818,-115,9918.0,-1.3581348657608032,-40,8384.0
3070,0.26934775710105896,1.089005708694458,-24,9918.0,-2.0685887336730957,-54,8384.0
3080,0.26908552646636963,0.27335941791534424,-15,9918.0,-3.098710060119629,-206,8384.0
3090,0.2699895203113556,1.9448680877685547,84,9918.0,-1.6114712953567505,-272,8384.0
3100,0.26956725120544434,1.079237699508667,148,9918.0,-3.366898775100708,-223,8384.0
3110,0.2691698372364044,1.4680651426315308,102,9918.0,-2.4847166538238525,-89,8384.0
3120,0.2688041031360626,1.778560757637024,76,9918.0,-2.0447890758514404,163,8384.0
3130,0.26787516474723816,3.3768913745880127,-10,9918.0,-0.7519265413284302,179,8384.0
3140,0.2676137685775757,3.2607643604278564,-50,9918.0,0.40972834825515747,122,8384.0
3150,0.2673080861568451,2.434574604034424,-15,9918.0,2.5867998600006104,32,8384.0
3160,0.2669235169887543,0.41755443811416626,-13,9918.0,4.146934986114502,4,8384.0
3170,0.2665185332298279,0.21473242342472076,91,9918.0,1.7562603950500488,-22,8384.0
3180,0.2669826149940491,0.4375534951686859,48,9918.0,1.8144234418869019,-74,8384.0
3190,0.2664543390274048,1.2437598705291748,57,9918.0,1.5728495121002197,100,8384.0
3200,0.26593509316444397,0.7468191981315613,17,9918.0,0.19804419577121735,33,8384.0
3210,0.2657959461212158,-1.3618441820144653,-62,9918.0,0.9853789806365967,39,8384.0
3220,0.2676677703857422,-2.2093687057495117,-51,9918.0,-1.4077337980270386,-3,8384.0
3230,0.26752978563308716,-2.2041869163513184,-92,9918.0,-1.1696103811264038,-69,8384.0
3240,0.2671698331832886,-1.9952926635742188,57,9918.0,-3.1793415546417236,-190,8384.0
3250,0.2668857276439667,-0.5739858746528625,82,9918.0,-2.2187905311584473,-151,8384.0
3260,0.2671695351600647,-2.020050048828125,122,9918.0,-1.036926507949829,94,8384.0
3270,0.2669937312602997,0.6576539278030396,-66,9918.0,-0.21473896503448486,122,8384.0
3280,0.26701268553733826,-0.12176059186458588,-104,9918.0,1.9527168273925781,107,8384.0
3290,0.2669496238231659,-0.18208226561546326,-3,9918.0,3.3881430625915527,-49,8384.0
3300,0.2667970657348633,-0.24112094938755035,84,9918.0,5.451390743255615,-32,8384.0
3310,0.2663722336292267,-1.1243913173675537,-10,9918.0,6.265002250671387,127,8384.0
3320,0.26602688431739807,-1.0381461381912231,-68,9918.0,5.642861843109131,186,8384.0
3330,0.2655556797981262,-1.7037994861602783,-15,9918.0,2.941101312637329,7,8384.0
3340,0.26514196395874023,-2.3515641689300537,-25,9918.0,2.6304306983947754,-42,8384.0
3350,0.26721835136413574,-2.4295952320098877,15,9918.0,0.0314599983394146,-68,8384.0
3360,0.26714906096458435,-3.1113054752349854,-19,9918.0,-1.0186405181884766,-145,8384.0
3370,0.26711705327033997,-2.521284818649292,34,9918.0,-2.8495280742645264,-42,8384.0
3380,0.2673131823539734,-1.244472861289978,-38,9918.0,-5.197350025177002,-44,8384.0
3390,0.26704031229019165,-2.377588987350464,-121,9918.0,-6.010386943817139,-28,8384.0
3400,0.2674822211265564,0.3026224970817566,-28,9918.0,-4.791813850402832,-152,8384.0
3410,0.26724210381507874,-0.5823169946670532,104,9918.0,-2.677100658416748,-173,8384.0
3420,0.26709607243537903,-1.1017723083496094,23,9918.0,0.3353388011455536,43,8384.0
3430,0.267029732465744,-0.947917640209198,-69,9918.0,0.5963007211685181,113,8384.0
3440,0.2677633762359619,0.17680279910564423,-94,9918.0,1.3497600555419922,172,8384.0
3450,0.26797229051589966,0.021958811208605766,52,9918.0,4.6443772315979,52,8384.0
3460,0.26815494894981384,-0.7490966320037842,30,9918.0,5.788174152374268,10,8384.0
3470,0.26824894547462463,-3.0418362617492676,-50,9918.0,6.351887226104736,106,8384.0
3480,0.2689273953437805,-0.42060837149620056,-42,9918.0,4.333775520324707,70,8384.0
3490,0.26887765526771545,-1.3504314422607422,25,9918.0,3.0769472122192383,168,8384.0
3500,0.2688659429550171,-0.32216039299964905,-91,9918.0,3.9070992469787598,89,8384.0
3510,0.26901838183403015,-0.006028931122273207,-135,9918.0,1.4910914897918701,65,8384.0
3520,0.2692500352859497,-0.17938703298568726,68,9918.0,1.4137217998504639,-127,8384.0
3530,0.26850172877311707,-0.38739728927612305,113,9918.0,-1.9697508811950684,-139,8384.0
3540,0.2688198983669281,1.6014714241027832,-5,9918.0,-3.6524882316589355,116,8384.0
3550,0.2691240608692169,1.8432025909423828,-87,9918.0,-3.0863373279571533,7,8384.0
3560,0.2695486843585968,2.5806403160095215,40,9918.0,-1.3327289819717407,-201,8384.0
3570,0.2697082757949829,3.0920445919036865,141,9918.0,-2.043501853942871,-125,8384.0
3580,0.2701161205768585,2.306177854537964,107,9918.0,-3.0209696292877197,-21,8384.0
3590,0.2703776955604553,1.9910566806793213,-70,9918.0,-2.5732581615448,107,8384.0
3600,0.2706334888935089,-0.8950022459030151,-34,9918.0,0.974617063999176,47,8384.0
3610,0.2711327373981476,-1.6486560106277466,-82,9918.0,1.3396048545837402,-71,8384.0
3620,0.2711317837238312,-2.967367172241211,1,9918.0,-0.15688268840312958,-33,8384.0
3630,0.2718847095966339,-3.0713655948638916,-1,9918.0,0.4318215250968933,-67,8384.0
3640,0.2726000249385834,-2.6731576919555664,23,9918.0,-0.08188594877719879,40,8384.0
3650,0.27328354120254517,-0.9398059248924255,-102,9918.0,-0.7734387516975403,202,8384.0
3660,0.2728125751018524,-0.7976396679878235,-120,9918.0,-0.401002436876297,72,8384.0
3670,0.27352768182754517,-0.7863851189613342,-60,9918.0,1.5600138902664185,-132,8384.0
3680,0.2741207182407379,-0.37399688363075256,116,9918.0,1.5127785205841064,-88,8384.0
3690,0.27479881048202515,-0.06911233067512512,84,9918.0,0.5744324922561646,-32,8384.0
3700,0.27268704771995544,1.096034049987793,-9,9918.0,-1.182487964630127,181,8384.0
3710,0.27326881885528564,1.2821894884109497,-74,9918.0,-1.5086138248443604,77,8384.0
3720,0.2738521993160248,0.6242840886116028,-12,9918.0,-0.15549007058143616,-132,8384.0
3730,0.27445921301841736,-0.248512864112854,62,9918.0,-0.775176465511322,-146,8384.0
3740,0.27502691745758057,-0.6650866866111755,28,9918.0,-2.597968339920044,-3,8384.0
3750,0.27277871966362,-0.7689961791038513,-20,9918.0,-2.747727870941162,-20,8384.0
3760,0.2732662856578827,-1.2552157640457153,-27,9918.0,-3.943214178085327,-2,8384.0
3770,0.27371054887771606,-0.4590635597705841,19,9918.0,-4.557099342346191,8,8384.0
3780,0.2742936611175537,-0.015459083020687103,-52,9918.0,-2.930115222930908,-123,8384.0
3790,0.2729542553424835,1.887468934059143,-4,9918.0,-2.337876796722412,-86,8384.0
3800,0.2732813358306885,1.9200071096420288,71,9918.0,-0.45985332131385803,-225,8384.0
3810,0.27349793910980225,3.1296210289001465,90,9918.0,-0.6039970517158508,-104,8384.0
3820,0.27373141050338745,1.020021677017212,0,9918.0,-1.7592860460281372,118,8384.0
3830,0.27401983737945557,1.752089500427246,-74,9918.0,-0.01320644747465849,220,8384.0
3840,0.2735083997249603,0.7631383538246155,-40,9918.0,1.940333366394043,-90,8384.0
3850,0.27376142144203186,1.243073582649231,93,9918.0,3.3080649375915527,-64,8384.0
3860,0.27404099702835083,1.8037315607070923,113,9918.0,1.5452386140823364,23,8384.0
3870,0.27432921528816223,2.5731983184814453,-9,9918.0,1.0924537181854248,88,8384.0
3880,0.2711089551448822,1.0248658657073975,20,9918.0,1.3365248441696167,-7,8384.0
3890,0.27106860280036926,1.722163200378418,65,9918.0,-2.4656174182891846,-62,8384.0
3900,0.2709618806838989,1.4675461053848267,62,9918.0,-2.24293851852417,-159,8384.0
3910,0.27088305354118347,1.0081226825714111,27,9918.0,-3.2136476039886475,-20,8384.0
3920,0.2686607837677002,0.5581334829330444,33,9918.0,-2.13713002204895,24,8384.0
3930,0.2688421905040741,0.8790794610977173,-27,9918.0,-1.98433256149292,83,8384.0
3940,0.26895999908447266,1.5187147855758667,-9,9918.0,-2.4768009185791016,4,8384.0
3950,0.26911211013793945,0.83720463514328,61,9918.0,-0.5408470630645752,-224,8384.0
3960,0.2691306471824646,1.4723749160766602,139,9918.0,-0.8559103608131409,-26,8384.0
3970,0.2690068781375885,1.005358338356018,-13,9918.0,-0.002920843195170164,220,8384.0
3980,0.2689858376979828,2.630923271179199,-54,9918.0,1.3147470951080322,-26,8384.0
3990,0.2690199613571167,3.664949417114258,71,9918.0,2.523746967315674,-37,8384.0
4000,0.269072949886322,2.248926877975464,109,9918.0,3.6365013122558594,46,8384.0
4010,0.2698715925216675,1.3625683784484863,-31,9918.0,3.1822314262390137,153,8384.0
4020,0.2699463367462158,0.6165193319320679,17,9918.0,3.4036035537719727,-22,8384.0
4030,0.2700766623020172,0.7239981293678284,34,9918.0,3.7744405269622803,-49,8384.0
4040,0.2706209421157837,0.03444792330265045,24,9918.0,2.0151987075805664,11,8384.0
4050,0.2711067497730255,-1.5120127201080322,47,9918.0,-0.30237072706222534,-44,8384.0
4060,0.2700437009334564,-2.5727672576904297,-104,9918.0,-0.27367642521858215,35,8384.0
4070,0.2706443965435028,-1.9215208292007446,-50,9918.0,-0.8441318273544312,-109,8384.0
4080,0.27120837569236755,-1.8822177648544312,31,9918.0,-1.1697896718978882,-97,8384.0
4090,0.27168405055999756,-1.257730484008789,92,9918.0,-1.8457125425338745,-5,8384.0
4100,0.2704383134841919,-1.6530427932739258,-56,9918.0,-1.3373682498931885,156,8384.0
4110,0.2706737220287323,-0.9323837161064148,-123,9918.0,1.3021117448806763,27,8384.0
4120,0.2707556188106537,-1.1816840171813965,22,9918.0,1.5746394395828247,-122,8384.0
4130,0.27102166414260864,-1.4147433042526245,56,9918.0,0.35100358724594116,-26,8384.0
4140,0.2702942192554474,-0.14168092608451843,-92,9918.0,0.39873018860816956,169,8384.0
4150,0.27023929357528687,-1.741497278213501,-42,9918.0,3.2407917976379395,-52,8384.0
4160,0.2701336145401001,-1.20424222946167,25,9918.0,0.06756974011659622,-16,8384.0
4170,0.269825279712677,-0.8309974074363708,12,9918.0,-0.018613573163747787,-16,8384.0
4180,0.2700453996658325,0.7054359316825867,-35,9918.0,-0.07297325134277344,66,8384.0
4190,0.27011945843696594,-2.1332287788391113,-98,9918.0,1.2233096361160278,70,8384.0
4200,0.26996007561683655,-2.0544939041137695,-7,9918.0,1.985781192779541,-181,8384.0
4210,0.26981639862060547,-0.5075001120567322,79,9918.0,-0.7712520360946655,101,8384.0
4220,0.2697560787200928,2.7157530784606934,-71,9918.0,-0.23153282701969147,105,8384.0
4230,0.27068382501602173,0.2566053867340088,-11,9918.0,1.8578490018844604,-69,8384.0
4240,0.2708273231983185,-0.3614206910133362,92,9918.0,2.5807597637176514,-8,8384.0
4250,0.27099937200546265,0.45419612526893616,-61,9918.0,1.4487344026565552,206,8384.0
4260,0.271164208650589,-0.13736826181411743,-31,9918.0,2.674912452697754,-54,8384.0
4270,0.2713299095630646,0.4821065366268158,53,9918.0,1.8290941715240479,40,8384.0
4280,0.2724871039390564,-0.350450336933136,-20,9918.0,3.096796751022339,116,8384.0
4290,0.27283036708831787,-1.8654425144195557,-80,9918.0,3.4908461570739746,86,8384.0
4300,0.27339842915534973,-1.6733607053756714,-36,9918.0,2.8177154064178467,-31,8384.0
4310,0.27374279499053955,-1.9759783744812012,10,9918.0,2.024038553237915,19,8384.0
4320,0.27167099714279175,-1.4917300939559937,-55,9918.0,1.663703441619873,188,8384.0
4330,0.2720803916454315,-0.057587556540966034,-80,9918.0,1.7427388429641724,-65,8384.0
4340,0.2724686563014984,-0.3758746385574341,125,9918.0,1.3437224626541138,-66,8384.0
4350,0.27289655804634094,1.914745569229126,-7,9918.0,-0.23440106213092804,187,8384.0
4360,0.2720732092857361,2.1785483360290527,-24,9918.0,1.2729003429412842,-52,8384.0
4370,0.2724554240703583,3.0015692710876465,153,9918.0,-0.4759518504142761,-114,8384.0
4380,0.27281272411346436,3.324002742767334,34,9918.0,-2.197432279586792,84,8384.0
4390,0.27310359477996826,2.6143500804901123,5,9918.0,-0.4835076630115509,-88,8384.0
4400,0.2733573317527771,2.0781147480010986,55,9918.0,-0.9779365062713623,28,8384.0
4410,0.27112486958503723,1.2268457412719727,26,9918.0,-1.0535696744918823,-76,8384.0
4420,0.27116987109184265,0.81847083568573,63,9918.0,-1.116055965423584,138,8384.0
4430,0.27117687463760376,1.648600697517395,-84,9918.0,-0.9853365421295166,-113,8384.0
4440,0.27119678258895874,1.247071623802185,161,9918.0,-0.38129568099975586,-112,8384.0
4450,0.27080830931663513,0.8681859970092773,16,9918.0,-0.12295741587877274,147,8384.0
4460,0.27095574140548706,-0.45805981755256653,-119,9918.0,1.1339720487594604,2,8384.0
4470,0.27109870314598083,-0.8701337575912476,91,9918.0,-2.3246803283691406,-138,8384.0
4480,0.2711981236934662,0.06774049252271652,-46,9918.0,-1.578967809677124,105,8384.0
4490,0.2712123692035675,-0.43692824244499207,-6,9918.0,0.7508782744407654,-124,8384.0
4500,0.2706482410430908,0.7549696564674377,57,9918.0,-0.6050573587417603,3,8384.0
4510,0.27043217420578003,0.8714412450790405,26,9918.0,0.529048502445221,-12,8384.0
4520,0.27017393708229065,1.5575778484344482,-43,9918.0,-0.4289538562297821,129,8384.0
4530,0.2697681784629822,-0.005836361087858677,-12,9918.0,1.586340069770813,-174,8384.0
4540,0.2683812975883484,0.26133307814598083,66,9918.0,-0.18278707563877106,91,8384.0
4550,0.2677890956401825,-0.02999453991651535,-130,9918.0,1.1968131065368652,67,8384.0
4560,0.2672070860862732,-0.5013402700424194,60,9918.0,0.6618035435676575,-118,8384.0
4570,0.266596257686615,0.25593385100364685,-2,9918.0,-1.1022920608520508,24,8384.0
4580,0.26801398396492004,1.1185420751571655,2,9918.0,-1.5575671195983887,-72,8384.0
4590,0.2676079571247101,1.8541542291641235,76,9918.0,-1.4637019634246826,7,8384.0
4600,0.2673012912273407,0.8650497198104858,30,9918.0,-1.2647006511688232,-26,8384.0
4610,0.26711606979370117,1.9944902658462524,18,9918.0,-2.8453238010406494,-46,8384.0
4620,0.2669564187526703,2.8559296131134033,85,9918.0,-3.261657238006592,-72,8384.0
4630,0.2676222324371338,1.6687161922454834,-47,9918.0,-4.838709831237793,13,8384.0
4640,0.26745113730430603,1.7824180126190186,117,9918.0,-1.7232917547225952,-169,8384.0
4650,0.2673121690750122,0.4574364721775055,-12,9918.0,-1.047074794769287,128,8384.0
4660,0.26708051562309265,1.2103945016860962,-53,9918.0,-0.7329738140106201,-90,8384.0
4670,0.2681034207344055,-0.05617678910493851,66,9918.0,2.603793144226074,69,8384.0
4680,0.26792222261428833,-0.0630754753947258,-30,9918.0,-0.6092350482940674,22,8384.0
4690,0.2677542269229889,-1.3017339706420898,-17,9918.0,0.032356854528188705,-58,8384.0
4700,0.267595112323761,-1.7091947793960571,-3,9918.0,-0.834469735622406,25,8384.0
4710,0.2676139175891876,-2.346637487411499,-102,9918.0,0.26739025115966797,80,8384.0
4720,0.26879310607910156,-4.33086633682251,-31,9918.0,1.5270438194274902,-107,8384.0
4730,0.26865437626838684,-2.5229804515838623,-22,9918.0,-2.1451804637908936,131,8384.0
4740,0.2684280276298523,-2.708648443222046,-96,9918.0,0.5649927258491516,-119,8384.0
4750,0.26822060346603394,-2.282900094985962,39,9918.0,-0.7628600597381592,71,8384.0
4760,0.2699607312679291,-1.3050322532653809,-86,9918.0,-1.3512165546417236,-74,8384.0
4770,0.26978424191474915,-0.15691381692886353,69,9918.0,-1.265322208404541,30,8384.0
4780,0.2695792317390442,1.89956533908844,-6,9918.0,-1.7302039861679077,-11,8384.0
4790,0.2693217992782593,1.2139387130737305,27,9918.0,0.4210219085216522,-57,8384.0
4800,0.2693842351436615,2.8876500129699707,138,9918.0,0.3944270610809326,82,8384.0
4810,0.269049733877182,5.281838893890381,-44,9918.0,0.6848194599151611,-9,8384.0
4820,0.26862648129463196,2.2145605087280273,145,9918.0,2.4874250888824463,-52,8384.0
4830,0.2681984305381775,3.56803297996521,8,9918.0,0.5745241641998291,124,8384.0
4840,0.26776015758514404,0.10580254346132278,56,9918.0,4.618011474609375,-84,8384.0
4850,0.2682929039001465,-0.7118982672691345,-38,9918.0,-0.5856465697288513,92,8384.0
4860,0.2678762376308441,-2.4124526977539062,-44,9918.0,-1.5133401155471802,-75,8384.0
4870,0.2674746513366699,-3.1436636447906494,7,9918.0,-2.0756595134735107,-84,8384.0
4880,0.2670702338218689,-2.4753921031951904,-77,9918.0,-2.363420248031616,56,8384.0
4890,0.2691989839076996,-1.7614837884902954,54,9918.0,-2.4511559009552,-106,8384.0
4900,0.26908186078071594,-0.09927496314048767,-65,9918.0,-1.3281269073486328,48,8384.0
4910,0.268983393907547,1.049067497253418,91,9918.0,0.1171744093298912,-52,8384.0
4920,0.2689262330532074,0.9290921092033386,-25,9918.0,-1.094146490097046,142,8384.0
4930,0.26887115836143494,1.261056661605835,69,9918.0,1.1497920751571655,-54,8384.0
4940,0.27010002732276917,0.9747675061225891,-15,9918.0,2.660184860229492,102,8384.0
4950,0.2702648639678955,1.1441340446472168,28,9918.0,3.516679525375366,-28,8384.0
4960,0.27046582102775574,0.1383630633354187,83,9918.0,3.7835628986358643,82,8384.0
4970,0.27043065428733826,0.6131263375282288,-130,9918.0,1.9825326204299927,107,8384.0
4980,0.27091073989868164,-2.880413770675659,45,9918.0,1.2431271076202393,-98,8384.0
4990,0.2707965672016144,-1.815818428993225,-91,9918.0,0.1644042581319809,14,8384.0
5000,0.2706829607486725,-5.091640472412109,0,9918.0,4.02162504196167,47,8384.0
5010,0.2705686390399933,-2.722491502761841,-118,9918.0,-3.9567675590515137,-30,8384.0
5020,0.27065402269363403,-3.0176079273223877,-5,9918.0,-2.3855931758880615,-87,8384.0
5030,0.2705157697200775,-2.4622066020965576,-54,9918.0,-3.6449356079101562,-33,8384.0
5040,0.27040421962738037,-1.8875038623809814,-52,9918.0,-2.34108304977417,-107,8384.0
5050,0.2703835368156433,-0.531178891658783,75,9918.0,-2.3171732425689697,14,8384.0
5060,0.27053302526474,0.8574377298355103,-109,9918.0,1.283471941947937,-7,8384.0
5070,0.27034255862236023,1.683098316192627,126,9918.0,-0.02241821028292179,-30,8384.0
5080,0.270305871963501,2.323853015899658,-72,9918.0,1.1998324394226074,31,8384.0
5090,0.27022308111190796,-0.018566111102700233,142,9918.0,2.5702710151672363,73,8384.0
5100,0.27014774084091187,-0.6180464625358582,-90,9918.0,3.5003421306610107,60,8384.0
5110,0.27127838134765625,-0.9614861011505127,49,9918.0,3.6155002117156982,88,8384.0
5120,0.27126893401145935,0.036067504435777664,-17,9918.0,3.642423391342163,18,8384.0
5130,0.27116909623146057,-1.0382111072540283,27,9918.0,3.1767542362213135,-35,8384.0
5140,0.27116015553474426,0.4612851142883301,37,9918.0,0.31508708000183105,139,8384.0
5150,0.2711022198200226,1.4929401874542236,-16,9918.0,-1.31996488571167,-192,8384.0
5160,0.27270713448524475,-1.0680423974990845,-21,9918.0,-0.04228515177965164,121,8384.0
5170,0.27280837297439575,-2.1690564155578613,-35,9918.0,1.3142637014389038,-127,8384.0
5180,0.2728792428970337,-2.6133875846862793,-30,9918.0,0.8235766887664795,167,8384.0
5190,0.2729506194591522,-0.1271751970052719,32,9918.0,-0.14640037715435028,-147,8384.0
5200,0.2722291052341461,0.6486802697181702,-31,9918.0,-1.101712703704834,103,8384.0
5210,0.2722838521003723,0.9164709448814392,30,9918.0,0.8763729333877563,-9,8384.0
5220,0.2722223699092865,1.9376285076141357,87,9918.0,-0.3537788391113281,-30,8384.0
5230,0.2721419632434845,2.379032611846924,-44,9918.0,0.9520432949066162,-11,8384.0
5240,0.27298980951309204,-0.013781215995550156,85,9918.0,-0.6602957844734192,69,8384.0
5250,0.27328547835350037,0.17227114737033844,-147,9918.0,-0.6527481079101562,-72,8384.0
5260,0.2733839154243469,-0.622282087802887,122,9918.0,0.47222715616226196,79,8384.0
5270,0.2735402286052704,2.5659067630767822,-57,9918.0,0.8430560827255249,-47,8384.0
5280,0.27368295192718506,1.4179409742355347,80,9918.0,2.002530813217163,46,8384.0
5290,0.2739788591861725,2.1741878986358643,32,9918.0,3.870636224746704,59,8384.0
5300,0.2745949625968933,1.4286718368530273,51,9918.0,4.306405544281006,48,8384.0
5310,0.2754037082195282,2.293832778930664,-63,9918.0,2.3072259426116943,64,8384.0
5320,0.2755638360977173,-0.501332700252533,-49,9918.0,3.403251886367798,-52,8384.0
5330,0.2750854194164276,-0.5003978610038757,26,9918.0,-1.592923879623413,143,8384.0
5340,0.2752569019794464,-2.3531641960144043,-37,9918.0,-1.8893160820007324,-174,8384.0
5350,0.2754442095756531,-2.566880941390991,-73,9918.0,-2.6451056003570557,204,8384.0
5360,0.2756442725658417,-1.591660976409912,20,9918.0,-2.924363136291504,-172,8384.0
5370,0.2758709788322449,0.17981746792793274,-11,9918.0,-2.6453583240509033,24,8384.0
5380,0.2757467031478882,0.3446098268032074,19,9918.0,-0.8605016469955444,58,8384.0
5390,0.2759351134300232,1.607693076133728,80,9918.0,1.3429442644119263,82,8384.0
5400,0.2760646641254425,3.878969669342041,1,9918.0,3.5598700046539307,-48,8384.0
5410,0.2761742174625397,5.085970401763916,152,9918.0,1.8406448364257812,225,8384.0
5420,0.2747074365615845,5.186105251312256,2,9918.0,5.859337329864502,-70,8384.0
5430,0.27485528588294983,4.772089958190918,91,9918.0,6.962215423583984,307,8384.0
5440,0.2749791145324707,3.0917656421661377,42,9918.0,6.4318976402282715,-11,8384.0
5450,0.27506181597709656,1.8093868494033813,-37,9918.0,3.21671986579895,147,8384.0
5460,0.2751275300979614,-0.16032850742340088,13,9918.0,1.1983006000518799,-47,8384.0
5470,0.2752528190612793,-0.7882277369499207,0,9918.0,-4.036576747894287,-63,8384.0
5480,0.27531370520591736,-0.13274911046028137,-15,9918.0,-6.4319844245910645,-127,8384.0
5490,0.27531698346138,0.13615189492702484,66,9918.0,-7.466105937957764,-52,8384.0
5500,0.2753340005874634,-0.8276071548461914,-15,9918.0,-7.207710266113281,-246,8384.0
5510,0.274452269077301,0.14800149202346802,-47,9918.0,-8.300749778747559,79,8384.0
5520,0.2744775116443634,-2.443190097808838,-42,9918.0,-1.5234243869781494,-158,8384.0
5530,0.27448099851608276,-0.36679473519325256,-52,9918.0,-6.826435089111328,-18,8384.0
5540,0.2745199501514435,0.2514338195323944,91,9918.0,-3.765774726867676,-58,8384.0
5550,0.2747027575969696,0.5298029184341431,-19,9918.0,1.1661620140075684,87,8384.0
5560,0.27472302317619324,-0.26783332228660583,-2,9918.0,2.8207855224609375,-28,8384.0
5570,0.2747039198875427,1.4319031238555908,24,9918.0,3.2301442623138428,129,8384.0
5580,0.2747524082660675,0.9449843764305115,85,9918.0,5.564297676086426,82,8384.0
5590,0.274821400642395,3.7242138385772705,-116,9918.0,3.3282883167266846,97,8384.0
5600,0.27532318234443665,0.6386996507644653,151,9918.0,3.300079584121704,-23,8384.0
5610,0.27536147832870483,1.818943977355957,-28,9918.0,1.7291990518569946,-70,8384.0
5620,0.27536824345588684,-3.511092185974121,-21,9918.0,3.202744483947754,146,8384.0
5630,0.2755235433578491,-2.3535897731781006,-35,9918.0,-3.7106895446777344,-141,8384.0
5640,0.276531845331192,-2.7173056602478027,-67,9918.0,-4.412668228149414,-46,8384.0
5650,0.2766598165035248,-1.3936833143234253,-28,9918.0,-7.305843830108643,-151,8384.0
5660,0.27698764204978943,1.9977822303771973,40,9918.0,-9.060463905334473,-35,8384.0
5670,0.27711597084999084,3.1691982746124268,76,9918.0,-6.639857769012451,-202,8384.0
5680,0.2759825885295868,4.230248928070068,10,9918.0,-4.513574123382568,-21,8384.0
5690,0.27607154846191406,2.388099193572998,158,9918.0,-0.7211498022079468,19,8384.0
5700,0.27625149488449097,0.02379777655005455,-119,9918.0,1.8614451885223389,44,8384.0
5710,0.2763727009296417,-1.7287360429763794,-19,9918.0,2.348191261291504,110,8384.0
5720,0.2764984667301178,-3.2829670906066895,-67,9918.0,2.0557312965393066,26,8384.0
5730,0.2743794023990631,-4.091000556945801,-19,9918.0,3.0579490661621094,58,8384.0
5740,0.2743516266345978,-2.7515413761138916,-103,9918.0,3.4125423431396484,-16,8384.0
5750,0.27433568239212036,-2.6568984985351562,12,9918.0,2.2024874687194824,128,8384.0
5760,0.2743261754512787,-2.8352582454681396,6,9918.0,1.2118417024612427,-200,8384.0
5770,0.27500492334365845,-2.93145489692688,-86,9918.0,2.31170654296875,90,8384.0
5780,0.2750292122364044,-1.2453428506851196,123,9918.0,-2.1900794506073,-76,8384.0
5790,0.2750515937805176,1.233245849609375,-91,9918.0,-4.947893142700195,-105,8384.0
5800,0.2750703692436218,1.482832670211792,33,9918.0,-3.0970301628112793,-46,8384.0
5810,0.27512127161026,2.2409486770629883,22,9918.0,-6.206397533416748,-135,8384.0
5820,0.2756056487560272,2.761592388153076,45,9918.0,-4.575381755828857,60,8384.0
5830,0.27578601241111755,3.4289872646331787,-23,9918.0,-0.6606363654136658,-29,8384.0
5840,0.27595025300979614,-0.09498322755098343,-18,9918.0,1.2620834112167358,143,8384.0
5850,0.2761498987674713,1.1057186126708984,106,9918.0,1.9224853515625,-85,8384.0
5860,0.2767225205898285,-0.10788816958665848,-137,9918.0,5.93204927444458,53,8384.0
5870,0.2770015001296997,1.133086919784546,58,9918.0,6.892419815063477,173,8384.0
5880,0.27727025747299194,-0.260384202003479,-28,9918.0,9.040771484375,106,8384.0
5890,0.2775433361530304,-0.45231130719184875,22,9918.0,5.559241771697998,102,8384.0
5900,0.2779313325881958,0.19541600346565247,-10,9918.0,1.2568912506103516,-80,8384.0
5910,0.2782049775123596,-0.6979570984840393,-49,9918.0,1.082341194152832,170,8384.0
5920,0.27848485112190247,-0.9266926646232605,-73,9918.0,0.3931291997432709,-81,8384.0
5930,0.2787432372570038,1.248374342918396,-31,9918.0,-2.9408915042877197,-65,8384.0
5940,0.27895423769950867,-0.5361620187759399,177,9918.0,-2.35674786567688,-78,8384.0
5950,0.27919745445251465,0.38854071497917175,-152,9918.0,-4.160903453826904,-104,8384.0
5960,0.2794252634048462,1.935391902923584,66,9918.0,-5.36273193359375,84,8384.0
5970,0.2796843349933624,-0.8839802145957947,-9,9918.0,-1.6611361503601074,-71,8384.0
5980,0.2799777090549469,0.8943732976913452,73,9918.0,-0.48014724254608154,4,8384.0
5990,0.27935802936553955,2.1348328590393066,16,9918.0,3.979248285293579,-32,8384.0
6000,0.27960658073425293,3.091982364654541,3,9918.0,3.240363121032715,218,8384.0
6010,0.2799028158187866,3.166712999343872,172,9918.0,3.8820388317108154,80,8384.0
6020,0.2802284359931946,4.579186916351318,-103,9918.0,2.5820488929748535,37,8384.0
6030,0.28055617213249207,1.8711223602294922,100,9918.0,5.8545355796813965,159,8384.0
6040,0.2794416844844818,0.9801942110061646,45,9918.0,8.324701309204102,60,8384.0
6050,0.2797248661518097,-0.5308916568756104,-8,9918.0,6.11322546005249,165,8384.0
6060,0.28006064891815186,-1.4796652793884277,-17,9918.0,5.3047075271606445,1,8384.0
6070,0.28018060326576233,-2.09712815284729,-102,9918.0,1.929831624031067,99,8384.0
6080,0.28129154443740845,-0.997094452381134,87,9918.0,-1.895472526550293,-17,8384.0
6090,0.28150659799575806,-3.6321640014648438,-136,9918.0,1.0262398719787598,-159,8384.0
6100,0.28187260031700134,-6.371481418609619,-84,9918.0,-0.2975744605064392,218,8384.0
6110,0.2821648418903351,-2.8015384674072266,54,9918.0,-4.372974395751953,-86,8384.0
6120,0.28188037872314453,1.0316760540008545,-54,9918.0,-0.7776443362236023,-16,8384.0
6130,0.2821594476699829,2.5515453815460205,46,9918.0,-0.3861631155014038,-40,8384.0
6140,0.2824263870716095,2.506655693054199,42,9918.0,4.363656997680664,12,8384.0
6150,0.28268328309059143,3.310025453567505,177,9918.0,3.3223307132720947,201,8384.0
6160,0.2829151749610901,2.4317617416381836,74,9918.0,7.299787521362305,-27,8384.0
6170,0.28154829144477844,1.6643972396850586,-120,9918.0,6.431044578552246,211,8384.0
6180,0.2816416323184967,1.3122893571853638,127,9918.0,-2.6723363399505615,92,8384.0
6190,0.2817193269729614,-1.3567719459533691,-70,9918.0,0.20564046502113342,-130,8384.0
6200,0.2818244695663452,-4.321325778961182,-46,9918.0,-2.3000338077545166,44,8384.0
6210,0.2823878824710846,-4.4703450202941895,-89,9918.0,-3.462151527404785,-115,8384.0
6220,0.2824828624725342,-2.672663927078247,-70,9918.0,-3.711151361465454,38,8384.0
6230,0.2825881242752075,-1.0389039516448975,48,9918.0,-7.182653427124023,-23,8384.0
6240,0.2827269434928894,-1.3751312494277954,-113,9918.0,-2.5724802017211914,-263,8384.0
6250,0.28292781114578247,-0.5880776047706604,8,9918.0,2.861459255218506,34,8384.0
6260,0.28188759088516235,-0.9997637867927551,116,9918.0,-1.1688735485076904,38,8384.0
6270,0.2819778025150299,-2.547912359237671,-44,9918.0,1.7209471464157104,-42,8384.0
6280,0.28207024931907654,0.21031856536865234,0,9918.0,3.412574052810669,60,8384.0
6290,0.28218522667884827,1.9361175298690796,21,9918.0,2.206244707107544,-34,8384.0
6300,0.2818092703819275,5.546751022338867,-17,9918.0,-2.2792959213256836,90,8384.0
6310,0.2818678915500641,1.4114030599594116,153,9918.0,-1.649147629737854,31,8384.0
6320,0.2819617688655853,1.6881065368652344,44,9918.0,1.194050908088684,-239,8384.0
6330,0.28205299377441406,-0.2840915322303772,-77,9918.0,6.157573699951172,72,8384.0
6340,0.2824581265449524,1.566737174987793,153,9918.0,-1.308860182762146,21,8384.0
6350,0.28249043226242065,1.67333984375,38,9918.0,-0.8382939696311951,4,8384.0
6360,0.2825161814689636,0.6130848526954651,17,9918.0,-1.2136435508728027,80,8384.0
6370,0.282528281211853,1.4910545349121094,77,9918.0,-1.1658837795257568,-131,8384.0
6380,0.2825333774089813,1.6512647867202759,-111,9918.0,-3.6883862018585205,-118,8384.0
6390,0.28358006477355957,-1.5952860116958618,13,9918.0,3.796834945678711,229,8384.0
6400,0.2837318181991577,-0.5637833476066589,29,9918.0,2.252178430557251,-10,8384.0
6410,0.2839030623435974,-0.2382000982761383,-79,9918.0,0.6142582893371582,-17,8384.0
6420,0.2839358448982239,-0.8295905590057373,-13,9918.0,1.951566219329834,75,8384.0
6430,0.28509286046028137,-2.382680892944336,-101,9918.0,1.0340783596038818,-72,8384.0
6440,0.2852818965911865,-5.56167459487915,-131,9918.0,2.653545379638672,154,8384.0
6450,0.28551241755485535,-3.7064192295074463,94,9918.0,0.3816174864768982,35,8384.0
6460,0.2857359051704407,-1.0179922580718994,-128,9918.0,-1.6049546003341675,-278,8384.0
6470,0.28597554564476013,-1.4715086221694946,-150,9918.0,-2.1889400482177734,-59,8384.0
6480,0.28618285059928894,-3.363271474838257,17,9918.0,0.4753246307373047,24,8384.0
6490,0.28637343645095825,-1.7460044622421265,-59,9918.0,-1.6718940734863281,-96,8384.0
6500,0.28659555315971375,-0.1371781975030899,48,9918.0,-2.6543614864349365,74,8384.0
6510,0.2869270443916321,-0.09508540481328964,182,9918.0,0.9088044166564941,-26,8384.0
6520,0.28724026679992676,-1.1307138204574585,-99,9918.0,0.3498219847679138,-109,8384.0
6530,0.28746673464775085,1.253982663154602,8,9918.0,5.4801130294799805,209,8384.0
6540,0.2877962291240692,4.012725353240967,118,9918.0,10.89673900604248,201,8384.0
6550,0.2880893349647522,4.524238109588623,40,9918.0,13.046875953674316,269,8384.0
6560,0.2898593246936798,5.5520195960998535,126,9918.0,11.12347412109375,70,8384.0
6570,0.2902814745903015,3.6022448539733887,84,9918.0,12.4139404296875,58,8384.0
6580,0.29059910774230957,2.5390284061431885,82,9918.0,6.848384857177734,255,8384.0
6590,0.29089248180389404,4.1256327629089355,239,9918.0,5.874605655670166,38,8384.0
6600,0.291342169046402,-1.2211291790008545,-75,9918.0,1.3473351001739502,-112,8384.0
6610,0.2927321791648865,-5.222956657409668,-87,9918.0,0.5240010023117065,77,8384.0
6620,0.293069988489151,-1.201310634613037,-33,9918.0,-1.412433385848999,-50,8384.0
6630,0.29338717460632324,1.845548152923584,-28,9918.0,-6.532731533050537,-89,8384.0
6640,0.29380667209625244,2.9646196365356445,110,9918.0,-8.612750053405762,35,8384.0
6650,0.29502710700035095,4.135488986968994,128,9918.0,-1.4964674711227417,-75,8384.0
6660,0.29540473222732544,2.7226667404174805,-79,9918.0,4.009030342102051,-80,8384.0
6670,0.29571884870529175,-0.44203945994377136,42,9918.0,-1.369688630104065,36,8384.0
6680,0.29601168632507324,-3.829633951187134,-58,9918.0,-0.27343830466270447,-38,8384.0
6690,0.2950156033039093,-2.4421091079711914,-82,9918.0,4.594508647918701,143,8384.0
6700,0.2951968014240265,-1.8709827661514282,102,9918.0,-0.18681007623672485,78,8384.0
6710,0.2954583168029785,-1.859221339225769,-37,9918.0,2.9113240242004395,-164,8384.0
6720,0.29572656750679016,-0.6887917518615723,-122,9918.0,-1.4200774431228638,-55,8384.0
6730,0.29615122079849243,-3.2418251037597656,31,9918.0,-0.7412387132644653,80,8384.0
6740,0.2980306148529053,-3.2802603244781494,-55,9918.0,0.8616769313812256,-88,8384.0
6750,0.29833465814590454,-1.2886617183685303,-32,9918.0,-3.3396613597869873,-31,8384.0
6760,0.2986019253730774,-0.7605854868888855,69,9918.0,-3.508633613586426,-70,8384.0
6770,0.298849493265152,0.4378109872341156,37,9918.0,-5.387908458709717,-306,8384.0
6780,0.29951897263526917,0.9896969795227051,-112,9918.0,-8.452849388122559,-124,8384.0
6790,0.29973116517066956,4.0806498527526855,33,9918.0,-10.280864715576172,136,8384.0
6800,0.29998740553855896,-0.76743483543396,30,9918.0,-4.092376708984375,-70,8384.0
6810,0.3002232313156128,-4.5303955078125,-87,9918.0,0.6175763010978699,41,8384.0
6820,0.30044519901275635,-4.644659519195557,-27,9918.0,3.070113182067871,132,8384.0
6830,0.3021385669708252,-4.8253655433654785,-83,9918.0,7.26460599899292,-52,8384.0
6840,0.30244219303131104,-0.31909921765327454,-183,9918.0,5.469040393829346,-3,8384.0
6850,0.30278146266937256,0.24431394040584564,49,9918.0,-2.6908836364746094,167,8384.0
6860,0.30313631892204285,-0.715232789516449,137,9918.0,0.7782881855964661,6,8384.0
6870,0.30266278982162476,-0.9536744952201843,4,9918.0,-1.255590796470642,-120,8384.0
6880,0.3031167685985565,1.5416167974472046,63,9918.0,0.9450594782829285,58,8384.0
6890,0.3033170700073242,2.1755380630493164,116,9918.0,-0.6726115345954895,43,8384.0
6900,0.303405225276947,4.526215553283691,-32,9918.0,-2.6457316875457764,-127,8384.0
6910,0.30351361632347107,5.755600452423096,4,9918.0,-6.734751224517822,5,8384.0
6920,0.3035852909088135,2.1743483543395996,146,9918.0,-3.9956061840057373,105,8384.0
6930,0.30363795161247253,-1.6003813743591309,-17,9918.0,2.2557387351989746,-147,8384.0
6940,0.3037174940109253,-5.261816501617432,-172,9918.0,-0.46371203660964966,7,8384.0
6950,0.30377131700515747,-6.087941646575928,-52,9918.0,3.8825342655181885,122,8384.0
6960,0.3026556968688965,-4.4559102058410645,-19,9918.0,2.9760425090789795,-63,8384.0
6970,0.3028230369091034,0.44108840823173523,-110,9918.0,3.1637377738952637,-46,8384.0
6980,0.30298590660095215,7.146500110626221,83,9918.0,7.703883647918701,252,8384.0
6990,0.30305373668670654,9.210394859313965,194,9918.0,21.859169006347656,323,8384.0
7000,0.3045945465564728,4.507015705108643,26,9918.0,11.886334419250488,214,8384.0
7010,0.30467578768730164,3.480670690536499,8,9918.0,11.995259284973145,198,8384.0
7020,0.3047161400318146,3.0378260612487793,125,9918.0,8.180727005004883,200,8384.0
7030,0.3047332465648651,5.327139377593994,136,9918.0,4.584960460662842,-38,8384.0
7040,0.3047695755958557,1.559997320175171,-13,9918.0,8.5301513671875,-51,8384.0
7050,0.3066555857658386,0.23213781416416168,-201,9918.0,5.595863342285156,72,8384.0
7060,0.3069009780883789,4.818060398101807,88,9918.0,-0.39639124274253845,119,8384.0
7070,0.3072197139263153,-7.099941253662109,14,9918.0,-6.561922550201416,-143,8384.0
7080,0.3075063228607178,-13.563075065612793,-210,9918.0,-3.2179222106933594,-111,8384.0
7090,0.3096226453781128,-6.050588607788086,-41,9918.0,-4.337296485900879,-77,8384.0
7100,0.3100380003452301,3.537818670272827,111,9918.0,-6.1702880859375,49,8384.0
7110,0.310576468706131,7.941051006317139,194,9918.0,-2.768411874771118,-89,8384.0
7120,0.3111470639705658,8.798807144165039,114,9918.0,-2.2484498023986816,-117,8384.0
7130,0.3117884397506714,11.03612995147705,-112,9918.0,-6.558259963989258,51,8384.0
7140,0.3129246234893799,5.226864814758301,126,9918.0,2.311237335205078,191,8384.0
7150,0.3135855197906494,4.766952037811279,52,9918.0,6.326873302459717,14,8384.0
7160,0.31424039602279663,1.6009317636489868,-51,9918.0,4.197779178619385,74,8384.0
7170,0.3149271309375763,-0.24678418040275574,55,9918.0,0.04222887009382248,89,8384.0
7180,0.3172646164894104,-1.3190958499908447,45,9918.0,-2.4650626182556152,-110,8384.0
7190,0.3180590271949768,-3.4309568405151367,-150,9918.0,-5.9636101722717285,-332,8384.0
7200,0.3188438415527344,-10.059102058410645,-34,9918.0,-10.369840621948242,51,8384.0
7210,0.31961414217948914,-9.347352981567383,-53,9918.0,-4.818506240844727,-121,8384.0
7220,0.3204771876335144,-8.029184341430664,-199,9918.0,-8.087382316589355,-140,8384.0
7230,0.3211090564727783,-7.635944843292236,-11,9918.0,-5.072824478149414,-66,8384.0
7240,0.3217034637928009,-1.4564436674118042,32,9918.0,-3.1861002445220947,-146,8384.0
7250,0.32239198684692383,3.975910186767578,5,9918.0,-0.948367178440094,-35,8384.0
7260,0.3230471909046173,7.187205791473389,66,9918.0,0.5744127631187439,297,8384.0
7270,0.3227209746837616,0.8284303545951843,204,9918.0,3.773468255996704,223,8384.0
7280,0.32357335090637207,2.7149059772491455,-16,9918.0,5.56603479385376,5,8384.0
7290,0.32398149371147156,-5.4307780265808105,-112,9918.0,5.547332763671875,148,8384.0
7300,0.3242659568786621,-11.20529842376709,-162,9918.0,4.9724040031433105,8,8384.0
7310,0.32420530915260315,-15.21856689453125,-339,9918.0,1.9738619327545166,-113,8384.0
7320,0.32457396388053894,-15.867596626281738,-339,9918.0,-3.110457181930542,32,8384.0
7330,0.3248259723186493,-15.21614933013916,-162,9918.0,-10.245224952697754,115,8384.0
7340,0.3250291049480438,-13.501812934875488,-156,9918.0,-2.637814998626709,-97,8384.0
7350,0.32516470551490784,-11.214571952819824,-201,9918.0,-7.932241916656494,-270,8384.0
7360,0.3252641260623932,-4.463111400604248,-67,9918.0,-5.374811172485352,-124,8384.0
7370,0.32535743713378906,-1.0860767364501953,31,9918.0,-6.162734508514404,-66,8384.0
7380,0.3252926170825958,-1.575553059577942,-77,9918.0,0.03709655627608299,-93,8384.0
7390,0.32540979981422424,-0.2000737190246582,-119,9918.0,0.7701666355133057,70,8384.0
7400,0.3252811133861542,1.4516232013702393,-54,9918.0,-2.374248743057251,129,8384.0
7410,0.3252210021018982,-7.563741207122803,-32,9918.0,6.030614852905273,10,8384.0
7420,0.3252377212047577,-10.462059020996094,-233,9918.0,2.561842679977417,-71,8384.0
7430,0.3252406120300293,-13.014239311218262,-186,9918.0,0.483611136674881,75,8384.0
7440,0.3239328861236572,-12.88399887084961,-135,9918.0,2.7892072200775146,61,8384.0
7450,0.3237086236476898,-10.740856170654297,-149,9918.0,0.22322826087474823,-174,8384.0
7460,0.3238799273967743,-8.092660903930664,-263,9918.0,2.3655190467834473,-56,8384.0
7470,0.32386481761932373,-4.477982044219971,-137,9918.0,3.8284053802490234,-9,8384.0
7480,0.3238261938095093,-10.491421699523926,-110,9918.0,1.569000005722046,147,8384.0
7490,0.32245761156082153,-10.202629089355469,-146,9918.0,4.041498184204102,30,8384.0
7500,0.3222823739051819,-6.879005432128906,-138,9918.0,5.01104211807251,11,8384.0
7510,0.32217028737068176,-3.3052730560302734,-85,9918.0,3.756286382675171,140,8384.0
7520,0.3219149708747864,-5.265146732330322,-71,9918.0,0.4614567160606384,104,8384.0
7530,0.3222803771495819,-18.031665802001953,-245,9918.0,-4.194304466247559,-72,8384.0
7540,0.3224716782569885,-20.136280059814453,-454,9918.0,-7.257445812225342,-149,8384.0
7550,0.3224467933177948,-24.801132202148438,-490,9918.0,-2.013180732727051,40,8384.0
7560,0.32244160771369934,-24.227224349975586,-305,9918.0,-2.2496447563171387,123,8384.0
7570,0.3238012194633484,-17.070587158203125,-174,9918.0,2.2035818099975586,0,8384.0
7580,0.3239106237888336,-7.434290885925293,-107,9918.0,-0.2404184192419052,-243,8384.0
7590,0.32409313321113586,-3.738247871398926,-157,9918.0,5.0032806396484375,-60,8384.0
7600,0.3242901861667633,-8.263107299804688,-165,9918.0,11.569047927856445,257,8384.0
7610,0.32454583048820496,6.134979724884033,366,9918.0,3.4085183143615723,301,8384.0
7620,0.32319942116737366,14.586016654968262,321,9918.0,10.0036039352417,138,8384.0
7630,0.32341769337654114,12.985879898071289,157,9918.0,7.941583156585693,27,8384.0
7640,0.32364389300346375,9.337801933288574,70,9918.0,10.53454303741455,193,8384.0
7650,0.3237880766391754,7.1185479164123535,171,9918.0,1.659651756286621,149,8384.0
7660,0.3247542977333069,7.705442905426025,366,9918.0,-5.0894246101379395,53,8384.0
7670,0.32510191202163696,2.2595319747924805,56,9918.0,-7.0073161125183105,-198,8384.0
7680,0.32553040981292725,2.654003143310547,24,9918.0,-2.9969534873962402,-4,8384.0
7690,0.32599443197250366,2.098714828491211,116,9918.0,1.11384117603302,153,8384.0
7700,0.3264864683151245,-0.3869413733482361,83,9918.0,4.484928607940674,41,8384.0
7710,0.327778160572052,2.977064371109009,-145,9918.0,3.8398139476776123,52,8384.0
7720,0.32832416892051697,2.321350574493408,-53,9918.0,10.674362182617188,222,8384.0
7730,0.3289668560028076,3.66154408454895,86,9918.0,9.022811889648438,325,8384.0
7740,0.32947662472724915,0.1843758374452591,82,9918.0,11.233168601989746,70,8384.0
7750,0.330048531293869,3.8327443599700928,39,9918.0,6.986112594604492,54,8384.0
7760,0.33068156242370605,9.446517944335938,15,9918.0,-6.599851608276367,165,8384.0
7770,0.3313230574131012,-0.48003244400024414,-41,9918.0,5.670289516448975,245,8384.0
7780,0.3319612443447113,-0.6086949706077576,-21,9918.0,-0.3442462086677551,-69,8384.0
7790,0.3326717019081116,1.435781478881836,-66,9918.0,-0.6684487462043762,-23,8384.0
7800,0.3331344425678253,-1.6664769649505615,-70,9918.0,-0.9074876308441162,225,8384.0
7810,0.3335743248462677,-3.47603440284729,50,9918.0,-5.486739158630371,56,8384.0
7820,0.3339688777923584,-1.1872836351394653,-124,9918.0,-3.1864211559295654,-35,8384.0
7830,0.3343687653541565,0.3643525242805481,88,9918.0,0.6600889563560486,125,8384.0
7840,0.3360426425933838,0.5214208960533142,77,9918.0,4.767813205718994,37,8384.0
7850,0.3364684581756592,2.23370099067688,15,9918.0,7.860736846923828,-80,8384.0
7860,0.3368707299232483,3.6216561794281006,-59,9918.0,6.187666416168213,140,8384.0
7870,0.3372493088245392,4.730592250823975,79,9918.0,5.176970958709717,180,8384.0
7880,0.33852291107177734,8.67257308959961,240,9918.0,-3.0261876583099365,-88,8384.0
7890,0.338937371969223,5.503585338592529,-34,9918.0,-1.144797444343567,-225,8384.0
7900,0.3393406569957733,2.7455756664276123,-66,9918.0,-6.198236465454102,-21,8384.0
7910,0.3397495448589325,-3.5518038272857666,50,9918.0,-5.211520195007324,155,8384.0
7920,0.3401184380054474,0.8515810370445251,131,9918.0,-5.903796672821045,-142,8384.0
7930,0.3390505015850067,-0.5927696824073792,-46,9918.0,-2.9425179958343506,-167,8384.0
7940,0.3393423557281494,0.012273333966732025,19,9918.0,-1.9991203546524048,46,8384.0
7950,0.33961251378059387,5.124637603759766,209,9918.0,0.2844292223453522,99,8384.0
7960,0.33990025520324707,6.935800075531006,219,9918.0,3.214285135269165,25,8384.0
7970,0.3412019610404968,8.906136512756348,98,9918.0,4.895529747009277,-131,8384.0
7980,0.34147948026657104,12.261974334716797,134,9918.0,0.11160183697938919,111,8384.0
7990,0.3417453169822693,10.83262825012207,256,9918.0,2.4668357372283936,91,8384.0
8000,0.3420392870903015,13.045356750488281,143,9918.0,-5.685690879821777,-119,8384.0
8010,0.3418242335319519,6.569450855255127,51,9918.0,-2.6831560134887695,-2,8384.0
8020,0.3421366810798645,2.0057504177093506,151,9918.0,-2.4823153018951416,169,8384.0
8030,0.34239670634269714,3.3862860202789307,151,9918.0,-9.896621704101562,-188,8384.0
8040,0.3426051735877991,2.270134687423706,-63,9918.0,-7.87022590637207,-85,8384.0
8050,0.34274670481681824,3.8770041465759277,117,9918.0,-6.521549701690674,84,8384.0
8060,0.34293949604034424,7.352258205413818,237,9918.0,-4.215180397033691,-145,8384.0
8070,0.3431587815284729,4.728912830352783,8,9918.0,-1.2102255821228027,-9,8384.0
8080,0.3434217870235443,3.6311280727386475,79,9918.0,3.407640218734741,203,8384.0
8090,0.3436885178089142,3.8952958583831787,132,9918.0,3.6349754333496094,45,8384.0
8100,0.3447283208370209,2.602055311203003,-12,9918.0,2.7710635662078857,-121,8384.0
8110,0.34503868222236633,3.7082371711730957,54,9918.0,2.8701107501983643,114,8384.0
8120,0.3453800678253174,3.5343129634857178,157,9918.0,0.876062273979187,11,8384.0
8130,0.3457338809967041,7.330113410949707,27,9918.0,-7.051535606384277,-187,8384.0
8140,0.34603461623191833,3.4885544776916504,54,9918.0,-3.4582955837249756,55,8384.0
8150,0.34780579805374146,3.4877829551696777,259,9918.0,-4.927824020385742,-51,8384.0
8160,0.34817758202552795,6.114092826843262,80,9918.0,-13.062958717346191,-191,8384.0
8170,0.348523885011673,7.215449333190918,169,9918.0,-4.865184307098389,-33,8384.0
8180,0.34886646270751953,5.187868118286133,157,9918.0,-1.566849946975708,-109,8384.0
8190,0.3491402864456177,5.383376598358154,-19,9918.0,-0.38682252168655396,-123,8384.0
8200,0.34944647550582886,1.8445347547531128,89,9918.0,1.604338526725769,116,8384.0
8210,0.3497801721096039,-1.0735419988632202,-24,9918.0,6.538152694702148,-6,8384.0
8220,0.3500658869743347,-1.8544940948486328,-125,9918.0,6.027113914489746,152,8384.0
8230,0.3509746789932251,-0.12710964679718018,-5,9918.0,5.064281940460205,212,8384.0
8240,0.3513130843639374,-5.829800128936768,-122,9918.0,3.897406816482544,-18,8384.0
8250,0.3516298532485962,-4.531230926513672,-83,9918.0,4.072021961212158,115,8384.0
8260,0.3519521951675415,-4.972235679626465,55,9918.0,0.7484647035598755,23,8384.0
8270,0.3523252308368683,-5.440789222717285,-141,9918.0,-7.360818386077881,-314,8384.0
8280,0.3536306321620941,-3.1977992057800293,-149,9918.0,-6.593268871307373,-87,8384.0
8290,0.35408031940460205,-2.414302110671997,-7,9918.0,-7.471667289733887,-54,8384.0
8300,0.3545447289943695,1.7287858724594116,-24,9918.0,-1.2967970371246338,-138,8384.0
8310,0.3551223874092102,4.949765682220459,40,9918.0,-2.376260757446289,20,8384.0
8320,0.35812854766845703,5.578029155731201,203,9918.0,2.287360906600952,88,8384.0
8330,0.35883191227912903,4.0757341384887695,27,9918.0,2.4451513290405273,-3,8384.0
8340,0.3595987856388092,3.2444419860839844,31,9918.0,2.8045713901519775,196,8384.0
8350,0.36036115884780884,2.397312879562378,153,9918.0,3.56504225730896,-17,8384.0
8360,0.3611263036727905,-1.7521511316299438,-139,9918.0,8.646855354309082,15,8384.0
8370,0.36337387561798096,-3.1375598907470703,-57,9918.0,5.229119777679443,125,8384.0
8380,0.36426419019699097,-6.342674255371094,-71,9918.0,7.649662494659424,-5,8384.0
8390,0.3651597797870636,-4.6268486976623535,-99,9918.0,3.248227596282959,-27,8384.0
8400,0.3660570979118347,-2.995940685272217,-62,9918.0,-0.5717195868492126,114,8384.0
8410,0.36771202087402344,-1.7221155166625977,-9,9918.0,-1.5868898630142212,-105,8384.0
8420,0.36858898401260376,3.3390471935272217,-34,9918.0,-4.950746059417725,29,8384.0
8430,0.3693985641002655,0.2827601134777069,182,9918.0,-3.4631409645080566,37,8384.0
8440,0.37012720108032227,-0.6192910075187683,-83,9918.0,-7.744085788726807,-176,8384.0
8450,0.3701189458370209,-2.479778289794922,-35,9918.0,-7.0788397789001465,-24,8384.0
8460,0.370746910572052,-1.2663381099700928,-68,9918.0,0.04749031364917755,-67,8384.0
8470,0.371307373046875,0.3092285990715027,113,9918.0,1.8531237840652466,215,8384.0
8480,0.37180036306381226,-2.636091947555542,-4,9918.0,7.384827136993408,69,8384.0
8490,0.37218981981277466,-1.2078139781951904,51,9918.0,5.9849114418029785,136,8384.0
8500,0.3719303011894226,3.304917573928833,117,9918.0,6.500554084777832,-70,8384.0
8510,0.3721945881843567,5.4824604988098145,-94,9918.0,6.08033561706543,-58,8384.0
8520,0.37239664793014526,2.9896044731140137,51,9918.0,-0.8958743810653687,105,8384.0
8530,0.3725333511829376,-0.21826812624931335,-46,9918.0,3.2651302814483643,61,8384.0
8540,0.3731376826763153,-0.5315025448799133,34,9918.0,4.047327518463135,239,8384.0
8550,0.37318819761276245,1.577703833580017,55,9918.0,-1.187898874282837,-135,8384.0
8560,0.3731590211391449,4.6916351318359375,-29,9918.0,1.0270867347717285,-56,8384.0
8570,0.37304359674453735,2.0041520595550537,99,9918.0,-0.2911969721317291,-76,8384.0
8580,0.3728732764720917,1.623441219329834,-65,9918.0,-5.275418281555176,-229,8384.0
8590,0.37232866883277893,0.0684126690030098,46,9918.0,-6.372459411621094,-5,8384.0
8600,0.3720971345901489,-3.2302820682525635,-50,9918.0,-3.8616247177124023,-122,8384.0
8610,0.37182995676994324,-4.989166736602783,-155,9918.0,-6.626710414886475,-49,8384.0
8620,0.3714984953403473,-7.797951698303223,65,9918.0,-2.76324200630188,35,8384.0
8630,0.3734767436981201,-6.614733695983887,-111,9918.0,-0.5905975699424744,-247,8384.0
8640,0.37329307198524475,-7.1961493492126465,-70,9918.0,0.9907640218734741,90,8384.0
8650,0.37311190366744995,-6.324629783630371,3,9918.0,2.666008234024048,5,8384.0
8660,0.37307223677635193,-6.530245780944824,-105,9918.0,0.14280584454536438,-164,8384.0
8670,0.3713676929473877,-4.630085468292236,-73,9918.0,-0.9646197557449341,69,8384.0
8680,0.37106260657310486,-6.289568901062012,-58,9918.0,2.0621089935302734,33,8384.0
8690,0.37089091539382935,-6.457442760467529,-183,9918.0,-1.2320891618728638,-218,8384.0
8700,0.3706679344177246,-10.851780891418457,-219,9918.0,-4.614773750305176,121,8384.0
8710,0.3704814016819,-8.33556842803955,-68,9918.0,5.466056823730469,62,8384.0
8720,0.36897221207618713,-9.27082347869873,-237,9918.0,5.449032306671143,-11,8384.0
8730,0.3686594069004059,-8.620102882385254,-124,9918.0,2.7085978984832764,119,8384.0
8740,0.3683314621448517,-12.439757347106934,-91,9918.0,3.3545994758605957,33,8384.0
8750,0.3680471181869507,-4.48468542098999,-77,9918.0,0.9250087141990662,-56,8384.0
8760,0.3682264983654022,-0.550254762172699,-31,9918.0,2.3743691444396973,110,8384.0
8770,0.36801648139953613,1.4910128116607666,134,9918.0,-3.030658006668091,-14,8384.0
8780,0.3678359389305115,4.285327911376953,93,9918.0,9.471152305603027,99,8384.0
8790,0.36767423152923584,3.0084471702575684,-9,9918.0,-2.873279094696045,-85,8384.0
8800,0.36756494641304016,4.362301349639893,134,9918.0,-4.952189922332764,-72,8384.0
8810,0.3672671318054199,3.3516368865966797,128,9918.0,-1.8772838115692139,-82,8384.0
8820,0.36723586916923523,1.7745966911315918,-53,9918.0,6.454717636108398,-213,8384.0
8830,0.36726781725883484,4.099112510681152,-47,9918.0,-2.882762908935547,-54,8384.0
8840,0.3673466742038727,2.4742610454559326,75,9918.0,1.729129672050476,55,8384.0
8850,0.3668707311153412,4.35461950302124,-9,9918.0,0.05336403101682663,-146,8384.0
8860,0.36695072054862976,4.346646785736084,-106,9918.0,-5.179261684417725,-53,8384.0
8870,0.3670575022697449,-1.2641428709030151,42,9918.0,-8.684974670410156,7,8384.0
8880,0.36718714237213135,-1.979286551475525,-46,9918.0,-4.361164093017578,-176,8384.0
8890,0.368348091840744,-0.48368340730667114,-95,9918.0,-3.4987971782684326,-96,8384.0
8900,0.36855989694595337,0.27457836270332336,69,9918.0,-3.5312533378601074,83,8384.0
8910,0.36878442764282227,1.5736885070800781,27,9918.0,-4.505600452423096,-168,8384.0
8920,0.36901578307151794,1.9008419513702393,-61,9918.0,-4.526623725891113,-56,8384.0
8930,0.36931300163269043,0.19798007607460022,19,9918.0,-1.2493866682052612,144,8384.0
8940,0.36976921558380127,-0.15447549521923065,27,9918.0,0.7912931442260742,-76,8384.0
8950,0.3700706660747528,-1.2556872367858887,-99,9918.0,4.054897785186768,-21,8384.0
8960,0.3703763782978058,-2.0692379474639893,69,9918.0,3.696507692337036,136,8384.0
8970,0.37072625756263733,-0.093756765127182,29,9918.0,1.5446728467941284,-16,8384.0
8980,0.37067362666130066,-0.3023653030395508,-112,9918.0,0.18840110301971436,-17,8384.0
8990,0.37107178568840027,-0.7475628852844238,-6,9918.0,-3.3975977897644043,81,8384.0
9000,0.3715096116065979,1.4242150783538818,79,9918.0,-5.6086931228637695,-179,8384.0
9010,0.37196531891822815,2.4939188957214355,-52,9918.0,-2.9359874725341797,32,8384.0
9020,0.3723699748516083,1.751960277557373,86,9918.0,-2.2858190536499023,40,8384.0
9030,0.372662752866745,5.808889389038086,95,9918.0,-6.280824661254883,-202,8384.0
9040,0.37306684255599976,3.2129578590393066,111,9918.0,-0.26619452238082886,-9,8384.0
9050,0.3734360635280609,3.631486177444458,40,9918.0,-0.6914873719215393,33,8384.0
9060,0.3737601041793823,3.0214855670928955,-48,9918.0,0.1257079690694809,44,8384.0
9070,0.3756530284881592,3.9836130142211914,153,9918.0,-1.3341107368469238,95,8384.0
9080,0.37611761689186096,0.5847444534301758,-10,9918.0,-1.4280154705047607,-154,8384.0
9090,0.3765478730201721,0.9761868715286255,10,9918.0,-1.8343197107315063,50,8384.0
9100,0.37696805596351624,0.5512747168540955,133,9918.0,2.074232578277588,-27,8384.0
9110,0.37800973653793335,3.8019042015075684,-4,9918.0,-5.997859477996826,-219,8384.0
9120,0.37844452261924744,7.852100849151611,81,9918.0,-9.051403045654297,1,8384.0
9130,0.3788241147994995,4.2852911949157715,176,9918.0,4.6331915855407715,-25,8384.0
9140,0.37918275594711304,5.893505573272705,18,9918.0,0.8348166942596436,-40,8384.0
9150,0.3795411288738251,3.556122303009033,117,9918.0,0.7587992548942566,145,8384.0
9160,0.3796488046646118,0.46671998500823975,47,9918.0,5.675279140472412,-70,8384.0
9170,0.37992051243782043,0.8354169726371765,-42,9918.0,-0.38392147421836853,-15,8384.0
9180,0.3801400661468506,-2.6232872009277344,37,9918.0,0.4681822955608368,54,8384.0
9190,0.38035884499549866,-0.1883946657180786,-86,9918.0,-1.6173713207244873,-201,8384.0
9200,0.3807247579097748,-1.735600471496582,-114,9918.0,-0.12608420848846436,33,8384.0
9210,0.38088953495025635,0.4880203604698181,91,9918.0,-5.4889607429504395,-41,8384.0
9220,0.381051242351532,0.7716035842895508,-33,9918.0,-7.391575336456299,-162,8384.0
9230,0.38119834661483765,-0.006454275455325842,21,9918.0,-5.68479061126709,6,8384.0
9240,0.3796825110912323,-1.1969274282455444,114,9918.0,-1.891552209854126,-80,8384.0
9250,0.37973377108573914,0.2189026027917862,-51,9918.0,0.2488507181406021,-141,8384.0
9260,0.37975484132766724,2.026219129562378,56,9918.0,2.1843972206115723,126,8384.0
9270,0.379798948764801,0.5441897511482239,43,9918.0,4.0924811363220215,-31,8384.0
9280,0.3798259496688843,2.743051767349243,-82,9918.0,5.467860698699951,30,8384.0
9290,0.37907880544662476,-0.5688387155532837,63,9918.0,3.113455295562744,156,8384.0
9300,0.37900829315185547,0.31388741731643677,85,9918.0,4.627747058868408,124,8384.0
9310,0.37891706824302673,1.0259548425674438,-30,9918.0,1.3536592721939087,102,8384.0
9320,0.3788052797317505,1.0945583581924438,47,9918.0,0.05685611814260483,184,8384.0
9330,0.3776618242263794,2.997925043106079,103,9918.0,-0.6460087299346924,19,8384.0
9340,0.3775520324707031,6.214221954345703,-8,9918.0,-4.239916801452637,-114,8384.0
9350,0.37745147943496704,3.531238079071045,61,9918.0,-4.024479389190674,35,8384.0
9360,0.37735211849212646,3.7683236598968506,132,9918.0,-4.649805068969727,-157,8384.0
9370,0.3772374093532562,2.927243947982788,-38,9918.0,-7.610883712768555,-220,8384.0
9380,0.37665867805480957,1.3285092115402222,-104,9918.0,-8.4501314163208,-73,8384.0
9390,0.3765433430671692,1.313974142074585,103,9918.0,-0.970562219619751,-62,8384.0
9400,0.3764271140098572,-1.7614004611968994,-70,9918.0,2.5059142112731934,-85,8384.0
9410,0.37629982829093933,-1.4691784381866455,-18,9918.0,2.9556334018707275,56,8384.0
9420,0.37571582198143005,-0.5595828294754028,87,9918.0,4.323390960693359,226,8384.0
9430,0.375556617975235,-2.823913812637329,-14,9918.0,11.280407905578613,46,8384.0
9440,0.37543073296546936,-0.31344202160835266,-93,9918.0,3.3933207988739014,87,8384.0
9450,0.37529873847961426,-0.6667275428771973,65,9918.0,2.0172972679138184,182,8384.0
9460,0.37474116683006287,-1.380998969078064,19,9918.0,-1.5876286029815674,-23,8384.0
9470,0.37460675835609436,-0.33912885189056396,-107,9918.0,-0.475225031375885,-183,8384.0
9480,0.3744780719280243,1.8194636106491089,-1,9918.0,-6.720316410064697,6,8384.0
9490,0.37433362007141113,4.861114978790283,149,9918.0,-7.56217622756958,-114,8384.0
9500,0.37421104311943054,4.538453578948975,-9,9918.0,-4.7203192710876465,-221,8384.0
9510,0.3740648627281189,4.194693565368652,-51,9918.0,-0.14403681457042694,82,8384.0
9520,0.374021977186203,1.2362701892852783,102,9918.0,-0.36857014894485474,95,8384.0
9530,0.3740120828151703,3.4755337238311768,40,9918.0,3.5910749435424805,11,8384.0
9540,0.3740755021572113,4.898594379425049,8,9918.0,3.8419876098632812,111,8384.0
9550,0.3733026087284088,3.722203016281128,88,9918.0,4.163919448852539,250,8384.0
9560,0.37336021661758423,2.7317614555358887,88,9918.0,10.328802108764648,35,8384.0
9570,0.3734056055545807,-0.9761782288551331,-100,9918.0,7.942577362060547,62,8384.0
9580,0.37344586849212646,-3.4932568073272705,-31,9918.0,4.992834568023682,281,8384.0
9590,0.3734963834285736,-7.0720038414001465,79,9918.0,5.7023210525512695,77,8384.0
9600,0.3733471930027008,-4.383955955505371,-128,9918.0,-3.5153565406799316,-149,8384.0
9610,0.37346479296684265,-4.244223117828369,-59,9918.0,-4.847505569458008,-83,8384.0
9620,0.373566597700119,-1.158584713935852,31,9918.0,-7.235945701599121,-16,8384.0
9630,0.3736904263496399,-1.5422145128250122,-6,9918.0,-6.756357669830322,-280,8384.0
9640,0.3755032420158386,0.27230915427207947,-184,9918.0,-5.685666561126709,-70,8384.0
9650,0.3757725954055786,-1.32623291015625,48,9918.0,-4.683746337890625,20,8384.0
9660,0.3760656416416168,-0.7607460021972656,4,9918.0,2.6093623638153076,13,8384.0
9670,0.3763791620731354,0.311713308095932,-134,9918.0,3.2991690635681152,262,8384.0
9680,0.37671971321105957,-0.702223002910614,47,9918.0,4.004050254821777,120,8384.0
9690,0.37598612904548645,-1.043979287147522,-95,9918.0,6.721622467041016,152,8384.0
9700,0.37629103660583496,-2.989624500274658,7,9918.0,9.698721885681152,248,8384.0
9710,0.3765949308872223,-1.1485018730163574,111,9918.0,2.805738925933838,-40,8384.0
9720,0.37691134214401245,-3.7393178939819336,-126,9918.0,5.690195083618164,55,8384.0
9730,0.37632879614830017,-1.423173189163208,5,9918.0,3.234834909439087,150,8384.0
9740,0.37657415866851807,-0.5385967493057251,43,9918.0,2.669346809387207,-56,8384.0
9750,0.37679523229599,2.2421138286590576,-110,9918.0,0.8271700143814087,-40,8384.0
9760,0.37701529264450073,-1.9687867164611816,10,9918.0,-3.4525318145751953,40,8384.0
9770,0.3786737620830536,1.1641108989715576,65,9918.0,-0.20013673603534698,20,8384.0
9780,0.37898996472358704,-0.6043673753738403,-90,9918.0,2.8186984062194824,-31,8384.0
9790,0.37929290533065796,-1.4061425924301147,-26,9918.0,2.027920961380005,260,8384.0
9800,0.3795538544654846,-5.0262451171875,2,9918.0,0.4084526598453522,-39,8384.0
9810,0.37979942560195923,-4.407991886138916,-114,9918.0,-4.158510684967041,-103,8384.0
9820,0.38014498353004456,-3.5548324584960938,-45,9918.0,-3.3588147163391113,128,8384.0
9830,0.38043200969696045,-2.590205669403076,59,9918.0,2.342397928237915,53,8384.0
9840,0.3807070553302765,-0.36691024899482727,-54,9918.0,-1.5182371139526367,-62,8384.0
9850,0.3809796869754791,0.04823608323931694,53,9918.0,4.908510684967041,112,8384.0
9860,0.38310006260871887,2.45159649848938,102,9918.0,3.5155556201934814,-54,8384.0
9870,0.3834264874458313,2.9618160724639893,-62,9918.0,6.63921594619751,-80,8384.0
9880,0.3837151825428009,4.554675579071045,20,9918.0,4.106250762939453,171,8384.0
9890,0.3839980661869049,2.423840045928955,98,9918.0,0.8811265826225281,34,8384.0
9900,0.3845271170139313,1.5291385650634766,-78,9918.0,1.8015222549438477,-2,8384.0
9910,0.38477641344070435,-0.084081269800663,-2,9918.0,-0.8302093744277954,189,8384.0
9920,0.3850015103816986,-0.49247658252716064,119,9918.0,8.154905319213867,33,8384.0
9930,0.3852119743824005,-1.945708990097046,-42,9918.0,-2.8255419731140137,-106,8384.0
9940,0.3853844404220581,-1.8250192403793335,9,9918.0,-0.965156078338623,107,8384.0
9950,0.38532307744026184,0.7486483454704285,7,9918.0,-3.6273045539855957,-91,8384.0
9960,0.3854759931564331,3.0267293453216553,-137,9918.0,6.109004974365234,84,8384.0
9970,0.3855615258216858,1.1811206340789795,-3,9918.0,1.698289394378662,72,8384.0
9980,0.3856141269207001,4.277875900268555,29,9918.0,-3.3225085735321045,-132,8384.0
9990,0.3872862160205841,3.4282891750335693,-53,9918.0,-2.2795181274414062,-28,8384.0
10000,0.38737618923187256,1.1758524179458618,79,9918.0,-7.500892162322998,-21,8384.0
10010,0.38742271065711975,2.0468692779541016,6,9918.0,-3.4409453868865967,-156,8384.0
10020,0.38742902874946594,1.4441354274749756,6,9918.0,-1.4595085382461548,56,8384.0
10030,0.3874046802520752,-0.7940998077392578,120,9918.0,-2.8042898178100586,-46,8384.0
10040,0.3860178291797638,-0.9301024675369263,-63,9918.0,-2.3011560440063477,-63,8384.0
10050,0.3858630657196045,-2.0878403186798096,-35,9918.0,1.4084392786026,231,8384.0
10060,0.3856818377971649,-3.223883867263794,-60,9918.0,3.815141201019287,95,8384.0
10070,0.38548365235328674,-0.9701188802719116,-153,9918.0,2.2303175926208496,-59,8384.0
10080,0.38674023747444153,-0.07623925060033798,46,9918.0,3.298259735107422,124,8384.0
10090,0.38657236099243164,2.2273879051208496,8,9918.0,1.2194494009017944,-86,8384.0
10100,0.3863983452320099,0.8126709461212158,-112,9918.0,-1.4624439477920532,32,8384.0
10110,0.38624852895736694,0.18272142112255096,99,9918.0,-1.51167631149292,53,8384.0
10120,0.3872126340866089,1.9972244501113892,-2,9918.0,-0.9690646529197693,-146,8384.0
10130,0.3871040642261505,1.170256495475769,-22,9918.0,-5.224035263061523,-13,8384.0
10140,0.38697314262390137,-1.8135889768600464,25,9918.0,-3.2577433586120605,-131,8384.0
10150,0.3868318498134613,2.0233592987060547,-56,9918.0,-2.905440330505371,-142,8384.0
10160,0.3866761326789856,-0.38393130898475647,-2,9918.0,4.481071949005127,110,8384.0
10170,0.3871331810951233,1.1160074472427368,177,9918.0,-2.70564603805542,-138,8384.0
10180,0.3870379626750946,0.05512543022632599,-115,9918.0,0.7013351917266846,-44,8384.0
10190,0.3869714140892029,-2.5105056762695312,-53,9918.0,-1.9518020153045654,141,8384.0
10200,0.3869040608406067,-0.4546678364276886,-6,9918.0,1.1642189025878906,-29,8384.0
10210,0.38728028535842896,-2.438728094100952,-172,9918.0,7.990286350250244,-16,8384.0
10220,0.387224942445755,-4.2053751945495605,3,9918.0,-1.1017488241195679,-13,8384.0
10230,0.38715729117393494,-3.4121007919311523,-31,9918.0,0.9691478610038757,-103,8384.0
10240,0.38706040382385254,-5.444406509399414,-225,9918.0,1.6829240322113037,28,8384.0
10250,0.3869505226612091,-2.9026644229888916,-10,9918.0,-3.4612300395965576,-3,8384.0
10260,0.38607048988342285,-1.6423413753509521,-52,9918.0,-1.4709663391113281,-82,8384.0
10270,0.385941743850708,-1.1573642492294312,-104,9918.0,-1.3715194463729858,-7,8384.0
10280,0.3858301639556885,-0.27138379216194153,28,9918.0,5.0749287605285645,157,8384.0
10290,0.38574716448783875,-1.2171754837036133,-36,9918.0,0.22734105587005615,7,8384.0
10300,0.3862174451351166,-1.236720085144043,-67,9918.0,3.1958730220794678,126,8384.0
10310,0.3861941397190094,0.2647898197174072,39,9918.0,2.8067219257354736,28,8384.0
10320,0.3861919045448303,0.848238468170166,-119,9918.0,2.1470556259155273,-54,8384.0
10330,0.3862711787223816,-1.207210659980774,-22,9918.0,1.06448233127594,76,8384.0
10340,0.386313796043396,-0.3873225152492523,10,9918.0,0.6734976172447205,0,8384.0
10350,0.38620537519454956,0.33799558877944946,-110,9918.0,-0.7334768772125244,-56,8384.0
10360,0.386208713054657,-2.1841347217559814,-52,9918.0,0.48165690898895264,95,8384.0
10370,0.38621285557746887,-3.0210845470428467,101,9918.0,0.9012373685836792,-20,8384.0
10380,0.38624292612075806,1.3504985570907593,-19,9918.0,-0.20909832417964935,-61,8384.0
10390,0.38738787174224854,3.6263415813446045,29,9918.0,1.9953616857528687,171,8384.0
10400,0.3875553011894226,2.706437826156616,222,9918.0,1.8119215965270996,44,8384.0
10410,0.38773179054260254,1.9888931512832642,-11,9918.0,2.406104326248169,-57,8384.0
10420,0.38792967796325684,0.7356734871864319,22,9918.0,-0.07656210660934448,107,8384.0
10430,0.3873339891433716,-1.1845192909240723,68,9918.0,1.7301398515701294,41,8384.0
10440,0.38754403591156006,-2.2252159118652344,-66,9918.0,-0.280988484621048,-219,8384.0
10450,0.3877454698085785,-5.553616046905518,-172,9918.0,-0.6283532977104187,52,8384.0
10460,0.38797688484191895,-6.468180179595947,-1,9918.0,-1.0649454593658447,-84,8384.0
10470,0.3882075250148773,-4.391332626342773,-111,9918.0,2.99454402923584,-67,8384.0
10480,0.38874781131744385,-1.2538727521896362,-11,9918.0,-0.5788313150405884,-5,8384.0
10490,0.3890101909637451,-1.2394542694091797,130,9918.0,-0.5199971795082092,95,8384.0
10500,0.3892999291419983,1.4733539819717407,44,9918.0,-1.5237668752670288,-126,8384.0
10510,0.3895828127861023,2.7201859951019287,28,9918.0,3.8418400287628174,105,8384.0
10520,0.3922603130340576,2.292454957962036,123,9918.0,4.3385515213012695,116,8384.0
10530,0.39267322421073914,3.916583776473999,103,9918.0,3.759913921356201,-267,8384.0
10540,0.3930608928203583,2.3637406826019287,-37,9918.0,-4.8800506591796875,-28,8384.0
10550,0.3934159576892853,0.3497498631477356,34,9918.0,-1.3714689016342163,2,8384.0
10560,0.3927110731601715,-2.064852714538574,-93,9918.0,-0.7470808029174805,-146,8384.0
10570,0.39296913146972656,-2.008873462677002,-71,9918.0,-1.621759295463562,71,8384.0
10580,0.39320725202560425,-2.8407793045043945,41,9918.0,-3.7730371952056885,-2,8384.0
10590,0.39343690872192383,-0.3054145574569702,-28,9918.0,-2.61275577545166,-156,8384.0
10600,0.39365702867507935,1.6508238315582275,41,9918.0,-2.9327609539031982,8,8384.0
10610,0.39240747690200806,2.5782227516174316,134,9918.0,-2.7398722171783447,-18,8384.0
10620,0.3924783766269684,2.3359737396240234,5,9918.0,-0.8192620873451233,-201,8384.0
10630,0.3925423324108124,2.385716438293457,33,9918.0,-0.26163727045059204,29,8384.0
10640,0.39262816309928894,3.8337745666503906,106,9918.0,3.037142515182495,16,8384.0
10650,0.39241355657577515,1.5159722566604614,-45,9918.0,5.507297992706299,12,8384.0
10660,0.39235377311706543,1.7744380235671997,36,9918.0,6.803136825561523,248,8384.0
10670,0.3922799825668335,1.0280619859695435,171,9918.0,3.024301052093506,8,8384.0
10680,0.3922034502029419,2.140310049057007,-8,9918.0,1.1896320581436157,-16,8384.0
10690,0.392073392868042,2.5133516788482666,71,9918.0,1.9253958463668823,145,8384.0
10700,0.39267444610595703,3.5714406967163086,173,9918.0,0.9396121501922607,-7,8384.0
10710,0.39251697063446045,4.301950931549072,-1,9918.0,5.739538669586182,-103,8384.0
10720,0.39234593510627747,6.8047051429748535,22,9918.0,-4.07167387008667,-142,8384.0
10730,0.39221224188804626,5.033434867858887,138,9918.0,-4.718333721160889,1,8384.0
10740,0.3912201523780823,3.980830669403076,59,9918.0,-1.7292747497558594,-124,8384.0
10750,0.390965074300766,1.8508684635162354,-118,9918.0,3.967033624649048,-1,8384.0
10760,0.39068686962127686,-0.017722459509968758,41,9918.0,0.10873166471719742,98,8384.0
10770,0.3903981149196625,-0.7724833488464355,16,9918.0,3.4792473316192627,11,8384.0
10780,0.39009320735931396,0.32021400332450867,-69,9918.0,1.9775744676589966,-65,8384.0
10790,0.38851770758628845,-2.7202467918395996,-48,9918.0,0.9106609225273132,290,8384.0
10800,0.38814395666122437,-1.951764464378357,111,9918.0,1.1914727687835693,40,8384.0
10810,0.38775455951690674,-1.1551835536956787,-91,9918.0,2.5031909942626953,-67,8384.0
10820,0.3873719573020935,-2.0961413383483887,-92,9918.0,-2.355862855911255,39,8384.0
10830,0.38769590854644775,-3.049206495285034,27,9918.0,-3.5460524559020996,101,8384.0
10840,0.38744688034057617,-1.303966760635376,99,9918.0,-7.681069374084473,-95,8384.0
10850,0.38721513748168945,1.011794924736023,-77,9918.0,-3.181671380996704,-167,8384.0
10860,0.387029767036438,-0.4723757207393646,-66,9918.0,-9.402352333068848,-61,8384.0
10870,0.3864997923374176,1.3215830326080322,80,9918.0,-5.245236873626709,-57,8384.0
10880,0.38626712560653687,0.9518544673919678,-4,9918.0,-4.288984775543213,-143,8384.0
10890,0.386075884103775,0.17699666321277618,-34,9918.0,0.26969200372695923,-176,8384.0
10900,0.3858623504638672,-4.6917290687561035,-40,9918.0,5.361922740936279,206,8384.0
10910,0.38571426272392273,1.0603364706039429,92,9918.0,6.263789176940918,116,8384.0
10920,0.3852788209915161,4.40167760848999,63,9918.0,1.264635682106018,-112,8384.0
10930,0.38517773151397705,5.625835418701172,20,9918.0,2.4304211139678955,117,8384.0
10940,0.38508594036102295,3.2113113403320312,66,9918.0,4.624745845794678,170,8384.0
10950,0.38500750064849854,0.2105950266122818,-5,9918.0,0.013115962967276573,-78,8384.0
10960,0.38497108221054077,3.6734282970428467,61,9918.0,-1.739077091217041,60,8384.0
10970,0.3849615156650543,0.7677017450332642,116,9918.0,-1.428737759590149,20,8384.0
10980,0.3849797546863556,0.4980781376361847,-12,9918.0,-0.16165265440940857,-167,8384.0
10990,0.38499322533607483,2.5619733333587646,-117,9918.0,-1.4787343740463257,-67,8384.0
11000,0.3842383623123169,-0.3037147521972656,24,9918.0,-1.5533859729766846,44,8384.0
11010,0.3842463493347168,1.0268601179122925,58,9918.0,-2.048170328140259,-86,8384.0
11020,0.3842424154281616,2.466543436050415,-29,9918.0,-1.4573838710784912,-75,8384.0
11030,0.3842872977256775,2.809065103530884,54,9918.0,-2.2772090435028076,80,8384.0
11040,0.38432595133781433,3.892585039138794,174,9918.0,-5.588879108428955,76,8384.0
11050,0.38343387842178345,2.9449052810668945,58,9918.0,9.048446655273438,61,8384.0
11060,0.3834022879600525,5.831587314605713,45,9918.0,3.013537645339966,96,8384.0
11070,0.3833407461643219,2.8077175617218018,83,9918.0,5.750826835632324,234,8384.0
11080,0.38326767086982727,0.31711098551750183,65,9918.0,4.265312194824219,-6,8384.0
11090,0.38273149728775024,4.444509506225586,4,9918.0,-3.5465786457061768,-152,8384.0
11100,0.38262999057769775,1.6549698114395142,44,9918.0,-5.865832805633545,-30,8384.0
11110,0.3825092911720276,-0.08483663946390152,92,9918.0,-8.145705223083496,-134,8384.0
11120,0.3823929727077484,-2.409759759902954,-54,9918.0,-7.050897121429443,-306,8384.0
11130,0.38230061531066895,-2.9661154747009277,-146,9918.0,-8.05820083618164,-114,8384.0
11140,0.3824915289878845,-1.9813252687454224,33,9918.0,-2.719369411468506,-40,8384.0
11150,0.3824666440486908,-2.4109318256378174,-65,9918.0,4.627676963806152,-110,8384.0
11160,0.38246849179267883,2.9162559509277344,-177,9918.0,2.4225549697875977,65,8384.0
11170,0.3824811577796936,-2.7249436378479004,46,9918.0,3.7319207191467285,144,8384.0
11180,0.3823186755180359,-2.089874029159546,-58,9918.0,8.700668334960938,95,8384.0
11190,0.38234835863113403,-1.819905400276184,-97,9918.0,11.0111722946167,120,8384.0
11200,0.3823595643043518,-3.392998695373535,-4,9918.0,1.3669427633285522,179,8384.0
11210,0.38236311078071594,-6.596128940582275,-9,9918.0,-0.9033553004264832,-112,8384.0
11220,0.3822251260280609,-5.483702182769775,-142,9918.0,-2.6681013107299805,-160,8384.0
11230,0.3822285830974579,-4.609979629516602,-88,9918.0,-9.18842601776123,-230,8384.0
11240,0.3821883499622345,-1.0327931642532349,17,9918.0,-12.121463775634766,-105,8384.0
11250,0.3821527063846588,-3.2935426235198975,-87,9918.0,-6.0228071212768555,-240,8384.0
11260,0.3821306824684143,-1.5587351322174072,-41,9918.0,-2.7775940895080566,-10,8384.0
11270,0.38327810168266296,-1.012250304222107,56,9918.0,2.7457008361816406,51,8384.0
11280,0.3833919167518616,-3.411165714263916,-148,9918.0,9.196544647216797,48,8384.0
11290,0.3834702968597412,0.8020210862159729,-71,9918.0,12.161049842834473,318,8384.0
11300,0.3834990859031677,-2.832038164138794,33,9918.0,11.490452766418457,328,8384.0
11310,0.3837491273880005,-0.16326113045215607,-15,9918.0,9.697062492370605,99,8384.0
11320,0.38386303186416626,0.6302137970924377,-69,9918.0,11.14247989654541,217,8384.0
11330,0.3840191662311554,-0.764119565486908,-2,9918.0,7.214571475982666,305,8384.0
11340,0.3841940760612488,-6.286983489990234,51,9918.0,3.322010040283203,92,8384.0
11350,0.38433870673179626,-1.5088040828704834,-99,9918.0,1.645019769668579,-70,8384.0
11360,0.38555943965911865,1.430432915687561,15,9918.0,-1.275526523590088,88,8384.0
11370,0.3857473134994507,1.2635502815246582,158,9918.0,0.9482876658439636,93,8384.0
11380,0.38594937324523926,1.5436327457427979,-2,9918.0,4.075260162353516,-64,8384.0
11390,0.3861464858055115,2.4684629440307617,-33,9918.0,2.0035507678985596,56,8384.0
11400,0.38629743456840515,0.497219443321228,85,9918.0,2.492365837097168,111,8384.0
11410,0.3865056037902832,1.3312339782714844,-4,9918.0,6.751528739929199,-111,8384.0
11420,0.38671568036079407,-0.872058093547821,-33,9918.0,0.7252628803253174,127,8384.0
11430,0.3869338035583496,3.2503480911254883,64,9918.0,2.1428539752960205,75,8384.0
11440,0.38672536611557007,0.9626970887184143,20,9918.0,2.358023166656494,-138,8384.0
11450,0.386972576379776,-0.5707326531410217,-114,9918.0,1.8008477687835693,45,8384.0
11460,0.38723814487457275,-1.0317039489746094,39,9918.0,2.226971387863159,49,8384.0
11470,0.38752323389053345,-0.121598020195961,-77,9918.0,-0.24566952884197235,-112,8384.0
11480,0.38781285285949707,-2.0316882133483887,-62,9918.0,4.427783966064453,83,8384.0
11490,0.38694673776626587,0.7189370393753052,110,9918.0,-2.0205419063568115,-21,8384.0
11500,0.3872167766094208,-1.510807991027832,-74,9918.0,-0.002764791715890169,-39,8384.0
11510,0.3874744772911072,-0.6475920677185059,45,9918.0,0.7641185522079468,61,8384.0
11520,0.38769790530204773,0.22934426367282867,113,9918.0,4.061276912689209,-19,8384.0
11530,0.3891561031341553,0.5386255383491516,-41,9918.0,0.560983419418335,-16,8384.0
11540,0.38944727182388306,-0.6298961043357849,21,9918.0,-0.6130672693252563,77,8384.0
11550,0.38971394300460815,-2.261204719543457,15,9918.0,3.0879642963409424,-71,8384.0
11560,0.38995593786239624,-5.324032306671143,25,9918.0,-5.293554306030273,-51,8384.0
11570,0.390134334564209,-2.8203635215759277,-11,9918.0,-4.668198585510254,-181,8384.0
11580,0.3898119032382965,0.17487597465515137,-123,9918.0,-8.448622703552246,-55,8384.0
11590,0.38995346426963806,-2.0311789512634277,58,9918.0,-3.004127025604248,-91,8384.0
11600,0.39009958505630493,-2.1958696842193604,-71,9918.0,-1.8510016202926636,-101,8384.0
11610,0.3901985287666321,-1.3851338624954224,16,9918.0,-0.3631953001022339,143,8384.0
11620,0.3901962339878082,-0.701900064945221,56,9918.0,1.7752680778503418,-30,8384.0
11630,0.39028871059417725,-0.4134388566017151,-37,9918.0,2.6068742275238037,38,8384.0
11640,0.390373170375824,0.559899091720581,77,9918.0,-1.427087426185608,64,8384.0
11650,0.3904525637626648,-1.6607153415679932,-4,9918.0,1.0499387979507446,-167,8384.0
11660,0.39108577370643616,-1.3006478548049927,-36,9918.0,-2.913748025894165,-3,8384.0
11670,0.39119425415992737,-2.457160472869873,61,9918.0,-3.8362371921539307,-195,8384.0
11680,0.3913055956363678,-0.18072335422039032,-129,9918.0,-8.229493141174316,-259,8384.0
11690,0.3913815915584564,-0.8075971007347107,-9,9918.0,-2.6980974674224854,38,8384.0
11700,0.3914763033390045,0.6905036568641663,1,9918.0,-0.6687464714050293,-65,8384.0
11710,0.3917793035507202,-0.057305123656988144,-58,9918.0,2.873546838760376,146,8384.0
11720,0.39186811447143555,-0.4501539468765259,77,9918.0,2.1842873096466064,36,8384.0
11730,0.39192843437194824,-2.0163369178771973,-120,9918.0,4.521702289581299,47,8384.0
11740,0.39190906286239624,-3.006631374359131,22,9918.0,3.423886299133301,265,8384.0
11750,0.391963392496109,-2.227708578109741,34,9918.0,-8.589134216308594,-49,8384.0
11760,0.39197608828544617,-5.072463035583496,-171,9918.0,1.3159209489822388,50,8384.0
11770,0.3919902741909027,-7.094902038574219,-11,9918.0,-3.2714598178863525,-31,8384.0
11780,0.39196109771728516,-2.2867867946624756,-129,9918.0,-2.875122308731079,-111,8384.0
11790,0.39192602038383484,-6.124770641326904,-22,9918.0,-0.11824619770050049,-47,8384.0
11800,0.3927312195301056,-5.121004581451416,-46,9918.0,-0.03359570726752281,-92,8384.0
11810,0.39278167486190796,0.07547204941511154,-162,9918.0,2.3271400928497314,156,8384.0
11820,0.39282774925231934,-4.223313331604004,13,9918.0,5.0849409103393555,83,8384.0
11830,0.3928580582141876,-1.8071167469024658,-64,9918.0,5.138443470001221,-40,8384.0
11840,0.3925700783729553,-1.3384913206100464,17,9918.0,1.097409725189209,203,8384.0
11850,0.3925400972366333,-2.94586181640625,94,9918.0,2.5807735919952393,15,8384.0
11860,0.3924919366836548,0.6271606683731079,-51,9918.0,-3.3276453018188477,2,8384.0
11870,0.39244529604911804,-1.0314302444458008,52,9918.0,-0.6351975202560425,79,8384.0
11880,0.3930374085903168,-1.4997191429138184,-101,9918.0,3.9738576412200928,-140,8384.0
11890,0.3930882513523102,-2.026625871658325,-52,9918.0,-4.4058966636657715,-25,8384.0
11900,0.3931385576725006,-2.74436092376709,47,9918.0,1.9358792304992676,-85,8384.0
11910,0.39319509267807007,-1.2017135620117188,-100,9918.0,1.430928349494934,-29,8384.0
11920,0.39326024055480957,2.868377208709717,85,9918.0,-1.42070472240448,156,8384.0
11930,0.3936448097229004,3.2609682083129883,10,9918.0,-8.711840629577637,-127,8384.0
11940,0.39376580715179443,1.245168685913086,14,9918.0,-0.5500925779342651,74,8384.0
11950,0.3938753306865692,1.3722407817840576,107,9918.0,0.7008476257324219,-73,8384.0
11960,0.3939880132675171,2.673616409301758,-91,9918.0,0.6465731263160706,-65,8384.0
11970,0.3924691379070282,3.775611162185669,65,9918.0,-1.4895801544189453,124,8384.0
11980,0.39255964756011963,0.20151150226593018,-20,9918.0,-1.4544891119003296,-90,8384.0
11990,0.3926449120044708,-0.35828590393066406,-25,9918.0,-0.19816474616527557,129,8384.0
12000,0.39269036054611206,-1.8695176839828491,70,9918.0,-4.287833213806152,-64,8384.0
12010,0.39268940687179565,-1.1623929738998413,-79,9918.0,-4.671449661254883,-22,8384.0
12020,0.39197880029678345,-0.5760372877120972,50,9918.0,-4.211603164672852,-21,8384.0
12030,0.3919108808040619,-0.7148576974868774,-49,9918.0,-2.43064546585083,-239,8384.0
12040,0.39180615544319153,0.042183734476566315,-61,9918.0,1.242497205734253,110,8384.0
12050,0.39167338609695435,2.7927050590515137,104,9918.0,3.7039618492126465,17,8384.0
12060,0.3904716372489929,3.8991618156433105,-23,9918.0,3.769559860229492,136,8384.0
12070,0.39029040932655334,3.3611011505126953,173,9918.0,1.6454038619995117,110,8384.0
12080,0.39005762338638306,2.3813791275024414,7,9918.0,-1.7369205951690674,-177,8384.0
12090,0.38984784483909607,4.410562515258789,12,9918.0,-11.335350036621094,-69,8384.0
12100,0.38779693841934204,1.5824774503707886,91,9918.0,-4.662010669708252,-182,8384.0
12110,0.387431800365448,3.3656482696533203,-71,9918.0,-8.88998031616211,-164,8384.0
12120,0.3870346248149872,2.0277366638183594,150,9918.0,-6.796348571777344,93,8384.0
12130,0.38663116097450256,5.117244243621826,41,9918.0,-8.325217247009277,-97,8384.0
12140,0.3862580358982086,3.174903631210327,93,9918.0,-4.7051825523376465,20,8384.0
12150,0.38625067472457886,1.640191912651062,-1,9918.0,-0.0542655885219574,-9,8384.0
12160,0.3859793245792389,2.314662456512451,-16,9918.0,2.3184890747070312,-10,8384.0
12170,0.3856901228427887,1.6963757276535034,74,9918.0,-2.210918426513672,136,8384.0
12180,0.3854319751262665,-1.9552794694900513,-137,9918.0,2.3455026149749756,-53,8384.0
12190,0.3842970132827759,-4.146332263946533,-52,9918.0,3.663742780685425,216,8384.0
12200,0.3840253949165344,-3.204732894897461,-21,9918.0,-1.412376046180725,-10,8384.0
12210,0.38375529646873474,-1.236920952796936,-34,9918.0,-3.6868765354156494,-47,8384.0
12220,0.38351085782051086,-0.8735440373420715,100,9918.0,-7.156103610992432,-66,8384.0
12230,0.383276104927063,-1.3081517219543457,-20,9918.0,-6.761532306671143,-305,8384.0
12240,0.3837430775165558,-3.6172587871551514,-134,9918.0,-8.848811149597168,-196,8384.0
12250,0.38361358642578125,-1.8569468259811401,11,9918.0,-9.93820571899414,-112,8384.0
12260,0.38347315788269043,-2.262907028198242,-138,9918.0,-5.730147838592529,-161,8384.0
12270,0.38337522745132446,-0.6318202614784241,-44,9918.0,-8.045111656188965,150,8384.0
12280,0.38469770550727844,-0.14405490458011627,30,9918.0,-8.650919914245605,-153,8384.0
12290,0.38466691970825195,-3.56704044342041,-54,9918.0,-2.679208993911743,-60,8384.0
12300,0.38465580344200134,-1.2847870588302612,83,9918.0,-4.889383792877197,-22,8384.0
12310,0.38475850224494934,-1.7942841053009033,-57,9918.0,1.1083983182907104,-176,8384.0
12320,0.38335543870925903,0.40288788080215454,-43,9918.0,1.703930139541626,26,8384.0
12330,0.3834385573863983,0.08523406833410263,23,9918.0,2.144362688064575,28,8384.0
12340,0.3834747076034546,1.7118828296661377,-53,9918.0,5.061046600341797,70,8384.0
12350,0.3835378587245941,2.6167168617248535,107,9918.0,0.681530237197876,73,8384.0
12360,0.38362324237823486,1.069109320640564,85,9918.0,1.025585412979126,-40,8384.0
12370,0.3838595151901245,1.8825603723526,3,9918.0,0.36915743350982666,58,8384.0
12380,0.38395383954048157,0.972108006477356,118,9918.0,-0.2809099853038788,-57,8384.0
12390,0.3840342164039612,1.5712552070617676,-100,9918.0,0.008586781099438667,-135,8384.0
12400,0.38412103056907654,0.5824875831604004,43,9918.0,-0.8701921105384827,42,8384.0
12410,0.38493579626083374,1.4598665237426758,28,9918.0,-0.18151196837425232,-62,8384.0
12420,0.3850272297859192,0.6280921697616577,-9,9918.0,-2.6749987602233887,82,8384.0
12430,0.3850823938846588,0.47363123297691345,208,9918.0,-5.105170249938965,-147,8384.0
12440,0.38514867424964905,1.6107724905014038,-58,9918.0,-0.7976290583610535,18,8384.0
12450,0.38523054122924805,0.9451420903205872,92,9918.0,4.34953498840332,42,8384.0
12460,0.38560476899147034,2.3991293907165527,-46,9918.0,4.106482982635498,-145,8384.0
12470,0.38566869497299194,4.133981227874756,41,9918.0,3.44884991645813,78,8384.0
12480,0.38572874665260315,1.0719698667526245,34,9918.0,3.8734259605407715,28,8384.0
12490,0.38579705357551575,0.9610252380371094,-51,9918.0,-0.31706276535987854,75,8384.0
12500,0.3883349597454071,-2.362992286682129,88,9918.0,-1.736916184425354,-45,8384.0
12510,0.3885379731655121,-3.686598300933838,-81,9918.0,-0.5231683254241943,-91,8384.0
12520,0.38870447874069214,-1.7223039865493774,4,9918.0,1.0786970853805542,81,8384.0
12530,0.3888479471206665,-0.8851089477539062,-7,9918.0,2.3924028873443604,-119,8384.0
12540,0.3889923393726349,1.4623761177062988,-75,9918.0,1.65553617477417,122,8384.0
12550,0.38915249705314636,1.3669625520706177,43,9918.0,7.2368879318237305,112,8384.0
12560,0.3892582058906555,4.491285800933838,26,9918.0,5.843663215637207,169,8384.0
12570,0.3893232047557831,3.692173957824707,181,9918.0,7.899370193481445,232,8384.0
12580,0.38939324021339417,2.988818407058716,23,9918.0,2.4167497158050537,-76,8384.0
12590,0.3896774649620056,3.6446259021759033,34,9918.0,5.485782623291016,51,8384.0
12600,0.38970786333084106,0.8533214926719666,18,9918.0,3.743990898132324,-82,8384.0
12610,0.38971251249313354,1.629431962966919,-31,9918.0,1.1374455690383911,9,8384.0
12620,0.38972237706184387,1.1836655139923096,146,9918.0,-2.286677598953247,-19,8384.0
12630,0.39024168252944946,-0.053534675389528275,-33,9918.0,-3.4968931674957275,-83,8384.0
12640,0.3902927339076996,-1.346240520477295,30,9918.0,-1.621658444404602,-33,8384.0
12650,0.39033421874046326,-1.395015835762024,-37,9918.0,-2.736598014831543,-158,8384.0
12660,0.3903590738773346,-4.1938886642456055,-77,9918.0,2.7689740657806396,43,8384.0
12670,0.3903750777244568,-0.5995314121246338,28,9918.0,2.8346495628356934,12,8384.0
12680,0.39195331931114197,-0.009831489995121956,-68,9918.0,-0.08037254214286804,78,8384.0
12690,0.3920937776565552,-1.1770960092544556,148,9918.0,0.3385547995567322,94,8384.0
12700,0.3922249972820282,-0.014874824322760105,-48,9918.0,-6.716688632965088,-93,8384.0
12710,0.39229831099510193,-2.693875551223755,-59,9918.0,1.4933807849884033,53,8384.0
12720,0.39263394474983215,-3.6109561920166016,-90,9918.0,1.8278112411499023,-119,8384.0
12730,0.3926892578601837,-3.7119336128234863,-156,9918.0,3.247020721435547,145,8384.0
12740,0.39274856448173523,-5.22866678237915,19,9918.0,-1.6842604875564575,-15,8384.0
12750,0.3927842378616333,-2.7078137397766113,-81,9918.0,-3.337353467941284,23,8384.0
12760,0.3940882384777069,-1.366169810295105,12,9918.0,-0.00936784129589796,34,8384.0
12770,0.3940877318382263,0.4976665675640106,-43,9918.0,0.3587329685688019,104,8384.0
12780,0.3940669000148773,0.8555359840393066,-3,9918.0,0.367847204208374,81,8384.0
12790,0.3940393328666687,2.0665483474731445,65,9918.0,2.431687355041504,-14,8384.0
12800,0.39399686455726624,2.3109562397003174,104,9918.0,0.7424551844596863,75,8384.0
12810,0.3919503390789032,2.5757641792297363,27,9918.0,3.7508819103240967,-87,8384.0
12820,0.39183804392814636,1.99588143825531,-66,9918.0,3.239330291748047,166,8384.0
12830,0.3917441666126251,3.1424779891967773,92,9918.0,7.410252571105957,50,8384.0
12840,0.3916703760623932,0.4504050612449646,-61,9918.0,7.842644214630127,106,8384.0
12850,0.3900846540927887,1.2352896928787231,33,9918.0,1.5391119718551636,296,8384.0
12860,0.38980790972709656,-1.4942599534988403,33,9918.0,4.039780616760254,51,8384.0
12870,0.38950225710868835,1.354286551475525,11,9918.0,3.5171566009521484,114,8384.0
12880,0.38918229937553406,4.662563800811768,110,9918.0,-4.361588478088379,-39,8384.0
12890,0.38882553577423096,2.754861354827881,-60,9918.0,-0.4746740758419037,-89,8384.0
12900,0.38766801357269287,0.9103714227676392,55,9918.0,-6.1888427734375,-23,8384.0
12910,0.3872174620628357,1.230919361114502,34,9918.0,-1.7120376825332642,-110,8384.0
12920,0.38677701354026794,0.16764937341213226,-65,9918.0,-1.4204108715057373,32,8384.0
12930,0.38631173968315125,-1.3411376476287842,68,9918.0,-4.071046352386475,28,8384.0
12940,0.3881278336048126,-1.4080842733383179,-37,9918.0,4.642219543457031,-14,8384.0
12950,0.38776442408561707,-1.1490103006362915,16,9918.0,3.2539377212524414,178,8384.0
12960,0.3874012529850006,-2.423767328262329,25,9918.0,1.5644243955612183,-14,8384.0
12970,0.387027770280838,-2.32928729057312,-116,9918.0,9.032659530639648,119,8384.0
12980,0.387039452791214,-4.39064884185791,1,9918.0,7.51024866104126,160,8384.0
12990,0.38667795062065125,-1.631651520729065,-19,9918.0,6.808035850524902,-6,8384.0
13000,0.38633617758750916,4.153049468994141,-26,9918.0,0.6781710386276245,92,8384.0
13010,0.38605204224586487,-3.327158212661743,17,9918.0,6.494259834289551,140,8384.0
13020,0.3857642114162445,-0.91346275806427,-85,9918.0,0.8676782846450806,-61,8384.0
13030,0.385992169380188,-2.1923885345458984,-68,9918.0,0.8873237371444702,111,8384.0
13040,0.38575902581214905,-2.6329917907714844,123,9918.0,-2.1849417686462402,75,8384.0
13050,0.3855172097682953,-2.4534804821014404,-70,9918.0,-6.182977676391602,-249,8384.0
13060,0.3852539658546448,-0.4436047375202179,29,9918.0,-3.5272786617279053,7,8384.0
13070,0.38370248675346375,1.827247977256775,110,9918.0,-2.594017505645752,-72,8384.0
13080,0.3834048807621002,0.7689522504806519,-59,9918.0,-1.7743046283721924,-166,8384.0
13090,0.38310182094573975,2.066845178604126,14,9918.0,0.9030946493148804,95,8384.0
13100,0.3828047513961792,1.625040054321289,59,9918.0,3.5925216674804688,20,8384.0
13110,0.38351890444755554,2.8542568683624268,-27,9918.0,0.9597139954566956,-18,8384.0
13120,0.3833591341972351,0.5411815643310547,-51,9918.0,1.1268205642700195,92,8384.0
13130,0.3832119405269623,-1.4713228940963745,80,9918.0,2.668776035308838,23,8384.0
13140,0.3830717206001282,-2.7759037017822266,-127,9918.0,0.929146945476532,41,8384.0
13150,0.3829480707645416,-3.2754971981048584,-7,9918.0,-4.4258527755737305,11,8384.0
13160,0.3844269812107086,-6.83779764175415,-173,9918.0,-4.199397563934326,-238,8384.0
13170,0.384329229593277,-3.3668556213378906,-113,9918.0,-8.446077346801758,-140,8384.0
13180,0.3842470049858093,-3.9841196537017822,16,9918.0,-9.168048858642578,-141,8384.0
13190,0.38416895270347595,-3.8239240646362305,-107,9918.0,-4.654922008514404,-143,8384.0
13200,0.38599202036857605,-2.380557060241699,-11,9918.0,-0.46753597259521484,190,8384.0
13210,0.3860034644603729,-1.1122454404830933,81,9918.0,0.23870158195495605,-6,8384.0
13220,0.3860275447368622,-1.2431093454360962,-44,9918.0,6.657526969909668,64,8384.0
13230,0.38609179854393005,-1.5832985639572144,17,9918.0,3.1633520126342773,98,8384.0
13240,0.3861108720302582,-0.9435367584228516,-76,9918.0,5.845676898956299,-71,8384.0
13250,0.3864688277244568,1.9488637447357178,11,9918.0,1.8482507467269897,122,8384.0
13260,0.3864697217941284,1.5019360780715942,211,9918.0,4.557279586791992,6,8384.0
13270,0.3864908814430237,3.9105772972106934,-20,9918.0,-3.5855181217193604,-97,8384.0
13280,0.3865220844745636,2.651230812072754,79,9918.0,-2.3866302967071533,-50,8384.0
13290,0.38798972964286804,3.306732177734375,2,9918.0,-5.027557373046875,-195,8384.0
13300,0.38813450932502747,2.4780213832855225,-11,9918.0,-7.532168865203857,-26,8384.0
13310,0.3883012533187866,3.051593065261841,166,9918.0,-8.00771713256836,-107,8384.0
13320,0.388447105884552,0.518418550491333,-32,9918.0,-6.690330982208252,-112,8384.0
13330,0.38857561349868774,-1.3146483898162842,8,9918.0,-2.48502516746521,-29,8384.0
13340,0.39056140184402466,-1.0129272937774658,-92,9918.0,-1.1497764587402344,-171,8384.0
13350,0.3907613158226013,-2.0055487155914307,-65,9918.0,1.2959290742874146,214,8384.0
13360,0.390963613986969,-2.204957962036133,58,9918.0,0.522200345993042,117,8384.0
13370,0.3911430835723877,-1.5779634714126587,-30,9918.0,-1.354056715965271,-14,8384.0
13380,0.39200252294540405,-3.4794702529907227,-10,9918.0,2.260141134262085,29,8384.0
13390,0.39205285906791687,-4.128990173339844,-202,9918.0,1.825775146484375,-24,8384.0
13400,0.3920866847038269,-6.780179500579834,-12,9918.0,2.749325752258301,172,8384.0
13410,0.3920610249042511,-0.3109125792980194,-94,9918.0,2.739067316055298,-35,8384.0
13420,0.3923785388469696,2.2131001949310303,35,9918.0,2.1459202766418457,62,8384.0
13430,0.39225703477859497,5.249332904815674,20,9918.0,-4.521923542022705,-81,8384.0
13440,0.3920779824256897,6.584840297698975,129,9918.0,-4.834994792938232,97,8384.0
13450,0.3918896019458771,7.886092185974121,266,9918.0,-0.9924328327178955,57,8384.0
13460,0.39170587062835693,5.8297247886657715,-56,9918.0,0.40500596165657043,-29,8384.0
13470,0.39075127243995667,7.50019645690918,128,9918.0,-0.7642866969108582,-6,8384.0
13480,0.3903762400150299,3.78059983253479,49,9918.0,-1.1427407264709473,-111,8384.0
13490,0.38996610045433044,2.8357295989990234,39,9918.0,-1.4236382246017456,154,8384.0
13500,0.3895399570465088,1.6780540943145752,165,9918.0,-1.443284273147583,-14,8384.0
13510,0.3896583914756775,2.0318803787231445,-51,9918.0,3.5294928550720215,22,8384.0
13520,0.38915377855300903,1.9104281663894653,40,9918.0,0.8710317611694336,41,8384.0
13530,0.38863861560821533,-0.8416597247123718,-104,9918.0,4.000807762145996,-110,8384.0
13540,0.38812148571014404,1.0785785913467407,13,9918.0,2.369542360305786,193,8384.0
13550,0.38761258125305176,1.4210830926895142,168,9918.0,-1.0902245044708252,-189,8384.0
13560,0.3872361183166504,2.5827181339263916,-14,9918.0,0.5393524169921875,13,8384.0
13570,0.3866492509841919,1.313686490058899,36,9918.0,-1.0112253427505493,73,8384.0
13580,0.3860701322555542,-0.020801296457648277,31,9918.0,0.9452837109565735,-145,8384.0
13590,0.3854702115058899,3.4527792930603027,-108,9918.0,-3.7732818126678467,-47,8384.0
13600,0.38586729764938354,2.1328842639923096,79,9918.0,-4.597291946411133,121,8384.0
13610,0.3852841258049011,3.878242015838623,111,9918.0,-6.592738151550293,-92,8384.0
13620,0.3847402036190033,0.8007276058197021,-74,9918.0,-2.244828224182129,30,8384.0
13630,0.3842217028141022,1.0538843870162964,55,9918.0,1.2864515781402588,122,8384.0
13640,0.3848118484020233,2.6764745712280273,38,9918.0,3.1918840408325195,-90,8384.0
13650,0.3844267427921295,3.027886152267456,-117,9918.0,4.821239948272705,111,8384.0
13660,0.3840801417827606,3.7904181480407715,160,9918.0,2.2362163066864014,160,8384.0
13670,0.38374751806259155,3.4953432083129883,54,9918.0,1.0756547451019287,-26,8384.0
13680,0.3834015130996704,2.9358553886413574,-6,9918.0,-2.534816265106201,25,8384.0
13690,0.3825018107891083,1.6419696807861328,69,9918.0,-4.504312515258789,130,8384.0
13700,0.38220247626304626,-1.933917760848999,-40,9918.0,-1.0858170986175537,-193,8384.0
13710,0.3819240927696228,-3.4126386642456055,-97,9918.0,-5.8853936195373535,-106,8384.0
13720,0.38169363141059875,-0.6361408829689026,24,9918.0,-3.6301140785217285,-9,8384.0
13730,0.38122546672821045,0.4682522118091583,-13,9918.0,1.5560719966888428,-31,8384.0
13740,0.381048321723938,1.200434684753418,-52,9918.0,1.4714608192443848,140,8384.0
13750,0.3808914124965668,-3.3110389709472656,86,9918.0,-0.23736456036567688,84,8384.0
13760,0.38077929615974426,-2.2189247608184814,39,9918.0,1.1287565231323242,-95,8384.0
13770,0.3815633952617645,-1.0652222633361816,-47,9918.0,3.453812599182129,43,8384.0
13780,0.38152310252189636,-2.5504379272460938,24,9918.0,6.788161277770996,80,8384.0
13790,0.3814852833747864,-2.9144043922424316,-147,9918.0,2.9336698055267334,-48,8384.0
13800,0.3814682066440582,-0.7314978241920471,7,9918.0,-0.32856765389442444,137,8384.0
13810,0.3814566731452942,-2.2344369888305664,124,9918.0,2.9615747928619385,-47,8384.0
13820,0.3812132179737091,-0.6044248342514038,1,9918.0,-1.6888505220413208,-241,8384.0
13830,0.38116511702537537,-0.5554702281951904,83,9918.0,-4.997908115386963,-128,8384.0
13840,0.3811217248439789,-2.7806591987609863,-15,9918.0,-3.8941638469696045,-183,8384.0
13850,0.38104721903800964,-4.58889102935791,-259,9918.0,-5.522161483764648,-154,8384.0
13860,0.38092464208602905,-8.19206714630127,-113,9918.0,-3.4485766887664795,274,8384.0
13870,0.3807794153690338,-9.037924766540527,-86,9918.0,0.8156198859214783,-20,8384.0
13880,0.3807889521121979,-4.705690383911133,-129,9918.0,-2.724771738052368,13,8384.0
13890,0.38060441613197327,-3.7003860473632812,10,9918.0,-0.7539095282554626,80,8384.0
13900,0.38038012385368347,-0.7258251905441284,-51,9918.0,2.2401082515716553,-126,8384.0
13910,0.38007253408432007,-1.254677653312683,-100,9918.0,-0.7309015393257141,26,8384.0
13920,0.37982016801834106,5.160337924957275,44,9918.0,-4.657404899597168,79,8384.0
13930,0.37957483530044556,2.7859458923339844,158,9918.0,-0.03923917934298515,-189,8384.0
13940,0.37934672832489014,2.180417776107788,15,9918.0,0.6772836446762085,-14,8384.0
13950,0.37907177209854126,8.550490379333496,191,9918.0,-6.202576637268066,-113,8384.0
13960,0.3788367509841919,9.244361877441406,65,9918.0,-3.168189764022827,-178,8384.0
13970,0.37858060002326965,7.702751636505127,119,9918.0,-4.722617149353027,149,8384.0
13980,0.3782978057861328,7.355900764465332,207,9918.0,1.5899734497070312,-55,8384.0
13990,0.37728258967399597,5.9225029945373535,31,9918.0,1.2903199195861816,119,8384.0
14000,0.3770163953304291,-0.929254412651062,76,9918.0,9.075628280639648,190,8384.0
14010,0.37674281001091003,-6.066413879394531,-164,9918.0,10.105178833007812,76,8384.0
14020,0.37648677825927734,-8.099695205688477,-176,9918.0,9.893671989440918,212,8384.0
14030,0.37628498673439026,-7.94984245300293,-117,9918.0,4.71034574508667,78,8384.0
14040,0.37521445751190186,-9.986181259155273,-123,9918.0,3.7084667682647705,-4,8384.0
14050,0.3749503791332245,-7.52037239074707,42,9918.0,6.372223377227783,84,8384.0
14060,0.3746839463710785,-8.369586944580078,-155,9918.0,-1.0584005117416382,-185,8384.0
14070,0.37446436285972595,-1.0001503229141235,-23,9918.0,-6.978837490081787,-50,8384.0
14080,0.37301871180534363,0.6325744390487671,143,9918.0,0.9039751887321472,-70,8384.0
14090,0.37277957797050476,4.400387287139893,44,9918.0,-4.4689249992370605,-137,8384.0
14100,0.3725016713142395,7.662156105041504,195,9918.0,-10.18394660949707,-22,8384.0
14110,0.37222617864608765,4.559763431549072,107,9918.0,-1.9412721395492554,-229,8384.0
14120,0.3719642758369446,4.704466342926025,-13,9918.0,-6.3995280265808105,-143,8384.0
14130,0.3721958100795746,2.0173399448394775,59,9918.0,-1.910236120223999,10,8384.0
14140,0.37195852398872375,0.7549800276756287,-59,9918.0,0.4630890488624573,-120,8384.0
14150,0.37175941467285156,0.8842101097106934,-23,9918.0,-1.4990688562393188,182,8384.0
14160,0.3716043531894684,-3.9319918155670166,-18,9918.0,2.1685218811035156,96,8384.0
14170,0.3716502785682678,-2.6158359050750732,-47,9918.0,-2.3533270359039307,-8,8384.0
14180,0.37148505449295044,-2.846020460128784,92,9918.0,-4.015007972717285,-86,8384.0
14190,0.3713325262069702,-1.4291119575500488,-72,9918.0,-1.2264844179153442,-216,8384.0
