timestamp,kalman.stateZ,gyro.x,gyro.xRaw,gyro.xVariance,gyro.y,gyro.yRaw,gyro.yVariance
0,0.3140018582344055,0.6839228868484497,15,6369.0,-11.321211814880371,-173,9930.0
10,0.3140120208263397,1.1732608079910278,19,6369.0,-9.841998100280762,-155,9930.0
20,0.31410282850265503,1.2876756191253662,17,6369.0,-8.201849937438965,-128,9930.0
30,0.31412145495414734,1.0597612857818604,14,6369.0,-6.502424240112305,-95,9930.0
40,0.3141319155693054,0.40543410181999207,0,6369.0,-4.732543468475342,-67,9930.0
50,0.31386321783065796,0.06511830538511276,-7,6369.0,-3.0131492614746094,-40,9930.0
60,0.3138766586780548,-0.6964718699455261,-17,6369.0,-0.5424568057060242,1,9930.0
70,0.3138865828514099,-1.8274105787277222,-35,6369.0,2.8760809898376465,69,9930.0
80,0.3139469623565674,-2.9039158821105957,-50,6369.0,7.45882511138916,148,9930.0
90,0.314534991979599,-3.1754257678985596,-56,6369.0,13.044410705566406,234,9930.0
100,0.3145807981491089,-3.0711991786956787,-49,6369.0,17.171825408935547,297,9930.0
110,0.3145808279514313,-1.6346919536590576,-10,6369.0,20.59596824645996,345,9930.0
120,0.31445616483688354,-0.26972663402557373,5,6369.0,22.2159481048584,369,9930.0
130,0.3146393299102783,1.6074048280715942,34,6369.0,22.74277687072754,368,9930.0
140,0.3146190941333771,2.4988276958465576,45,6369.0,21.60971450805664,343,9930.0
150,0.31453654170036316,3.3156380653381348,62,6369.0,20.129718780517578,330,9930.0
160,0.31448185443878174,3.530046224594116,63,6369.0,18.199432373046875,282,9930.0
170,0.31461963057518005,2.86289644241333,32,6369.0,15.765514373779297,242,9930.0
180,0.3140970766544342,0.9372565746307373,10,6369.0,12.421995162963867,196,9930.0
190,0.31406059861183167,-0.021296346560120583,-6,6369.0,9.24751091003418,133,9930.0
200,0.31442561745643616,-1.0539227724075317,-23,6369.0,5.773162364959717,77,9930.0
210,0.3144700229167938,-1.8422247171401978,-25,6369.0,1.9470027685165405,6,9930.0
220,0.3135322630405426,-1.2939640283584595,-13,6369.0,-3.606656312942505,-93,9930.0
230,0.31355366110801697,-0.7504775524139404,-6,6369.0,-12.410090446472168,-243,9930.0
240,0.31366756558418274,1.0542186498641968,33,6369.0,-23.678613662719727,-448,9930.0
250,0.31393298506736755,1.3095457553863525,21,6369.0,-38.93170166015625,-700,9930.0
260,0.313942551612854,2.8972344398498535,31,6369.0,-55.07958984375,-950,9930.0
270,0.3143673539161682,5.02623987197876,91,6369.0,-69.72313690185547,-1229,9930.0
280,0.31438148021698,3.7121469974517822,91,6369.0,-84.05654907226562,-1484,9930.0
290,0.3142721652984619,5.360766410827637,97,6369.0,-97.28092193603516,-1682,9930.0
300,0.31374794244766235,2.4793403148651123,119,6369.0,-101.7832260131836,-1707,9930.0
310,0.3137890696525574,1.721954107284546,122,6369.0,-96.22962188720703,-1577,9930.0
320,0.31324851512908936,1.1519418954849243,64,6369.0,-86.4132308959961,-1350,9930.0
330,0.31241875886917114,3.8418991565704346,-29,6369.0,-69.99687957763672,-953,9930.0
340,0.3130653202533722,0.5911322236061096,73,6369.0,-43.63499450683594,-564,9930.0
350,0.3144459128379822,1.2334924936294556,-24,6369.0,-18.870677947998047,-49,9930.0
360,0.31437820196151733,-0.29267197847366333,38,6369.0,7.539389133453369,182,9930.0
370,0.3149489462375641,2.7192580699920654,41,6369.0,25.245624542236328,538,9930.0
380,0.3146827518939972,3.465756416320801,65,6369.0,39.48522186279297,725,9930.0
390,0.31472063064575195,4.072261333465576,71,6369.0,47.585025787353516,727,9930.0
400,0.3156333863735199,6.440339088439941,106,6369.0,45.45729064941406,800,9930.0
410,0.3156166970729828,5.814940929412842,92,6369.0,38.715599060058594,467,9930.0
420,0.3158065974712372,2.605755567550659,17,6369.0,21.143043518066406,186,9930.0
430,0.31609684228897095,-2.9549741744995117,-70,6369.0,-2.9929933547973633,-144,9930.0
440,0.31574028730392456,-7.997496128082275,-169,6369.0,-29.776885986328125,-558,9930.0
450,0.31583815813064575,-10.340757369995117,-118,6369.0,-51.56535720825195,-993,9930.0
460,0.31605011224746704,-4.370328903198242,-55,6369.0,-68.44415283203125,-1291,9930.0
470,0.31628474593162537,5.880095481872559,78,6369.0,-81.32054901123047,-1391,9930.0
480,0.31622615456581116,11.98261833190918,207,6369.0,-83.7371597290039,-1175,9930.0
490,0.3156387209892273,16.27294921875,228,6369.0,-75.95246124267578,-1094,9930.0
500,0.3156763017177582,13.84310245513916,126,6369.0,-62.47442626953125,-749,9930.0
510,0.31652459502220154,8.712420463562012,59,6369.0,-43.72976303100586,-476,9930.0
520,0.31666067242622375,2.7674779891967773,51,6369.0,-21.788471221923828,-303,9930.0
530,0.319251149892807,2.410376787185669,-13,6369.0,-4.4608259201049805,54,9930.0
540,0.31979888677597046,-5.8353190422058105,-98,6369.0,17.99628448486328,339,9930.0
550,0.32054710388183594,-7.972085475921631,-174,6369.0,39.90668869018555,804,9930.0
560,0.32112663984298706,-13.7858304977417,-300,6369.0,60.01742935180664,1225,9930.0
570,0.322427362203598,-12.596298217773438,-240,6369.0,76.96773529052734,1411,9930.0
580,0.32250624895095825,-6.844973564147949,-19,6369.0,84.18151092529297,1215,9930.0
590,0.32293641567230225,3.565537452697754,172,6369.0,84.60118103027344,1046,9930.0
600,0.322704941034317,7.255337715148926,216,6369.0,78.23298645019531,1003,9930.0
610,0.32198312878608704,9.957358360290527,228,6369.0,66.88573455810547,811,9930.0
620,0.3203061521053314,11.428041458129883,267,6369.0,46.19686508178711,441,9930.0
630,0.3201795518398285,8.612069129943848,211,6369.0,17.120058059692383,11,9930.0
640,0.3205919563770294,1.341334342956543,114,6369.0,-13.84118938446045,-426,9930.0
650,0.320691853761673,-5.844286918640137,-19,6369.0,-39.9420166015625,-841,9930.0
660,0.31965985894203186,-7.514373302459717,-20,6369.0,-63.68276596069336,-1194,9930.0
670,0.31978580355644226,-5.222001552581787,-5,6369.0,-80.81697845458984,-1392,9930.0
680,0.32005774974823,-4.111734390258789,-46,6369.0,-84.56249237060547,-1414,9930.0
690,0.320334255695343,-4.581295490264893,-114,6369.0,-78.80970001220703,-1306,9930.0
700,0.32098302245140076,-6.0260186195373535,-120,6369.0,-67.89958190917969,-1204,9930.0
710,0.3224162757396698,-8.162796020507812,-128,6369.0,-52.746986389160156,-764,9930.0
720,0.32270434498786926,-14.089153289794922,-305,6369.0,-28.653013229370117,-232,9930.0
730,0.3233107924461365,-17.929231643676758,-316,6369.0,-1.0333129167556763,124,9930.0
740,0.32411447167396545,-17.289968490600586,-217,6369.0,22.220340728759766,453,9930.0
750,0.3262732923030853,-11.97530460357666,-167,6369.0,34.91564178466797,557,9930.0
760,0.327021986246109,-0.5809168815612793,48,6369.0,36.459590911865234,364,9930.0
770,0.32758232951164246,8.942229270935059,245,6369.0,29.316118240356445,258,9930.0
780,0.32809725403785706,10.465559959411621,219,6369.0,24.194194793701172,288,9930.0
790,0.32672926783561707,8.658137321472168,78,6369.0,24.699949264526367,426,9930.0
800,0.3267795145511627,7.543100833892822,57,6369.0,28.034378051757812,405,9930.0
810,0.3267340362071991,10.843013763427734,174,6369.0,22.754823684692383,278,9930.0
820,0.3267854154109955,10.175104141235352,217,6369.0,17.703201293945312,280,9930.0
830,0.32651081681251526,10.282583236694336,79,6369.0,16.359121322631836,438,9930.0
840,0.32535091042518616,5.83600378036499,-6,6369.0,11.76041316986084,274,9930.0
850,0.3249382972717285,1.5871362686157227,-15,6369.0,5.142033100128174,57,9930.0
860,0.32467448711395264,-3.1251120567321777,0,6369.0,-3.183656930923462,-94,9930.0
870,0.3245692551136017,-6.897564888000488,-87,6369.0,-12.70316219329834,-68,9930.0
880,0.32230037450790405,-3.326056718826294,-131,6369.0,-18.147539138793945,-231,9930.0
890,0.3223447799682617,-1.7766715288162231,-76,6369.0,-25.631141662597656,-450,9930.0
900,0.3224708139896393,0.7510154247283936,15,6369.0,-30.882741928100586,-444,9930.0
910,0.32259878516197205,-3.2375831604003906,-68,6369.0,-31.92479705810547,-276,9930.0
920,0.3228500485420227,-8.307494163513184,-244,6369.0,-26.756927490234375,-294,9930.0
930,0.3227367401123047,-14.446040153503418,-229,6369.0,-18.845155715942383,-202,9930.0
940,0.32349494099617004,-13.020255088806152,-139,6369.0,-11.173676490783691,-117,9930.0
950,0.32400715351104736,-7.1499342918396,-143,6369.0,-1.626806616783142,56,9930.0
960,0.3246411383152008,-5.277116775512695,26,6369.0,11.909585952758789,212,9930.0
970,0.3248315453529358,4.480647087097168,169,6369.0,24.172948837280273,459,9930.0
980,0.3256054222583771,13.169122695922852,183,6369.0,34.66560363769531,608,9930.0
990,0.32636797428131104,15.9124116897583,274,6369.0,35.73554229736328,495,9930.0
1000,0.3271130323410034,9.929747581481934,156,6369.0,26.827350616455078,470,9930.0
1010,0.326246052980423,4.544916152954102,-71,6369.0,11.358929634094238,258,9930.0
1020,0.3265085816383362,-8.348660469055176,-207,6369.0,-0.4856536090373993,26,9930.0
1030,0.32678982615470886,-18.4842472076416,-347,6369.0,-4.510436534881592,2,9930.0
1040,0.3268982768058777,-21.651824951171875,-306,6369.0,-5.074819564819336,80,9930.0
1050,0.32693248987197876,-12.05426025390625,-160,6369.0,-4.409999370574951,66,9930.0
1060,0.3257487714290619,1.1031689643859863,-19,6369.0,-3.9220144748687744,-62,9930.0
1070,0.32570725679397583,13.357172966003418,298,6369.0,1.0329266786575317,3,9930.0
1080,0.32567688822746277,29.76251983642578,580,6369.0,0.2284635454416275,136,9930.0
1090,0.3255907893180847,42.82367706298828,632,6369.0,-3.310544729232788,-55,9930.0
1100,0.32212409377098083,40.6281623840332,652,6369.0,-0.7995589971542358,-73,9930.0
1110,0.3217619061470032,29.991355895996094,415,6369.0,6.844115257263184,99,9930.0
1120,0.32153788208961487,7.8022637367248535,127,6369.0,11.606058120727539,49,9930.0
1130,0.32141396403312683,-16.4610538482666,-404,6369.0,11.03873062133789,96,9930.0
1140,0.32164689898490906,-39.54377365112305,-588,6369.0,10.204839706420898,-53,9930.0
1150,0.319124311208725,-46.315006256103516,-713,6369.0,-1.124271273612976,-76,9930.0
1160,0.31935057044029236,-41.6998405456543,-647,6369.0,-13.717768669128418,-306,9930.0
1170,0.3197750151157379,-23.121196746826172,-256,6369.0,-28.141172409057617,-386,9930.0
1180,0.320147842168808,-0.08130883425474167,-8,6369.0,-34.499855041503906,-435,9930.0
1190,0.32121676206588745,14.272830963134766,327,6369.0,-31.782657623291016,-644,9930.0
1200,0.32197773456573486,23.801706314086914,417,6369.0,-21.37396240234375,-370,9930.0
1210,0.3226257562637329,29.509614944458008,585,6369.0,-9.74092960357666,-138,9930.0
1220,0.32337096333503723,21.703718185424805,310,6369.0,2.013519048690796,76,9930.0
1230,0.3253117501735687,7.349895477294922,78,6369.0,10.098711967468262,246,9930.0
1240,0.3260822296142578,-6.210444927215576,-163,6369.0,15.244675636291504,241,9930.0
1250,0.3266420066356659,-11.064359664916992,-271,6369.0,16.173967361450195,442,9930.0
1260,0.3272585868835449,-14.96986198425293,-284,6369.0,22.9576473236084,439,9930.0
1270,0.3276718854904175,-17.117504119873047,-363,6369.0,30.54730796813965,431,9930.0
1280,0.3292331397533417,-14.977811813354492,-160,6369.0,29.222795486450195,359,9930.0
1290,0.32960641384124756,-11.258047103881836,-130,6369.0,20.104055404663086,367,9930.0
1300,0.3297313451766968,-0.8984389901161194,12,6369.0,10.355432510375977,130,9930.0
1310,0.3296920657157898,10.400501251220703,203,6369.0,-0.6048267483711243,-84,9930.0
1320,0.32729557156562805,26.955705642700195,619,6369.0,-7.672728538513184,-179,9930.0
1330,0.32680416107177734,41.11791229248047,590,6369.0,-16.549497604370117,-202,9930.0
1340,0.3261077105998993,38.02054214477539,612,6369.0,-17.04819679260254,-278,9930.0
1350,0.32546091079711914,26.500652313232422,366,6369.0,-14.081274032592773,-364,9930.0
1360,0.3252209722995758,5.623982906341553,-39,6369.0,-10.615421295166016,-51,9930.0
1370,0.3247372508049011,-14.928256034851074,-292,6369.0,0.09995200484991074,106,9930.0
1380,0.3242133855819702,-25.472412109375,-475,6369.0,3.5680387020111084,2,9930.0
1390,0.32399073243141174,-25.29703712463379,-405,6369.0,2.0605976581573486,-65,9930.0
1400,0.32381924986839294,-15.22134017944336,-139,6369.0,-1.0365848541259766,58,9930.0
1410,0.3230679929256439,-5.422375679016113,-79,6369.0,-1.0295807123184204,-33,9930.0
1420,0.32312387228012085,3.6115307807922363,36,6369.0,-1.3437910079956055,-158,9930.0
1430,0.3233310878276825,7.627115249633789,255,6369.0,-8.194232940673828,-158,9930.0
1440,0.32363107800483704,3.332984685897827,-11,6369.0,-14.842985153198242,-227,9930.0
1450,0.32527247071266174,-6.397397994995117,-236,6369.0,-17.35997200012207,-295,9930.0
1460,0.3259236812591553,-14.51585865020752,-236,6369.0,-14.826034545898438,-270,9930.0
1470,0.3266492784023285,-19.93067741394043,-248,6369.0,-13.774089813232422,-258,9930.0
1480,0.3273591697216034,-16.56193733215332,-313,6369.0,-9.857179641723633,-112,9930.0
1490,0.32831910252571106,-13.14948558807373,-179,6369.0,-2.004880666732788,121,9930.0
1500,0.32914620637893677,-5.327126502990723,-82,6369.0,6.038383483886719,-24,9930.0
1510,0.32987284660339355,-0.885151743888855,-16,6369.0,11.557708740234375,224,9930.0
1520,0.3307133615016937,-3.6937334537506104,36,6369.0,20.61431884765625,421,9930.0
1530,0.33142611384391785,-10.356605529785156,-308,6369.0,26.06140899658203,506,9930.0
1540,0.3328447937965393,-13.935281753540039,-177,6369.0,27.08216667175293,398,9930.0
1550,0.3335191011428833,-3.036747694015503,50,6369.0,26.728790283203125,400,9930.0
1560,0.3340170681476593,13.259364128112793,259,6369.0,22.56484603881836,407,9930.0
1570,0.33419379591941833,28.13599395751953,516,6369.0,16.645675659179688,160,9930.0
1580,0.3334783613681793,39.475242614746094,738,6369.0,10.961289405822754,147,9930.0
1590,0.33317795395851135,41.491573333740234,648,6369.0,-6.464790344238281,-121,9930.0
1600,0.3327474892139435,35.75529861450195,431,6369.0,-20.308042526245117,-453,9930.0
1610,0.33213549852371216,17.424545288085938,270,6369.0,-26.657529830932617,-472,9930.0
1620,0.33163613080978394,-3.4810338020324707,-108,6369.0,-24.654043197631836,-414,9930.0
1630,0.330100417137146,-15.006367683410645,-364,6369.0,-20.619930267333984,-159,9930.0
1640,0.32944825291633606,-18.765403747558594,-356,6369.0,-13.68311595916748,-97,9930.0
1650,0.32874125242233276,-14.389710426330566,-211,6369.0,-14.055419921875,-403,9930.0
1660,0.32814228534698486,-13.07529354095459,-154,6369.0,-8.338099479675293,-86,9930.0
1670,0.3267345428466797,-10.668682098388672,-105,6369.0,1.7433477640151978,132,9930.0
1680,0.32645025849342346,-9.458369255065918,-164,6369.0,10.294082641601562,189,9930.0
1690,0.32636210322380066,-7.343930244445801,-217,6369.0,12.43083667755127,395,9930.0
1700,0.32643380761146545,-7.882973670959473,-107,6369.0,10.3157958984375,101,9930.0
1710,0.32662490010261536,-6.346554756164551,-18,6369.0,5.65004301071167,-54,9930.0
1720,0.3263707756996155,-3.9199867248535156,52,6369.0,1.0750235319137573,-4,9930.0
1730,0.32700666785240173,1.245139479637146,-2,6369.0,-4.614832878112793,-70,9930.0
1740,0.3277952969074249,5.781032085418701,48,6369.0,-11.340174674987793,-190,9930.0
1750,0.3285980522632599,7.491796016693115,162,6369.0,-20.036691665649414,-434,9930.0
1760,0.3280315399169922,10.535198211669922,203,6369.0,-29.500356674194336,-584,9930.0
1770,0.32861852645874023,17.264976501464844,305,6369.0,-32.302467346191406,-397,9930.0
1780,0.3292442262172699,16.63300895690918,250,6369.0,-21.15488624572754,-116,9930.0
1790,0.3302682936191559,13.181591033935547,138,6369.0,1.432644009590149,151,9930.0
1800,0.3316720724105835,9.644798278808594,41,6369.0,31.95939826965332,710,9930.0
1810,0.3320223391056061,7.336536407470703,178,6369.0,59.09722137451172,1042,9930.0
1820,0.3319518566131592,9.377667427062988,199,6369.0,72.59130096435547,1010,9930.0
1830,0.33260124921798706,1.9022247791290283,9,6369.0,67.48894500732422,1102,9930.0
1840,0.33220869302749634,-7.199206829071045,-174,6369.0,54.052162170410156,854,9930.0
1850,0.33178475499153137,-19.452367782592773,-367,6369.0,32.93602752685547,308,9930.0
1860,0.33169785141944885,-20.15057373046875,-227,6369.0,-1.5214905738830566,-152,9930.0
1870,0.3315688669681549,-7.434345245361328,-160,6369.0,-37.161800384521484,-744,9930.0
1880,0.3307459056377411,0.12160470336675644,123,6369.0,-68.09740447998047,-1304,9930.0
1890,0.32897549867630005,7.85751485824585,138,6369.0,-86.12449645996094,-1413,9930.0
1900,0.3279304504394531,13.363150596618652,173,6369.0,-90.41551971435547,-1353,9930.0
1910,0.3274407982826233,11.327958106994629,225,6369.0,-77.90342712402344,-1249,9930.0
1920,0.3265569806098938,5.66619873046875,123,6369.0,-55.92570495605469,-898,9930.0
1930,0.3288249671459198,-3.597709894180298,-126,6369.0,-31.01235580444336,-455,9930.0
1940,0.32851263880729675,-23.99477195739746,-518,6369.0,-7.864543914794922,-23,9930.0
1950,0.3289211094379425,-39.522945404052734,-664,6369.0,17.88713836669922,470,9930.0
1960,0.32939377427101135,-41.479469299316406,-691,6369.0,35.31988525390625,750,9930.0
1970,0.3301226496696472,-33.132667541503906,-520,6369.0,46.42251968383789,798,9930.0
1980,0.33071252703666687,-17.697433471679688,-255,6369.0,53.60089874267578,798,9930.0
1990,0.3320136070251465,-5.84267520904541,-32,6369.0,56.66712188720703,1030,9930.0
2000,0.3328671455383301,-3.8752143383026123,-132,6369.0,54.670799255371094,822,9930.0
2010,0.33397552371025085,-8.484236717224121,-114,6369.0,43.601722717285156,647,9930.0
2020,0.3333924412727356,-5.913064956665039,-70,6369.0,26.674280166625977,369,9930.0
2030,0.3345418870449066,6.114163875579834,202,6369.0,12.39567756652832,85,9930.0
2040,0.33585602045059204,21.734691619873047,408,6369.0,-6.221185207366943,-135,9930.0
2050,0.33710628747940063,32.240882873535156,581,6369.0,-25.09868049621582,-513,9930.0
2060,0.3380545675754547,32.699642181396484,480,6369.0,-42.376041412353516,-843,9930.0
2070,0.3372840881347656,21.299884796142578,343,6369.0,-54.818809509277344,-782,9930.0
2080,0.33773696422576904,5.420412063598633,-18,6369.0,-46.68933868408203,-721,9930.0
2090,0.3383600115776062,-0.985202968120575,-81,6369.0,-31.886384963989258,-377,9930.0
2100,0.338523805141449,0.02586413361132145,49,6369.0,-18.17989158630371,-352,9930.0
2110,0.335550993680954,4.281971454620361,124,6369.0,-5.13517951965332,-198,9930.0
2120,0.33521103858947754,11.847901344299316,237,6369.0,2.5059056282043457,165,9930.0
2130,0.33503034710884094,13.170234680175781,311,6369.0,17.807842254638672,362,9930.0
2140,0.3345056474208832,19.49123764038086,224,6369.0,28.326671600341797,611,9930.0
2150,0.3327149450778961,12.631649017333984,136,6369.0,39.61514663696289,789,9930.0
2160,0.3322373330593109,2.8759920597076416,-4,6369.0,41.55530548095703,648,9930.0
2170,0.3318158984184265,-9.120464324951172,-273,6369.0,34.73236083984375,423,9930.0
2180,0.3315015435218811,-19.37773895263672,-234,6369.0,19.30091667175293,195,9930.0
2190,0.33132147789001465,-23.06388282775879,-449,6369.0,5.843216896057129,34,9930.0
2200,0.3303352892398834,-21.26715850830078,-300,6369.0,-7.294635772705078,-47,9930.0
2210,0.3305186927318573,-9.7437162399292,-157,6369.0,-20.199846267700195,-500,9930.0
2220,0.33078300952911377,0.4174725413322449,135,6369.0,-30.24637794494629,-549,9930.0
2230,0.3311024010181427,5.060701370239258,62,6369.0,-34.53723907470703,-587,9930.0
2240,0.32938700914382935,-1.5410494804382324,-131,6369.0,-28.132902145385742,-261,9930.0
2250,0.3298288881778717,-14.797268867492676,-372,6369.0,-20.379833221435547,-312,9930.0
2260,0.3301631808280945,-30.17466163635254,-630,6369.0,-20.086490631103516,-437,9930.0
2270,0.33043384552001953,-34.9208984375,-413,6369.0,-21.47265625,-384,9930.0
2280,0.3305381238460541,-17.709375381469727,-155,6369.0,-19.70578384399414,-305,9930.0
2290,0.33118385076522827,0.3421461284160614,21,6369.0,-13.893691062927246,-70,9930.0
2300,0.33137622475624084,14.702352523803711,324,6369.0,0.4308556914329529,87,9930.0
2310,0.33143725991249084,25.144874572753906,464,6369.0,18.482044219970703,308,9930.0
2320,0.3313348591327667,26.27275848388672,408,6369.0,26.087291717529297,519,9930.0
2330,0.3321610391139984,21.922060012817383,353,6369.0,29.51152992248535,567,9930.0
2340,0.33161306381225586,21.03483009338379,269,6369.0,33.197227478027344,476,9930.0
2350,0.3310527205467224,19.26922607421875,356,6369.0,34.14942169189453,537,9930.0
2360,0.33035075664520264,21.103307723999023,392,6369.0,31.36565399169922,535,9930.0
2370,0.3297847807407379,22.06991195678711,346,6369.0,21.64234161376953,482,9930.0
2380,0.32892683148384094,17.603477478027344,226,6369.0,8.480376243591309,7,9930.0
2390,0.3285321593284607,10.629404067993164,138,6369.0,-3.8777613639831543,-219,9930.0
2400,0.328155517578125,2.2997243404388428,65,6369.0,-16.4002742767334,-251,9930.0
2410,0.3276374638080597,-8.36838150024414,-215,6369.0,-22.696088790893555,-407,9930.0
2420,0.3268308937549591,-21.933191299438477,-488,6369.0,-28.072603225708008,-404,9930.0
2430,0.3268156945705414,-31.251243591308594,-455,6369.0,-29.761112213134766,-652,9930.0
2440,0.326900452375412,-28.272741317749023,-403,6369.0,-32.73579788208008,-501,9930.0
2450,0.32759663462638855,-19.84596061706543,-243,6369.0,-29.964954376220703,-387,9930.0
2460,0.32905909419059753,-9.400463104248047,-235,6369.0,-27.791425704956055,-356,9930.0
2470,0.32961660623550415,-6.135371208190918,-54,6369.0,-20.89222526550293,-320,9930.0
2480,0.33012235164642334,-8.476646423339844,-71,6369.0,-4.002151012420654,-129,9930.0
2490,0.33076298236846924,-10.245972633361816,-162,6369.0,5.431248664855957,134,9930.0
2500,0.331389844417572,-12.053038597106934,-134,6369.0,5.06928014755249,109,9930.0
2510,0.3319763243198395,-4.731451988220215,-133,6369.0,1.886592149734497,90,9930.0
2520,0.3323686420917511,2.117043972015381,46,6369.0,4.1437201499938965,83,9930.0
2530,0.33256760239601135,6.939950942993164,225,6369.0,12.190826416015625,133,9930.0
2540,0.33258548378944397,11.240588188171387,139,6369.0,19.92877197265625,467,9930.0
2550,0.33228203654289246,11.741310119628906,170,6369.0,26.493013381958008,530,9930.0
2560,0.3320217728614807,9.145930290222168,123,6369.0,29.222299575805664,337,9930.0
2570,0.3315020203590393,5.164275169372559,144,6369.0,26.456363677978516,445,9930.0
2580,0.3308197259902954,6.608704566955566,137,6369.0,21.913909912109375,371,9930.0
2590,0.33092573285102844,7.797815799713135,52,6369.0,18.746732711791992,251,9930.0
2600,0.330344021320343,7.5301289558410645,208,6369.0,11.457418441772461,59,9930.0
2610,0.32981470227241516,4.404141426086426,37,6369.0,2.5830135345458984,43,9930.0
2620,0.32938429713249207,-0.02728431113064289,-2,6369.0,-7.790469646453857,-103,9930.0
2630,0.3290802836418152,-3.7968900203704834,-57,6369.0,-14.778101921081543,-377,9930.0
2640,0.3273121416568756,-2.1534159183502197,17,6369.0,-20.737071990966797,-336,9930.0
2650,0.327149897813797,1.753208875656128,104,6369.0,-22.162412643432617,-337,9930.0
2660,0.32728201150894165,7.341762065887451,9,6369.0,-17.732479095458984,-180,9930.0
2670,0.3276263177394867,5.963779926300049,102,6369.0,-6.435875415802002,-47,9930.0
2680,0.3272969126701355,2.5473716259002686,61,6369.0,6.1498332023620605,-54,9930.0
2690,0.3279145658016205,-3.826240301132202,-60,6369.0,12.682794570922852,247,9930.0
2700,0.32866111397743225,-5.7807793617248535,-10,6369.0,15.163553237915039,287,9930.0
2710,0.3294530212879181,-7.777277946472168,-214,6369.0,15.392358779907227,324,9930.0
2720,0.3302275836467743,-11.831259727478027,-231,6369.0,19.481374740600586,410,9930.0
2730,0.3321021497249603,-15.360835075378418,-228,6369.0,23.31631851196289,187,9930.0
2740,0.3330315947532654,-10.98851203918457,-60,6369.0,15.81791877746582,272,9930.0
2750,0.33375751972198486,-0.30776432156562805,40,6369.0,7.674147129058838,116,9930.0
2760,0.334311306476593,7.270318984985352,126,6369.0,0.8250221014022827,-29,9930.0
2770,0.33440372347831726,23.590421676635742,530,6369.0,-7.018495082855225,-255,9930.0
2780,0.3344210088253021,32.745933532714844,560,6369.0,-8.07295036315918,-52,9930.0
2790,0.33413931727409363,32.5131721496582,595,6369.0,-3.814879894256592,6,9930.0
2800,0.33364132046699524,30.473716735839844,331,6369.0,-2.442819833755493,19,9930.0
2810,0.33269959688186646,17.540191650390625,182,6369.0,1.8746880292892456,79,9930.0
2820,0.3320680558681488,2.3070483207702637,-62,6369.0,-0.2945120930671692,-185,9930.0
2830,0.33116158843040466,-17.229921340942383,-311,6369.0,-1.5316765308380127,-75,9930.0
2840,0.33026090264320374,-25.38441276550293,-414,6369.0,-2.429938793182373,-1,9930.0
2850,0.32927224040031433,-26.871807098388672,-444,6369.0,-0.3667094111442566,40,9930.0
2860,0.32862862944602966,-26.762357711791992,-535,6369.0,-5.016989231109619,-72,9930.0
2870,0.3277733325958252,-25.11698341369629,-344,6369.0,-15.200876235961914,-351,9930.0
2880,0.3270040452480316,-18.251529693603516,-231,6369.0,-25.780153274536133,-530,9930.0
2890,0.3262518048286438,-11.077162742614746,-155,6369.0,-25.95362663269043,-264,9930.0
2900,0.326041042804718,-3.6541965007781982,11,6369.0,-18.01445960998535,-209,9930.0
2910,0.32588666677474976,3.316920280456543,11,6369.0,-5.838942050933838,-133,9930.0
2920,0.3258237838745117,4.436603546142578,183,6369.0,4.759698390960693,90,9930.0
2930,0.3258558511734009,8.409065246582031,191,6369.0,12.044814109802246,230,9930.0
2940,0.3259386420249939,9.769440650939941,75,6369.0,16.740442276000977,450,9930.0
2950,0.3268980383872986,10.995613098144531,143,6369.0,16.609922409057617,198,9930.0
2960,0.3271046280860901,8.798510551452637,129,6369.0,7.738716125488281,-42,9930.0
2970,0.3273851275444031,5.782026767730713,128,6369.0,-4.891798496246338,-24,9930.0
2980,0.32775864005088806,4.769317150115967,75,6369.0,-12.528739929199219,-188,9930.0
2990,0.32959190011024475,8.557259559631348,83,6369.0,-5.06361722946167,19,9930.0
3000,0.32975444197654724,10.486126899719238,251,6369.0,3.168982744216919,-35,9930.0
3010,0.3296661674976349,9.142175674438477,152,6369.0,3.573824405670166,19,9930.0
3020,0.3293788731098175,8.449440956115723,268,6369.0,0.8084108233451843,48,9930.0
3030,0.33049342036247253,4.917027950286865,-17,6369.0,-7.319215297698975,-42,9930.0
3040,0.3300211727619171,-4.611774921417236,-207,6369.0,-10.512090682983398,-130,9930.0
3050,0.32932549715042114,-22.007469177246094,-373,6369.0,-13.493773460388184,-342,9930.0
3060,0.32840755581855774,-25.922405242919922,-418,6369.0,-13.870892524719238,-253,9930.0
3070,0.32732558250427246,-19.39566993713379,-220,6369.0,-6.322911262512207,71,9930.0
3080,0.3280739486217499,-13.583944320678711,-279,6369.0,3.6951422691345215,121,9930.0
3090,0.3272272050380707,-16.25428581237793,-317,6369.0,13.527090072631836,254,9930.0
3100,0.32640522718429565,-13.958395957946777,-93,6369.0,18.52593994140625,280,9930.0
3110,0.3256415128707886,-6.561339855194092,-178,6369.0,15.638668060302734,337,9930.0
3120,0.3265976309776306,-0.023542234674096107,71,6369.0,11.11014175415039,113,9930.0
3130,0.3262913227081299,9.989995956420898,219,6369.0,2.4321887493133545,-118,9930.0
3140,0.32621753215789795,20.818206787109375,366,6369.0,-15.94764232635498,-224,9930.0
3150,0.32630255818367004,27.222291946411133,463,6369.0,-32.22158432006836,-739,9930.0
3160,0.3267025053501129,23.79266357421875,358,6369.0,-36.75261306762695,-557,9930.0
3170,0.3266054391860962,13.715141296386719,203,6369.0,-28.963315963745117,-284,9930.0
3180,0.32738980650901794,6.061197757720947,7,6369.0,-12.479456901550293,-133,9930.0
3190,0.3284144401550293,-0.0451781265437603,-64,6369.0,5.004249095916748,40,9930.0
3200,0.3294273018836975,-3.607736825942993,-24,6369.0,14.192303657531738,270,9930.0
3210,0.3318617343902588,-1.724529504776001,49,6369.0,16.722959518432617,177,9930.0
3220,0.3330192565917969,-1.4672026634216309,-71,6369.0,12.94404125213623,235,9930.0
3230,0.3341645300388336,-0.884544312953949,-45,6369.0,4.109776973724365,149,9930.0
3240,0.33533725142478943,0.8083471059799194,4,6369.0,-0.4658757746219635,-72,9930.0
3250,0.33520829677581787,-0.8402666449546814,-86,6369.0,-1.47263503074646,-22,9930.0
3260,0.33628156781196594,-12.450480461120605,-147,6369.0,6.666959762573242,43,9930.0
3270,0.3372267484664917,-19.15060806274414,-305,6369.0,13.363786697387695,159,9930.0
3280,0.3379802703857422,-17.17151641845703,-222,6369.0,19.41609764099121,426,9930.0
3290,0.33874449133872986,-9.132012367248535,-139,6369.0,24.016220092773438,458,9930.0
3300,0.33767056465148926,-1.9111076593399048,-77,6369.0,29.285566329956055,572,9930.0
3310,0.3376968801021576,8.985517501831055,153,6369.0,31.072769165039062,422,9930.0
3320,0.33753329515457153,19.090288162231445,375,6369.0,29.422346115112305,467,9930.0
3330,0.33723580837249756,19.7921142578125,401,6369.0,26.410314559936523,384,9930.0
3340,0.33421576023101807,16.735759735107422,190,6369.0,21.953590393066406,499,9930.0
3350,0.33363139629364014,5.374486923217773,13,6369.0,18.19976806640625,211,9930.0
3360,0.3331363797187805,-4.470891952514648,-137,6369.0,9.633197784423828,-1,9930.0
3370,0.3327430486679077,-11.761677742004395,-90,6369.0,-7.283130168914795,-311,9930.0
3380,0.33256077766418457,-17.87016487121582,-367,6369.0,-18.3575439453125,-223,9930.0
3390,0.32947781682014465,-20.48160171508789,-352,6369.0,-25.75466537475586,-477,9930.0
3400,0.32964545488357544,-14.748226165771484,-241,6369.0,-30.784257888793945,-506,9930.0
3410,0.32983359694480896,-5.642296314239502,50,6369.0,-30.151277542114258,-608,9930.0
3420,0.33015358448028564,8.290782928466797,174,6369.0,-24.59373664855957,-295,9930.0
3430,0.3271726369857788,17.11960220336914,287,6369.0,-15.071249961853027,-69,9930.0
3440,0.3277794122695923,19.91060447692871,203,6369.0,-15.772126197814941,-247,9930.0
3450,0.3285335898399353,13.16190242767334,225,6369.0,-20.619604110717773,-342,9930.0
3460,0.32955846190452576,4.9341864585876465,87,6369.0,-25.90771484375,-628,9930.0
3470,0.32984718680381775,-0.6466408967971802,18,6369.0,-25.091196060180664,-353,9930.0
3480,0.3306529223918915,-2.6578266620635986,81,6369.0,-12.101421356201172,-191,9930.0
3490,0.3316774368286133,1.8647241592407227,-4,6369.0,7.082962989807129,161,9930.0
3500,0.33231091499328613,2.110140323638916,38,6369.0,17.227893829345703,347,9930.0
3510,0.3327391743659973,-0.9185709357261658,-42,6369.0,21.491567611694336,403,9930.0
3520,0.33393609523773193,-3.202298641204834,-154,6369.0,23.820499420166016,554,9930.0
3530,0.3339127004146576,-6.899928569793701,-67,6369.0,27.279420852661133,413,9930.0
3540,0.3336024880409241,-7.072861671447754,-164,6369.0,29.866451263427734,367,9930.0
3550,0.3332963287830353,-5.615488052368164,56,6369.0,24.713134765625,336,9930.0
3560,0.3314529359340668,-4.5771636962890625,-122,6369.0,14.426551818847656,231,9930.0
3570,0.3313142955303192,-3.691758871078491,-81,6369.0,0.3406745195388794,-70,9930.0
3580,0.33102431893348694,-5.01378059387207,-61,6369.0,-18.857505798339844,-523,9930.0
3590,0.330736368894577,-1.6939184665679932,48,6369.0,-41.287410736083984,-814,9930.0
3600,0.3301941752433777,1.6861079931259155,-8,6369.0,-61.488826751708984,-954,9930.0
3610,0.32802388072013855,2.933229446411133,59,6369.0,-68.33483123779297,-1153,9930.0
3620,0.3276851773262024,2.1722309589385986,-26,6369.0,-62.82600402832031,-1041,9930.0
3630,0.3275388181209564,3.491447687149048,141,6369.0,-47.47636032104492,-665,9930.0
3640,0.327459454536438,3.958235263824463,68,6369.0,-25.202537536621094,-359,9930.0
3650,0.32865649461746216,-2.902282238006592,-76,6369.0,-3.2912685871124268,23,9930.0
3660,0.3292487859725952,-7.157479286193848,-51,6369.0,14.1953763961792,236,9930.0
3670,0.3302336633205414,-8.682165145874023,-134,6369.0,20.632144927978516,238,9930.0
3680,0.3311569094657898,-6.99534797668457,-76,6369.0,19.71333885192871,358,9930.0
3690,0.3346528112888336,-4.360825538635254,-89,6369.0,17.472496032714844,404,9930.0
3700,0.3358088731765747,-3.2366113662719727,-113,6369.0,21.35019874572754,505,9930.0
3710,0.3369620144367218,-6.964989185333252,-112,6369.0,35.40874481201172,702,9930.0
3720,0.3379828929901123,-3.9264774322509766,-137,6369.0,41.58130645751953,683,9930.0
3730,0.3389837443828583,-1.6803911924362183,50,6369.0,46.5760498046875,732,9930.0
3740,0.3381277620792389,3.07604718208313,62,6369.0,44.440311431884766,561,9930.0
3750,0.3385148048400879,9.990025520324707,290,6369.0,35.817264556884766,577,9930.0
3760,0.3385277986526489,14.583237648010254,182,6369.0,28.467388153076172,523,9930.0
3770,0.3385542035102844,13.971908569335938,223,6369.0,22.7097225189209,342,9930.0
3780,0.3343057930469513,8.530787467956543,43,6369.0,18.4959774017334,184,9930.0
3790,0.33374959230422974,1.238842248916626,102,6369.0,12.8265962600708,86,9930.0
3800,0.33313795924186707,-4.201280117034912,-101,6369.0,8.433699607849121,175,9930.0
3810,0.33262956142425537,-10.20949649810791,-148,6369.0,7.192554950714111,135,9930.0
3820,0.3290412425994873,-9.195788383483887,-250,6369.0,6.614271640777588,95,9930.0
3830,0.3286290168762207,-5.662332534790039,-24,6369.0,0.2096143513917923,-178,9930.0
3840,0.3285038471221924,-1.781832218170166,19,6369.0,-8.236089706420898,-113,9930.0
3850,0.32859551906585693,3.6562299728393555,58,6369.0,-14.767939567565918,-256,9930.0
3860,0.32876133918762207,7.498719692230225,83,6369.0,-19.557132720947266,-295,9930.0
3870,0.3276655673980713,5.523499965667725,143,6369.0,-20.741453170776367,-506,9930.0
3880,0.3280615210533142,1.603437900543213,12,6369.0,-18.23542022705078,-207,9930.0
3890,0.3286270201206207,-2.7570130825042725,-28,6369.0,-11.388994216918945,-100,9930.0
3900,0.3293672204017639,-3.536609649658203,-155,6369.0,-7.00543212890625,-10,9930.0
3910,0.32858818769454956,-3.7080416679382324,-42,6369.0,-5.2432332038879395,-79,9930.0
3920,0.32942819595336914,0.08875924348831177,3,6369.0,-12.48325252532959,-401,9930.0
3930,0.3302885591983795,4.486362934112549,150,6369.0,-17.563081741333008,-340,9930.0
3940,0.33136293292045593,7.074158191680908,175,6369.0,-3.728539228439331,91,9930.0
3950,0.3321252167224884,10.765898704528809,191,6369.0,15.059344291687012,402,9930.0
3960,0.3318396508693695,11.776098251342773,188,6369.0,28.10953712463379,463,9930.0
3970,0.33203125,14.545523643493652,186,6369.0,28.20794105529785,550,9930.0
3980,0.33212217688560486,15.033583641052246,216,6369.0,18.162471771240234,137,9930.0
3990,0.33208778500556946,12.124565124511719,209,6369.0,3.690284013748169,-7,9930.0
4000,0.33006468415260315,7.502527236938477,166,6369.0,-10.965591430664062,-301,9930.0
4010,0.3293556571006775,-2.5948381423950195,-114,6369.0,-24.945161819458008,-312,9930.0
4020,0.32819584012031555,-17.859031677246094,-345,6369.0,-27.88445472717285,-416,9930.0
4030,0.32711920142173767,-26.272579193115234,-509,6369.0,-29.423986434936523,-574,9930.0
4040,0.32749444246292114,-30.43843650817871,-401,6369.0,-27.37803840637207,-530,9930.0
4050,0.32630273699760437,-27.02989959716797,-431,6369.0,-26.67381477355957,-390,9930.0
4060,0.32516801357269287,-14.877474784851074,-176,6369.0,-24.525753021240234,-311,9930.0
4070,0.3241911828517914,3.1550912857055664,56,6369.0,-21.976669311523438,-394,9930.0
4080,0.32425859570503235,17.83930778503418,353,6369.0,-16.563583374023438,-224,9930.0
4090,0.32549920678138733,24.229652404785156,458,6369.0,-6.571837902069092,-188,9930.0
4100,0.3256753087043762,22.04502296447754,292,6369.0,-1.084956169128418,48,9930.0
4110,0.3260136842727661,12.45675277709961,123,6369.0,1.2199382781982422,148,9930.0
4120,0.3265107274055481,3.3246636390686035,-62,6369.0,-0.7998948097229004,-51,9930.0
4130,0.32831379771232605,-3.6704020500183105,-117,6369.0,-4.400837421417236,-129,9930.0
4140,0.32922041416168213,-1.6128208637237549,56,6369.0,-8.168424606323242,-210,9930.0
4150,0.3302551209926605,-0.4457295536994934,34,6369.0,-5.822354793548584,-116,9930.0
4160,0.3313639760017395,0.9484551548957825,44,6369.0,-3.269064426422119,30,9930.0
4170,0.33240607380867004,2.982050657272339,24,6369.0,-6.044431686401367,-85,9930.0
4180,0.33314377069473267,2.6343629360198975,-57,6369.0,-7.755530834197998,14,9930.0
4190,0.33398666977882385,-1.2014751434326172,-112,6369.0,0.966583788394928,158,9930.0
4200,0.33493706583976746,-10.390433311462402,-313,6369.0,20.67351531982422,487,9930.0
4210,0.3357154428958893,-22.57164764404297,-416,6369.0,37.644981384277344,561,9930.0
4220,0.3363195061683655,-36.76998519897461,-633,6369.0,40.97426223754883,520,9930.0
4230,0.33692842721939087,-33.752052307128906,-410,6369.0,35.54813003540039,591,9930.0
4240,0.33665931224823,-23.546802520751953,-372,6369.0,26.473407745361328,475,9930.0
4250,0.3366817831993103,-7.100551128387451,14,6369.0,14.562585830688477,98,9930.0
4260,0.33418792486190796,14.988784790039062,366,6369.0,6.273637294769287,85,9930.0
4270,0.3334798812866211,30.523710250854492,603,6369.0,5.051840782165527,141,9930.0
4280,0.33272749185562134,36.61602783203125,596,6369.0,5.346527576446533,120,9930.0
4290,0.33195286989212036,32.00034713745117,419,6369.0,7.151542663574219,55,9930.0
4300,0.33125701546669006,15.659174919128418,158,6369.0,7.346477031707764,76,9930.0
4310,0.32856276631355286,-4.987722396850586,-98,6369.0,4.562374591827393,3,9930.0
4320,0.32786571979522705,-23.065277099609375,-477,6369.0,0.49803948402404785,88,9930.0
4330,0.32735100388526917,-29.430166244506836,-448,6369.0,-0.8230013251304626,31,9930.0
4340,0.327032208442688,-22.704954147338867,-327,6369.0,-6.336590766906738,-354,9930.0
4350,0.3256063163280487,-6.650399684906006,27,6369.0,-13.08150577545166,-186,9930.0
4360,0.32594558596611023,8.317127227783203,130,6369.0,-15.406014442443848,-232,9930.0
4370,0.3264533281326294,20.928783416748047,346,6369.0,-14.5659761428833,-136,9930.0
4380,0.3270628750324249,27.846887588500977,493,6369.0,-7.28519868850708,-194,9930.0
4390,0.32788413763046265,26.23771858215332,428,6369.0,-0.2158132940530777,-81,9930.0
4400,0.3279684782028198,18.7451171875,343,6369.0,6.491912841796875,174,9930.0
4410,0.32890501618385315,13.08461856842041,150,6369.0,0.792720377445221,-14,9930.0
4420,0.32979506254196167,6.385808944702148,19,6369.0,-8.524494171142578,-9,9930.0
4430,0.33054354786872864,0.48507553339004517,-10,6369.0,-3.7878048419952393,26,9930.0
4440,0.33233878016471863,-3.637106418609619,-140,6369.0,14.544072151184082,253,9930.0
4450,0.3330063819885254,-5.956803321838379,-64,6369.0,27.228254318237305,408,9930.0
4460,0.3334062099456787,-8.322903633117676,-112,6369.0,29.308034896850586,358,9930.0
4470,0.3335687518119812,-8.029458999633789,-49,6369.0,20.673250198364258,308,9930.0
4480,0.33310559391975403,-10.787042617797852,-216,6369.0,11.765597343444824,114,9930.0
4490,0.3326348662376404,-9.384058952331543,-174,6369.0,1.4898842573165894,142,9930.0
4500,0.3318271338939667,-3.8774502277374268,-67,6369.0,-9.916322708129883,-386,9930.0
4510,0.33062294125556946,-1.6762834787368774,55,6369.0,-15.848522186279297,-252,9930.0
4520,0.3293602764606476,0.8007339239120483,31,6369.0,-19.644180297851562,-339,9930.0
4530,0.3270307779312134,4.449213981628418,10,6369.0,-22.851871490478516,-272,9930.0
4540,0.32564496994018555,5.563115119934082,107,6369.0,-25.21160316467285,-538,9930.0
4550,0.32440316677093506,3.9080162048339844,75,6369.0,-25.65250587463379,-438,9930.0
4560,0.32323601841926575,-1.0399051904678345,86,6369.0,-27.82509422302246,-519,9930.0
4570,0.3243769705295563,-8.518187522888184,-277,6369.0,-31.77149200439453,-424,9930.0
4580,0.3234969973564148,-16.905902862548828,-337,6369.0,-31.499229431152344,-467,9930.0
4590,0.3232172131538391,-16.728425979614258,-191,6369.0,-24.349157333374023,-515,9930.0
4600,0.3231249153614044,-11.713536262512207,-150,6369.0,-15.080436706542969,-201,9930.0
4610,0.32334211468696594,-2.737471342086792,0,6369.0,-6.91033411026001,92,9930.0
4620,0.32641705870628357,5.243917465209961,125,6369.0,2.4992170333862305,36,9930.0
4630,0.32702791690826416,11.808002471923828,131,6369.0,7.808066368103027,73,9930.0
4640,0.32775843143463135,11.99528694152832,280,6369.0,4.533458709716797,17,9930.0
4650,0.3285711109638214,11.55849838256836,262,6369.0,0.5565752983093262,-105,9930.0
4660,0.3311174809932709,11.015777587890625,168,6369.0,0.021524839103221893,147,9930.0
4670,0.33208680152893066,16.47774314880371,306,6369.0,6.094413757324219,158,9930.0
4680,0.33309003710746765,15.58664321899414,161,6369.0,16.457429885864258,391,9930.0
4690,0.33371224999427795,12.459153175354004,190,6369.0,31.92317008972168,662,9930.0
4700,0.33606451749801636,8.918683052062988,158,6369.0,46.46610641479492,665,9930.0
4710,0.3363465368747711,2.8019003868103027,11,6369.0,51.6146125793457,824,9930.0
4720,0.3367745876312256,-10.882009506225586,-146,6369.0,50.04733657836914,711,9930.0
4730,0.33663395047187805,-24.38872718811035,-423,6369.0,43.97896194458008,721,9930.0
4740,0.33608394861221313,-28.657575607299805,-490,6369.0,36.766845703125,607,9930.0
4750,0.3324885964393616,-24.795482635498047,-449,6369.0,26.132404327392578,387,9930.0
4760,0.3320803940296173,-19.988449096679688,-281,6369.0,11.81981372833252,48,9930.0
4770,0.33090969920158386,-11.398967742919922,-89,6369.0,-3.810053586959839,-122,9930.0
4780,0.32971563935279846,0.32080933451652527,-35,6369.0,-21.627172470092773,-421,9930.0
4790,0.32984548807144165,9.628532409667969,310,6369.0,-36.55322265625,-874,9930.0
4800,0.32859185338020325,21.058116912841797,366,6369.0,-53.4603157043457,-780,9930.0
4810,0.32778289914131165,31.295812606811523,551,6369.0,-57.28609848022461,-941,9930.0
4820,0.32696250081062317,30.981935501098633,401,6369.0,-47.84286880493164,-755,9930.0
4830,0.32630065083503723,13.698871612548828,125,6369.0,-31.540157318115234,-413,9930.0
4840,0.32599344849586487,-8.489089965820312,-161,6369.0,-9.022649765014648,-45,9930.0
4850,0.3262555003166199,-26.355358123779297,-433,6369.0,8.919325828552246,287,9930.0
4860,0.32658639550209045,-30.202739715576172,-514,6369.0,19.451820373535156,445,9930.0
4870,0.3271726369857788,-18.899593353271484,-213,6369.0,27.547273635864258,576,9930.0
4880,0.32753488421440125,3.902968645095825,213,6369.0,32.63536071777344,453,9930.0
4890,0.3280749022960663,20.82961082458496,376,6369.0,35.442413330078125,485,9930.0
4900,0.3285107910633087,28.545486450195312,535,6369.0,30.273303985595703,564,9930.0
4910,0.32902491092681885,31.571327209472656,446,6369.0,18.010385513305664,174,9930.0
4920,0.32842981815338135,30.02414321899414,480,6369.0,11.40038013458252,186,9930.0
4930,0.3293329179286957,26.963903427124023,503,6369.0,4.280241966247559,-120,9930.0
4940,0.32954171299934387,20.471227645874023,231,6369.0,-5.511378765106201,-117,9930.0
4950,0.32972434163093567,10.599152565002441,95,6369.0,-12.041046142578125,-143,9930.0
4960,0.33000069856643677,0.43094581365585327,-145,6369.0,-17.584657669067383,-206,9930.0
4970,0.330466628074646,-7.221950531005859,-205,6369.0,-13.326391220092773,-117,9930.0
4980,0.3300192356109619,-19.86861228942871,-381,6369.0,-7.0331501960754395,-229,9930.0
4990,0.32939615845680237,-40.35454177856445,-757,6369.0,-6.867183208465576,-211,9930.0
5000,0.3282638192176819,-56.126708984375,-855,6369.0,-14.495823860168457,-277,9930.0
5010,0.3315659463405609,-53.28844451904297,-878,6369.0,-22.74797248840332,-341,9930.0
5020,0.33004850149154663,-36.300350189208984,-447,6369.0,-26.633127212524414,-407,9930.0
5030,0.328544020652771,-9.494989395141602,-35,6369.0,-24.970016479492188,-546,9930.0
5040,0.32710009813308716,14.156768798828125,365,6369.0,-19.313880920410156,-196,9930.0
5050,0.32630857825279236,28.676193237304688,487,6369.0,-12.365389823913574,-101,9930.0
5060,0.3262326419353485,31.213010787963867,393,6369.0,-5.019773006439209,-69,9930.0
5070,0.3249231278896332,19.362167358398438,270,6369.0,0.21267108619213104,-21,9930.0
5080,0.32364216446876526,0.6704856157302856,62,6369.0,4.816279411315918,150,9930.0
5090,0.3226051330566406,-16.40870475769043,-363,6369.0,7.338940620422363,128,9930.0
5100,0.3242729604244232,-25.90631675720215,-489,6369.0,8.387105941772461,111,9930.0
5110,0.32388320565223694,-22.36288070678711,-226,6369.0,3.417680263519287,-57,9930.0
5120,0.3237428069114685,-11.128131866455078,-67,6369.0,-4.2628560066223145,-85,9930.0
5130,0.32389944791793823,7.136043548583984,94,6369.0,-9.505182266235352,-181,9930.0
5140,0.3272005319595337,18.894813537597656,414,6369.0,-14.01330852508545,-313,9930.0
5150,0.3277260959148407,22.328083038330078,351,6369.0,-10.87633228302002,-157,9930.0
5160,0.32833999395370483,16.636001586914062,199,6369.0,-6.590506553649902,69,9930.0
5170,0.3290483355522156,14.624125480651855,264,6369.0,5.445690155029297,195,9930.0
5180,0.32984089851379395,20.095733642578125,370,6369.0,19.580827713012695,177,9930.0
5190,0.33251941204071045,30.410905838012695,562,6369.0,26.850248336791992,435,9930.0
5200,0.33341312408447266,39.0093994140625,736,6369.0,26.01896095275879,461,9930.0
5210,0.3335883617401123,40.71540832519531,611,6369.0,24.102256774902344,399,9930.0
5220,0.33368444442749023,29.396686553955078,321,6369.0,17.051395416259766,360,9930.0
5230,0.33367839455604553,16.04837417602539,211,6369.0,6.833683490753174,145,9930.0
5240,0.3337801694869995,-1.8316349983215332,-229,6369.0,2.175907850265503,2,9930.0
5250,0.333963543176651,-26.622146606445312,-547,6369.0,3.7875702381134033,73,9930.0
5260,0.33363279700279236,-46.03191375732422,-736,6369.0,0.9339686632156372,-117,9930.0
5270,0.333383172750473,-52.6093635559082,-891,6369.0,-7.014077186584473,-281,9930.0
5280,0.33437874913215637,-47.3899040222168,-603,6369.0,-15.585772514343262,-335,9930.0
5290,0.3338996171951294,-34.93742752075195,-507,6369.0,-24.416757583618164,-489,9930.0
5300,0.33320412039756775,-18.35715675354004,-206,6369.0,-33.65888214111328,-422,9930.0
5310,0.3325466811656952,-1.4636352062225342,18,6369.0,-29.902746200561523,-424,9930.0
5320,0.33212774991989136,14.423419952392578,191,6369.0,-20.40477180480957,-149,9930.0
5330,0.3315550982952118,20.398174285888672,295,6369.0,-10.117774963378906,-73,9930.0
5340,0.33097201585769653,11.837284088134766,53,6369.0,0.6813773512840271,39,9930.0
5350,0.33046218752861023,-1.9920750856399536,-105,6369.0,13.05491828918457,278,9930.0
5360,0.33041930198669434,-14.965729713439941,-259,6369.0,25.124631881713867,304,9930.0
5370,0.33016180992126465,-23.607807159423828,-381,6369.0,30.664716720581055,522,9930.0
5380,0.3300064504146576,-19.71566390991211,-128,6369.0,30.004032135009766,456,9930.0
5390,0.3301546275615692,-6.424633026123047,-126,6369.0,17.69300651550293,274,9930.0
5400,0.33047184348106384,3.055050849914551,74,6369.0,2.509136915206909,27,9930.0
5410,0.33068394660949707,1.5704588890075684,23,6369.0,-0.3313075602054596,-145,9930.0
5420,0.33107101917266846,-2.2842957973480225,15,6369.0,7.507059574127197,200,9930.0
5430,0.33137768507003784,-1.1105047464370728,-22,6369.0,13.117391586303711,270,9930.0
5440,0.3315516412258148,-1.6285245418548584,-112,6369.0,13.22629165649414,226,9930.0
5450,0.32942813634872437,-1.3027591705322266,109,6369.0,4.804679870605469,-135,9930.0
5460,0.329382985830307,6.3472185134887695,194,6369.0,-6.472501277923584,-121,9930.0
5470,0.32914140820503235,18.29943084716797,373,6369.0,-14.75316047668457,-173,9930.0
5480,0.32872435450553894,27.8851318359375,384,6369.0,-24.47265625,-476,9930.0
5490,0.3281678259372711,26.56557273864746,451,6369.0,-21.30628776550293,-357,9930.0
5500,0.328066885471344,20.708147048950195,353,6369.0,-15.722043991088867,-264,9930.0
5510,0.327152281999588,9.217774391174316,27,6369.0,-6.179935455322266,-29,9930.0
5520,0.3264404833316803,-6.427649974822998,-197,6369.0,8.121447563171387,398,9930.0
5530,0.3254626989364624,-18.6988582611084,-365,6369.0,16.298336029052734,241,9930.0
5540,0.32677382230758667,-22.816804885864258,-399,6369.0,20.50431251525879,286,9930.0
5550,0.326144814491272,-18.8465518951416,-189,6369.0,16.53469467163086,157,9930.0
5560,0.3254108428955078,-11.689205169677734,-132,6369.0,3.205626964569092,48,9930.0
5570,0.32492130994796753,-2.0889596939086914,-30,6369.0,-6.9081220626831055,-223,9930.0
5580,0.32681804895401,6.268604278564453,222,6369.0,-14.511481285095215,-292,9930.0
5590,0.32689473032951355,8.0819730758667,68,6369.0,-20.633928298950195,-281,9930.0
5600,0.3273187577724457,11.00425910949707,205,6369.0,-24.78423309326172,-396,9930.0
5610,0.32791757583618164,13.22359848022461,121,6369.0,-29.147722244262695,-525,9930.0
5620,0.3286140561103821,11.137492179870605,215,6369.0,-34.336666107177734,-666,9930.0
5630,0.33019644021987915,6.319087028503418,142,6369.0,-40.63550567626953,-713,9930.0
5640,0.3309157192707062,0.6546424031257629,-73,6369.0,-44.08772659301758,-721,9930.0
5650,0.33170825242996216,-7.545894145965576,-168,6369.0,-42.52927780151367,-547,9930.0
5660,0.33228373527526855,-16.593551635742188,-320,6369.0,-34.33897018432617,-462,9930.0
5670,0.3354424238204956,-19.499773025512695,-366,6369.0,-21.669170379638672,-201,9930.0
5680,0.33621251583099365,-21.922718048095703,-447,6369.0,-3.3519296646118164,111,9930.0
5690,0.336506187915802,-25.130592346191406,-384,6369.0,20.17367935180664,446,9930.0
5700,0.3366456627845764,-19.638757705688477,-284,6369.0,43.59195327758789,708,9930.0
5710,0.336631715297699,-7.924789905548096,-38,6369.0,57.506893157958984,1000,9930.0
5720,0.3388333022594452,5.433926105499268,254,6369.0,64.99360656738281,1020,9930.0
5730,0.3387981951236725,17.99410057067871,238,6369.0,64.50083923339844,1181,9930.0
5740,0.3388088643550873,24.316015243530273,406,6369.0,57.64674377441406,823,9930.0
5750,0.33788830041885376,25.399538040161133,389,6369.0,42.123756408691406,586,9930.0
5760,0.3357028067111969,22.984716415405273,385,6369.0,24.535953521728516,437,9930.0
5770,0.33490729331970215,14.855847358703613,46,6369.0,6.1251726150512695,24,9930.0
5780,0.3343520760536194,-1.7377490997314453,-44,6369.0,-17.26173210144043,-505,9930.0
5790,0.33377131819725037,-17.303544998168945,-310,6369.0,-41.66585159301758,-748,9930.0
5800,0.33075150847435,-24.465579986572266,-425,6369.0,-57.840087890625,-918,9930.0
5810,0.3303050398826599,-22.03182029724121,-390,6369.0,-56.756561279296875,-937,9930.0
5820,0.3301766514778137,-11.233993530273438,-27,6369.0,-41.27662658691406,-671,9930.0
5830,0.33054885268211365,5.117770195007324,153,6369.0,-16.580211639404297,-120,9930.0
5840,0.3317005932331085,14.756754875183105,277,6369.0,9.460835456848145,360,9930.0
5850,0.3313648998737335,15.67267894744873,218,6369.0,29.389860153198242,580,9930.0
5860,0.3322431743144989,12.237651824951172,101,6369.0,35.9725341796875,635,9930.0
5870,0.33328574895858765,9.298965454101562,151,6369.0,32.08511734008789,439,9930.0
5880,0.3344629108905792,7.992008686065674,117,6369.0,23.91768455505371,310,9930.0
5890,0.33383095264434814,0.9938820600509644,53,6369.0,15.636399269104004,121,9930.0
5900,0.33463022112846375,-6.871413230895996,-171,6369.0,2.230229139328003,73,9930.0
5910,0.33539503812789917,-10.306949615478516,-208,6369.0,-0.9784550666809082,94,9930.0
5920,0.3362368047237396,-8.68780517578125,-165,6369.0,-1.192850947380066,-88,9930.0
5930,0.33677083253860474,-3.9159324169158936,-5,6369.0,-0.7593499422073364,-54,9930.0
5940,0.33637088537216187,-1.4250928163528442,61,6369.0,-2.2986485958099365,-89,9930.0
5950,0.3363844156265259,3.234872579574585,24,6369.0,-1.7225799560546875,96,9930.0
5960,0.3363402783870697,4.613810062408447,42,6369.0,1.5017439126968384,109,9930.0
5970,0.33611828088760376,3.669398546218872,11,6369.0,6.670997619628906,101,9930.0
5980,0.33484578132629395,-0.44253748655319214,65,6369.0,10.475973129272461,41,9930.0
5990,0.33427879214286804,-1.2971245050430298,-9,6369.0,9.285192489624023,195,9930.0
6000,0.3337002396583557,-1.9931591749191284,29,6369.0,10.697388648986816,192,9930.0
6010,0.33312562108039856,-3.003135919570923,-157,6369.0,4.5483503341674805,113,9930.0
6020,0.33094537258148193,-8.423842430114746,-136,6369.0,-1.4552916288375854,-54,9930.0
6030,0.330368310213089,-8.213906288146973,-85,6369.0,-4.784343242645264,-200,9930.0
6040,0.32979512214660645,-1.7538470029830933,75,6369.0,-8.454811096191406,-162,9930.0
6050,0.3294444680213928,6.098252773284912,88,6369.0,-13.247970581054688,-153,9930.0
6060,0.3292737305164337,10.743537902832031,178,6369.0,-10.800546646118164,-107,9930.0
6070,0.3288046419620514,7.2058916091918945,51,6369.0,-3.662200450897217,-90,9930.0
6080,0.3291773498058319,1.3053500652313232,17,6369.0,-0.7540858387947083,-27,9930.0
6090,0.32958903908729553,-5.58914041519165,-25,6369.0,1.5494264364242554,-87,9930.0
6100,0.33016085624694824,-8.071798324584961,-108,6369.0,-6.090433597564697,-68,9930.0
6110,0.3300032317638397,-6.562821388244629,-60,6369.0,-18.719266891479492,-430,9930.0
6120,0.33077287673950195,1.6961934566497803,-20,6369.0,-27.666601181030273,-287,9930.0
6130,0.3314884305000305,5.837822437286377,130,6369.0,-16.396167755126953,-252,9930.0
6140,0.3325115442276001,8.663705825805664,159,6369.0,-1.3441706895828247,13,9930.0
6150,0.3330579996109009,12.75904369354248,334,6369.0,2.2239933013916016,-221,9930.0
6160,0.33435380458831787,6.850374221801758,62,6369.0,-6.324311256408691,-111,9930.0
6170,0.3348208963871002,-3.3090262413024902,-51,6369.0,-6.445748329162598,-38,9930.0
6180,0.3349904716014862,-8.613958358764648,-304,6369.0,2.0431008338928223,236,9930.0
6190,0.33493250608444214,-14.667945861816406,-252,6369.0,16.4377384185791,359,9930.0
6200,0.33434176445007324,-13.418000221252441,-201,6369.0,31.487682342529297,382,9930.0
6210,0.33395102620124817,-7.8922014236450195,12,6369.0,31.748565673828125,490,9930.0
6220,0.33359697461128235,-0.8785107731819153,-14,6369.0,22.083036422729492,350,9930.0
6230,0.33346450328826904,7.818220138549805,151,6369.0,4.058022975921631,3,9930.0
6240,0.3306751251220703,11.799684524536133,180,6369.0,-17.239492416381836,-478,9930.0
6250,0.3304955065250397,11.230481147766113,213,6369.0,-42.979217529296875,-930,9930.0
6260,0.3303801715373993,9.615259170532227,191,6369.0,-65.52755737304688,-1046,9930.0
6270,0.33048170804977417,7.24541711807251,56,6369.0,-70.52188873291016,-1054,9930.0
6280,0.33037108182907104,3.838021755218506,4,6369.0,-62.014217376708984,-845,9930.0
6290,0.3309139013290405,1.2553061246871948,-17,6369.0,-41.7989616394043,-496,9930.0
6300,0.33173033595085144,-7.032281875610352,-202,6369.0,-12.450536727905273,-79,9930.0
6310,0.3330446481704712,-10.795454978942871,-151,6369.0,12.582679748535156,338,9930.0
6320,0.3339948058128357,-13.233454704284668,-157,6369.0,37.27712631225586,635,9930.0
6330,0.33542096614837646,-11.995105743408203,-245,6369.0,51.873966217041016,769,9930.0
6340,0.33670857548713684,-9.543835639953613,-48,6369.0,49.00985336303711,738,9930.0
6350,0.3379349112510681,-6.49587869644165,-85,6369.0,37.73506164550781,464,9930.0
6360,0.3392343521118164,-4.990277290344238,-26,6369.0,27.087228775024414,517,9930.0
6370,0.3405419886112213,-4.219078063964844,-76,6369.0,29.96092414855957,585,9930.0
6380,0.33897796273231506,-2.8582730293273926,-39,6369.0,31.143932342529297,504,9930.0
6390,0.3398728370666504,-0.11726420372724533,-85,6369.0,26.66684913635254,416,9930.0
6400,0.340285062789917,5.1370768547058105,213,6369.0,22.103883743286133,228,9930.0
6410,0.34115836024284363,21.311708450317383,487,6369.0,17.14435386657715,222,9930.0
6420,0.33687296509742737,32.13428497314453,505,6369.0,10.390594482421875,196,9930.0
6430,0.3365992605686188,31.78993034362793,527,6369.0,12.916749000549316,394,9930.0
6440,0.3360939919948578,22.225921630859375,205,6369.0,13.219390869140625,222,9930.0
6450,0.3354315757751465,3.551180839538574,-27,6369.0,11.104079246520996,136,9930.0
6460,0.3324730396270752,-18.415573120117188,-360,6369.0,9.615303993225098,-41,9930.0
6470,0.33198678493499756,-28.79936981201172,-409,6369.0,3.442035436630249,-59,9930.0
6480,0.3315495252609253,-28.851903915405273,-477,6369.0,-0.6549612879753113,60,9930.0
6490,0.33122876286506653,-19.784835815429688,-247,6369.0,-9.098953247070312,-172,9930.0
6500,0.33128899335861206,-7.623880863189697,-202,6369.0,-18.81244659423828,-371,9930.0
6510,0.32937878370285034,3.2768514156341553,133,6369.0,-27.00827407836914,-573,9930.0
6520,0.32974833250045776,11.87292194366455,263,6369.0,-24.677398681640625,-335,9930.0
6530,0.3303252160549164,20.422704696655273,387,6369.0,-18.171340942382812,-299,9930.0
6540,0.33092471957206726,20.413496017456055,250,6369.0,-10.78846549987793,42,9930.0
6550,0.33016571402549744,15.952617645263672,215,6369.0,0.6574320793151855,93,9930.0
6560,0.330828994512558,6.686746120452881,-4,6369.0,12.487752914428711,243,9930.0
6570,0.33137816190719604,-2.7736752033233643,-39,6369.0,13.719093322753906,225,9930.0
6580,0.3319322168827057,-5.837523460388184,-107,6369.0,7.631574630737305,-102,9930.0
6590,0.33260002732276917,-14.584540367126465,-306,6369.0,-0.1183302104473114,-18,9930.0
6600,0.33123916387557983,-26.55640411376953,-522,6369.0,-3.547499656677246,-82,9930.0
6610,0.33137246966362,-37.246795654296875,-539,6369.0,-3.5812764167785645,12,9930.0
6620,0.3311430513858795,-35.410423278808594,-625,6369.0,-7.938863277435303,-101,9930.0
6630,0.33088797330856323,-18.762292861938477,-199,6369.0,-17.835750579833984,-319,9930.0
6640,0.3312097191810608,5.677910804748535,208,6369.0,-25.029922485351562,-486,9930.0
6650,0.3304556608200073,27.37339973449707,571,6369.0,-33.2032356262207,-507,9930.0
6660,0.3294861614704132,44.162723541259766,637,6369.0,-36.28776931762695,-558,9930.0
6670,0.3283323347568512,40.737083435058594,663,6369.0,-34.97382354736328,-540,9930.0
6680,0.3305074870586395,23.03715705871582,360,6369.0,-19.240928649902344,-429,9930.0
6690,0.3295994997024536,4.649168491363525,-28,6369.0,-7.425108909606934,-127,9930.0
6700,0.3285609781742096,-13.340871810913086,-260,6369.0,4.4946770668029785,234,9930.0
6710,0.32775241136550903,-23.37363052368164,-393,6369.0,15.257588386535645,372,9930.0
6720,0.32777971029281616,-26.37384796142578,-446,6369.0,19.70420265197754,368,9930.0
6730,0.328499436378479,-24.2733154296875,-306,6369.0,22.610219955444336,367,9930.0
6740,0.32787877321243286,-12.440752029418945,-87,6369.0,14.999899864196777,113,9930.0
6750,0.32750189304351807,1.9634631872177124,119,6369.0,3.634432792663574,115,9930.0
6760,0.3277646601200104,16.905475616455078,304,6369.0,-10.720612525939941,-315,9930.0
6770,0.3283679485321045,23.900049209594727,403,6369.0,-18.742141723632812,-327,9930.0
6780,0.3287193179130554,26.32867431640625,508,6369.0,-19.568660736083984,-258,9930.0
6790,0.32917913794517517,23.138370513916016,224,6369.0,-18.553842544555664,-196,9930.0
6800,0.32969164848327637,11.567431449890137,84,6369.0,-8.44014835357666,39,9930.0
6810,0.33183565735816956,-3.0604026317596436,-130,6369.0,0.7151381969451904,-88,9930.0
6820,0.331880658864975,-13.833364486694336,-287,6369.0,8.096837043762207,71,9930.0
6830,0.3326910138130188,-18.558792114257812,-247,6369.0,9.525191307067871,101,9930.0
6840,0.333224892616272,-22.251676559448242,-421,6369.0,10.97688102722168,116,9930.0
6850,0.33381009101867676,-26.416927337646484,-416,6369.0,13.150622367858887,364,9930.0
6860,0.3356495201587677,-28.59153175354004,-532,6369.0,10.833353042602539,217,9930.0
6870,0.3359706699848175,-26.189144134521484,-371,6369.0,6.903061389923096,93,9930.0
6880,0.3359041213989258,-18.58636474609375,-267,6369.0,8.143783569335938,5,9930.0
6890,0.3357025682926178,-1.870214819908142,93,6369.0,6.82795524597168,-16,9930.0
6900,0.33621349930763245,20.513391494750977,483,6369.0,9.157774925231934,240,9930.0
6910,0.3358745276927948,42.049156188964844,715,6369.0,8.860782623291016,160,9930.0
6920,0.3354837894439697,52.8839111328125,818,6369.0,6.766016483306885,123,9930.0
6930,0.33462759852409363,50.121280670166016,813,6369.0,10.277048110961914,170,9930.0
6940,0.3339512348175049,34.478233337402344,514,6369.0,20.901273727416992,265,9930.0
6950,0.3342638909816742,7.280824661254883,14,6369.0,30.583946228027344,596,9930.0
6960,0.33349737524986267,-16.263534545898438,-292,6369.0,35.42680358886719,665,9930.0
6970,0.332692414522171,-31.911508560180664,-696,6369.0,33.033321380615234,579,9930.0
6980,0.33227089047431946,-37.06095504760742,-583,6369.0,22.657804489135742,373,9930.0
6990,0.33123522996902466,-30.014101028442383,-398,6369.0,10.241153717041016,-55,9930.0
7000,0.330659419298172,-14.793105125427246,-164,6369.0,-6.903007984161377,-14,9930.0
7010,0.33039453625679016,1.8883042335510254,58,6369.0,-17.5797176361084,-399,9930.0
7020,0.3302173614501953,9.01406478881836,157,6369.0,-20.795988082885742,-347,9930.0
7030,0.3290199041366577,8.773656845092773,213,6369.0,-16.857091903686523,-250,9930.0
7040,0.3289808928966522,7.3414483070373535,26,6369.0,-6.642059803009033,27,9930.0
7050,0.32904043793678284,1.092781901359558,-34,6369.0,3.054368734359741,154,9930.0
7060,0.32916978001594543,-2.4179859161376953,-56,6369.0,4.374364376068115,-161,9930.0
7070,0.32940608263015747,-3.108034133911133,-9,6369.0,-5.942651271820068,-125,9930.0
7080,0.3309746980667114,-4.203431129455566,-52,6369.0,-18.79543685913086,-333,9930.0
7090,0.331302285194397,-11.148970603942871,-323,6369.0,-19.57829475402832,-120,9930.0
7100,0.3315076529979706,-20.606243133544922,-353,6369.0,-13.600296020507812,-230,9930.0
7110,0.33148905634880066,-20.504600524902344,-317,6369.0,-0.43073850870132446,-110,9930.0
7120,0.33351796865463257,-6.389520645141602,76,6369.0,3.905731439590454,94,9930.0
7130,0.3335625231266022,16.46168327331543,308,6369.0,7.868279933929443,253,9930.0
7140,0.3334848880767822,32.342010498046875,570,6369.0,13.51760196685791,210,9930.0
7150,0.33307138085365295,42.585933685302734,785,6369.0,12.105582237243652,50,9930.0
7160,0.33237895369529724,41.6094970703125,619,6369.0,4.400073051452637,164,9930.0
7170,0.33410322666168213,29.879932403564453,403,6369.0,-4.0414814949035645,-43,9930.0
7180,0.33329424262046814,7.076249122619629,-20,6369.0,-8.50533390045166,-314,9930.0
7190,0.3321319818496704,-16.606975555419922,-305,6369.0,-16.536481857299805,-294,9930.0
7200,0.33110320568084717,-34.30292892456055,-544,6369.0,-23.411466598510742,-389,9930.0
7210,0.3310341536998749,-39.6914176940918,-725,6369.0,-26.465084075927734,-339,9930.0
7220,0.33003655076026917,-31.445335388183594,-440,6369.0,-24.75388526916504,-478,9930.0
7230,0.3291107416152954,-14.195174217224121,-81,6369.0,-24.897615432739258,-485,9930.0
7240,0.3287535011768341,6.085393905639648,173,6369.0,-28.03459358215332,-353,9930.0
7250,0.32863572239875793,20.27968978881836,341,6369.0,-28.168498992919922,-469,9930.0
7260,0.32844579219818115,22.07356071472168,289,6369.0,-24.701555252075195,-503,9930.0
7270,0.3285314738750458,15.410783767700195,261,6369.0,-20.30050277709961,-287,9930.0
7280,0.328838050365448,4.299271106719971,89,6369.0,-7.972546100616455,-167,9930.0
7290,0.3299987018108368,-8.508042335510254,-185,6369.0,3.5766282081604004,36,9930.0
7300,0.3328278660774231,-13.183514595031738,-303,6369.0,9.460312843322754,354,9930.0
7310,0.333857923746109,-21.703296661376953,-403,6369.0,12.901262283325195,173,9930.0
7320,0.3349014222621918,-25.97968101501465,-514,6369.0,9.759147644042969,122,9930.0
7330,0.33615976572036743,-28.915393829345703,-416,6369.0,8.929642677307129,86,9930.0
7340,0.3378717601299286,-16.90625762939453,-179,6369.0,11.724217414855957,222,9930.0
7350,0.33914050459861755,-1.015769362449646,74,6369.0,19.483707427978516,447,9930.0
7360,0.3401782214641571,13.198116302490234,217,6369.0,29.113544464111328,600,9930.0
7370,0.34109604358673096,31.73097038269043,629,6369.0,35.700904846191406,553,9930.0
7380,0.34181922674179077,45.0789794921875,732,6369.0,36.75675582885742,517,9930.0
7390,0.34180548787117004,45.59294891357422,765,6369.0,31.03573226928711,430,9930.0
7400,0.34174951910972595,29.763309478759766,329,6369.0,26.89712142944336,453,9930.0
7410,0.3416713774204254,11.5877046585083,71,6369.0,18.313682556152344,309,9930.0
7420,0.34223508834838867,-9.891700744628906,-325,6369.0,9.633321762084961,127,9930.0
7430,0.33989471197128296,-25.48767852783203,-445,6369.0,-2.456162214279175,-215,9930.0
7440,0.3395286798477173,-30.097166061401367,-479,6369.0,-14.973648071289062,-380,9930.0
7450,0.3391678035259247,-22.550432205200195,-214,6369.0,-24.889699935913086,-481,9930.0
7460,0.3391096293926239,-8.755622863769531,-74,6369.0,-24.090335845947266,-235,9930.0
7470,0.33678513765335083,4.119997501373291,114,6369.0,-17.576982498168945,-286,9930.0
7480,0.33670806884765625,14.656109809875488,201,6369.0,-11.857007026672363,46,9930.0
7490,0.3367224931716919,17.93018341064453,287,6369.0,0.47035226225852966,66,9930.0
7500,0.337069571018219,15.057195663452148,106,6369.0,12.496209144592285,206,9930.0
7510,0.3374963402748108,5.741053104400635,-15,6369.0,20.021095275878906,350,9930.0
7520,0.33601224422454834,-8.434021949768066,-196,6369.0,25.441864013671875,354,9930.0
7530,0.33654534816741943,-17.356311798095703,-245,6369.0,23.881866455078125,238,9930.0
7540,0.3373158872127533,-12.079660415649414,-129,6369.0,11.869832992553711,152,9930.0
7550,0.3383182883262634,-3.8610923290252686,30,6369.0,-4.923371315002441,-176,9930.0
7560,0.3384828269481659,-0.2883520722389221,-61,6369.0,-19.902481079101562,-268,9930.0
7570,0.3395550549030304,-7.9681549072265625,-206,6369.0,-24.84935188293457,-381,9930.0
7580,0.34067821502685547,-17.92411231994629,-380,6369.0,-24.14527702331543,-258,9930.0
7590,0.34185418486595154,-22.302478790283203,-430,6369.0,-22.53734016418457,-308,9930.0
7600,0.3428996205329895,-18.432788848876953,-217,6369.0,-9.502755165100098,-131,9930.0
7610,0.34281185269355774,-3.0108485221862793,31,6369.0,6.739867687225342,111,9930.0
7620,0.3438836336135864,20.298200607299805,509,6369.0,17.897043228149414,209,9930.0
7630,0.3449214994907379,38.17005920410156,682,6369.0,26.30380630493164,481,9930.0
7640,0.3456239402294159,44.330875396728516,758,6369.0,30.44611358642578,375,9930.0
7650,0.34715625643730164,28.570825576782227,311,6369.0,25.94623565673828,478,9930.0
7660,0.3485415279865265,-0.09383152425289154,-129,6369.0,16.920583724975586,256,9930.0
7670,0.34909194707870483,-22.16091537475586,-349,6369.0,2.220484495162964,14,9930.0
7680,0.3500491678714752,-24.896461486816406,-510,6369.0,-18.23858070373535,-210,9930.0
7690,0.35205939412117004,-25.758235931396484,-374,6369.0,-32.01761245727539,-582,9930.0
7700,0.35270655155181885,-15.93588924407959,-195,6369.0,-45.65525817871094,-814,9930.0
7710,0.35321244597435,-3.2269134521484375,-74,6369.0,-56.11321258544922,-1033,9930.0
7720,0.35366708040237427,13.40804386138916,340,6369.0,-67.39884185791016,-1229,9930.0
7730,0.35372188687324524,20.66977882385254,339,6369.0,-61.96269989013672,-1030,9930.0
7740,0.3564451038837433,16.792776107788086,309,6369.0,-49.1748161315918,-821,9930.0
7750,0.35674065351486206,10.331823348999023,78,6369.0,-27.95301628112793,-338,9930.0
7760,0.3573601245880127,-1.0705572366714478,-41,6369.0,-7.038516998291016,46,9930.0
7770,0.35779887437820435,-8.461348533630371,-250,6369.0,12.131364822387695,365,9930.0
7780,0.3607816994190216,-7.833495140075684,-18,6369.0,25.440614700317383,515,9930.0
7790,0.3610113561153412,4.526135444641113,-22,6369.0,29.83667755126953,574,9930.0
7800,0.36108580231666565,-13.209768295288086,-322,6369.0,31.08292007446289,613,9930.0
7810,0.3611648678779602,-34.21631622314453,-647,6369.0,33.37431716918945,678,9930.0
7820,0.3606216609477997,-25.086088180541992,-284,6369.0,35.044273376464844,632,9930.0
7830,0.358670175075531,-13.66700267791748,-259,6369.0,27.786502838134766,466,9930.0
7840,0.35757824778556824,-4.135274410247803,-81,6369.0,17.18912696838379,114,9930.0
7850,0.35651588439941406,6.961638927459717,255,6369.0,10.994160652160645,156,9930.0
7860,0.35529810190200806,23.200889587402344,399,6369.0,10.551218032836914,220,9930.0
7870,0.35114502906799316,28.955785751342773,521,6369.0,14.211033821105957,382,9930.0
7880,0.34967395663261414,25.889049530029297,326,6369.0,18.320293426513672,224,9930.0
7890,0.34831202030181885,13.240581512451172,135,6369.0,25.475994110107422,465,9930.0
7900,0.34700679779052734,-3.858949661254883,-34,6369.0,28.6098690032959,403,9930.0
7910,0.34359583258628845,-12.627284049987793,-225,6369.0,26.898906707763672,557,9930.0
7920,0.34209200739860535,-13.578540802001953,-210,6369.0,24.61780548095703,397,9930.0
7930,0.3417441248893738,-5.268797397613525,-45,6369.0,15.379594802856445,176,9930.0
7940,0.34119361639022827,6.935729026794434,249,6369.0,4.046657085418701,-7,9930.0
7950,0.34046077728271484,15.323293685913086,188,6369.0,-9.80713176727295,-106,9930.0
7960,0.3378045856952667,13.441995620727539,199,6369.0,-23.945032119750977,-581,9930.0
7970,0.33733654022216797,8.270359992980957,154,6369.0,-35.1761589050293,-605,9930.0
7980,0.33695879578590393,6.119992733001709,116,6369.0,-37.93491744995117,-549,9930.0
7990,0.3365592658519745,1.4146137237548828,-94,6369.0,-32.57008743286133,-441,9930.0
8000,0.3359210193157196,-8.46378231048584,-153,6369.0,-23.661542892456055,-387,9930.0
8010,0.3358549177646637,-13.784733772277832,-133,6369.0,-18.853130340576172,-409,9930.0
8020,0.335889995098114,-9.30469799041748,-159,6369.0,-23.996814727783203,-346,9930.0
8030,0.33618053793907166,-5.0631513595581055,-68,6369.0,-30.21603775024414,-496,9930.0
8040,0.3365198075771332,0.5292736291885376,-41,6369.0,-39.87320327758789,-713,9930.0
8050,0.3397630751132965,10.251675605773926,264,6369.0,-45.53940200805664,-673,9930.0
8060,0.3404158353805542,18.20176124572754,391,6369.0,-32.292449951171875,-616,9930.0
8070,0.3415284752845764,21.918556213378906,337,6369.0,-12.557116508483887,-90,9930.0
8080,0.3424212634563446,12.564764976501465,237,6369.0,3.183088541030884,130,9930.0
8090,0.3463226854801178,2.877408266067505,33,6369.0,18.406803131103516,239,9930.0
8100,0.3470946252346039,-10.57859992980957,-326,6369.0,26.484777450561523,403,9930.0
8110,0.34759649634361267,-25.248559951782227,-496,6369.0,27.577144622802734,555,9930.0
8120,0.34793323278427124,-36.59699249267578,-632,6369.0,27.517431259155273,431,9930.0
8130,0.3492564857006073,-34.71457290649414,-598,6369.0,27.109928131103516,615,9930.0
8140,0.3493391275405884,-22.034038543701172,-338,6369.0,25.2530460357666,433,9930.0
8150,0.3494364023208618,-4.393686294555664,48,6369.0,23.478530883789062,364,9930.0
8160,0.34923815727233887,12.495265007019043,332,6369.0,18.21312141418457,281,9930.0
8170,0.34892505407333374,24.30531883239746,527,6369.0,12.903837203979492,-14,9930.0
8180,0.3479117751121521,30.187501907348633,480,6369.0,8.773580551147461,131,9930.0
8190,0.34730660915374756,19.56049156188965,259,6369.0,1.7083241939544678,40,9930.0
8200,0.34660086035728455,2.6393396854400635,-82,6369.0,-8.511863708496094,-87,9930.0
8210,0.3458990752696991,-10.474555015563965,-261,6369.0,-20.664588928222656,-339,9930.0
8220,0.3439444899559021,-22.080970764160156,-419,6369.0,-22.83922576904297,-352,9930.0
8230,0.3432307839393616,-28.965478897094727,-384,6369.0,-13.273943901062012,-331,9930.0
8240,0.34262287616729736,-19.90721893310547,-230,6369.0,-6.8033952713012695,-76,9930.0
8250,0.3418843150138855,-10.103094100952148,13,6369.0,1.1171581745147705,9,9930.0
8260,0.3410169780254364,-0.3957301676273346,-38,6369.0,0.9635481238365173,42,9930.0
8270,0.3397595286369324,7.594829559326172,170,6369.0,-2.8631579875946045,26,9930.0
8280,0.3391074240207672,16.773483276367188,245,6369.0,-7.613216876983643,-122,9930.0
8290,0.33860358595848083,26.183992385864258,528,6369.0,-6.869007110595703,-62,9930.0
8300,0.33812060952186584,36.028499603271484,632,6369.0,2.7827343940734863,-60,9930.0
8310,0.33679965138435364,31.68126106262207,486,6369.0,22.099416732788086,422,9930.0
8320,0.3358728289604187,16.37152862548828,215,6369.0,39.06623840332031,682,9930.0
8330,0.3351307213306427,-0.7394048571586609,46,6369.0,45.9344596862793,777,9930.0
8340,0.3340330421924591,-9.973413467407227,-262,6369.0,54.5545654296875,890,9930.0
8350,0.3295973837375641,-18.442840576171875,-382,6369.0,62.2072639465332,1216,9930.0
8360,0.3278694748878479,-24.210315704345703,-402,6369.0,60.979087829589844,886,9930.0
8370,0.32676267623901367,-25.761377334594727,-384,6369.0,50.08612823486328,698,9930.0
8380,0.32478591799736023,-20.623958587646484,-298,6369.0,29.19701385498047,463,9930.0
8390,0.3229560852050781,-11.071319580078125,-122,6369.0,7.133538246154785,-80,9930.0
8400,0.31656336784362793,4.122068405151367,139,6369.0,-15.309361457824707,-213,9930.0
8410,0.31385067105293274,15.263805389404297,269,6369.0,-28.237085342407227,-614,9930.0
8420,0.31109124422073364,20.172765731811523,339,6369.0,-35.99289321899414,-617,9930.0
8430,0.30813542008399963,18.72423553466797,261,6369.0,-35.41804122924805,-452,9930.0
8440,0.3035149574279785,11.189538955688477,213,6369.0,-24.755674362182617,-419,9930.0
8450,0.3010392487049103,2.5802459716796875,-8,6369.0,-7.700623512268066,26,9930.0
8460,0.2983454465866089,-10.789103507995605,-323,6369.0,13.771031379699707,318,9930.0
8470,0.29627111554145813,-24.053773880004883,-473,6369.0,32.655853271484375,486,9930.0
8480,0.29403162002563477,-30.264345169067383,-455,6369.0,37.834625244140625,710,9930.0
8490,0.28894954919815063,-26.373023986816406,-411,6369.0,33.310020446777344,488,9930.0
8500,0.2869943678379059,-15.545135498046875,-175,6369.0,19.847801208496094,331,9930.0
8510,0.28554394841194153,-0.07589072734117508,17,6369.0,3.86641263961792,-114,9930.0
8520,0.28407397866249084,11.117670059204102,181,6369.0,-16.779260635375977,-220,9930.0
8530,0.28024664521217346,18.135181427001953,421,6369.0,-30.484394073486328,-514,9930.0
8540,0.27952656149864197,20.064495086669922,242,6369.0,-28.363616943359375,-420,9930.0
8550,0.2789876461029053,12.53017520904541,185,6369.0,-15.187450408935547,-288,9930.0
8560,0.2787703275680542,11.427508354187012,169,6369.0,2.755765914916992,139,9930.0
8570,0.276863157749176,12.422102928161621,189,6369.0,18.18172264099121,249,9930.0
8580,0.2765488922595978,10.445762634277344,184,6369.0,23.2938175201416,498,9930.0
8590,0.27610713243484497,3.23771595954895,-68,6369.0,30.12445068359375,620,9930.0
8600,0.2756527364253998,-13.363283157348633,-184,6369.0,37.9164924621582,689,9930.0
8610,0.27536025643348694,-24.266822814941406,-461,6369.0,40.403907775878906,579,9930.0
8620,0.2744227945804596,-22.18451499938965,-316,6369.0,33.335540771484375,518,9930.0
8630,0.2735801339149475,-11.273324966430664,-162,6369.0,24.665077209472656,274,9930.0
8640,0.27286475896835327,-2.5028300285339355,26,6369.0,7.668853759765625,163,9930.0
8650,0.2719413936138153,5.3406476974487305,174,6369.0,-16.020526885986328,-497,9930.0
8660,0.2716844379901886,12.070588111877441,138,6369.0,-37.39324951171875,-709,9930.0
8670,0.2705375850200653,21.010833740234375,423,6369.0,-48.783016204833984,-739,9930.0
8680,0.26960253715515137,22.187759399414062,361,6369.0,-50.59381103515625,-751,9930.0
8690,0.2685754597187042,18.686681747436523,354,6369.0,-43.64881896972656,-657,9930.0
8700,0.2673015594482422,13.135513305664062,153,6369.0,-32.45519256591797,-347,9930.0
8710,0.26864176988601685,5.581892013549805,-26,6369.0,-17.293636322021484,-324,9930.0
8720,0.2679305076599121,-3.9275519847869873,-63,6369.0,-2.7074427604675293,2,9930.0
8730,0.2675727605819702,-8.04494857788086,-180,6369.0,10.938312530517578,296,9930.0
8740,0.266925185918808,-9.658370971679688,-138,6369.0,25.425222396850586,344,9930.0
8750,0.26679474115371704,-11.028337478637695,-174,6369.0,33.359344482421875,563,9930.0
8760,0.26621487736701965,-12.551895141601562,-260,6369.0,33.04524230957031,499,9930.0
8770,0.2657822370529175,-11.975584983825684,-119,6369.0,25.995193481445312,389,9930.0
8780,0.2652756869792938,-11.152812957763672,-155,6369.0,9.113537788391113,17,9930.0
8790,0.2662777900695801,-8.199102401733398,-42,6369.0,-8.033390998840332,-270,9930.0
8800,0.26598191261291504,-1.960615873336792,-84,6369.0,-23.75261878967285,-378,9930.0
8810,0.26593440771102905,5.963229179382324,160,6369.0,-28.401344299316406,-444,9930.0
8820,0.2656407356262207,12.153953552246094,249,6369.0,-23.398509979248047,-236,9930.0
8830,0.2659267783164978,13.343592643737793,135,6369.0,-15.36552906036377,-150,9930.0
8840,0.266385555267334,10.30645751953125,91,6369.0,4.434972286224365,109,9930.0
8850,0.26666152477264404,4.93067741394043,136,6369.0,20.441194534301758,329,9930.0
8860,0.26656264066696167,2.442070484161377,5,6369.0,30.129247665405273,637,9930.0
8870,0.2667211890220642,-5.71427583694458,-85,6369.0,30.463388442993164,461,9930.0
8880,0.2668052911758423,-14.660545349121094,-171,6369.0,22.62686538696289,340,9930.0
8890,0.26682472229003906,-16.41100311279297,-326,6369.0,11.53205394744873,212,9930.0
8900,0.2661861479282379,-15.920475959777832,-204,6369.0,3.90570068359375,-85,9930.0
8910,0.26570048928260803,-6.75552225112915,-150,6369.0,-0.24229714274406433,102,9930.0
8920,0.2655276954174042,4.007563591003418,100,6369.0,3.9817111492156982,40,9930.0
8930,0.26556631922721863,12.971689224243164,244,6369.0,7.4364142417907715,202,9930.0
8940,0.26463598012924194,17.641782760620117,280,6369.0,9.219171524047852,153,9930.0
8950,0.2637685239315033,14.54827880859375,300,6369.0,6.414880275726318,83,9930.0
8960,0.2627009153366089,4.603343963623047,-2,6369.0,4.497610092163086,143,9930.0
8970,0.26324692368507385,-6.021024703979492,-103,6369.0,5.0535688400268555,15,9930.0
8980,0.26220962405204773,-16.640592575073242,-330,6369.0,6.195671558380127,170,9930.0
8990,0.26104170083999634,-22.309404373168945,-361,6369.0,8.294736862182617,78,9930.0
9000,0.259824275970459,-19.96459197998047,-270,6369.0,10.377381324768066,191,9930.0
9010,0.25801241397857666,-11.879660606384277,-140,6369.0,8.990232467651367,-46,9930.0
9020,0.25702640414237976,2.3487658500671387,37,6369.0,2.7641963958740234,67,9930.0
9030,0.25584712624549866,9.117149353027344,237,6369.0,-1.399233102798462,-127,9930.0
9040,0.25468069314956665,13.84830093383789,159,6369.0,-7.450263500213623,-141,9930.0
9050,0.25381678342819214,13.618704795837402,275,6369.0,0.2161567211151123,63,9930.0
9060,0.2535187900066376,12.29699420928955,126,6369.0,15.442892074584961,252,9930.0
9070,0.25231826305389404,9.45548152923584,199,6369.0,24.63007164001465,498,9930.0
9080,0.2515464127063751,6.7477240562438965,87,6369.0,27.857736587524414,365,9930.0
9090,0.2513250708580017,5.739534378051758,97,6369.0,25.973617553710938,471,9930.0
9100,0.25053277611732483,5.016563415527344,121,6369.0,14.977789878845215,138,9930.0
9110,0.24952393770217896,9.118130683898926,144,6369.0,1.3257462978363037,59,9930.0
9120,0.2488625943660736,10.329345703125,230,6369.0,-4.825265884399414,-89,9930.0
9130,0.24769780039787292,0.985346794128418,-119,6369.0,-1.9528172016143799,-12,9930.0
9140,0.24640943109989166,-15.195737838745117,-229,6369.0,10.90855598449707,271,9930.0
9150,0.24577802419662476,-17.70578384399414,-352,6369.0,26.579471588134766,428,9930.0
9160,0.2449643760919571,-15.100075721740723,-146,6369.0,39.04560089111328,725,9930.0
9170,0.24376243352890015,-6.7005791664123535,-101,6369.0,38.183650970458984,506,9930.0
9180,0.2426144778728485,-0.8285549879074097,-47,6369.0,23.185150146484375,312,9930.0
9190,0.24180635809898376,5.160533905029297,191,6369.0,4.458823204040527,55,9930.0
9200,0.24090644717216492,6.977214813232422,87,6369.0,-9.611748695373535,-263,9930.0
9210,0.23958617448806763,3.9819889068603516,-2,6369.0,-17.82053565979004,-269,9930.0
9220,0.23849761486053467,0.8937892317771912,99,6369.0,-18.189002990722656,-308,9930.0
9230,0.23645013570785522,-0.4282324016094208,-68,6369.0,-12.421123504638672,-150,9930.0
9240,0.235760897397995,-0.5418486595153809,79,6369.0,-3.191612958908081,1,9930.0
9250,0.23511891067028046,0.24674832820892334,-78,6369.0,8.2731351852417,145,9930.0
9260,0.2346639633178711,-1.1906757354736328,4,6369.0,14.137483596801758,314,9930.0
9270,0.23440182209014893,-0.41923239827156067,-54,6369.0,16.43133544921875,219,9930.0
9280,0.23395423591136932,-3.846740484237671,-90,6369.0,14.186594009399414,270,9930.0
9290,0.2341407686471939,-4.915456771850586,-31,6369.0,7.592988967895508,148,9930.0
9300,0.2349027544260025,-8.35338306427002,-197,6369.0,-0.778002917766571,-152,9930.0
9310,0.23528794944286346,-10.887492179870605,-258,6369.0,-10.508440971374512,-123,9930.0
9320,0.23612277209758759,-14.468135833740234,-159,6369.0,-18.0382022857666,-297,9930.0
9330,0.2368379682302475,-11.556854248046875,-209,6369.0,-25.484970092773438,-531,9930.0
9340,0.2376737892627716,-4.932907581329346,-32,6369.0,-31.010236740112305,-399,9930.0
9350,0.23867161571979523,4.047255516052246,193,6369.0,-23.27050018310547,-361,9930.0
9360,0.2399664670228958,11.082324981689453,111,6369.0,-14.985872268676758,-202,9930.0
9370,0.24125799536705017,12.182426452636719,246,6369.0,-2.242601156234741,69,9930.0
9380,0.24260008335113525,9.672539710998535,86,6369.0,5.453740119934082,111,9930.0
9390,0.2440209984779358,3.1004438400268555,49,6369.0,16.1677188873291,371,9930.0
9400,0.24518141150474548,-1.6918437480926514,-81,6369.0,19.183156967163086,297,9930.0
9410,0.24627874791622162,-4.812717914581299,-105,6369.0,20.205102920532227,411,9930.0
9420,0.24744082987308502,-11.31193733215332,-251,6369.0,22.031923294067383,295,9930.0
9430,0.24851931631565094,-12.457364082336426,-198,6369.0,16.216955184936523,243,9930.0
9440,0.24938611686229706,-8.124245643615723,-119,6369.0,0.4587459862232208,-140,9930.0
9450,0.24916709959506989,-6.9362711906433105,-124,6369.0,-16.90219497680664,-315,9930.0
9460,0.24964316189289093,-3.2143290042877197,42,6369.0,-31.038557052612305,-588,9930.0
9470,0.24983815848827362,1.5408761501312256,75,6369.0,-38.179691314697266,-586,9930.0
9480,0.2501513659954071,8.680087089538574,151,6369.0,-34.87006759643555,-682,9930.0
9490,0.2501460313796997,10.741304397583008,219,6369.0,-26.943084716796875,-377,9930.0
9500,0.2505767047405243,10.674629211425781,142,6369.0,-16.41469955444336,-203,9930.0
9510,0.25046783685684204,11.343934059143066,245,6369.0,-3.1673169136047363,-26,9930.0
9520,0.2504037618637085,12.799928665161133,121,6369.0,6.8261494636535645,249,9930.0
9530,0.250404953956604,8.261918067932129,129,6369.0,15.384313583374023,199,9930.0
9540,0.25012338161468506,3.545717477798462,-24,6369.0,14.671185493469238,333,9930.0
9550,0.2497900426387787,0.4030206501483917,27,6369.0,11.0701265335083,123,9930.0
9560,0.24938979744911194,-0.8790953159332275,-15,6369.0,2.7961440086364746,93,9930.0
9570,0.24898236989974976,0.1438271850347519,85,6369.0,-5.960890293121338,-159,9930.0
9580,0.25018638372421265,1.0754848718643188,-20,6369.0,-11.793593406677246,-188,9930.0
9590,0.24984945356845856,-1.097446322441101,62,6369.0,-13.660332679748535,-255,9930.0
9600,0.2499108463525772,0.9828349351882935,-43,6369.0,-12.688004493713379,-193,9930.0
9610,0.2493627667427063,2.6491992473602295,122,6369.0,-5.277505874633789,-52,9930.0
9620,0.24952758848667145,14.282005310058594,219,6369.0,4.561188697814941,95,9930.0
9630,0.2512555420398712,23.591005325317383,462,6369.0,12.725144386291504,308,9930.0
9640,0.25118550658226013,23.3233642578125,272,6369.0,29.91930389404297,581,9930.0
9650,0.2512965202331543,14.580984115600586,222,6369.0,44.32004165649414,842,9930.0
9660,0.2514364421367645,2.6867969036102295,-61,6369.0,53.84490966796875,802,9930.0
9670,0.2540045380592346,-5.878146648406982,-29,6369.0,50.83558654785156,907,9930.0
9680,0.2541218400001526,-5.142845153808594,-119,6369.0,37.01560592651367,405,9930.0
9690,0.25427135825157166,-5.626728534698486,-166,6369.0,15.231118202209473,162,9930.0
9700,0.25432834029197693,-7.136659145355225,-49,6369.0,-7.147754192352295,-244,9930.0
9710,0.25820615887641907,-9.655077934265137,-200,6369.0,-29.023656845092773,-694,9930.0
9720,0.25838810205459595,-12.873174667358398,-145,6369.0,-41.71108627319336,-672,9930.0
9730,0.25834721326828003,-14.526771545410156,-228,6369.0,-44.36528015136719,-768,9930.0
9740,0.25892403721809387,-16.060375213623047,-272,6369.0,-37.253971099853516,-490,9930.0
9750,0.25924569368362427,-18.050304412841797,-329,6369.0,-23.222915649414062,-356,9930.0
9760,0.26184025406837463,-17.330028533935547,-266,6369.0,-8.64175796508789,43,9930.0
9770,0.2622893154621124,-15.858323097229004,-251,6369.0,3.9658777713775635,-18,9930.0
9780,0.26306164264678955,-11.392891883850098,-121,6369.0,10.022913932800293,237,9930.0
9790,0.2636129856109619,-7.776642799377441,-170,6369.0,12.984014511108398,158,9930.0
9800,0.2629534900188446,-6.355185031890869,-70,6369.0,13.54870319366455,388,9930.0
9810,0.26326966285705566,-5.8829345703125,-96,6369.0,15.68350887298584,118,9930.0
9820,0.2635902166366577,-4.440107345581055,-33,6369.0,11.967652320861816,255,9930.0
9830,0.2640787959098816,-1.9127260446548462,-50,6369.0,11.012517929077148,89,9930.0
9840,0.26490679383277893,-5.987371921539307,-118,6369.0,16.469743728637695,325,9930.0
9850,0.26209333539009094,-16.559812545776367,-311,6369.0,16.636878967285156,209,9930.0
9860,0.2624305188655853,-24.06334114074707,-401,6369.0,11.776986122131348,206,9930.0
9870,0.2627098262310028,-22.766029357910156,-299,6369.0,9.864346504211426,87,9930.0
9880,0.2627856731414795,-14.519067764282227,-253,6369.0,11.67933177947998,238,9930.0
9890,0.2573719918727875,-2.9602293968200684,26,6369.0,15.662776947021484,212,9930.0
9900,0.257284551858902,6.713899612426758,90,6369.0,13.883724212646484,159,9930.0
9910,0.25697243213653564,9.33492660522461,231,6369.0,13.518041610717773,234,9930.0
9920,0.2566524147987366,5.422504425048828,75,6369.0,7.911709308624268,51,9930.0
9930,0.2536328136920929,0.5090882182121277,-13,6369.0,4.762612819671631,148,9930.0
9940,0.2529582679271698,0.20967300236225128,59,6369.0,7.344181537628174,188,9930.0
9950,0.25212401151657104,0.7952399849891663,-29,6369.0,12.726747512817383,187,9930.0
9960,0.2516387104988098,3.7269556522369385,76,6369.0,21.237632751464844,462,9930.0
9970,0.2508363723754883,12.96291446685791,298,6369.0,23.500226974487305,314,9930.0
9980,0.2541295289993286,22.116943359375,301,6369.0,19.315919876098633,268,9930.0
9990,0.2536761462688446,24.34210968017578,438,6369.0,13.497001647949219,281,9930.0
10000,0.25333061814308167,22.4989070892334,364,6369.0,5.215173244476318,18,9930.0
10010,0.25295013189315796,16.374141693115234,132,6369.0,-4.2583537101745605,-213,9930.0
10020,0.2526222765445709,6.186841011047363,61,6369.0,-13.832586288452148,-122,9930.0
10030,0.25250357389450073,-1.1936646699905396,-51,6369.0,-20.209577560424805,-426,9930.0
10040,0.2525518834590912,-2.1483867168426514,-122,6369.0,-21.825735092163086,-296,9930.0
10050,0.2523171305656433,-2.659269094467163,19,6369.0,-17.070858001708984,-278,9930.0
10060,0.25209105014801025,-2.662801742553711,-94,6369.0,-12.429670333862305,-215,9930.0
10070,0.25287580490112305,-3.40505313873291,-11,6369.0,-3.6090445518493652,82,9930.0
10080,0.25287628173828125,-2.658996820449829,-6,6369.0,5.249332904815674,77,9930.0
10090,0.25318923592567444,-5.574258804321289,-178,6369.0,8.739853858947754,152,9930.0
10100,0.25327685475349426,-6.008618354797363,-37,6369.0,13.404338836669922,359,9930.0
10110,0.2554084062576294,-4.681901931762695,-87,6369.0,16.489727020263672,133,9930.0
10120,0.2560805380344391,-0.2433212250471115,63,6369.0,16.521282196044922,366,9930.0
10130,0.2567252516746521,10.383573532104492,207,6369.0,8.29110336303711,-19,9930.0
10140,0.2573072910308838,20.410890579223633,369,6369.0,-6.676823139190674,-117,9930.0
10150,0.2577040493488312,30.66785430908203,611,6369.0,-17.374656677246094,-308,9930.0
10160,0.25850844383239746,31.872129440307617,428,6369.0,-15.183236122131348,-179,9930.0
10170,0.25926852226257324,25.70632553100586,466,6369.0,-9.583545684814453,-158,9930.0
10180,0.2599499225616455,15.90977954864502,143,6369.0,-7.298757553100586,5,9930.0
10190,0.26091668009757996,5.924395561218262,130,6369.0,-0.7242347598075867,-30,9930.0
10200,0.26334360241889954,-1.2659648656845093,-71,6369.0,2.1792430877685547,131,9930.0
10210,0.2640310823917389,-6.571235179901123,-153,6369.0,3.8387248516082764,-30,9930.0
10220,0.26487550139427185,-11.311092376708984,-205,6369.0,0.4896605908870697,100,9930.0
10230,0.2654585540294647,-14.624287605285645,-315,6369.0,-3.1319661140441895,-72,9930.0
10240,0.26787570118904114,-16.840892791748047,-256,6369.0,-3.3827779293060303,-124,9930.0
10250,0.2684575021266937,-20.543292999267578,-392,6369.0,-3.6772243976593018,-13,9930.0
10260,0.2689627408981323,-23.02416229248047,-329,6369.0,-2.3436219692230225,-116,9930.0
10270,0.2693503499031067,-21.07288360595703,-338,6369.0,-1.3701417446136475,83,9930.0
10280,0.2699179947376251,-22.032014846801758,-378,6369.0,-5.943098068237305,-222,9930.0
10290,0.27311089634895325,-19.00490951538086,-276,6369.0,-12.620278358459473,-108,9930.0
10300,0.27365487813949585,-13.709197998046875,-203,6369.0,-16.69192123413086,-402,9930.0
10310,0.2743472754955292,-7.253944396972656,-23,6369.0,-18.40424156188965,-253,9930.0
10320,0.275096595287323,-2.9560728073120117,-106,6369.0,-13.161111831665039,-144,9930.0
10330,0.27786293625831604,-6.145336151123047,-92,6369.0,-4.3846211433410645,-134,9930.0
10340,0.27898430824279785,-11.692183494567871,-179,6369.0,1.135651707649231,95,9930.0
10350,0.2801114618778229,-16.570695877075195,-308,6369.0,8.868829727172852,186,9930.0
10360,0.2812249958515167,-20.832515716552734,-292,6369.0,12.919936180114746,143,9930.0
10370,0.2824685573577881,-24.439653396606445,-448,6369.0,9.557147979736328,208,9930.0
10380,0.2841181457042694,-25.557043075561523,-346,6369.0,6.57330322265625,37,9930.0
10390,0.2851993441581726,-9.205809593200684,-88,6369.0,10.631965637207031,296,9930.0
10400,0.28619158267974854,13.330005645751953,326,6369.0,19.167407989501953,301,9930.0
10410,0.2873588502407074,26.238100051879883,426,6369.0,19.196487426757812,358,9930.0
10420,0.2896638512611389,29.628768920898438,542,6369.0,14.110390663146973,188,9930.0
10430,0.2909996807575226,28.12285041809082,363,6369.0,7.645105838775635,135,9930.0
10440,0.29179808497428894,19.696863174438477,305,6369.0,-3.2763800621032715,-131,9930.0
10450,0.29255208373069763,10.745077133178711,148,6369.0,-11.221006393432617,-133,9930.0
10460,0.2914092540740967,2.7907567024230957,-21,6369.0,-16.090866088867188,-365,9930.0
10470,0.29166799783706665,-2.525043487548828,-33,6369.0,-20.134910583496094,-308,9930.0
10480,0.29183229804039,-7.076085090637207,-160,6369.0,-18.0902156829834,-281,9930.0
10490,0.2918633222579956,-12.119300842285156,-130,6369.0,-10.811227798461914,-168,9930.0
10500,0.2919169068336487,-14.669060707092285,-306,6369.0,-6.128162860870361,-54,9930.0
10510,0.2910296618938446,-15.6554594039917,-171,6369.0,-10.086888313293457,-282,9930.0
10520,0.29080089926719666,-13.12957763671875,-255,6369.0,-18.515464782714844,-284,9930.0
10530,0.29070764780044556,-11.065146446228027,-123,6369.0,-22.7584285736084,-457,9930.0
10540,0.290442556142807,-5.798698902130127,-62,6369.0,-25.248695373535156,-382,9930.0
10550,0.28794920444488525,2.4621777534484863,48,6369.0,-23.243314743041992,-401,9930.0
10560,0.2878578305244446,12.382993698120117,246,6369.0,-18.343082427978516,-177,9930.0
10570,0.2876182794570923,15.9821138381958,227,6369.0,-6.61147403717041,-132,9930.0
10580,0.2875578999519348,15.929862022399902,283,6369.0,7.9941887855529785,286,9930.0
10590,0.2864931523799896,15.859186172485352,239,6369.0,26.002927780151367,444,9930.0
10600,0.28648751974105835,16.3686466217041,308,6369.0,42.22637176513672,790,9930.0
10610,0.2862103283405304,12.543201446533203,164,6369.0,49.08747100830078,760,9930.0
10620,0.286427766084671,11.708353996276855,231,6369.0,45.74577331542969,716,9930.0
10630,0.2863091826438904,7.296494483947754,35,6369.0,28.06155014038086,271,9930.0
10640,0.28581976890563965,-0.318744957447052,-53,6369.0,3.3255810737609863,-8,9930.0
10650,0.28564682602882385,-5.256885051727295,-45,6369.0,-24.112930297851562,-536,9930.0
10660,0.28582319617271423,-6.713418960571289,-171,6369.0,-43.00873565673828,-660,9930.0
10670,0.2856810390949249,-5.43351936340332,-1,6369.0,-47.82341003417969,-730,9930.0
10680,0.28579869866371155,-2.060302257537842,-73,6369.0,-42.71419906616211,-657,9930.0
10690,0.2858273386955261,-1.445378065109253,51,6369.0,-28.15060806274414,-286,9930.0
10700,0.2857932150363922,1.829661250114441,-9,6369.0,-9.52956771850586,-107,9930.0
10710,0.28563088178634644,6.340376853942871,165,6369.0,9.80981731414795,294,9930.0
10720,0.2854675352573395,11.984703063964844,244,6369.0,20.51629638671875,275,9930.0
10730,0.2843875288963318,20.296451568603516,398,6369.0,22.354145050048828,400,9930.0
10740,0.28430184721946716,22.215917587280273,269,6369.0,17.832290649414062,196,9930.0
10750,0.2842574715614319,15.1251220703125,329,6369.0,9.098099708557129,159,9930.0
10760,0.2843802869319916,6.519744396209717,21,6369.0,-1.592437505722046,-117,9930.0
10770,0.2827519178390503,-1.524170994758606,18,6369.0,-16.555320739746094,-334,9930.0
10780,0.282855749130249,-6.895105838775635,-156,6369.0,-30.67234230041504,-538,9930.0
10790,0.28287941217422485,-6.317977428436279,-22,6369.0,-42.10642623901367,-699,9930.0
10800,0.2830778956413269,-2.6888036727905273,-108,6369.0,-45.059913635253906,-676,9930.0
10810,0.28316518664360046,0.4939156770706177,104,6369.0,-28.127098083496094,-342,9930.0
10820,0.2835897207260132,-2.615020513534546,-90,6369.0,1.212308645248413,200,9930.0
10830,0.28409644961357117,-2.8060221672058105,3,6369.0,24.681978225708008,377,9930.0
10840,0.2845979332923889,-3.054502487182617,-67,6369.0,39.38283157348633,798,9930.0
10850,0.2856372892856598,-4.132336616516113,-28,6369.0,45.47686004638672,665,9930.0
10860,0.2855670154094696,-1.5241984128952026,-13,6369.0,40.88178253173828,697,9930.0
10870,0.2866348624229431,-0.8206343650817871,-9,6369.0,31.64029312133789,515,9930.0
10880,0.2871758043766022,-5.218299388885498,-150,6369.0,23.195030212402344,217,9930.0
10890,0.288036972284317,-12.350898742675781,-204,6369.0,12.124881744384766,287,9930.0
10900,0.2893781363964081,-18.117029190063477,-287,6369.0,-2.027536630630493,-119,9930.0
10910,0.2901095449924469,-19.358186721801758,-335,6369.0,-16.271602630615234,-386,9930.0
10920,0.29088351130485535,-12.1812105178833,-142,6369.0,-29.46062469482422,-416,9930.0
10930,0.2914901077747345,-4.040067195892334,-45,6369.0,-34.28852081298828,-704,9930.0
10940,0.2917267382144928,5.934413909912109,162,6369.0,-32.43716812133789,-411,9930.0
10950,0.29221421480178833,7.245590686798096,105,6369.0,-24.01286506652832,-436,9930.0
10960,0.29272472858428955,3.1504337787628174,60,6369.0,-12.127484321594238,-54,9930.0
10970,0.29356637597084045,3.5291500091552734,95,6369.0,-2.8841311931610107,-105,9930.0
10980,0.2940905690193176,5.821728706359863,135,6369.0,2.9009714126586914,141,9930.0
10990,0.29377299547195435,12.921954154968262,248,6369.0,12.587828636169434,147,9930.0
11000,0.2943342626094818,20.293792724609375,318,6369.0,19.959379196166992,420,9930.0
11010,0.29493993520736694,21.485130310058594,424,6369.0,22.6088924407959,306,9930.0
11020,0.2954238951206207,21.074134826660156,252,6369.0,18.421558380126953,320,9930.0
11030,0.2952924370765686,13.962386131286621,250,6369.0,7.541627883911133,64,9930.0
11040,0.29608187079429626,6.702492713928223,20,6369.0,-4.715900897979736,-137,9930.0
11050,0.2969494163990021,-1.3803194761276245,-3,6369.0,-15.327801704406738,-210,9930.0
11060,0.29779234528541565,-6.705374717712402,-201,6369.0,-15.004968643188477,-205,9930.0
11070,0.29860180616378784,-8.106122970581055,-53,6369.0,-2.0609290599823,69,9930.0
11080,0.2987384498119354,-7.452635288238525,-169,6369.0,10.146839141845703,179,9930.0
11090,0.2993775010108948,-9.021739959716797,-95,6369.0,13.361546516418457,261,9930.0
11100,0.29992157220840454,-9.674819946289062,-206,6369.0,15.400249481201172,285,9930.0
11110,0.30037039518356323,-8.895950317382812,-51,6369.0,16.16786766052246,260,9930.0
11120,0.3001667559146881,0.8790030479431152,-12,6369.0,15.450711250305176,241,9930.0
11130,0.3004840910434723,9.684232711791992,250,6369.0,13.040674209594727,303,9930.0
11140,0.3009658753871918,15.631444931030273,193,6369.0,14.1033296585083,159,9930.0
11150,0.300923615694046,14.162633895874023,249,6369.0,11.350176811218262,287,9930.0
11160,0.30204516649246216,5.8440399169921875,17,6369.0,4.378574371337891,-37,9930.0
11170,0.3021714985370636,-4.14265251159668,-140,6369.0,-6.01849889755249,-100,9930.0
11180,0.302222341299057,-11.693766593933105,-207,6369.0,-16.06934928894043,-341,9930.0
11190,0.3021577000617981,-15.46032428741455,-364,6369.0,-23.037708282470703,-336,9930.0
11200,0.3020128607749939,-17.99082374572754,-199,6369.0,-24.126708984375,-448,9930.0
11210,0.30253705382347107,-12.872735023498535,-226,6369.0,-15.062644004821777,-214,9930.0
11220,0.30266278982162476,-5.023078918457031,9,6369.0,-3.7216293811798096,-10,9930.0
11230,0.3027743399143219,3.042802572250366,42,6369.0,5.147470951080322,133,9930.0
11240,0.30297285318374634,7.7360734939575195,162,6369.0,15.344232559204102,322,9930.0
11250,0.3022361695766449,8.265830039978027,152,6369.0,17.71053123474121,230,9930.0
11260,0.30238619446754456,10.982837677001953,127,6369.0,15.274530410766602,279,9930.0
11270,0.3025902807712555,12.478657722473145,283,6369.0,7.921209812164307,92,9930.0
11280,0.30289068818092346,10.029433250427246,79,6369.0,-2.224257707595825,-136,9930.0
11290,0.303313285112381,3.402421474456787,67,6369.0,-7.809057712554932,-80,9930.0
11300,0.3032909035682678,-2.293821334838867,-103,6369.0,-11.213726997375488,-215,9930.0
11310,0.3038828372955322,-3.153815507888794,17,6369.0,-6.77490234375,26,9930.0
11320,0.3045910596847534,7.23516321182251,229,6369.0,2.932068109512329,-2,9930.0
11330,0.30523961782455444,12.288823127746582,170,6369.0,15.587515830993652,398,9930.0
11340,0.3075177073478699,10.743350982666016,133,6369.0,26.792917251586914,371,9930.0
11350,0.30822160840034485,-0.8416721224784851,-136,6369.0,23.44842529296875,387,9930.0
11360,0.30885109305381775,-10.220063209533691,-113,6369.0,17.871803283691406,210,9930.0
11370,0.3096048831939697,-11.151378631591797,-256,6369.0,4.9988226890563965,-38,9930.0
11380,0.3102501332759857,-10.070433616638184,-89,6369.0,-11.857868194580078,-347,9930.0
11390,0.311088889837265,-9.868226051330566,-173,6369.0,-28.964860916137695,-471,9930.0
11400,0.31175583600997925,-8.265308380126953,-88,6369.0,-34.34367752075195,-510,9930.0
11410,0.3123093545436859,-0.6887441277503967,-46,6369.0,-31.400096893310547,-423,9930.0
11420,0.31275224685668945,1.6569702625274658,47,6369.0,-24.2674617767334,-400,9930.0
11430,0.3140454888343811,-0.39705321192741394,-48,6369.0,-14.666613578796387,-140,9930.0
11440,0.3144344389438629,-3.6877360343933105,-98,6369.0,-0.6124610900878906,-17,9930.0
11450,0.31477120518684387,-6.580558776855469,-75,6369.0,11.9588623046875,288,9930.0
11460,0.31505870819091797,-3.914041757583618,-67,6369.0,16.10922622680664,123,9930.0
11470,0.3151571750640869,0.8861535787582397,37,6369.0,14.89706039428711,377,9930.0
11480,0.31547480821609497,3.076227903366089,46,6369.0,13.355305671691895,86,9930.0
11490,0.3160538971424103,0.4373670220375061,14,6369.0,2.2095301151275635,25,9930.0
11500,0.316432386636734,-5.261440277099609,-115,6369.0,-14.670036315917969,-425,9930.0
11510,0.3169887065887451,-9.188640594482422,-194,6369.0,-37.20553970336914,-609,9930.0
11520,0.3175532817840576,-12.364319801330566,-203,6369.0,-49.82445526123047,-924,9930.0
11530,0.31798893213272095,-17.688217163085938,-271,6369.0,-47.329185485839844,-602,9930.0
11540,0.31862589716911316,-23.91775131225586,-430,6369.0,-27.99127960205078,-541,9930.0
11550,0.319134920835495,-29.529605865478516,-495,6369.0,-10.39867115020752,40,9930.0
11560,0.32124561071395874,-27.975019454956055,-457,6369.0,11.844645500183105,209,9930.0
11570,0.3217628002166748,-19.804048538208008,-158,6369.0,27.27175521850586,532,9930.0
11580,0.32242968678474426,1.9524775743484497,150,6369.0,26.300384521484375,396,9930.0
11590,0.32319149374961853,23.418088912963867,413,6369.0,29.139352798461914,520,9930.0
11600,0.3223116993904114,32.942134857177734,563,6369.0,29.152088165283203,501,9930.0
11610,0.3228108584880829,28.001333236694336,396,6369.0,19.86725616455078,126,9930.0
11620,0.32317376136779785,17.115859985351562,240,6369.0,9.777303695678711,190,9930.0
11630,0.3237200379371643,3.3192296028137207,102,6369.0,-0.3285152018070221,-65,9930.0
11640,0.32415908575057983,0.10450064390897751,-86,6369.0,-4.268885135650635,-113,9930.0
11650,0.3258940279483795,-3.0865559577941895,42,6369.0,-10.324674606323242,-104,9930.0
11660,0.32618698477745056,0.35182878375053406,18,6369.0,-13.841867446899414,-356,9930.0
11670,0.3264426589012146,6.279165267944336,148,6369.0,-20.563295364379883,-267,9930.0
11680,0.3266611099243164,5.8322834968566895,119,6369.0,-19.904951095581055,-394,9930.0
11690,0.327386736869812,6.506579399108887,64,6369.0,-18.97095489501953,-216,9930.0
11700,0.3276245892047882,4.233253479003906,171,6369.0,-10.779650688171387,-202,9930.0
11710,0.3278474509716034,1.709334373474121,-60,6369.0,-4.579907417297363,13,9930.0
11720,0.3280639946460724,-4.6851911544799805,-9,6369.0,2.8684470653533936,52,9930.0
11730,0.32828205823898315,-8.943166732788086,-203,6369.0,10.653377532958984,192,9930.0
11740,0.3287740647792816,-8.97437572479248,-76,6369.0,15.52122688293457,187,9930.0
11750,0.32910099625587463,-1.8187280893325806,-84,6369.0,14.700844764709473,189,9930.0
11760,0.329499751329422,3.812098264694214,93,6369.0,7.137526988983154,173,9930.0
11770,0.33018043637275696,9.781161308288574,108,6369.0,1.1886720657348633,-96,9930.0
11780,0.33069318532943726,11.143457412719727,199,6369.0,-4.5789666175842285,23,9930.0
11790,0.33124980330467224,6.584774971008301,67,6369.0,-7.834085464477539,-225,9930.0
11800,0.33182165026664734,0.5405852794647217,36,6369.0,-9.109158515930176,-107,9930.0
11810,0.33255836367607117,1.2768254280090332,10,6369.0,-12.774980545043945,-234,9930.0
11820,0.33308109641075134,-2.190901756286621,-37,6369.0,-9.064332008361816,-23,9930.0
11830,0.3335634171962738,-4.867493152618408,-105,6369.0,0.5739090442657471,-12,9930.0
11840,0.3339969515800476,-5.573848247528076,-16,6369.0,8.981815338134766,237,9930.0
11850,0.334388792514801,-2.5451979637145996,-151,6369.0,15.74328327178955,316,9930.0
11860,0.33469557762145996,-4.247603893280029,44,6369.0,18.525184631347656,297,9930.0
11870,0.3348339796066284,-1.6156203746795654,-76,6369.0,18.889846801757812,262,9930.0
11880,0.33505693078041077,-0.18162968754768372,59,6369.0,12.188703536987305,157,9930.0
11890,0.335386723279953,-3.7322797775268555,-113,6369.0,2.527886390686035,-128,9930.0
11900,0.33562883734703064,-9.143501281738281,-142,6369.0,-6.710896015167236,-79,9930.0
11910,0.33746200799942017,-10.229681015014648,-173,6369.0,-16.097387313842773,-410,9930.0
11920,0.33763909339904785,-7.845548152923584,-77,6369.0,-20.166563034057617,-169,9930.0
11930,0.3378213346004486,-2.867907762527466,-42,6369.0,-11.694442749023438,-171,9930.0
11940,0.3379802107810974,-0.7038850784301758,-22,6369.0,0.22776485979557037,142,9930.0
11950,0.3381944000720978,-1.6661646366119385,34,6369.0,12.267786979675293,191,9930.0
11960,0.3382832109928131,0.5745158195495605,-59,6369.0,18.437715530395508,381,9930.0
11970,0.3384145498275757,1.8526198863983154,152,6369.0,20.295696258544922,242,9930.0
11980,0.3385871648788452,5.158481121063232,53,6369.0,12.282150268554688,98,9930.0
11990,0.3388543426990509,8.990041732788086,212,6369.0,-8.361310958862305,-178,9930.0
12000,0.33882108330726624,10.838391304016113,198,6369.0,-28.962114334106445,-727,9930.0
12010,0.3391202986240387,10.545743942260742,158,6369.0,-39.916587829589844,-546,9930.0
12020,0.3394078016281128,9.779486656188965,157,6369.0,-31.54121208190918,-545,9930.0
12030,0.33971840143203735,8.977953910827637,131,6369.0,-13.864638328552246,-18,9930.0
12040,0.34031975269317627,3.6150217056274414,69,6369.0,3.304959297180176,-33,9930.0
12050,0.3405125141143799,4.988862037658691,139,6369.0,10.889497756958008,208,9930.0
12060,0.34069523215293884,3.7594571113586426,-14,6369.0,15.037715911865234,241,9930.0
12070,0.34082818031311035,-0.3334682881832123,36,6369.0,20.32465934753418,404,9930.0
12080,0.34099268913269043,-0.22001250088214874,-11,6369.0,27.11214828491211,357,9930.0
12090,0.3406240940093994,1.2746115922927856,104,6369.0,28.580886840820312,523,9930.0
12100,0.34055095911026,7.834859848022461,159,6369.0,25.57594871520996,351,9930.0
12110,0.34051236510276794,7.494040012359619,50,6369.0,22.480775833129883,311,9930.0
12120,0.3404575288295746,6.892175197601318,181,6369.0,12.948779106140137,241,9930.0
12130,0.340895414352417,6.314420700073242,83,6369.0,1.7269130945205688,-132,9930.0
12140,0.34090369939804077,11.480278015136719,199,6369.0,-11.06649398803711,-169,9930.0
12150,0.340793639421463,16.56308937072754,400,6369.0,-24.7259464263916,-482,9930.0
12160,0.34064313769340515,20.145246505737305,273,6369.0,-30.025585174560547,-510,9930.0
12170,0.34062132239341736,18.022619247436523,309,6369.0,-31.88271141052246,-469,9930.0
12180,0.34153974056243896,10.284239768981934,58,6369.0,-24.88673973083496,-351,9930.0
12190,0.34157460927963257,-2.639634132385254,-14,6369.0,-13.055990219116211,-179,9930.0
12200,0.3419971764087677,-11.654582977294922,-299,6369.0,3.7218856811523438,236,9930.0
12210,0.3422927260398865,-17.194425582885742,-256,6369.0,19.583280563354492,279,9930.0
12220,0.3412943482398987,-15.700014114379883,-238,6369.0,28.663022994995117,637,9930.0
12230,0.341699481010437,-12.464250564575195,-163,6369.0,33.03693771362305,434,9930.0
12240,0.34216591715812683,-6.468451499938965,-60,6369.0,27.199216842651367,466,9930.0
12250,0.3428628444671631,-5.839009761810303,-42,6369.0,22.02240562438965,278,9930.0
12260,0.3424716591835022,-7.586338043212891,-185,6369.0,11.004365921020508,82,9930.0
12270,0.34313374757766724,-5.870106220245361,-38,6369.0,-9.766023635864258,-178,9930.0
12280,0.34375184774398804,-6.355099201202393,-99,6369.0,-20.419052124023438,-500,9930.0
12290,0.34439194202423096,1.3190374374389648,87,6369.0,-33.39139938354492,-520,9930.0
12300,0.34491756558418274,7.413453578948975,142,6369.0,-36.52619934082031,-730,9930.0
12310,0.34459012746810913,11.892837524414062,160,6369.0,-28.59801483154297,-294,9930.0
12320,0.3451075553894043,10.44211483001709,120,6369.0,-11.13802719116211,-138,9930.0
12330,0.34540414810180664,2.2376410961151123,72,6369.0,15.211105346679688,377,9930.0
12340,0.34555956721305847,-5.044607639312744,-197,6369.0,32.80754470825195,625,9930.0
12350,0.344245046377182,-12.025592803955078,-114,6369.0,32.81575012207031,466,9930.0
12360,0.34423142671585083,-8.653776168823242,-157,6369.0,29.846302032470703,520,9930.0
12370,0.3441789150238037,1.610951542854309,124,6369.0,21.326303482055664,263,9930.0
12380,0.34402212500572205,11.471068382263184,205,6369.0,6.785953044891357,78,9930.0
12390,0.34386733174324036,17.8011474609375,393,6369.0,-8.150181770324707,-229,9930.0
12400,0.34311193227767944,18.941749572753906,257,6369.0,-18.157222747802734,-274,9930.0
12410,0.34309589862823486,12.412708282470703,195,6369.0,-19.76877784729004,-405,9930.0
12420,0.3431831896305084,2.5523183345794678,41,6369.0,-9.543412208557129,-22,9930.0
12430,0.3432876765727997,-10.201045036315918,-306,6369.0,5.196347236633301,92,9930.0
12440,0.3436744213104248,-23.94373893737793,-361,6369.0,11.665297508239746,203,9930.0
12450,0.3439013659954071,-28.393657684326172,-546,6369.0,12.561427116394043,225,9930.0
12460,0.34434571862220764,-24.96558952331543,-265,6369.0,8.402396202087402,117,9930.0
12470,0.344659686088562,-13.834224700927734,-223,6369.0,-0.8063963055610657,-53,9930.0
12480,0.34515461325645447,-5.57296895980835,-16,6369.0,-4.947094917297363,-162,9930.0
12490,0.34549620747566223,-5.9095988273620605,-148,6369.0,-0.6162974834442139,101,9930.0
12500,0.34582099318504333,-4.816700458526611,-25,6369.0,10.390911102294922,171,9930.0
12510,0.3461635410785675,-0.08253336697816849,4,6369.0,5.9033942222595215,27,9930.0
12520,0.3466329574584961,8.123351097106934,233,6369.0,-9.540542602539062,-202,9930.0
12530,0.3462560474872589,12.668258666992188,94,6369.0,-18.636009216308594,-320,9930.0
12540,0.3466254770755768,8.595597267150879,191,6369.0,-13.881731986999512,-219,9930.0
12550,0.3468606770038605,0.5107247233390808,-84,6369.0,-6.284358978271484,33,9930.0
12560,0.34699544310569763,-7.785172462463379,-140,6369.0,9.624836921691895,257,9930.0
12570,0.3475290536880493,-16.230419158935547,-327,6369.0,26.327529907226562,576,9930.0
12580,0.34761425852775574,-20.456689834594727,-199,6369.0,33.340187072753906,487,9930.0
12590,0.34762829542160034,-13.633787155151367,-230,6369.0,29.631641387939453,425,9930.0
12600,0.3474838435649872,-6.356618404388428,30,6369.0,22.203006744384766,394,9930.0
12610,0.34739962220191956,4.005564212799072,93,6369.0,8.75600814819336,-20,9930.0
12620,0.3470830023288727,11.273223876953125,224,6369.0,-7.276753902435303,-201,9930.0
12630,0.3468831777572632,15.110231399536133,334,6369.0,-22.93036651611328,-516,9930.0
12640,0.3467637896537781,16.1927433013916,159,6369.0,-30.510290145874023,-467,9930.0
12650,0.3465978503227234,13.484580039978027,259,6369.0,-23.496353149414062,-387,9930.0
12660,0.34695106744766235,3.6441240310668945,-65,6369.0,-9.175514221191406,-39,9930.0
12670,0.34688156843185425,-9.504251480102539,-195,6369.0,8.29024600982666,205,9930.0
12680,0.34692344069480896,-18.31256866455078,-325,6369.0,19.937156677246094,336,9930.0
12690,0.3470574617385864,-19.694307327270508,-362,6369.0,23.526626586914062,313,9930.0
12700,0.34839457273483276,-18.85017204284668,-300,6369.0,16.338314056396484,138,9930.0
12710,0.3489323556423187,-17.870935440063477,-209,6369.0,2.2345361709594727,-92,9930.0
12720,0.3493261933326721,-11.823843955993652,-281,6369.0,-15.61010456085205,-354,9930.0
12730,0.34983259439468384,-8.782147407531738,-121,6369.0,-28.362844467163086,-395,9930.0
12740,0.3503226041793823,-10.092490196228027,-210,6369.0,-28.32151222229004,-485,9930.0
12750,0.35192394256591797,-11.92778205871582,-189,6369.0,-19.003402709960938,-198,9930.0
12760,0.35253310203552246,-4.648828029632568,6,6369.0,-10.336163520812988,-193,9930.0
12770,0.35313671827316284,3.1979482173919678,31,6369.0,-2.8773691654205322,-25,9930.0
12780,0.3537355661392212,8.093703269958496,239,6369.0,-0.14317184686660767,-22,9930.0
12790,0.35591450333595276,15.1240234375,225,6369.0,3.0893218517303467,58,9930.0
12800,0.3564315736293793,22.491222381591797,444,6369.0,6.376110553741455,155,9930.0
12810,0.3569004535675049,21.33403968811035,291,6369.0,11.261137962341309,160,9930.0
12820,0.3573407530784607,13.637711524963379,234,6369.0,21.05413246154785,402,9930.0
12830,0.3578709661960602,3.076742172241211,-41,6369.0,30.871448516845703,430,9930.0
12840,0.35825392603874207,-2.523733615875244,-45,6369.0,27.962860107421875,457,9930.0
12850,0.3584151268005371,-4.262066841125488,2,6369.0,16.359655380249023,131,9930.0
12860,0.3586650788784027,-0.9847816228866577,-51,6369.0,-3.780773401260376,-148,9930.0
12870,0.35880541801452637,2.8674755096435547,82,6369.0,-23.715707778930664,-392,9930.0
12880,0.35990220308303833,5.364029884338379,101,6369.0,-29.812211990356445,-583,9930.0
12890,0.3600711524486542,10.882634162902832,179,6369.0,-28.086606979370117,-350,9930.0
12900,0.36028045415878296,15.523210525512695,337,6369.0,-17.082393646240234,-328,9930.0
12910,0.36052483320236206,18.60506820678711,264,6369.0,-9.756495475769043,-79,9930.0
12920,0.36102592945098877,15.342178344726562,291,6369.0,-3.7404255867004395,-108,9930.0
12930,0.3613903224468231,10.140654563903809,143,6369.0,-0.1138811856508255,134,9930.0
12940,0.36195147037506104,4.222320079803467,79,6369.0,2.44272518157959,-37,9930.0
12950,0.36247140169143677,-0.09404149651527405,-53,6369.0,2.3488378524780273,165,9930.0
12960,0.36300820112228394,-4.1205010414123535,-60,6369.0,2.67777943611145,-8,9930.0
12970,0.36431071162223816,-13.556404113769531,-281,6369.0,4.091551303863525,104,9930.0
12980,0.3647727072238922,-18.238340377807617,-325,6369.0,4.513096332550049,74,9930.0
12990,0.365180104970932,-19.306320190429688,-427,6369.0,3.3484060764312744,63,9930.0
13000,0.3656350374221802,-18.63479232788086,-252,6369.0,0.7143818140029907,89,9930.0
13010,0.3665671646595001,-14.581974029541016,-262,6369.0,0.6846842169761658,-92,9930.0
13020,0.36695319414138794,-5.772919654846191,-1,6369.0,-1.052181601524353,22,9930.0
13030,0.3671794533729553,8.557826042175293,262,6369.0,-5.051630973815918,-156,9930.0
13040,0.3673531711101532,22.01011085510254,333,6369.0,-4.1064581871032715,-65,9930.0
13050,0.3672366440296173,25.70465660095215,437,6369.0,1.6010990142822266,97,9930.0
13060,0.367194265127182,17.096546173095703,184,6369.0,12.428845405578613,123,9930.0
13070,0.3670634925365448,4.2295989990234375,55,6369.0,14.955902099609375,283,9930.0
13080,0.3668002784252167,-6.014094829559326,-52,6369.0,12.023643493652344,121,9930.0
13090,0.3664245307445526,-6.030119895935059,-150,6369.0,1.3043733835220337,-21,9930.0
13100,0.36620891094207764,-0.36780092120170593,46,6369.0,-11.116217613220215,-154,9930.0
13110,0.36581796407699585,7.760705471038818,109,6369.0,-17.250831604003906,-395,9930.0
13120,0.36536309123039246,13.844225883483887,226,6369.0,-23.17603302001953,-313,9930.0
13130,0.3647569715976715,13.281231880187988,207,6369.0,-27.61227798461914,-518,9930.0
13140,0.36343953013420105,5.019548416137695,-86,6369.0,-24.67235565185547,-261,9930.0
13150,0.3628469407558441,-12.383036613464355,-213,6369.0,-8.912216186523438,-174,9930.0
13160,0.36234015226364136,-16.74031639099121,-306,6369.0,5.489982604980469,205,9930.0
13170,0.36236250400543213,-10.970660209655762,-125,6369.0,11.332195281982422,131,9930.0
13180,0.3619038462638855,-0.7104269862174988,40,6369.0,7.062669277191162,120,9930.0
13190,0.36256143450737,10.980839729309082,281,6369.0,-0.19691818952560425,-13,9930.0
13200,0.36241328716278076,17.82392120361328,275,6369.0,-8.215907096862793,-273,9930.0
13210,0.3622843027114868,15.383196830749512,210,6369.0,-8.626344680786133,-29,9930.0
13220,0.36240097880363464,-1.2236322164535522,-177,6369.0,-8.027798652648926,-180,9930.0
13230,0.36143624782562256,-20.609024047851562,-412,6369.0,-5.832016944885254,11,9930.0
13240,0.3613643944263458,-27.157548904418945,-379,6369.0,3.556309938430786,86,9930.0
13250,0.3613360524177551,-26.385093688964844,-457,6369.0,11.070822715759277,171,9930.0
13260,0.36127275228500366,-15.775156021118164,-141,6369.0,17.9422607421875,393,9930.0
13270,0.3610542416572571,-3.9142134189605713,74,6369.0,21.33509063720703,293,9930.0
13280,0.3610125482082367,10.103806495666504,160,6369.0,20.172922134399414,229,9930.0
13290,0.36089131236076355,16.26957130432129,345,6369.0,18.293912887573242,332,9930.0
13300,0.36080312728881836,20.288908004760742,383,6369.0,12.122909545898438,110,9930.0
13310,0.3606714606285095,20.390830993652344,277,6369.0,2.5074503421783447,-181,9930.0
13320,0.360655814409256,11.657569885253906,125,6369.0,-10.130712509155273,-193,9930.0
13330,0.3604913651943207,2.4174578189849854,47,6369.0,-22.835586547851562,-480,9930.0
13340,0.36033734679222107,-4.044524669647217,-136,6369.0,-29.906448364257812,-358,9930.0
13350,0.360111266374588,-7.650580883026123,-66,6369.0,-26.555198669433594,-394,9930.0
13360,0.3595225214958191,-10.597248077392578,-230,6369.0,-11.61690902709961,-129,9930.0
13370,0.3594743013381958,-13.543304443359375,-168,6369.0,8.68042278289795,308,9930.0
13380,0.3593897521495819,-16.51531410217285,-317,6369.0,30.118749618530273,377,9930.0
13390,0.3594058156013489,-14.4320650100708,-221,6369.0,37.37880325317383,656,9930.0
13400,0.35956355929374695,-9.706334114074707,-119,6369.0,28.990583419799805,471,9930.0
13410,0.3605569005012512,-5.372226715087891,-49,6369.0,14.950124740600586,38,9930.0
13420,0.36101093888282776,3.7733213901519775,15,6369.0,-5.9417195320129395,-144,9930.0
13430,0.36160290241241455,9.117847442626953,213,6369.0,-24.05401611328125,-358,9930.0
13440,0.3622015118598938,7.106733322143555,107,6369.0,-31.390316009521484,-602,9930.0
13450,0.3625585436820984,2.5595650672912598,-8,6369.0,-27.44301986694336,-301,9930.0
13460,0.3632694184780121,-3.5895330905914307,-52,6369.0,-11.554494857788086,-187,9930.0
13470,0.36406010389328003,-7.742400646209717,-169,6369.0,6.36882209777832,295,9930.0
13480,0.36473482847213745,-5.725383281707764,30,6369.0,27.95021629333496,507,9930.0
13490,0.36413148045539856,8.95389461517334,156,6369.0,38.760990142822266,575,9930.0
13500,0.3647114634513855,20.53193473815918,398,6369.0,29.583850860595703,543,9930.0
13510,0.36524155735969543,23.526220321655273,444,6369.0,23.696636199951172,298,9930.0
13520,0.36561885476112366,20.131071090698242,211,6369.0,10.838285446166992,158,9930.0
13530,0.3659568428993225,11.171097755432129,186,6369.0,1.9242404699325562,22,9930.0
13540,0.3668590784072876,5.881839752197266,63,6369.0,-4.9792609214782715,-207,9930.0
13550,0.3670746982097626,-1.3011137247085571,-68,6369.0,-11.040765762329102,-112,9930.0
13560,0.36719152331352234,-8.266916275024414,-70,6369.0,-12.603570938110352,-265,9930.0
13570,0.36716973781585693,-9.859136581420898,-233,6369.0,-13.061599731445312,-253,9930.0
13580,0.36700838804244995,-8.36462688446045,-92,6369.0,-14.019974708557129,-154,9930.0
13590,0.36679500341415405,-7.749396800994873,-126,6369.0,-12.568520545959473,-307,9930.0
13600,0.3666088283061981,-8.069552421569824,-93,6369.0,-14.716663360595703,-98,9930.0
13610,0.36631742119789124,-6.514232635498047,-74,6369.0,-11.696891784667969,-274,9930.0
13620,0.36604440212249756,-2.834796667098999,-67,6369.0,-7.091738700866699,-20,9930.0
13630,0.364639014005661,2.027817726135254,122,6369.0,1.5891093015670776,19,9930.0
13640,0.3642755150794983,12.921195983886719,221,6369.0,7.47016716003418,41,9930.0
13650,0.3639955520629883,24.392074584960938,464,6369.0,6.599431991577148,204,9930.0
13660,0.3638066351413727,27.976585388183594,516,6369.0,4.476553916931152,3,9930.0
13670,0.36304038763046265,25.672143936157227,357,6369.0,4.031235218048096,134,9930.0
13680,0.36295539140701294,14.148056030273438,259,6369.0,1.2000960111618042,-12,9930.0
13690,0.3628731667995453,-1.3982692956924438,-139,6369.0,-2.1088900566101074,-56,9930.0
13700,0.3629189431667328,-21.37470245361328,-377,6369.0,-2.9883995056152344,22,9930.0
13710,0.362602561712265,-32.88225173950195,-587,6369.0,0.5699067711830139,-81,9930.0
13720,0.3627152442932129,-27.4752197265625,-426,6369.0,-0.7913895845413208,38,9930.0
13730,0.362813264131546,-21.109054565429688,-267,6369.0,-9.213737487792969,-158,9930.0
13740,0.36285603046417236,-4.216573715209961,1,6369.0,-15.436241149902344,-380,9930.0
13750,0.3629705011844635,15.020797729492188,295,6369.0,-19.29965591430664,-261,9930.0
13760,0.36305564641952515,28.949302673339844,555,6369.0,-15.286487579345703,-171,9930.0
13770,0.36292606592178345,31.026758193969727,416,6369.0,-7.399561882019043,-162,9930.0
13780,0.3627990782260895,17.215288162231445,218,6369.0,5.417865753173828,265,9930.0
13790,0.36265838146209717,-2.6691668033599854,-88,6369.0,22.24262809753418,423,9930.0
13800,0.36227113008499146,-14.69609260559082,-320,6369.0,33.37977600097656,548,9930.0
13810,0.3619570732116699,-17.47979164123535,-247,6369.0,31.313356399536133,520,9930.0
13820,0.36163800954818726,-13.048972129821777,-176,6369.0,20.00001335144043,225,9930.0
13830,0.3612358570098877,-2.255216598510742,-72,6369.0,0.02413885109126568,-128,9930.0
13840,0.36074209213256836,5.35200309753418,217,6369.0,-14.678117752075195,-199,9930.0
13850,0.36095505952835083,12.928439140319824,173,6369.0,-22.103151321411133,-393,9930.0
13860,0.3604843020439148,10.387402534484863,96,6369.0,-20.269697189331055,-281,9930.0
13870,0.3601382076740265,-1.7309088706970215,-115,6369.0,-17.202726364135742,-243,9930.0
13880,0.35981258749961853,-24.636228561401367,-602,6369.0,-11.99628734588623,-134,9930.0
13890,0.36014145612716675,-41.60011672973633,-659,6369.0,-3.7623202800750732,-21,9930.0
13900,0.3600350320339203,-42.466026306152344,-707,6369.0,4.419711589813232,39,9930.0
13910,0.36001282930374146,-36.87415313720703,-542,6369.0,10.975257873535156,293,9930.0
13920,0.36004528403282166,-24.336824417114258,-209,6369.0,12.10066032409668,148,9930.0
13930,0.36053910851478577,-7.019444942474365,-87,6369.0,9.181355476379395,124,9930.0
13940,0.3607439696788788,3.5560646057128906,146,6369.0,6.390800476074219,155,9930.0
13950,0.3610245883464813,4.435791969299316,110,6369.0,1.4739543199539185,-4,9930.0
13960,0.3614185154438019,3.307185649871826,-25,6369.0,3.0881099700927734,84,9930.0
13970,0.36187744140625,3.2978553771972656,126,6369.0,8.548121452331543,196,9930.0
13980,0.3626270890235901,12.0136137008667,176,6369.0,7.567608833312988,13,9930.0
13990,0.36314842104911804,14.591293334960938,310,6369.0,2.0835201740264893,132,9930.0
14000,0.363635390996933,15.325322151184082,194,6369.0,0.5960802435874939,-79,9930.0
14010,0.3640715181827545,12.249227523803711,153,6369.0,4.614299297332764,139,9930.0
14020,0.3639468252658844,5.146810531616211,89,6369.0,10.585362434387207,200,9930.0
14030,0.36433130502700806,-6.500021457672119,-227,6369.0,16.559810638427734,236,9930.0
14040,0.3646373152732849,-9.416033744812012,-126,6369.0,14.74233627319336,365,9930.0
14050,0.36482369899749756,-8.478859901428223,-183,6369.0,18.402132034301758,172,9930.0
14060,0.3649180829524994,-4.973174095153809,-78,6369.0,16.203426361083984,331,9930.0
14070,0.36656850576400757,2.02205753326416,130,6369.0,9.629719734191895,182,9930.0
14080,0.36666983366012573,8.63396167755127,104,6369.0,7.227236747741699,-23,9930.0
14090,0.3666623532772064,13.05260181427002,241,6369.0,1.6835482120513916,31,9930.0
14100,0.36654916405677795,23.019128799438477,551,6369.0,-8.853594779968262,-226,9930.0
