timestamp,kalman.stateZ,gyro.x,gyro.xRaw,gyro.xVariance,gyro.y,gyro.yRaw,gyro.yVariance
0,0.31433922052383423,2.1198363304138184,50,6369.0,-12.9723539352417,-224,9930.0
10,0.31475120782852173,4.435062885284424,79,6369.0,-15.138021469116211,-253,9930.0
20,0.3148399889469147,5.452946186065674,95,6369.0,-16.583587646484375,-281,9930.0
30,0.3148714005947113,4.714142799377441,68,6369.0,-16.925334930419922,-287,9930.0
40,0.31496164202690125,2.645188093185425,27,6369.0,-17.677244186401367,-290,9930.0
50,0.31298378109931946,0.05489339306950569,-13,6369.0,-17.669218063354492,-290,9930.0
60,0.3129451274871826,-2.677461624145508,-59,6369.0,-16.993722915649414,-277,9930.0
70,0.3128514587879181,-5.00109338760376,-89,6369.0,-14.78176498413086,-230,9930.0
80,0.3129134178161621,-5.779725551605225,-91,6369.0,-10.658567428588867,-149,9930.0
90,0.31384775042533875,-4.75840950012207,-70,6369.0,-5.602036476135254,-63,9930.0
100,0.3139153718948364,-3.0332813262939453,-30,6369.0,-0.5555511116981506,9,9930.0
110,0.3139994442462921,-0.24579264223575592,11,6369.0,4.5036492347717285,97,9930.0
120,0.31408390402793884,1.7860888242721558,43,6369.0,8.688020706176758,160,9930.0
130,0.31413984298706055,4.192477703094482,73,6369.0,12.416929244995117,219,9930.0
140,0.3133583664894104,5.598058700561523,92,6369.0,15.646625518798828,265,9930.0
150,0.31325051188468933,4.952163219451904,77,6369.0,16.70219612121582,279,9930.0
160,0.31318822503089905,3.552419424057007,53,6369.0,16.693477630615234,267,9930.0
170,0.31309035420417786,2.237898111343384,22,6369.0,13.017389297485352,193,9930.0
180,0.3142993152141571,-1.0536808967590332,-31,6369.0,8.245394706726074,108,9930.0
190,0.3144887387752533,-1.5752582550048828,-24,6369.0,0.07823383808135986,-46,9930.0
200,0.31460049748420715,-3.064769744873047,-59,6369.0,-13.70634651184082,-295,9930.0
210,0.3149617314338684,-1.0675342082977295,-22,6369.0,-32.34940719604492,-608,9930.0
220,0.31548163294792175,1.349931240081787,31,6369.0,-51.35139465332031,-933,9930.0
230,0.3157804608345032,1.574944019317627,25,6369.0,-70.1341323852539,-1212,9930.0
240,0.3160119354724884,5.929533958435059,147,6369.0,-85.86766815185547,-1524,9930.0
250,0.31622314453125,7.994494915008545,134,6369.0,-102.23790740966797,-1690,9930.0
260,0.31608089804649353,8.287989616394043,102,6369.0,-113.01569366455078,-1800,9930.0
270,0.31644752621650696,8.680998802185059,56,6369.0,-113.85836791992188,-1816,9930.0
280,0.31568774580955505,1.8839716911315918,28,6369.0,-110.55562591552734,-1774,9930.0
290,0.31606626510620117,-2.9407098293304443,-88,6369.0,-97.04187774658203,-1481,9930.0
300,0.31619393825531006,-9.401275634765625,-115,6369.0,-75.23993682861328,-1088,9930.0
310,0.31762781739234924,-5.430739879608154,-54,6369.0,-47.44816970825195,-676,9930.0
320,0.31772974133491516,-3.631718873977661,-8,6369.0,-18.98067855834961,-232,9930.0
330,0.31997111439704895,-0.9329673051834106,-67,6369.0,11.716585159301758,364,9930.0
340,0.320538192987442,1.5622389316558838,17,6369.0,42.89790344238281,908,9930.0
350,0.32144713401794434,6.272679328918457,166,6369.0,70.42638397216797,1193,9930.0
360,0.3213682770729065,9.123472213745117,196,6369.0,84.19215393066406,1317,9930.0
370,0.321606308221817,9.281576156616211,151,6369.0,77.90968322753906,1232,9930.0
380,0.3219059407711029,4.775153160095215,-6,6369.0,60.87191390991211,850,9930.0
390,0.32202887535095215,-3.030008316040039,-65,6369.0,38.62982177734375,415,9930.0
400,0.31975600123405457,-8.945745468139648,-186,6369.0,12.920701026916504,153,9930.0
410,0.32037851214408875,-13.26863956451416,-245,6369.0,-12.18880844116211,-183,9930.0
420,0.32066109776496887,-12.207807540893555,-213,6369.0,-38.47797775268555,-665,9930.0
430,0.32107675075531006,-8.033708572387695,-129,6369.0,-56.593955993652344,-1060,9930.0
440,0.32144802808761597,1.9357565641403198,27,6369.0,-71.66370391845703,-1216,9930.0
450,0.31889548897743225,14.832878112792969,321,6369.0,-74.88550567626953,-1217,9930.0
460,0.31880512833595276,29.116008758544922,438,6369.0,-70.80746459960938,-1057,9930.0
470,0.31934311985969543,31.5584774017334,507,6369.0,-62.1242790222168,-701,9930.0
480,0.31931936740875244,30.110801696777344,380,6369.0,-40.93342208862305,-317,9930.0
490,0.32102909684181213,20.576568603515625,279,6369.0,-13.997086524963379,-28,9930.0
500,0.3212355673313141,10.626053810119629,97,6369.0,10.096417427062988,277,9930.0
510,0.3215900659561157,-0.806641697883606,-63,6369.0,31.129968643188477,526,9930.0
520,0.32255154848098755,-11.505352973937988,-132,6369.0,49.07414245605469,707,9930.0
530,0.32394498586654663,-22.0870418548584,-418,6369.0,59.05939483642578,968,9930.0
540,0.32447952032089233,-25.254350662231445,-427,6369.0,57.247798919677734,1092,9930.0
550,0.3250609338283539,-23.347749710083008,-425,6369.0,54.71955871582031,1084,9930.0
560,0.325368195772171,-21.76433753967285,-476,6369.0,47.51664352416992,951,9930.0
570,0.32630640268325806,-20.03314208984375,-496,6369.0,40.86808395385742,952,9930.0
580,0.32274383306503296,-22.30612564086914,-486,6369.0,30.790735244750977,674,9930.0
590,0.32282719016075134,-17.01732635498047,-374,6369.0,11.41377067565918,366,9930.0
600,0.3229571282863617,-8.144537925720215,-128,6369.0,-5.876829147338867,32,9930.0
610,0.32311928272247314,7.282524108886719,143,6369.0,-22.6839599609375,-357,9930.0
620,0.320053368806839,23.138286590576172,409,6369.0,-37.36497497558594,-647,9930.0
630,0.32011929154396057,30.627422332763672,546,6369.0,-48.19720458984375,-847,9930.0
640,0.3200227916240692,29.76845932006836,489,6369.0,-54.88322448730469,-902,9930.0
650,0.31980863213539124,24.2084903717041,329,6369.0,-57.671714782714844,-804,9930.0
660,0.32029229402542114,13.761053085327148,223,6369.0,-51.451534271240234,-704,9930.0
670,0.32020303606987,4.0920538902282715,94,6369.0,-42.64499282836914,-694,9930.0
680,0.3202233910560608,-6.181500434875488,-81,6369.0,-27.18079948425293,-359,9930.0
690,0.3213801980018616,-8.267640113830566,-198,6369.0,-9.930441856384277,-41,9930.0
700,0.3215576410293579,-11.68395709991455,-135,6369.0,13.976663589477539,392,9930.0
710,0.3234497606754303,-8.849769592285156,-134,6369.0,33.851783752441406,710,9930.0
720,0.3239123821258545,-6.1054182052612305,-151,6369.0,46.395423889160156,943,9930.0
730,0.3242485821247101,-2.7236738204956055,-5,6369.0,50.241756439208984,911,9930.0
740,0.3246319591999054,-0.4395185708999634,5,6369.0,45.78376007080078,716,9930.0
750,0.3229748606681824,2.3335909843444824,67,6369.0,34.120460510253906,567,9930.0
760,0.3230179250240326,9.975796699523926,150,6369.0,13.621530532836914,87,9930.0
770,0.323455810546875,12.9822416305542,135,6369.0,-5.078740119934082,14,9930.0
780,0.32357707619667053,7.4242448806762695,65,6369.0,-15.883003234863281,-187,9930.0
790,0.3237227499485016,-4.756295680999756,-176,6369.0,-19.750595092773438,-311,9930.0
800,0.3218742907047272,-15.990264892578125,-246,6369.0,-25.284189224243164,-404,9930.0
810,0.3217131793498993,-18.473758697509766,-318,6369.0,-20.455080032348633,-216,9930.0
820,0.32139524817466736,-13.225251197814941,-234,6369.0,-12.816431999206543,-144,9930.0
830,0.32096150517463684,-6.413930892944336,-14,6369.0,1.2413439750671387,-24,9930.0
840,0.32099658250808716,5.34649133682251,210,6369.0,10.501023292541504,32,9930.0
850,0.32081806659698486,18.849210739135742,299,6369.0,20.031373977661133,355,9930.0
860,0.32072070240974426,18.875804901123047,258,6369.0,20.54474449157715,309,9930.0
870,0.3205643594264984,16.226985931396484,211,6369.0,18.569969177246094,230,9930.0
880,0.318976491689682,8.577249526977539,169,6369.0,14.432709693908691,87,9930.0
890,0.3187892735004425,0.530488908290863,-47,6369.0,4.884075164794922,-38,9930.0
900,0.3185391128063202,-11.296092987060547,-238,6369.0,-1.2707321643829346,-102,9930.0
910,0.31835031509399414,-13.218400001525879,-206,6369.0,-15.197921752929688,-229,9930.0
920,0.31829357147216797,-9.667975425720215,-163,6369.0,-23.458866119384766,-532,9930.0
930,0.31918391585350037,-2.1618380546569824,-55,6369.0,-30.682096481323242,-431,9930.0
940,0.3193923234939575,9.420680046081543,154,6369.0,-26.98336410522461,-390,9930.0
950,0.31967076659202576,16.47536849975586,253,6369.0,-21.355764389038086,-352,9930.0
960,0.3198378086090088,23.799789428710938,342,6369.0,-20.990644454956055,-274,9930.0
970,0.3210764527320862,21.005361557006836,295,6369.0,-19.31350326538086,-386,9930.0
980,0.3211694061756134,12.745095252990723,149,6369.0,-19.410959243774414,-429,9930.0
990,0.3211142420768738,6.017544746398926,-9,6369.0,-28.442363739013672,-476,9930.0
1000,0.32080626487731934,-5.496077537536621,-73,6369.0,-29.110177993774414,-566,9930.0
1010,0.3203360438346863,-4.996697902679443,-71,6369.0,-17.87068748474121,-200,9930.0
1020,0.32113927602767944,-7.814247131347656,-138,6369.0,4.429536819458008,94,9930.0
1030,0.3206423223018646,-9.790923118591309,-93,6369.0,23.783567428588867,358,9930.0
1040,0.32031500339508057,-7.599897384643555,-145,6369.0,34.174747467041016,652,9930.0
1050,0.3196769654750824,-12.725116729736328,-125,6369.0,47.79133224487305,744,9930.0
1060,0.32101181149482727,-14.141541481018066,-232,6369.0,51.2633171081543,782,9930.0
1070,0.3202994465827942,-12.53554916381836,-182,6369.0,48.66934585571289,704,9930.0
1080,0.31944167613983154,-10.448718070983887,-158,6369.0,43.01297378540039,671,9930.0
1090,0.31885185837745667,-4.901291847229004,-110,6369.0,30.830839157104492,579,9930.0
1100,0.31828978657722473,0.4980573058128357,56,6369.0,20.724592208862305,149,9930.0
1110,0.31747183203697205,4.934092998504639,139,6369.0,8.138278007507324,80,9930.0
1120,0.3169921040534973,4.660845756530762,52,6369.0,-2.367999315261841,-82,9930.0
1130,0.3166004419326782,1.4080784320831299,-15,6369.0,-12.586783409118652,-244,9930.0
1140,0.31636306643486023,4.099137783050537,26,6369.0,-26.32158088684082,-376,9930.0
1150,0.3168371617794037,3.436994791030884,161,6369.0,-36.20777130126953,-782,9930.0
1160,0.3167004883289337,4.770317554473877,16,6369.0,-47.62648010253906,-868,9930.0
1170,0.316660076379776,4.1395745277404785,13,6369.0,-49.78992462158203,-709,9930.0
1180,0.3168712854385376,-0.20957151055335999,-44,6369.0,-42.20610046386719,-584,9930.0
1190,0.31963619589805603,-7.518779754638672,-195,6369.0,-24.39078140258789,-188,9930.0
1200,0.32027745246887207,-13.47278881072998,-184,6369.0,-1.2345279455184937,99,9930.0
1210,0.3207882344722748,-15.342795372009277,-170,6369.0,19.837299346923828,244,9930.0
1220,0.3212538957595825,-13.561909675598145,-244,6369.0,30.5241756439209,503,9930.0
1230,0.3216419517993927,-6.636832237243652,-125,6369.0,32.589561462402344,603,9930.0
1240,0.32488998770713806,1.2121621370315552,8,6369.0,20.951940536499023,404,9930.0
1250,0.3251209855079651,15.187602043151855,351,6369.0,11.642940521240234,146,9930.0
1260,0.3253653049468994,27.769933700561523,587,6369.0,6.831357955932617,-76,9930.0
1270,0.32558852434158325,40.37005615234375,654,6369.0,-4.014362335205078,-62,9930.0
1280,0.3279164433479309,48.69686508178711,795,6369.0,-5.393847465515137,-64,9930.0
1290,0.3279203176498413,40.255149841308594,599,6369.0,3.4229400157928467,195,9930.0
1300,0.32759952545166016,24.372648239135742,309,6369.0,12.020219802856445,214,9930.0
1310,0.32757535576820374,0.1260792464017868,-98,6369.0,14.271774291992188,206,9930.0
1320,0.3277389407157898,-26.799135208129883,-493,6369.0,15.369301795959473,93,9930.0
1330,0.32730749249458313,-41.41879653930664,-722,6369.0,15.69278621673584,323,9930.0
1340,0.32680651545524597,-41.569091796875,-760,6369.0,13.611351013183594,307,9930.0
1350,0.3260665237903595,-37.893714904785156,-524,6369.0,11.841148376464844,120,9930.0
1360,0.32572343945503235,-24.799467086791992,-318,6369.0,4.5076212882995605,-50,9930.0
1370,0.32636719942092896,-10.997343063354492,-197,6369.0,-6.818122386932373,-19,9930.0
1380,0.3260672092437744,0.16843914985656738,123,6369.0,-13.23363971710205,-404,9930.0
1390,0.32581061124801636,3.351027488708496,53,6369.0,-22.4414119720459,-387,9930.0
1400,0.32575374841690063,1.6520349979400635,-51,6369.0,-33.597496032714844,-533,9930.0
1410,0.3255288004875183,-0.9571291208267212,62,6369.0,-37.9324836730957,-718,9930.0
1420,0.3257822096347809,-3.2523815631866455,-8,6369.0,-30.29848289489746,-492,9930.0
1430,0.32614004611968994,-1.7958312034606934,-104,6369.0,-15.00522518157959,-49,9930.0
1440,0.32716861367225647,-3.416300058364868,-90,6369.0,0.04618259519338608,95,9930.0
1450,0.32763782143592834,-3.1580233573913574,-37,6369.0,11.336234092712402,193,9930.0
1460,0.32786720991134644,-5.928096771240234,-83,6369.0,20.514179229736328,354,9930.0
1470,0.3284494876861572,-3.555799722671509,-138,6369.0,24.276649475097656,444,9930.0
1480,0.32907411456108093,0.11954066902399063,5,6369.0,29.061565399169922,527,9930.0
1490,0.3297463655471802,-2.510993480682373,-63,6369.0,31.162307739257812,443,9930.0
1500,0.32985639572143555,-2.4165663719177246,-14,6369.0,25.468338012695312,393,9930.0
1510,0.3302171528339386,2.4061520099639893,51,6369.0,19.56970977783203,396,9930.0
1520,0.3304055631160736,6.296210765838623,155,6369.0,14.645724296569824,52,9930.0
1530,0.3301905691623688,14.154003143310547,192,6369.0,7.3753342628479,269,9930.0
1540,0.32991766929626465,22.306352615356445,462,6369.0,0.009526274167001247,-219,9930.0
1550,0.3292630612850189,28.987743377685547,493,6369.0,-14.68193531036377,-255,9930.0
1560,0.3285846710205078,31.443477630615234,450,6369.0,-26.078662872314453,-430,9930.0
1570,0.3276076912879944,31.263408660888672,605,6369.0,-36.691505432128906,-755,9930.0
1580,0.3262300491333008,22.425207138061523,282,6369.0,-47.24622344970703,-852,9930.0
1590,0.3260178565979004,5.610950946807861,-54,6369.0,-45.665645599365234,-549,9930.0
1600,0.3248548209667206,-15.124897956848145,-331,6369.0,-32.9512939453125,-458,9930.0
1610,0.32375919818878174,-24.30807876586914,-358,6369.0,-20.380075454711914,-321,9930.0
1620,0.32265743613243103,-24.159177780151367,-272,6369.0,-8.988065719604492,-223,9930.0
1630,0.3260665237903595,-19.105756759643555,-344,6369.0,-2.5604138374328613,42,9930.0
1640,0.32520022988319397,-13.161099433898926,-178,6369.0,7.0115275382995605,247,9930.0
1650,0.32447731494903564,2.5502395629882812,150,6369.0,14.459863662719727,242,9930.0
1660,0.32395094633102417,13.849963188171387,348,6369.0,16.68041229248047,187,9930.0
1670,0.3235693871974945,17.848875045776367,247,6369.0,16.807769775390625,273,9930.0
1680,0.3242226243019104,16.121122360229492,154,6369.0,11.453564643859863,187,9930.0
1690,0.32407987117767334,2.0775554180145264,38,6369.0,-1.110231876373291,-116,9930.0
1700,0.3239791691303253,-9.261120796203613,-174,6369.0,-10.502219200134277,-305,9930.0
1710,0.32390668988227844,-20.37175941467285,-460,6369.0,-11.116226196289062,-71,9930.0
1720,0.3267085552215576,-29.236661911010742,-649,6369.0,-3.387129306793213,160,9930.0
1730,0.32684025168418884,-39.742523193359375,-599,6369.0,10.739463806152344,175,9930.0
1740,0.3270438313484192,-46.16925048828125,-809,6369.0,14.414605140686035,295,9930.0
1750,0.32708680629730225,-47.397090911865234,-786,6369.0,17.41634750366211,381,9930.0
1760,0.32709747552871704,-35.45448684692383,-402,6369.0,15.251030921936035,134,9930.0
1770,0.32910796999931335,-15.029410362243652,-264,6369.0,8.81351089477539,158,9930.0
1780,0.329550176858902,1.8655565977096558,197,6369.0,3.9149699211120605,-1,9930.0
1790,0.3296288251876831,21.112628936767578,361,6369.0,-5.43039608001709,-161,9930.0
1800,0.3298540413379669,34.674686431884766,633,6369.0,-15.38237476348877,-351,9930.0
1810,0.3309607207775116,46.06376266479492,774,6369.0,-24.43396759033203,-445,9930.0
1820,0.33095306158065796,53.49690628051758,941,6369.0,-32.77113342285156,-528,9930.0
1830,0.33066481351852417,52.76435089111328,843,6369.0,-34.81746292114258,-591,9930.0
1840,0.33027568459510803,39.751136779785156,496,6369.0,-31.666744232177734,-449,9930.0
1850,0.3307938575744629,19.45075225830078,242,6369.0,-20.050716400146484,-152,9930.0
1860,0.33076098561286926,5.610101222991943,80,6369.0,2.143209218978882,86,9930.0
1870,0.33063367009162903,-3.8404157161712646,3,6369.0,19.808452606201172,270,9930.0
1880,0.33058446645736694,-11.51738166809082,-162,6369.0,40.63360595703125,654,9930.0
1890,0.3306652307510376,-18.829761505126953,-334,6369.0,54.63016128540039,899,9930.0
1900,0.3296462893486023,-23.11513328552246,-434,6369.0,58.93331527709961,1117,9930.0
1910,0.32957276701927185,-17.396949768066406,-191,6369.0,54.85287094116211,791,9930.0
1920,0.32955843210220337,-5.616667747497559,-21,6369.0,41.48807144165039,610,9930.0
1930,0.3298596739768982,1.9776784181594849,-70,6369.0,26.92144203186035,532,9930.0
1940,0.33019381761550903,1.545641303062439,124,6369.0,13.744216918945312,52,9930.0
1950,0.33052560687065125,0.5296501517295837,-40,6369.0,-4.075723648071289,-148,9930.0
1960,0.3309389054775238,-5.89329195022583,-215,6369.0,-26.612062454223633,-397,9930.0
1970,0.3313819468021393,-16.84088897705078,-225,6369.0,-38.53954315185547,-826,9930.0
1980,0.33101314306259155,-22.612632751464844,-396,6369.0,-43.617435455322266,-666,9930.0
1990,0.3309863209724426,-27.88965606689453,-501,6369.0,-37.87186813354492,-611,9930.0
2000,0.33082446455955505,-30.616558074951172,-468,6369.0,-25.19864845275879,-338,9930.0
2010,0.33043476939201355,-23.334369659423828,-309,6369.0,-17.74384880065918,-336,9930.0
2020,0.33013761043548584,-10.761940002441406,-154,6369.0,-11.934773445129395,-221,9930.0
2030,0.33065202832221985,1.4735671281814575,92,6369.0,-7.830202579498291,-50,9930.0
2040,0.3307211995124817,20.601539611816406,466,6369.0,-7.5963850021362305,-221,9930.0
2050,0.3308134377002716,32.31926727294922,543,6369.0,-6.590429782867432,-141,9930.0
2060,0.33072444796562195,36.93852233886719,550,6369.0,-9.046030044555664,-235,9930.0
2070,0.3304646611213684,31.656902313232422,570,6369.0,-6.523035526275635,-164,9930.0
2080,0.33029627799987793,29.001197814941406,451,6369.0,1.7272038459777832,-28,9930.0
2090,0.3298815190792084,25.232547760009766,280,6369.0,10.114216804504395,257,9930.0
2100,0.32992199063301086,16.886852264404297,178,6369.0,20.732431411743164,443,9930.0
2110,0.3295341730117798,13.477957725524902,189,6369.0,28.883968353271484,455,9930.0
2120,0.32978421449661255,6.453678607940674,136,6369.0,36.21403121948242,480,9930.0
2130,0.3295705020427704,-1.7237765789031982,-158,6369.0,37.71989059448242,666,9930.0
2140,0.3293033540248871,-11.916082382202148,-215,6369.0,31.97551918029785,483,9930.0
2150,0.3292222321033478,-21.396373748779297,-363,6369.0,11.4484281539917,-158,9930.0
2160,0.3277454972267151,-26.722177505493164,-382,6369.0,-16.338029861450195,-370,9930.0
2170,0.3280928134918213,-24.09040641784668,-402,6369.0,-42.11409378051758,-749,9930.0
2180,0.32793593406677246,-20.245450973510742,-374,6369.0,-51.77041244506836,-787,9930.0
2190,0.32771551609039307,-25.210813522338867,-345,6369.0,-45.31108474731445,-834,9930.0
2200,0.3268992304801941,-25.213407516479492,-463,6369.0,-31.449914932250977,-370,9930.0
2210,0.326758474111557,-23.35561752319336,-394,6369.0,-18.057470321655273,-203,9930.0
2220,0.32649722695350647,-16.915924072265625,-154,6369.0,-3.994563341140747,-120,9930.0
2230,0.3264777362346649,-7.32900857925415,-96,6369.0,0.9550539255142212,92,9930.0
2240,0.32705163955688477,5.8255205154418945,131,6369.0,0.6038774251937866,-31,9930.0
2250,0.32949355244636536,17.437416076660156,361,6369.0,4.5211262702941895,34,9930.0
2260,0.32966309785842896,23.327085494995117,324,6369.0,11.904431343078613,310,9930.0
2270,0.3296535611152649,18.63141441345215,291,6369.0,20.819047927856445,305,9930.0
2280,0.32970285415649414,16.828359603881836,283,6369.0,17.506973266601562,185,9930.0
2290,0.3301350772380829,17.373659133911133,309,6369.0,4.311466693878174,91,9930.0
2300,0.32999369502067566,22.777446746826172,367,6369.0,-1.2270535230636597,-30,9930.0
2310,0.32980552315711975,20.22358512878418,307,6369.0,-2.703540086746216,-108,9930.0
2320,0.3295731246471405,12.06518268585205,134,6369.0,4.231740474700928,110,9930.0
2330,0.3297727108001709,6.262069225311279,109,6369.0,12.753870010375977,292,9930.0
2340,0.3294130861759186,9.842916488647461,183,6369.0,22.62394905090332,444,9930.0
2350,0.32922008633613586,12.336224555969238,244,6369.0,34.60600662231445,576,9930.0
2360,0.32899561524391174,16.50144386291504,325,6369.0,40.61981964111328,602,9930.0
2370,0.3284769654273987,20.037355422973633,286,6369.0,39.27822494506836,770,9930.0
2380,0.3275673985481262,16.14969825744629,200,6369.0,34.28837585449219,429,9930.0
2390,0.3287941813468933,4.120479106903076,43,6369.0,17.72091293334961,11,9930.0
2400,0.32880765199661255,-11.79328441619873,-347,6369.0,-4.66728401184082,-124,9930.0
2410,0.3291565179824829,-26.278467178344727,-543,6369.0,-19.627593994140625,-411,9930.0
2420,0.3291308581829071,-45.69792175292969,-838,6369.0,-35.519657135009766,-638,9930.0
2430,0.3262461721897125,-55.283199310302734,-847,6369.0,-53.1210823059082,-1055,9930.0
2440,0.3257080018520355,-52.83653259277344,-807,6369.0,-58.73580551147461,-965,9930.0
2450,0.32528072595596313,-40.040523529052734,-589,6369.0,-48.535892486572266,-602,9930.0
2460,0.32526543736457825,-24.49063491821289,-369,6369.0,-25.957359313964844,-181,9930.0
2470,0.32844725251197815,-4.910980701446533,50,6369.0,-2.8823835849761963,57,9930.0
2480,0.32846197485923767,9.9757719039917,209,6369.0,25.740610122680664,422,9930.0
2490,0.3289613425731659,17.10960578918457,225,6369.0,43.4106330871582,869,9930.0
2500,0.3292995095252991,17.878528594970703,343,6369.0,46.319908142089844,675,9930.0
2510,0.32911217212677,18.240982055664062,313,6369.0,37.023193359375,521,9930.0
2520,0.3289490342140198,22.167112350463867,343,6369.0,25.367834091186523,435,9930.0
2530,0.328639954328537,22.42485237121582,413,6369.0,16.690654754638672,110,9930.0
2540,0.32833266258239746,20.126243591308594,323,6369.0,-1.1042438745498657,-30,9930.0
2550,0.3278639018535614,14.352133750915527,171,6369.0,-17.35737419128418,-361,9930.0
2560,0.3282058537006378,9.923114776611328,179,6369.0,-29.421573638916016,-508,9930.0
2570,0.32753992080688477,6.86038064956665,68,6369.0,-30.753883361816406,-485,9930.0
2580,0.32674774527549744,5.575016021728516,88,6369.0,-25.121910095214844,-304,9930.0
2590,0.3259102404117584,8.631768226623535,178,6369.0,-12.517870903015137,-202,9930.0
2600,0.32582199573516846,4.58418083190918,68,6369.0,-4.070866584777832,-134,9930.0
2610,0.3251890242099762,-5.274609088897705,-171,6369.0,-3.5127100944519043,-28,9930.0
2620,0.324684739112854,-11.538662910461426,-264,6369.0,8.563374519348145,364,9930.0
2630,0.3241467773914337,-12.270761489868164,-109,6369.0,17.294322967529297,239,9930.0
2640,0.32544809579849243,-3.8585357666015625,26,6369.0,21.655155181884766,154,9930.0
2650,0.324901819229126,3.8112025260925293,-15,6369.0,12.188236236572266,252,9930.0
2660,0.32434678077697754,6.216655731201172,64,6369.0,0.2584396004676819,45,9930.0
2670,0.32393836975097656,1.5293564796447754,48,6369.0,-11.22614860534668,-336,9930.0
2680,0.32367631793022156,-10.70977783203125,-294,6369.0,-15.13809585571289,-225,9930.0
2690,0.32721146941185,-29.07919692993164,-567,6369.0,-9.296951293945312,38,9930.0
2700,0.32694604992866516,-40.460723876953125,-644,6369.0,-2.537130117416382,-68,9930.0
2710,0.3263963460922241,-37.443355560302734,-565,6369.0,-0.1914086788892746,-20,9930.0
2720,0.3263038098812103,-20.508012771606445,-231,6369.0,-3.2119758129119873,-24,9930.0
2730,0.32929378747940063,5.069321155548096,291,6369.0,-8.294736862182617,-288,9930.0
2740,0.32888516783714294,31.30547332763672,541,6369.0,-16.473331451416016,-203,9930.0
2750,0.328469842672348,47.6873893737793,836,6369.0,-19.85889434814453,-373,9930.0
2760,0.3279227614402771,56.37253952026367,991,6369.0,-20.481904983520508,-437,9930.0
2770,0.3273233473300934,48.837059020996094,716,6369.0,-24.2187442779541,-380,9930.0
2780,0.33015546202659607,32.02665328979492,346,6369.0,-18.840923309326172,-168,9930.0
2790,0.32948949933052063,4.744496822357178,-40,6369.0,-10.040452003479004,-19,9930.0
2800,0.329272985458374,-16.985469818115234,-307,6369.0,3.0659852027893066,60,9930.0
2810,0.32885077595710754,-25.75511360168457,-427,6369.0,21.25135612487793,358,9930.0
2820,0.3301253318786621,-26.2283935546875,-427,6369.0,30.901784896850586,571,9930.0
2830,0.32983487844467163,-19.90738296508789,-264,6369.0,40.279693603515625,765,9930.0
2840,0.3295997679233551,-10.970497131347656,-119,6369.0,52.059654235839844,775,9930.0
2850,0.3293614089488983,-4.613419532775879,-31,6369.0,48.804908752441406,829,9930.0
2860,0.32987937331199646,4.43745756149292,13,6369.0,35.06972122192383,596,9930.0
2870,0.32844871282577515,7.417412281036377,234,6369.0,21.7968807220459,191,9930.0
2880,0.32852107286453247,9.83901596069336,78,6369.0,7.041738986968994,71,9930.0
2890,0.32884150743484497,6.0457024574279785,89,6369.0,-12.651402473449707,-269,9930.0
2900,0.3289251923561096,5.930698871612549,177,6369.0,-30.156789779663086,-697,9930.0
2910,0.32965198159217834,1.179361343383789,-66,6369.0,-43.54462432861328,-712,9930.0
2920,0.3299573063850403,-10.532151222229004,-299,6369.0,-43.91621780395508,-690,9930.0
2930,0.33022260665893555,-28.54281234741211,-555,6369.0,-35.418880462646484,-434,9930.0
2940,0.33026954531669617,-42.67356872558594,-720,6369.0,-20.482173919677734,-212,9930.0
2950,0.3323536217212677,-40.38069152832031,-517,6369.0,9.115049362182617,184,9930.0
2960,0.33252763748168945,-22.542001724243164,-282,6369.0,32.917633056640625,701,9930.0
2970,0.3327813148498535,-8.420742988586426,-100,6369.0,46.93952178955078,840,9930.0
2980,0.33286556601524353,8.419909477233887,314,6369.0,43.44617462158203,554,9930.0
2990,0.3331835865974426,29.342350006103516,465,6369.0,26.519020080566406,529,9930.0
3000,0.33218905329704285,39.35377883911133,750,6369.0,7.507429599761963,-176,9930.0
3010,0.33200135827064514,39.94634246826172,598,6369.0,-14.98029899597168,-318,9930.0
3020,0.33160942792892456,31.287595748901367,395,6369.0,-39.99406814575195,-713,9930.0
3030,0.33097347617149353,16.561481475830078,183,6369.0,-50.76689910888672,-994,9930.0
3040,0.330414354801178,-0.4484077990055084,-104,6369.0,-56.306602478027344,-857,9930.0
3050,0.3299463391304016,-12.24693489074707,-262,6369.0,-50.76221466064453,-683,9930.0
3060,0.32888853549957275,-14.196500778198242,-124,6369.0,-33.9148063659668,-422,9930.0
3070,0.32790207862854004,-4.2105937004089355,11,6369.0,-3.5623435974121094,189,9930.0
3080,0.3279881179332733,7.579055309295654,271,6369.0,30.53527069091797,717,9930.0
3090,0.327473521232605,24.360841751098633,359,6369.0,54.57807159423828,1165,9930.0
3100,0.32745125889778137,23.90000343322754,366,6369.0,70.92039489746094,1302,9930.0
3110,0.3271859884262085,11.508485794067383,153,6369.0,73.97423553466797,1098,9930.0
3120,0.32687339186668396,1.9240018129348755,-70,6369.0,60.638206481933594,925,9930.0
3130,0.3262292742729187,-11.465926170349121,-249,6369.0,32.14139175415039,422,9930.0
3140,0.3262384533882141,-24.639049530029297,-380,6369.0,3.2165889739990234,-251,9930.0
3150,0.3263891339302063,-25.782161712646484,-464,6369.0,-26.262964248657227,-391,9930.0
3160,0.32678744196891785,-21.45150375366211,-296,6369.0,-48.4138069152832,-967,9930.0
3170,0.3277563154697418,-14.767123222351074,-235,6369.0,-63.69081497192383,-1100,9930.0
3180,0.327911913394928,-16.146442413330078,-333,6369.0,-62.424007415771484,-865,9930.0
3190,0.3279963433742523,-24.39359474182129,-401,6369.0,-46.78741455078125,-768,9930.0
3200,0.32793691754341125,-28.9094181060791,-507,6369.0,-34.524009704589844,-522,9930.0
3210,0.32854771614074707,-31.968374252319336,-611,6369.0,-20.15264129638672,-106,9930.0
3220,0.33065587282180786,-27.28778839111328,-444,6369.0,-2.764836549758911,95,9930.0
3230,0.3306272327899933,-16.05890655517578,-187,6369.0,14.421319961547852,309,9930.0
3240,0.33112475275993347,3.1797494888305664,156,6369.0,27.57649040222168,441,9930.0
3250,0.33095407485961914,27.579885482788086,531,6369.0,31.399585723876953,525,9930.0
3260,0.33330991864204407,51.558082580566406,954,6369.0,24.759986877441406,343,9930.0
3270,0.3332650661468506,64.00801849365234,1047,6369.0,15.666051864624023,254,9930.0
3280,0.33311769366264343,60.486385345458984,967,6369.0,9.356245994567871,88,9930.0
3290,0.3325285017490387,40.71720504760742,536,6369.0,2.4320194721221924,39,9930.0
3300,0.333073228597641,10.634973526000977,-5,6369.0,-2.519674777984619,40,9930.0
3310,0.33240076899528503,-17.433462142944336,-334,6369.0,-1.8487566709518433,-19,9930.0
3320,0.331707626581192,-33.70176696777344,-540,6369.0,4.71747350692749,-69,9930.0
3330,0.33087158203125,-34.98267364501953,-609,6369.0,3.0463149547576904,260,9930.0
3340,0.3299817740917206,-26.728496551513672,-363,6369.0,-0.3862445652484894,-150,9930.0
3350,0.3282884955406189,-16.390657424926758,-177,6369.0,-11.05483341217041,-202,9930.0
3360,0.3274936378002167,-6.366418838500977,-42,6369.0,-17.128393173217773,-322,9930.0
3370,0.326804518699646,10.125834465026855,223,6369.0,-19.423049926757812,-332,9930.0
3380,0.32636263966560364,16.563467025756836,247,6369.0,-15.962766647338867,-232,9930.0
3390,0.3267928957939148,13.773563385009766,240,6369.0,-11.551538467407227,-169,9930.0
3400,0.3267344832420349,6.197544574737549,52,6369.0,-9.010905265808105,-153,9930.0
3410,0.3268968462944031,-4.993472576141357,-127,6369.0,-4.572866916656494,-29,9930.0
3420,0.32723912596702576,-13.388885498046875,-278,6369.0,-0.8361486792564392,74,9930.0
3430,0.32783210277557373,-20.647153854370117,-368,6369.0,3.325071334838867,1,9930.0
3440,0.32869699597358704,-32.3125114440918,-498,6369.0,5.62355375289917,-7,9930.0
3450,0.3294013440608978,-34.08671951293945,-563,6369.0,6.621360778808594,88,9930.0
3460,0.3306995630264282,-24.217304229736328,-359,6369.0,10.469386100769043,290,9930.0
3470,0.3315381407737732,-6.043637275695801,53,6369.0,14.738686561584473,143,9930.0
3480,0.3324349522590637,10.496477127075195,132,6369.0,17.483135223388672,412,9930.0
3490,0.3329525291919708,24.33193588256836,477,6369.0,26.93377685546875,449,9930.0
3500,0.33335599303245544,33.159950256347656,617,6369.0,36.98405456542969,640,9930.0
3510,0.3335171937942505,42.44798278808594,616,6369.0,39.98011779785156,730,9930.0
3520,0.3325428366661072,41.72262954711914,763,6369.0,33.14323043823242,373,9930.0
3530,0.3320465683937073,36.803165435791016,543,6369.0,21.164884567260742,324,9930.0
3540,0.3317866027355194,28.799110412597656,367,6369.0,6.720371723175049,112,9930.0
3550,0.33113858103752136,16.7132511138916,300,6369.0,-7.027588844299316,-288,9930.0
3560,0.33046144247055054,2.1321539878845215,-68,6369.0,-20.52309799194336,-412,9930.0
3570,0.3298274278640747,-15.9015474319458,-398,6369.0,-31.890850067138672,-372,9930.0
3580,0.32908621430397034,-28.07421112060547,-483,6369.0,-34.292484283447266,-579,9930.0
3590,0.32830384373664856,-33.53013610839844,-465,6369.0,-29.638505935668945,-564,9930.0
3600,0.32751134037971497,-28.502180099487305,-464,6369.0,-19.346071243286133,-281,9930.0
3610,0.32725271582603455,-20.391225814819336,-317,6369.0,-10.108494758605957,67,9930.0
3620,0.32647716999053955,-9.17581844329834,-113,6369.0,10.054730415344238,264,9930.0
3630,0.3261381983757019,0.7851834297180176,109,6369.0,25.15456199645996,465,9930.0
3640,0.32630881667137146,8.35887622833252,163,6369.0,36.548301696777344,604,9930.0
3650,0.32637783885002136,12.858464241027832,211,6369.0,35.41166305541992,504,9930.0
3660,0.32720431685447693,14.04646110534668,198,6369.0,24.452802658081055,299,9930.0
3670,0.32767194509506226,8.266481399536133,130,6369.0,6.325563430786133,-57,9930.0
3680,0.32811474800109863,1.4556111097335815,-60,6369.0,-12.39592170715332,-282,9930.0
3690,0.3287373185157776,-7.332049369812012,-151,6369.0,-25.083911895751953,-328,9930.0
3700,0.32872477173805237,-5.144219875335693,17,6369.0,-21.89055633544922,-485,9930.0
3710,0.32892292737960815,-2.0246965885162354,-70,6369.0,-18.482206344604492,-271,9930.0
3720,0.32894569635391235,-4.996540546417236,-106,6369.0,-8.405610084533691,55,9930.0
3730,0.328891783952713,-3.0255799293518066,53,6369.0,-4.268624305725098,-180,9930.0
3740,0.33105623722076416,-1.0165166854858398,3,6369.0,-0.3482688069343567,94,9930.0
3750,0.3308306336402893,-0.6311755776405334,0,6369.0,9.216434478759766,165,9930.0
3760,0.3304246962070465,0.931342363357544,-3,6369.0,17.870031356811523,279,9930.0
3770,0.32983672618865967,3.771690845489502,40,6369.0,25.383594512939453,429,9930.0
3780,0.3290431499481201,5.8532304763793945,144,6369.0,24.82351303100586,331,9930.0
3790,0.32967206835746765,6.347426414489746,25,6369.0,16.282499313354492,308,9930.0
3800,0.32879310846328735,2.8874781131744385,50,6369.0,0.45736339688301086,-171,9930.0
3810,0.32793447375297546,1.8188080787658691,54,6369.0,-22.241201400756836,-440,9930.0
3820,0.32718321681022644,1.569461703300476,-27,6369.0,-39.46736526489258,-671,9930.0
3830,0.3262012004852295,1.9945012331008911,112,6369.0,-47.941036224365234,-812,9930.0
3840,0.32545095682144165,5.05316162109375,64,6369.0,-43.053768157958984,-684,9930.0
3850,0.32470324635505676,4.730230808258057,16,6369.0,-33.072235107421875,-392,9930.0
3860,0.3243085741996765,-4.220271587371826,-97,6369.0,-18.825132369995117,-195,9930.0
3870,0.3245553970336914,-15.008395195007324,-278,6369.0,-3.7689003944396973,-91,9930.0
3880,0.3258252739906311,-15.096627235412598,-214,6369.0,4.038009166717529,6,9930.0
3890,0.3260433077812195,-10.95744514465332,-168,6369.0,3.314517021179199,94,9930.0
3900,0.3263533413410187,-1.8701300621032715,32,6369.0,-0.6368740200996399,13,9930.0
3910,0.32666677236557007,2.9478368759155273,75,6369.0,3.3691463470458984,-51,9930.0
3920,0.3293468654155731,1.678828239440918,-11,6369.0,10.839218139648438,277,9930.0
3930,0.3299056887626648,-7.389554500579834,-158,6369.0,17.022014617919922,424,9930.0
3940,0.3304130733013153,-5.091220855712891,-5,6369.0,18.65574073791504,170,9930.0
3950,0.330876886844635,-2.9459688663482666,-59,6369.0,19.62289047241211,376,9930.0
3960,0.33266350626945496,-2.0437169075012207,-110,6369.0,25.726613998413086,573,9930.0
3970,0.33298155665397644,6.8531951904296875,235,6369.0,25.959096908569336,320,9930.0
3980,0.3330219089984894,17.914485931396484,361,6369.0,22.027769088745117,330,9930.0
3990,0.3328914940357208,24.737123489379883,317,6369.0,18.192960739135742,399,9930.0
4000,0.33271700143814087,19.49102020263672,367,6369.0,16.45522689819336,180,9930.0
4010,0.33086833357810974,9.971681594848633,114,6369.0,8.928303718566895,103,9930.0
4020,0.3306983709335327,0.5034238696098328,-26,6369.0,-2.650970697402954,-88,9930.0
4030,0.3301141858100891,-8.37421703338623,-157,6369.0,-16.739830017089844,-325,9930.0
4040,0.32956671714782715,-11.930109977722168,-171,6369.0,-29.336299896240234,-596,9930.0
4050,0.32902398705482483,-12.226129531860352,-199,6369.0,-36.5802001953125,-575,9930.0
4060,0.3286815881729126,-7.919201850891113,-163,6369.0,-36.76255416870117,-556,9930.0
4070,0.3284108638763428,-4.50911283493042,5,6369.0,-33.429786682128906,-520,9930.0
4080,0.3283884823322296,-2.804137706756592,-40,6369.0,-20.151952743530273,-391,9930.0
4090,0.3289794325828552,-5.342828750610352,-183,6369.0,-5.704964637756348,31,9930.0
4100,0.3297981023788452,-5.675137519836426,-156,6369.0,10.524801254272461,402,9930.0
4110,0.330464243888855,-5.794339179992676,0,6369.0,21.528074264526367,245,9930.0
4120,0.331248015165329,-0.48370105028152466,48,6369.0,17.82327651977539,275,9930.0
4130,0.3321920931339264,0.20360149443149567,-35,6369.0,13.773221969604492,313,9930.0
4140,0.3319462835788727,-4.638063430786133,-151,6369.0,14.687080383300781,246,9930.0
4150,0.3328429162502289,-9.49746036529541,-129,6369.0,12.259172439575195,237,9930.0
4160,0.33365747332572937,-1.232295036315918,104,6369.0,15.377447128295898,111,9930.0
4170,0.3343275189399719,8.993890762329102,100,6369.0,19.550640106201172,396,9930.0
4180,0.3348148763179779,17.07299041748047,267,6369.0,26.16950798034668,468,9930.0
4190,0.3349123001098633,21.69115447998047,432,6369.0,22.180667877197266,232,9930.0
4200,0.33546674251556396,25.327760696411133,405,6369.0,11.190881729125977,124,9930.0
4210,0.3353026807308197,26.051652908325195,415,6369.0,2.7577133178710938,60,9930.0
4220,0.33497732877731323,19.057893753051758,222,6369.0,-2.5819475650787354,-107,9930.0
4230,0.33302995562553406,5.583397388458252,32,6369.0,-6.743908405303955,-179,9930.0
4240,0.3323107063770294,-10.107734680175781,-288,6369.0,-9.814778327941895,-177,9930.0
4250,0.3313524127006531,-25.265377044677734,-497,6369.0,-11.709578514099121,-86,9930.0
4260,0.33034759759902954,-30.787351608276367,-458,6369.0,-13.894866943359375,-306,9930.0
4270,0.3280249536037445,-28.7456111907959,-380,6369.0,-14.345550537109375,-303,9930.0
4280,0.32696229219436646,-17.340822219848633,-324,6369.0,-21.238309860229492,-178,9930.0
4290,0.32650893926620483,-5.888932228088379,41,6369.0,-18.78114128112793,-402,9930.0
4300,0.32594016194343567,6.233885765075684,205,6369.0,-13.583540916442871,-170,9930.0
4310,0.3256198763847351,18.253437042236328,232,6369.0,-4.620255947113037,70,9930.0
4320,0.32520586252212524,21.01824951171875,328,6369.0,0.4545283019542694,64,9930.0
4330,0.3252624273300171,19.274425506591797,255,6369.0,3.0090482234954834,-24,9930.0
4340,0.3254702091217041,13.422501564025879,200,6369.0,5.95591926574707,47,9930.0
4350,0.3257688581943512,7.1156511306762695,176,6369.0,3.381166696548462,-14,9930.0
4360,0.32693642377853394,3.7052693367004395,-66,6369.0,-2.0619380474090576,-12,9930.0
4370,0.32753369212150574,-1.9175050258636475,-86,6369.0,-7.909053802490234,-26,9930.0
4380,0.32824254035949707,-11.072677612304688,-157,6369.0,-8.167338371276855,-202,9930.0
4390,0.32887929677963257,-23.242420196533203,-402,6369.0,-2.50628662109375,-75,9930.0
4400,0.33001580834388733,-30.260250091552734,-539,6369.0,4.6935343742370605,142,9930.0
4410,0.33058303594589233,-30.22346305847168,-479,6369.0,5.826046466827393,57,9930.0
4420,0.330911785364151,-27.940038681030273,-419,6369.0,9.057391166687012,202,9930.0
4430,0.33098965883255005,-19.430116653442383,-230,6369.0,14.745484352111816,220,9930.0
4440,0.3309040069580078,-1.9380446672439575,33,6369.0,14.920797348022461,225,9930.0
4450,0.3320387303829193,19.09771728515625,443,6369.0,6.80482816696167,54,9930.0
4460,0.3320034444332123,36.77241897583008,631,6369.0,-2.8782410621643066,-50,9930.0
4470,0.3318106234073639,43.79722213745117,761,6369.0,-10.01006031036377,-200,9930.0
4480,0.33132535219192505,41.24442672729492,648,6369.0,-13.87277889251709,-261,9930.0
4490,0.32994627952575684,26.178800582885742,268,6369.0,-14.934969902038574,-148,9930.0
4500,0.3293982148170471,-3.8675897121429443,-204,6369.0,-12.83726692199707,-240,9930.0
4510,0.32882392406463623,-27.856313705444336,-513,6369.0,-20.823532104492188,-476,9930.0
4520,0.32836663722991943,-40.32283020019531,-697,6369.0,-27.92976188659668,-427,9930.0
4530,0.32793882489204407,-35.7053108215332,-558,6369.0,-28.433435440063477,-442,9930.0
4540,0.3275071084499359,-20.27029037475586,-180,6369.0,-29.589284896850586,-530,9930.0
4550,0.32722046971321106,-0.37720581889152527,89,6369.0,-23.20555877685547,-305,9930.0
4560,0.3270179033279419,21.056974411010742,374,6369.0,-12.13045597076416,-21,9930.0
4570,0.3271489441394806,38.80854797363281,732,6369.0,7.616801738739014,187,9930.0
4580,0.3288603127002716,47.233421325683594,815,6369.0,21.32830047607422,326,9930.0
4590,0.32968050241470337,32.68231964111328,382,6369.0,35.89240264892578,610,9930.0
4600,0.3307129442691803,7.585637092590332,-48,6369.0,47.19453048706055,920,9930.0
4610,0.33158525824546814,-14.451192855834961,-435,6369.0,51.605712890625,908,9930.0
4620,0.3313124179840088,-33.79017639160156,-526,6369.0,46.212684631347656,677,9930.0
4630,0.3322255313396454,-45.17020797729492,-803,6369.0,34.788963317871094,482,9930.0
4640,0.3330650329589844,-50.54736328125,-788,6369.0,20.999067306518555,312,9930.0
4650,0.3340265154838562,-46.862220764160156,-775,6369.0,11.83344841003418,165,9930.0
4660,0.33482179045677185,-37.5848274230957,-486,6369.0,-2.161073684692383,-200,9930.0
4670,0.3325751721858978,-20.50237274169922,-325,6369.0,-19.086917877197266,-280,9930.0
4680,0.3327612578868866,-3.5065081119537354,76,6369.0,-36.413978576660156,-788,9930.0
4690,0.3329480290412903,8.971333503723145,99,6369.0,-44.492794036865234,-596,9930.0
4700,0.3327348530292511,10.112265586853027,202,6369.0,-44.361995697021484,-753,9930.0
4710,0.33225420117378235,14.51295280456543,254,6369.0,-38.95581817626953,-699,9930.0
4720,0.3318386971950531,21.868268966674805,422,6369.0,-31.88041114807129,-457,9930.0
4730,0.33169078826904297,30.09792137145996,549,6369.0,-27.65771484375,-380,9930.0
4740,0.33077025413513184,41.021141052246094,728,6369.0,-18.786388397216797,-234,9930.0
4750,0.3302236497402191,44.757171630859375,733,6369.0,-2.9124579429626465,-28,9930.0
4760,0.33064061403274536,45.65506362915039,692,6369.0,12.060519218444824,229,9930.0
4770,0.3304566740989685,36.48469543457031,530,6369.0,28.270864486694336,624,9930.0
4780,0.3303140699863434,15.40848159790039,137,6369.0,42.96514129638672,696,9930.0
4790,0.33002960681915283,-9.811012268066406,-189,6369.0,43.48435592651367,674,9930.0
4800,0.3289998769760132,-29.758750915527344,-573,6369.0,39.7100715637207,599,9930.0
4810,0.3286147117614746,-37.782470703125,-657,6369.0,30.141626358032227,533,9930.0
4820,0.32860267162323,-28.962434768676758,-334,6369.0,25.154455184936523,336,9930.0
4830,0.3283335566520691,-10.646803855895996,-170,6369.0,16.47901725769043,184,9930.0
4840,0.3276316821575165,-1.1064393520355225,2,6369.0,7.885494709014893,264,9930.0
4850,0.32754814624786377,8.461173057556152,239,6369.0,5.840723037719727,-68,9930.0
4860,0.3274080753326416,13.822060585021973,213,6369.0,0.7321544885635376,42,9930.0
4870,0.32734012603759766,12.31330394744873,114,6369.0,-9.135396003723145,-216,9930.0
4880,0.32727673649787903,1.818678855895996,0,6369.0,-19.346633911132812,-346,9930.0
4890,0.3286283314228058,-13.023299217224121,-234,6369.0,-27.64616584777832,-550,9930.0
4900,0.3284570574760437,-19.671064376831055,-388,6369.0,-34.83211898803711,-576,9930.0
4910,0.3281235992908478,-29.354644775390625,-559,6369.0,-35.328163146972656,-430,9930.0
4920,0.327604740858078,-31.080848693847656,-454,6369.0,-30.664077758789062,-439,9930.0
4930,0.32930251955986023,-26.4653377532959,-321,6369.0,-18.267126083374023,-322,9930.0
4940,0.3288819491863251,-17.058740615844727,-301,6369.0,-2.639094114303589,226,9930.0
4950,0.3284667432308197,-11.871201515197754,-105,6369.0,11.748726844787598,243,9930.0
4960,0.32779866456985474,-7.800113677978516,-75,6369.0,20.861967086791992,384,9930.0
4970,0.32740962505340576,3.914545774459839,112,6369.0,26.26327133178711,466,9930.0
4980,0.3283253014087677,16.559268951416016,375,6369.0,24.01763343811035,357,9930.0
4990,0.327626496553421,28.936208724975586,564,6369.0,11.015543937683105,22,9930.0
5000,0.32686495780944824,35.9374885559082,577,6369.0,-4.648895740509033,-100,9930.0
5010,0.326224684715271,36.76652908325195,589,6369.0,-21.67890739440918,-461,9930.0
5020,0.3278077244758606,34.77848815917969,574,6369.0,-35.580665588378906,-744,9930.0
5030,0.3274519145488739,28.46776580810547,442,6369.0,-41.92798614501953,-551,9930.0
5040,0.32709819078445435,22.419015884399414,288,6369.0,-34.832008361816406,-470,9930.0
5050,0.32697829604148865,13.293341636657715,288,6369.0,-19.011255264282227,-248,9930.0
5060,0.32878026366233826,9.410111427307129,211,6369.0,4.3491010665893555,75,9930.0
5070,0.3293273448944092,2.9269022941589355,-20,6369.0,24.819684982299805,452,9930.0
5080,0.32981741428375244,-5.57271146774292,-225,6369.0,32.108524322509766,542,9930.0
5090,0.3303070068359375,-15.352667808532715,-274,6369.0,33.51036071777344,566,9930.0
5100,0.33083152770996094,-18.151031494140625,-227,6369.0,27.84464454650879,259,9930.0
5110,0.3316221833229065,-26.438955307006836,-478,6369.0,20.405534744262695,281,9930.0
5120,0.3322286903858185,-35.75189971923828,-676,6369.0,11.284419059753418,226,9930.0
5130,0.3327988088130951,-39.3611946105957,-553,6369.0,-0.41464823484420776,-217,9930.0
5140,0.33354994654655457,-37.389251708984375,-646,6369.0,-15.180366516113281,-220,9930.0
5150,0.33290597796440125,-25.76510238647461,-291,6369.0,-23.6583309173584,-399,9930.0
5160,0.33330267667770386,-1.2558754682540894,107,6369.0,-23.4144287109375,-428,9930.0
5170,0.3332626223564148,20.37954330444336,372,6369.0,-15.592519760131836,-150,9930.0
5180,0.3336484432220459,34.743011474609375,575,6369.0,-3.8454370498657227,93,9930.0
5190,0.3335864841938019,38.678367614746094,594,6369.0,7.34083366394043,120,9930.0
5200,0.3329387903213501,31.92036247253418,502,6369.0,12.170063972473145,152,9930.0
5210,0.3326665461063385,11.331868171691895,55,6369.0,16.315092086791992,300,9930.0
5220,0.33228686451911926,-12.456221580505371,-365,6369.0,17.489770889282227,422,9930.0
5230,0.33205077052116394,-30.076608657836914,-475,6369.0,17.30201530456543,222,9930.0
5240,0.3314572870731354,-37.85649871826172,-584,6369.0,13.435343742370605,175,9930.0
5250,0.33114564418792725,-34.64748001098633,-565,6369.0,9.238739013671875,270,9930.0
5260,0.330648273229599,-11.360462188720703,57,6369.0,2.3183388710021973,-136,9930.0
5270,0.33059465885162354,21.279407501220703,404,6369.0,-6.1375346183776855,-60,9930.0
5280,0.33061519265174866,45.22747802734375,834,6369.0,-13.197278022766113,-248,9930.0
5290,0.33065325021743774,56.392818450927734,975,6369.0,-19.9051570892334,-393,9930.0
5300,0.3306085467338562,46.32933044433594,606,6369.0,-22.020326614379883,-352,9930.0
5310,0.33050215244293213,22.09947395324707,208,6369.0,-19.837005615234375,-254,9930.0
5320,0.33127734065055847,-5.406477451324463,-200,6369.0,-17.47771453857422,-260,9930.0
5330,0.33115044236183167,-27.437816619873047,-486,6369.0,-11.743855476379395,-176,9930.0
5340,0.3315577507019043,-38.63486099243164,-627,6369.0,-1.7890733480453491,-79,9930.0
5350,0.33195027709007263,-38.02921676635742,-604,6369.0,2.412189245223999,95,9930.0
5360,0.33269500732421875,-31.29627227783203,-516,6369.0,5.774195671081543,226,9930.0
5370,0.3330462574958801,-20.90220832824707,-301,6369.0,10.03831672668457,166,9930.0
5380,0.3332829177379608,-10.763666152954102,-79,6369.0,11.39148235321045,67,9930.0
5390,0.3335431218147278,-5.042527198791504,-141,6369.0,6.221951007843018,231,9930.0
5400,0.3341270685195923,-2.9921061992645264,-1,6369.0,-0.14906983077526093,-111,9930.0
5410,0.3344276249408722,3.0593650341033936,152,6369.0,1.422935128211975,10,9930.0
5420,0.3340209126472473,13.463211059570312,197,6369.0,7.048896312713623,328,9930.0
5430,0.3340911269187927,19.668588638305664,358,6369.0,17.29252052307129,251,9930.0
5440,0.3340786099433899,23.8768367767334,414,6369.0,18.7559814453125,325,9930.0
5450,0.33390599489212036,28.401960372924805,487,6369.0,16.2135066986084,201,9930.0
5460,0.33365684747695923,28.45564842224121,446,6369.0,1.7743895053863525,37,9930.0
5470,0.333183616399765,22.62960433959961,340,6369.0,-11.355594635009766,-264,9930.0
5480,0.3326861560344696,7.30618953704834,95,6369.0,-18.145925521850586,-379,9930.0
5490,0.3320767879486084,-10.581343650817871,-297,6369.0,-18.204383850097656,-250,9930.0
5500,0.33050695061683655,-23.74457359313965,-455,6369.0,-11.601366996765137,-37,9930.0
5510,0.32991889119148254,-28.547035217285156,-398,6369.0,-15.893516540527344,-409,9930.0
5520,0.3293546736240387,-25.924724578857422,-340,6369.0,-9.951722145080566,-109,9930.0
5530,0.32895222306251526,-15.38930892944336,-227,6369.0,-6.432246685028076,87,9930.0
5540,0.3285829722881317,2.478160858154297,154,6369.0,3.5771915912628174,97,9930.0
5550,0.32853052020072937,17.3275089263916,362,6369.0,15.173526763916016,252,9930.0
5560,0.3285885751247406,19.41384506225586,260,6369.0,26.73381805419922,495,9930.0
5570,0.328789621591568,16.174291610717773,263,6369.0,24.168861389160156,341,9930.0
5580,0.3292495012283325,14.109993934631348,231,6369.0,8.20864486694336,15,9930.0
5590,0.32897305488586426,9.172061920166016,114,6369.0,-2.2678236961364746,-104,9930.0
5600,0.3294960558414459,-2.8551623821258545,-137,6369.0,-13.861379623413086,-319,9930.0
5610,0.33006763458251953,-10.78873348236084,-284,6369.0,-26.616823196411133,-331,9930.0
5620,0.3306446373462677,-18.499418258666992,-302,6369.0,-31.76778793334961,-558,9930.0
5630,0.331258088350296,-23.838430404663086,-329,6369.0,-29.518430709838867,-513,9930.0
5640,0.33259811997413635,-23.8740291595459,-454,6369.0,-21.711458206176758,-235,9930.0
5650,0.3338225185871124,-23.080446243286133,-363,6369.0,-11.025263786315918,-56,9930.0
5660,0.3348073363304138,-21.716930389404297,-308,6369.0,7.592537879943848,200,9930.0
5670,0.3357509672641754,-18.870939254760742,-244,6369.0,22.249927520751953,369,9930.0
5680,0.33861300349235535,-8.769350051879883,-106,6369.0,28.957876205444336,601,9930.0
5690,0.33987730741500854,0.20969389379024506,-1,6369.0,35.80482864379883,656,9930.0
5700,0.34130629897117615,8.153806686401367,270,6369.0,36.124786376953125,411,9930.0
5710,0.3426431119441986,15.979886054992676,364,6369.0,28.02906036376953,274,9930.0
5720,0.3424232602119446,19.783323287963867,300,6369.0,15.290064811706543,232,9930.0
5730,0.34396931529045105,19.211626052856445,282,6369.0,4.11128044128418,0,9930.0
5740,0.3453180491924286,17.339153289794922,292,6369.0,-5.567185401916504,-176,9930.0
5750,0.3465355932712555,10.901823043823242,202,6369.0,-11.084320068359375,-282,9930.0
5760,0.3475697934627533,3.417710781097412,-76,6369.0,-12.332420349121094,-168,9930.0
5770,0.3497232496738434,0.5975086092948914,-36,6369.0,-13.843242645263672,-225,9930.0
5780,0.35048046708106995,5.396361827850342,124,6369.0,-13.567217826843262,-108,9930.0
5790,0.3510003387928009,14.991659164428711,201,6369.0,-16.7464656829834,-114,9930.0
5800,0.35135316848754883,16.314815521240234,323,6369.0,-18.09048080444336,-425,9930.0
5810,0.3520679175853729,11.940646171569824,161,6369.0,-18.007829666137695,-342,9930.0
5820,0.35203635692596436,2.3620829582214355,43,6369.0,-20.1882266998291,-464,9930.0
5830,0.3518163561820984,-5.895316123962402,-157,6369.0,-23.358158111572266,-417,9930.0
5840,0.35138431191444397,-14.007122039794922,-306,6369.0,-28.655359268188477,-465,9930.0
5850,0.3509516716003418,-16.544435501098633,-338,6369.0,-26.895061492919922,-447,9930.0
5860,0.3518369495868683,-16.211223602294922,-247,6369.0,-21.219802856445312,-236,9930.0
5870,0.3511568605899811,-13.166831016540527,-257,6369.0,-19.83376693725586,-175,9930.0
5880,0.35035184025764465,-4.900895118713379,-7,6369.0,-10.247535705566406,-78,9930.0
5890,0.34931331872940063,7.825588226318359,96,6369.0,3.0384273529052734,218,9930.0
5900,0.3524690270423889,19.229150772094727,304,6369.0,22.55636215209961,405,9930.0
5910,0.35146626830101013,17.81963348388672,314,6369.0,36.49388885498047,622,9930.0
5920,0.35038891434669495,8.979510307312012,23,6369.0,44.10371780395508,808,9930.0
5930,0.34915024042129517,-2.0039024353027344,-78,6369.0,49.29929733276367,806,9930.0
5940,0.34876763820648193,-9.523236274719238,-121,6369.0,50.059547424316406,825,9930.0
5950,0.34767505526542664,-10.580588340759277,-92,6369.0,39.77100372314453,481,9930.0
5960,0.34686076641082764,-5.480125904083252,-97,6369.0,22.93349266052246,400,9930.0
5970,0.3461230397224426,0.806359589099884,29,6369.0,0.6131222248077393,-131,9930.0
5980,0.3458932042121887,4.350067138671875,112,6369.0,-24.06513023376465,-472,9930.0
5990,0.3445530831813812,3.019866466522217,53,6369.0,-36.853797912597656,-656,9930.0
6000,0.3446986973285675,-0.4063403010368347,53,6369.0,-38.960899353027344,-731,9930.0
6010,0.34522485733032227,-2.999601125717163,10,6369.0,-30.10428810119629,-479,9930.0
6020,0.3462221324443817,-3.3796346187591553,-6,6369.0,-17.816049575805664,-252,9930.0
6030,0.34681496024131775,-0.2829491198062897,-79,6369.0,-7.886905670166016,-45,9930.0
6040,0.3481997847557068,-3.7044687271118164,-65,6369.0,5.09377384185791,173,9930.0
6050,0.3498338758945465,-6.779303073883057,-119,6369.0,14.103287696838379,318,9930.0
6060,0.3517359793186188,-6.474161148071289,-82,6369.0,16.00353240966797,211,9930.0
6070,0.35394012928009033,-7.849912643432617,-72,6369.0,17.076147079467773,219,9930.0
6080,0.35585910081863403,3.3848636150360107,187,6369.0,14.030498504638672,88,9930.0
6090,0.3576180338859558,12.670278549194336,146,6369.0,4.33441162109375,152,9930.0
6100,0.35915741324424744,19.152910232543945,329,6369.0,5.11277437210083,118,9930.0
6110,0.36053144931793213,17.53902816772461,238,6369.0,9.89743423461914,249,9930.0
6120,0.3595176041126251,18.313491821289062,327,6369.0,11.431737899780273,162,9930.0
6130,0.3601606488227844,8.598766326904297,89,6369.0,9.73352336883545,137,9930.0
6140,0.3604438304901123,2.97111177444458,74,6369.0,5.1117095947265625,-42,9930.0
6150,0.3604278862476349,-5.281735897064209,-149,6369.0,5.8960862159729,116,9930.0
6160,0.3588676154613495,-11.01111888885498,-242,6369.0,8.413863182067871,27,9930.0
6170,0.358114629983902,-10.414358139038086,-217,6369.0,6.224397659301758,236,9930.0
6180,0.35710659623146057,-9.198776245117188,-146,6369.0,6.2850751876831055,159,9930.0
6190,0.35582417249679565,-8.872119903564453,-154,6369.0,4.216744422912598,125,9930.0
6200,0.354128360748291,-2.4471054077148438,70,6369.0,1.2066960334777832,-232,9930.0
6210,0.35044315457344055,0.049233756959438324,45,6369.0,-8.409454345703125,-177,9930.0
6220,0.34819260239601135,0.5257753729820251,-19,6369.0,-14.359122276306152,-233,9930.0
6230,0.3459380865097046,-1.679182767868042,-101,6369.0,-22.034433364868164,-356,9930.0
6240,0.3435494005680084,-0.8650417923927307,52,6369.0,-29.774744033813477,-593,9930.0
6250,0.34199047088623047,-0.5186681151390076,12,6369.0,-25.857038497924805,-330,9930.0
6260,0.33974727988243103,4.2377705574035645,55,6369.0,-8.462907791137695,-46,9930.0
6270,0.33777230978012085,6.526157855987549,128,6369.0,5.936785697937012,196,9930.0
6280,0.33645686507225037,-0.2010195553302765,-51,6369.0,16.698604583740234,294,9930.0
6290,0.3353654146194458,-8.664728164672852,-189,6369.0,15.622056007385254,256,9930.0
6300,0.334967702627182,-10.271538734436035,-123,6369.0,4.04239559173584,-58,9930.0
6310,0.3348819613456726,-9.66506576538086,-77,6369.0,-17.57068634033203,-435,9930.0
6320,0.33514368534088135,-8.987446784973145,-128,6369.0,-35.39360427856445,-580,9930.0
6330,0.33555975556373596,-12.659542083740234,-277,6369.0,-38.71825408935547,-489,9930.0
6340,0.3371475636959076,-16.762922286987305,-237,6369.0,-31.634540557861328,-621,9930.0
6350,0.33783403038978577,-16.943082809448242,-242,6369.0,-21.990633010864258,-298,9930.0
6360,0.338490754365921,-9.216757774353027,-141,6369.0,-11.862141609191895,22,9930.0
6370,0.3388201892375946,-1.9095306396484375,121,6369.0,4.137453556060791,40,9930.0
6380,0.341653972864151,9.819366455078125,215,6369.0,22.754047393798828,374,9930.0
6390,0.34168797731399536,22.09075355529785,367,6369.0,37.60841369628906,805,9930.0
6400,0.3417969346046448,37.05984878540039,716,6369.0,46.66214370727539,708,9930.0
6410,0.3416461646556854,41.83428955078125,679,6369.0,47.69835662841797,777,9930.0
6420,0.3412282168865204,36.18722915649414,452,6369.0,41.725486755371094,701,9930.0
6430,0.3403160870075226,25.33321189880371,443,6369.0,27.174121856689453,331,9930.0
6440,0.3396904468536377,14.52134895324707,177,6369.0,11.038972854614258,67,9930.0
6450,0.33879655599594116,4.202280521392822,13,6369.0,-5.4713640213012695,-100,9930.0
6460,0.3378422260284424,-8.038538932800293,-195,6369.0,-20.098186492919922,-320,9930.0
6470,0.3337703347206116,-13.153542518615723,-200,6369.0,-28.599048614501953,-502,9930.0
6480,0.33223703503608704,-13.670490264892578,-156,6369.0,-29.525436401367188,-572,9930.0
6490,0.3304591774940491,-10.680328369140625,-202,6369.0,-25.135042190551758,-328,9930.0
6500,0.32844212651252747,-3.5616912841796875,-61,6369.0,-9.648299217224121,23,9930.0
6510,0.32657650113105774,3.86452317237854,160,6369.0,6.094014644622803,81,9930.0
6520,0.3230922520160675,7.60745096206665,126,6369.0,21.189937591552734,326,9930.0
6530,0.3214363157749176,11.152993202209473,136,6369.0,20.855131149291992,494,9930.0
6540,0.31949034333229065,15.050129890441895,249,6369.0,11.309113502502441,90,9930.0
6550,0.317493200302124,15.700551986694336,251,6369.0,-5.456625461578369,-214,9930.0
6560,0.3142891228199005,5.8325066566467285,53,6369.0,-17.348461151123047,-292,9930.0
6570,0.3120909631252289,-8.193892478942871,-131,6369.0,-20.763574600219727,-361,9930.0
6580,0.30984529852867126,-21.10406494140625,-361,6369.0,-13.656306266784668,-272,9930.0
6590,0.30763891339302063,-29.69724464416504,-558,6369.0,4.868623733520508,208,9930.0
6600,0.30540814995765686,-28.419769287109375,-464,6369.0,27.65201759338379,591,9930.0
6610,0.30362987518310547,-24.862062454223633,-380,6369.0,37.0229606628418,612,9930.0
6620,0.30172908306121826,-18.633848190307617,-294,6369.0,45.845096588134766,882,9930.0
6630,0.30004698038101196,-12.640427589416504,-194,6369.0,48.53715133666992,764,9930.0
6640,0.2983019948005676,-7.582267761230469,-31,6369.0,48.645328521728516,747,9930.0
6650,0.2979587912559509,0.1283625364303589,-31,6369.0,47.97620391845703,796,9930.0
6660,0.29670965671539307,1.0580480098724365,89,6369.0,47.46510314941406,741,9930.0
6670,0.2954246997833252,2.235105276107788,10,6369.0,37.11479568481445,524,9930.0
6680,0.2948242127895355,4.755011558532715,17,6369.0,18.70677947998047,304,9930.0
6690,0.29386353492736816,9.986912727355957,255,6369.0,-2.1536924839019775,-198,9930.0
6700,0.29286548495292664,16.85625648498535,393,6369.0,-20.184249877929688,-497,9930.0
6710,0.2920965254306793,24.862701416015625,338,6369.0,-29.554584503173828,-363,9930.0
6720,0.2911374270915985,25.349843978881836,433,6369.0,-32.39594650268555,-547,9930.0
6730,0.29016897082328796,24.01889419555664,313,6369.0,-28.86077880859375,-285,9930.0
6740,0.28986892104148865,18.098424911499023,285,6369.0,-18.056591033935547,-308,9930.0
6750,0.2889004647731781,8.952035903930664,57,6369.0,-4.462740421295166,115,9930.0
6760,0.28819748759269714,-2.3344051837921143,0,6369.0,8.986839294433594,145,9930.0
6770,0.2873472571372986,-7.728309631347656,-179,6369.0,17.522823333740234,400,9930.0
6780,0.2875705361366272,-9.909017562866211,-163,6369.0,21.597482681274414,299,9930.0
6790,0.2868102490901947,-7.082171440124512,-89,6369.0,18.164348602294922,301,9930.0
6800,0.2859382927417755,0.0567430779337883,89,6369.0,7.057145118713379,-54,9930.0
6810,0.28524044156074524,2.995497941970825,68,6369.0,-7.785541534423828,-107,9930.0
6820,0.2850882112979889,0.6895442008972168,7,6369.0,-12.410316467285156,-281,9930.0
6830,0.28454309701919556,-3.6777918338775635,-137,6369.0,-4.036284446716309,52,9930.0
6840,0.2836897373199463,-6.919875621795654,-83,6369.0,7.973190784454346,117,9930.0
6850,0.28306883573532104,-1.6956796646118164,-19,6369.0,13.307085037231445,330,9930.0
6860,0.2822588384151459,3.8804709911346436,128,6369.0,19.7556095123291,429,9930.0
6870,0.28349798917770386,8.497140884399414,177,6369.0,22.051637649536133,421,9930.0
6880,0.28255730867385864,27.084375381469727,619,6369.0,12.018271446228027,62,9930.0
6890,0.28102049231529236,44.356327056884766,709,6369.0,-0.9177975654602051,-28,9930.0
6900,0.27972128987312317,47.43964385986328,761,6369.0,-4.420173645019531,-87,9930.0
6910,0.2791353762149811,33.57743835449219,387,6369.0,0.5433914661407471,157,9930.0
6920,0.2777119576931,9.670283317565918,59,6369.0,11.844103813171387,311,9930.0
6930,0.27603620290756226,-15.404779434204102,-499,6369.0,28.16025161743164,594,9930.0
6940,0.27523931860923767,-33.68230438232422,-558,6369.0,40.77507781982422,641,9930.0
6950,0.27347978949546814,-37.76561737060547,-654,6369.0,44.77616882324219,781,9930.0
6960,0.27175113558769226,-26.09718132019043,-339,6369.0,38.49070358276367,486,9930.0
6970,0.2701977491378784,-7.3179707527160645,-70,6369.0,22.235992431640625,326,9930.0
6980,0.2684725821018219,8.295938491821289,229,6369.0,5.064392566680908,73,9930.0
6990,0.2668743133544922,18.121362686157227,261,6369.0,-10.782652854919434,-212,9930.0
7000,0.26724669337272644,19.799793243408203,285,6369.0,-18.049938201904297,-335,9930.0
7010,0.26588085293769836,17.15308380126953,337,6369.0,-21.5247859954834,-458,9930.0
7020,0.2644706666469574,10.318717002868652,82,6369.0,-17.522502899169922,-224,9930.0
7030,0.26325494050979614,-0.6210660338401794,-26,6369.0,-13.474770545959473,-268,9930.0
7040,0.262270450592041,-7.933199882507324,-238,6369.0,-5.2708048820495605,-6,9930.0
7050,0.2614094316959381,-16.225921630859375,-241,6369.0,0.7359799146652222,-11,9930.0
7060,0.26063671708106995,-18.087501525878906,-384,6369.0,2.677638053894043,100,9930.0
7070,0.2600073516368866,-18.465620040893555,-255,6369.0,1.8811064958572388,-58,9930.0
7080,0.25935250520706177,-17.858333587646484,-349,6369.0,-3.939271926879883,-55,9930.0
7090,0.25922539830207825,-16.525880813598633,-212,6369.0,-13.354077339172363,-288,9930.0
7100,0.2589039206504822,-14.51452350616455,-238,6369.0,-17.29539680480957,-291,9930.0
7110,0.25863683223724365,-12.73760986328125,-214,6369.0,-12.695404052734375,-176,9930.0
7120,0.2584826350212097,-10.717401504516602,-116,6369.0,-3.6904826164245605,-103,9930.0
7130,0.2599375545978546,-17.178678512573242,-352,6369.0,12.758196830749512,310,9930.0
7140,0.2598368227481842,-24.73549461364746,-377,6369.0,26.537399291992188,411,9930.0
7150,0.2600270211696625,-22.401887893676758,-362,6369.0,27.360572814941406,423,9930.0
7160,0.2599811851978302,-7.210563659667969,-68,6369.0,17.15558433532715,239,9930.0
7170,0.25992923974990845,14.259674072265625,366,6369.0,-3.478851556777954,-177,9930.0
7180,0.2609746754169464,32.77579879760742,668,6369.0,-19.319854736328125,-515,9930.0
7190,0.260783851146698,43.5350456237793,718,6369.0,-21.106483459472656,-294,9930.0
7200,0.26049843430519104,42.77123260498047,722,6369.0,-13.368492126464844,-306,9930.0
7210,0.2600947916507721,35.85798645019531,491,6369.0,-1.6477488279342651,69,9930.0
7220,0.2622837424278259,19.284748077392578,269,6369.0,11.631690979003906,200,9930.0
7230,0.2619451582431793,6.147765636444092,50,6369.0,22.161865234375,421,9930.0
7240,0.2612951099872589,-0.48891034722328186,46,6369.0,21.36459732055664,315,9930.0
7250,0.26059672236442566,2.1721160411834717,66,6369.0,15.248743057250977,224,9930.0
7260,0.2593400478363037,5.264403343200684,82,6369.0,2.0451865196228027,39,9930.0
7270,0.2586878836154938,6.578132152557373,175,6369.0,-4.396339416503906,-109,9930.0
7280,0.2578902542591095,3.940903663635254,-39,6369.0,-5.78123140335083,-40,9930.0
7290,0.257016658782959,-2.174759864807129,-48,6369.0,-2.9698143005371094,-68,9930.0
7300,0.25590789318084717,-8.997371673583984,-269,6369.0,3.2752230167388916,85,9930.0
7310,0.2551788091659546,-16.298627853393555,-229,6369.0,10.621454238891602,168,9930.0
7320,0.2545340359210968,-17.65553092956543,-418,6369.0,10.359129905700684,197,9930.0
7330,0.25376245379447937,-19.33268928527832,-243,6369.0,3.8119382858276367,-73,9930.0
7340,0.25290730595588684,-15.283245086669922,-307,6369.0,-4.912353992462158,-98,9930.0
7350,0.25270578265190125,-13.659171104431152,-191,6369.0,-10.134552001953125,-220,9930.0
7360,0.2518545389175415,-9.098898887634277,-119,6369.0,-14.721359252929688,-288,9930.0
7370,0.25128108263015747,-1.6488394737243652,-35,6369.0,-13.278806686401367,-164,9930.0
7380,0.2507263422012329,2.689234733581543,95,6369.0,-8.657876968383789,-161,9930.0
7390,0.24943414330482483,1.9662110805511475,-55,6369.0,0.36995843052864075,208,9930.0
7400,0.24938330054283142,2.171055793762207,98,6369.0,16.280729293823242,239,9930.0
7410,0.24953658878803253,2.5157907009124756,33,6369.0,27.979530334472656,608,9930.0
7420,0.24905364215373993,5.871182441711426,176,6369.0,36.26934814453125,550,9930.0
7430,0.2490183711051941,12.168012619018555,275,6369.0,41.65919494628906,653,9930.0
7440,0.24920399487018585,22.189199447631836,395,6369.0,39.300559997558594,674,9930.0
7450,0.24924641847610474,33.36793899536133,632,6369.0,26.292924880981445,335,9930.0
7460,0.24904043972492218,32.04856872558594,442,6369.0,16.880084991455078,240,9930.0
7470,0.24910110235214233,22.15043067932129,240,6369.0,7.431467533111572,113,9930.0
7480,0.2487378567457199,5.650354862213135,23,6369.0,-4.381287097930908,-199,9930.0
7490,0.2485755831003189,-18.19658660888672,-513,6369.0,-13.39486026763916,-196,9930.0
7500,0.24803543090820312,-41.779911041259766,-726,6369.0,-18.997406005859375,-410,9930.0
7510,0.2480425387620926,-52.12623596191406,-957,6369.0,-21.13434410095215,-302,9930.0
7520,0.24751685559749603,-53.416297912597656,-861,6369.0,-16.212656021118164,-173,9930.0
7530,0.2478841245174408,-43.58353042602539,-576,6369.0,-12.462651252746582,-278,9930.0
7540,0.24850167334079742,-27.65969467163086,-387,6369.0,-11.530749320983887,-126,9930.0
7550,0.2482990026473999,-10.779313087463379,-159,6369.0,-7.857454299926758,-33,9930.0
7560,0.24845001101493835,0.7463129758834839,104,6369.0,-2.8745553493499756,-63,9930.0
7570,0.24909520149230957,9.89738941192627,285,6369.0,-0.1255972534418106,-54,9930.0
7580,0.24943998456001282,14.86852741241455,184,6369.0,3.07717227935791,95,9930.0
7590,0.24935436248779297,14.213022232055664,241,6369.0,4.399770736694336,185,9930.0
7600,0.24939343333244324,12.510538101196289,234,6369.0,4.267265319824219,-24,9930.0
7610,0.25030601024627686,12.430954933166504,133,6369.0,2.730874538421631,25,9930.0
7620,0.2505788803100586,13.960996627807617,253,6369.0,2.8544769287109375,-1,9930.0
7630,0.25099697709083557,13.181480407714844,273,6369.0,4.578812599182129,8,9930.0
7640,0.2512883245944977,11.883214950561523,136,6369.0,3.6370506286621094,170,9930.0
7650,0.25218451023101807,11.005475997924805,214,6369.0,4.631073951721191,42,9930.0
7660,0.25221818685531616,10.517478942871094,211,6369.0,6.616104602813721,198,9930.0
7670,0.252723753452301,11.297471046447754,158,6369.0,13.037910461425781,273,9930.0
7680,0.2533876597881317,12.41878890991211,276,6369.0,15.588960647583008,116,9930.0
7690,0.2542414367198944,11.762879371643066,131,6369.0,18.059053421020508,443,9930.0
7700,0.2564828097820282,5.737923622131348,80,6369.0,26.303220748901367,357,9930.0
7710,0.2576444745063782,1.8391609191894531,-21,6369.0,28.805496215820312,505,9930.0
7720,0.25837841629981995,-3.0865039825439453,-121,6369.0,30.808134078979492,535,9930.0
7730,0.25910326838493347,-14.968276977539062,-216,6369.0,27.223342895507812,359,9930.0
7740,0.25975823402404785,-25.881439208984375,-499,6369.0,18.809362411499023,352,9930.0
7750,0.2613638937473297,-28.286190032958984,-453,6369.0,11.38818359375,131,9930.0
7760,0.26206013560295105,-25.14252471923828,-423,6369.0,1.9654160737991333,-40,9930.0
7770,0.26248517632484436,-18.136676788330078,-326,6369.0,-5.206457614898682,-52,9930.0
7780,0.2627313733100891,-8.020927429199219,-55,6369.0,-11.671655654907227,-235,9930.0
7790,0.26577237248420715,1.6737024784088135,19,6369.0,-11.91135311126709,-236,9930.0
7800,0.2661072015762329,6.834136009216309,75,6369.0,-15.515945434570312,-126,9930.0
7810,0.26645636558532715,5.7579545974731445,95,6369.0,-13.166376113891602,-268,9930.0
7820,0.2668750286102295,5.248491287231445,7,6369.0,-10.50284481048584,-11,9930.0
7830,0.2685510218143463,-0.6121703386306763,20,6369.0,-1.7223632335662842,-59,9930.0
7840,0.2688552737236023,-3.483276605606079,-77,6369.0,2.2651801109313965,39,9930.0
7850,0.26893725991249084,-5.833219051361084,-45,6369.0,-0.6242179274559021,-73,9930.0
7860,0.2691420316696167,-7.20819091796875,-150,6369.0,-7.727327346801758,-217,9930.0
7870,0.2690269649028778,-11.3776216506958,-181,6369.0,-19.536582946777344,-319,9930.0
7880,0.267649382352829,-17.41301155090332,-224,6369.0,-28.75154685974121,-620,9930.0
7890,0.2677989900112152,-17.945354461669922,-310,6369.0,-39.028465270996094,-534,9930.0
7900,0.26769712567329407,-15.558012962341309,-185,6369.0,-42.73809051513672,-747,9930.0
7910,0.2674458920955658,-7.504526138305664,-120,6369.0,-37.34592819213867,-509,9930.0
7920,0.2657981812953949,3.20123291015625,155,6369.0,-19.714521408081055,-226,9930.0
7930,0.266090452671051,8.26956844329834,117,6369.0,3.0104098320007324,169,9930.0
7940,0.2662813663482666,9.920019149780273,156,6369.0,20.230093002319336,361,9930.0
7950,0.26653486490249634,8.972238540649414,159,6369.0,31.69270896911621,490,9930.0
7960,0.2667222321033478,6.897216796875,6,6369.0,36.37825393676758,675,9930.0
7970,0.26366689801216125,4.953770160675049,67,6369.0,36.246612548828125,473,9930.0
7980,0.2631203234195709,1.9203691482543945,63,6369.0,27.31617546081543,335,9930.0
7990,0.2640749514102936,-2.6178462505340576,-88,6369.0,11.648991584777832,188,9930.0
8000,0.26444211602211,-7.982625484466553,-90,6369.0,-9.08450984954834,-172,9930.0
8010,0.2617807686328888,-13.740962028503418,-172,6369.0,-24.104267120361328,-560,9930.0
8020,0.2617209553718567,-18.315460205078125,-290,6369.0,-31.394859313964844,-489,9930.0
8030,0.26149603724479675,-12.350820541381836,-206,6369.0,-33.85316848754883,-480,9930.0
8040,0.26186132431030273,-11.127861022949219,-123,6369.0,-35.87933349609375,-663,9930.0
8050,0.25769898295402527,-10.6194486618042,-225,6369.0,-26.934892654418945,-272,9930.0
8060,0.2573496103286743,-9.840617179870605,-133,6369.0,-7.715276718139648,-72,9930.0
8070,0.2572254538536072,-6.257158279418945,-80,6369.0,8.482699394226074,200,9930.0
8080,0.2568998634815216,0.4793767035007477,-21,6369.0,20.17475700378418,507,9930.0
8090,0.256577730178833,6.2815985679626465,174,6369.0,25.26116371154785,454,9930.0
8100,0.25366246700286865,9.40229320526123,124,6369.0,22.663053512573242,386,9930.0
8110,0.2534550130367279,9.35983657836914,132,6369.0,16.783849716186523,269,9930.0
8120,0.25308603048324585,10.004752159118652,203,6369.0,6.72063684463501,-18,9930.0
8130,0.2533833682537079,7.248106002807617,53,6369.0,-4.2687859535217285,-138,9930.0
8140,0.2519637942314148,1.8296681642532349,-14,6369.0,-15.484962463378906,-224,9930.0
8150,0.2517078220844269,-2.7401394844055176,21,6369.0,-20.41115951538086,-437,9930.0
8160,0.2520613372325897,-4.55807638168335,-183,6369.0,-21.99964714050293,-279,9930.0
8170,0.25240445137023926,-9.872700691223145,-133,6369.0,-15.95468807220459,-270,9930.0
8180,0.25281238555908203,-10.551680564880371,-274,6369.0,-11.587639808654785,-44,9930.0
8190,0.2531021535396576,-14.084946632385254,-192,6369.0,2.9341351985931396,135,9930.0
8200,0.25356143712997437,-14.063498497009277,-198,6369.0,13.570207595825195,197,9930.0
8210,0.2542654275894165,-12.458040237426758,-209,6369.0,18.19443702697754,413,9930.0
8220,0.25498640537261963,-8.541910171508789,-17,6369.0,18.257221221923828,234,9930.0
8230,0.2547931969165802,10.328408241271973,304,6369.0,16.798267364501953,217,9930.0
8240,0.2553955316543579,24.42485809326172,343,6369.0,12.72079086303711,295,9930.0
8250,0.2560269236564636,24.91569709777832,406,6369.0,14.58353328704834,212,9930.0
8260,0.2570444345474243,18.223283767700195,207,6369.0,21.233728408813477,362,9930.0
8270,0.2575463652610779,8.076406478881836,115,6369.0,19.04119300842285,349,9930.0
8280,0.25849074125289917,-4.565160751342773,-138,6369.0,10.201592445373535,128,9930.0
8290,0.2592194378376007,-19.233800888061523,-394,6369.0,3.9695472717285156,78,9930.0
8300,0.25981590151786804,-30.08968162536621,-453,6369.0,-2.9467244148254395,-132,9930.0
8310,0.25993606448173523,-34.80937957763672,-587,6369.0,-7.749292850494385,-175,9930.0
8320,0.2604261338710785,-29.942907333374023,-464,6369.0,-16.417144775390625,-196,9930.0
8330,0.2609420120716095,-22.889938354492188,-266,6369.0,-19.112138748168945,-424,9930.0
8340,0.26147863268852234,-10.01380729675293,-176,6369.0,-19.394695281982422,-220,9930.0
8350,0.2618608772754669,3.1622018814086914,129,6369.0,-16.901273727416992,-260,9930.0
8360,0.2615440785884857,12.995524406433105,282,6369.0,-13.400057792663574,-337,9930.0
8370,0.2619917094707489,19.67450523376465,263,6369.0,-7.668770790100098,23,9930.0
8380,0.2626030445098877,19.576139450073242,394,6369.0,7.598118305206299,76,9930.0
8390,0.26349055767059326,22.794048309326172,336,6369.0,20.69340705871582,456,9930.0
8400,0.2655990421772003,21.80512237548828,368,6369.0,28.059288024902344,420,9930.0
8410,0.266216903924942,16.73088264465332,178,6369.0,23.559080123901367,402,9930.0
8420,0.26700714230537415,9.143681526184082,127,6369.0,13.06383991241455,137,9930.0
8430,0.26777341961860657,2.7846620082855225,46,6369.0,-3.146944999694824,-173,9930.0
8440,0.2707330882549286,-3.3796164989471436,-119,6369.0,-14.316838264465332,-209,9930.0
8450,0.2715778946876526,-11.591930389404297,-200,6369.0,-14.346692085266113,-258,9930.0
8460,0.27238449454307556,-19.2908935546875,-422,6369.0,-5.874147891998291,5,9930.0
8470,0.2735167443752289,-30.067535400390625,-417,6369.0,0.338258296251297,-91,9930.0
8480,0.27470269799232483,-28.71303367614746,-490,6369.0,3.49568247795105,192,9930.0
8490,0.2756306231021881,-15.421849250793457,-134,6369.0,6.472598552703857,49,9930.0
8500,0.27671632170677185,-4.414924144744873,-89,6369.0,3.8168911933898926,94,9930.0
8510,0.2774885594844818,6.722871780395508,136,6369.0,4.501542568206787,12,9930.0
8520,0.27812260389328003,19.736495971679688,395,6369.0,2.9501373767852783,13,9930.0
8530,0.28086134791374207,31.034957885742188,470,6369.0,1.8968983888626099,52,9930.0
8540,0.2813880145549774,36.261844635009766,670,6369.0,4.425073146820068,-27,9930.0
8550,0.2819229066371918,33.28596115112305,453,6369.0,6.012462615966797,115,9930.0
8560,0.28213098645210266,23.32135581970215,416,6369.0,8.331830978393555,115,9930.0
8570,0.2824169993400574,13.203214645385742,114,6369.0,13.874547004699707,347,9930.0
8580,0.2841837704181671,0.7511395812034607,43,6369.0,18.84420394897461,295,9930.0
8590,0.2844589054584503,-4.208045482635498,-121,6369.0,16.98628044128418,344,9930.0
8600,0.2846669554710388,-5.79921817779541,-31,6369.0,8.77401351928711,-77,9930.0
8610,0.2848380506038666,-7.79756498336792,-154,6369.0,-2.0012764930725098,19,9930.0
8620,0.2873952090740204,-11.869322776794434,-205,6369.0,-12.78489875793457,-338,9930.0
8630,0.2875025272369385,-18.252073287963867,-398,6369.0,-25.473304748535156,-385,9930.0
8640,0.2876201868057251,-22.322572708129883,-268,6369.0,-30.503713607788086,-643,9930.0
8650,0.2879886031150818,-20.312908172607422,-388,6369.0,-33.157325744628906,-481,9930.0
8660,0.2886051535606384,-20.636734008789062,-266,6369.0,-31.910524368286133,-560,9930.0
8670,0.2888786792755127,-9.607114791870117,-154,6369.0,-34.01954650878906,-583,9930.0
8680,0.28933605551719666,3.623595714569092,176,6369.0,-35.998268127441406,-646,9930.0
8690,0.28950172662734985,10.83206844329834,136,6369.0,-32.16844940185547,-471,9930.0
8700,0.29050973057746887,10.080479621887207,128,6369.0,-17.37448501586914,-138,9930.0
8710,0.2906244993209839,-2.54864239692688,-54,6369.0,0.27120867371559143,18,9930.0
8720,0.2909446954727173,-9.928701400756836,-222,6369.0,17.849321365356445,492,9930.0
8730,0.2916475534439087,-9.823266983032227,-78,6369.0,35.71900939941406,539,9930.0
8740,0.2919725775718689,-3.7159039974212646,-35,6369.0,43.46828842163086,807,9930.0
8750,0.29325070977211,6.109550476074219,184,6369.0,43.82600784301758,629,9930.0
8760,0.2931661009788513,16.24144744873047,310,6369.0,35.051490783691406,565,9930.0
8770,0.29334235191345215,19.68484878540039,320,6369.0,18.045658111572266,220,9930.0
8780,0.29404953122138977,13.929241180419922,248,6369.0,-1.437703013420105,-158,9930.0
8790,0.2941264808177948,2.980041265487671,-34,6369.0,-19.694334030151367,-296,9930.0
8800,0.29457587003707886,-6.752137660980225,-140,6369.0,-27.1359806060791,-500,9930.0
8810,0.2946015000343323,-13.740880012512207,-256,6369.0,-26.01372718811035,-430,9930.0
8820,0.29453808069229126,-16.83743667602539,-306,6369.0,-24.726938247680664,-348,9930.0
8830,0.2944771945476532,-14.906472206115723,-221,6369.0,-20.11518096923828,-322,9930.0
8840,0.29420629143714905,-8.44461727142334,-126,6369.0,-14.149410247802734,-96,9930.0
8850,0.2940622866153717,-5.287022113800049,-13,6369.0,-4.153563499450684,-116,9930.0
8860,0.294192373752594,-3.7060914039611816,-70,6369.0,2.1691930294036865,63,9930.0
8870,0.29410281777381897,-1.1383862495422363,-14,6369.0,4.730014324188232,146,9930.0
8880,0.29402875900268555,-0.23278598487377167,80,6369.0,4.449896812438965,37,9930.0
8890,0.29569488763809204,3.261312961578369,15,6369.0,-0.14881817996501923,0,9930.0
8900,0.29582875967025757,9.191282272338867,205,6369.0,-5.906130790710449,-141,9930.0
8910,0.2959713637828827,10.290581703186035,119,6369.0,-12.784707069396973,-314,9930.0
8920,0.2962843179702759,14.472368240356445,238,6369.0,-19.135456085205078,-390,9930.0
8930,0.29784920811653137,13.937528610229492,242,6369.0,-20.413415908813477,-399,9930.0
8940,0.29834577441215515,12.37349796295166,143,6369.0,-16.3310489654541,-172,9930.0
8950,0.29899296164512634,11.582616806030273,236,6369.0,-9.785638809204102,-220,9930.0
8960,0.2995601296424866,13.503205299377441,206,6369.0,-2.760963201522827,26,9930.0
8970,0.3001900613307953,14.380814552307129,282,6369.0,6.037174701690674,46,9930.0
8980,0.30089643597602844,10.733537673950195,103,6369.0,10.105685234069824,267,9930.0
8990,0.30154651403427124,-0.7605955600738525,-7,6369.0,14.450874328613281,228,9930.0
9000,0.30221474170684814,-14.125669479370117,-295,6369.0,17.619911193847656,300,9930.0
9010,0.3028189241886139,-16.7369384765625,-339,6369.0,17.65375328063965,324,9930.0
9020,0.3045802712440491,-18.248491287231445,-295,6369.0,10.706783294677734,149,9930.0
9030,0.30546051263809204,-16.100902557373047,-268,6369.0,-6.952037811279297,-125,9930.0
9040,0.3058570623397827,-9.203640937805176,-52,6369.0,-16.740385055541992,-341,9930.0
9050,0.30623677372932434,0.9888232350349426,-50,6369.0,-17.195194244384766,-204,9930.0
9060,0.30844324827194214,4.629609107971191,134,6369.0,-7.892530918121338,-158,9930.0
9070,0.30880114436149597,7.185885429382324,41,6369.0,3.6379971504211426,134,9930.0
9080,0.3091394305229187,8.468093872070312,249,6369.0,11.418913841247559,83,9930.0
9090,0.3094022572040558,12.623164176940918,120,6369.0,7.054785251617432,166,9930.0
9100,0.31147679686546326,13.48367977142334,258,6369.0,-0.09956970065832138,-116,9930.0
9110,0.3118644058704376,13.600647926330566,170,6369.0,-11.419567108154297,-205,9930.0
9120,0.3123544752597809,6.922759532928467,130,6369.0,-27.02766990661621,-585,9930.0
9130,0.3127978444099426,-0.6536333560943604,-76,6369.0,-30.892824172973633,-426,9930.0
9140,0.3132154941558838,-7.914881706237793,-171,6369.0,-22.69247055053711,-346,9930.0
9150,0.31518352031707764,-9.90057373046875,-159,6369.0,-12.462355613708496,-204,9930.0
9160,0.3159201741218567,-9.871594429016113,-230,6369.0,-8.001914024353027,-65,9930.0
9170,0.3166548013687134,-12.283309936523438,-146,6369.0,-2.202873468399048,-71,9930.0
9180,0.3173941373825073,-10.7020845413208,-248,6369.0,2.3313241004943848,142,9930.0
9190,0.3180510103702545,-10.584541320800781,-108,6369.0,13.904861450195312,196,9930.0
9200,0.3188167214393616,-3.670919895172119,-118,6369.0,23.24701499938965,482,9930.0
9210,0.31965014338493347,0.9480071067810059,93,6369.0,31.132991790771484,385,9930.0
9220,0.32043829560279846,8.869407653808594,179,6369.0,34.19426345825195,676,9930.0
9230,0.32127535343170166,22.098636627197266,417,6369.0,33.556304931640625,439,9930.0
9240,0.3216889798641205,25.617843627929688,371,6369.0,28.141088485717773,467,9930.0
9250,0.32220110297203064,25.845937728881836,376,6369.0,21.288345336914062,287,9930.0
9260,0.32282423973083496,15.963286399841309,282,6369.0,8.139116287231445,-22,9930.0
9270,0.3231179118156433,-1.394305944442749,-178,6369.0,-9.408799171447754,-121,9930.0
9280,0.32394006848335266,-15.385185241699219,-200,6369.0,-21.877653121948242,-449,9930.0
9290,0.3242480754852295,-16.497848510742188,-332,6369.0,-28.075075149536133,-436,9930.0
9300,0.3244550824165344,-11.207650184631348,-74,6369.0,-31.089696884155273,-534,9930.0
9310,0.3245871663093567,-0.9352433085441589,-8,6369.0,-23.79631805419922,-308,9930.0
9320,0.32370567321777344,8.729841232299805,168,6369.0,-10.48244571685791,-136,9930.0
9330,0.3238441050052643,16.611623764038086,284,6369.0,4.57145881652832,230,9930.0
9340,0.32404395937919617,18.266992568969727,313,6369.0,21.51412582397461,274,9930.0
9350,0.32412776350975037,11.929957389831543,94,6369.0,31.680402755737305,629,9930.0
9360,0.3240254521369934,-0.682018518447876,-22,6369.0,35.305816650390625,463,9930.0
9370,0.3226282000541687,-12.660184860229492,-283,6369.0,30.312768936157227,529,9930.0
9380,0.3225686252117157,-17.7197208404541,-311,6369.0,18.133644104003906,223,9930.0
9390,0.3224717676639557,-19.793397903442383,-299,6369.0,3.3750228881835938,-20,9930.0
9400,0.3228130340576172,-14.285022735595703,-247,6369.0,-13.194680213928223,-173,9930.0
9410,0.3228921890258789,-9.795683860778809,-116,6369.0,-22.381391525268555,-475,9930.0
9420,0.32297345995903015,-10.51842212677002,-274,6369.0,-25.58727264404297,-357,9930.0
9430,0.323088675737381,-24.13372230529785,-441,6369.0,-23.02792739868164,-468,9930.0
9440,0.3232805132865906,-34.104591369628906,-624,6369.0,-25.132369995117188,-356,9930.0
9450,0.3238479197025299,-27.158000946044922,-392,6369.0,-18.88707160949707,-154,9930.0
9460,0.32223841547966003,-10.161125183105469,37,6369.0,-10.326828002929688,-257,9930.0
9470,0.322247713804245,9.200460433959961,215,6369.0,0.01855531334877014,135,9930.0
9480,0.3224354684352875,32.16299057006836,687,6369.0,9.474068641662598,191,9930.0
9490,0.32243260741233826,49.301780700683594,963,6369.0,13.564109802246094,106,9930.0
9500,0.32263800501823425,57.62391662597656,925,6369.0,12.227622032165527,304,9930.0
9510,0.322576642036438,58.185020446777344,964,6369.0,12.51445484161377,183,9930.0
9520,0.3225747048854828,46.7474365234375,638,6369.0,17.353919982910156,430,9930.0
9530,0.32229292392730713,28.821523666381836,344,6369.0,20.557279586791992,249,9930.0
9540,0.3224574327468872,11.318385124206543,30,6369.0,14.566486358642578,232,9930.0
9550,0.3220181465148926,-6.9623589515686035,-143,6369.0,11.307699203491211,207,9930.0
9560,0.32172322273254395,-20.63975715637207,-349,6369.0,8.1268310546875,-57,9930.0
9570,0.3213888704776764,-25.774641036987305,-480,6369.0,0.8321254253387451,42,9930.0
9580,0.32100972533226013,-30.346847534179688,-440,6369.0,-8.509129524230957,-281,9930.0
9590,0.32229647040367126,-26.798904418945312,-430,6369.0,-24.218994140625,-418,9930.0
9600,0.32207101583480835,-19.717164993286133,-267,6369.0,-28.238054275512695,-367,9930.0
9610,0.3217359781265259,-8.223174095153809,-20,6369.0,-20.253141403198242,-222,9930.0
9620,0.321405827999115,4.632198333740234,103,6369.0,-7.128051280975342,38,9930.0
9630,0.3216034471988678,17.57002830505371,357,6369.0,8.056957244873047,207,9930.0
9640,0.32156386971473694,22.315166473388672,469,6369.0,21.38339614868164,325,9930.0
9650,0.32167312502861023,22.256103515625,255,6369.0,26.26506233215332,528,9930.0
9660,0.32185882329940796,14.164139747619629,237,6369.0,23.889129638671875,314,9930.0
9670,0.32215747237205505,0.13615350425243378,-42,6369.0,18.085081100463867,140,9930.0
9680,0.3229321837425232,-16.454050064086914,-372,6369.0,12.831180572509766,215,9930.0
9690,0.32344600558280945,-34.90042495727539,-588,6369.0,7.911449909210205,73,9930.0
9700,0.3240765631198883,-49.553565979003906,-925,6369.0,-0.2752346694469452,-59,9930.0
9710,0.32473742961883545,-57.80369186401367,-980,6369.0,-17.87300682067871,-256,9930.0
9720,0.32438722252845764,-48.23866271972656,-723,6369.0,-21.291200637817383,-449,9930.0
9730,0.324867308139801,-22.418848037719727,-218,6369.0,-20.71329116821289,-376,9930.0
9740,0.3262637257575989,2.1629271507263184,105,6369.0,-14.8202543258667,-154,9930.0
9750,0.3268967866897583,23.25448226928711,445,6369.0,-11.52373218536377,-106,9930.0
9760,0.3259088397026062,35.27133560180664,662,6369.0,-7.191815376281738,-132,9930.0
9770,0.32636237144470215,39.71672058105469,607,6369.0,-0.2061743438243866,100,9930.0
9780,0.3267284631729126,36.14958190917969,546,6369.0,14.766982078552246,367,9930.0
9790,0.3270515203475952,29.44757080078125,476,6369.0,22.35396957397461,282,9930.0
9800,0.3271115720272064,16.3277645111084,179,6369.0,31.031679153442383,605,9930.0
9810,0.32732585072517395,4.057118892669678,28,6369.0,30.031078338623047,359,9930.0
9820,0.32705894112586975,-5.993241786956787,-155,6369.0,19.665199279785156,347,9930.0
9830,0.3277871310710907,-14.336655616760254,-281,6369.0,5.282839298248291,12,9930.0
9840,0.32778000831604004,-19.9044246673584,-250,6369.0,-11.062713623046875,-356,9930.0
9850,0.32661736011505127,-18.220977783203125,-354,6369.0,-19.96619415283203,-314,9930.0
9860,0.32644081115722656,-11.048532485961914,-174,6369.0,-23.357229232788086,-404,9930.0
9870,0.32624831795692444,-2.567934036254883,49,6369.0,-28.40250015258789,-610,9930.0
9880,0.3261095881462097,5.807465553283691,74,6369.0,-27.09812355041504,-315,9930.0
9890,0.326032429933548,14.101828575134277,294,6369.0,-14.476029396057129,-72,9930.0
9900,0.326296865940094,20.655628204345703,245,6369.0,2.3231663703918457,193,9930.0
9910,0.326181560754776,12.28059196472168,172,6369.0,15.787205696105957,230,9930.0
9920,0.32598763704299927,1.639318585395813,-106,6369.0,21.593345642089844,341,9930.0
9930,0.3258841037750244,-12.57606315612793,-263,6369.0,19.833568572998047,316,9930.0
9940,0.3258931636810303,-23.729625701904297,-400,6369.0,13.243165016174316,82,9930.0
9950,0.3259933292865753,-29.31487274169922,-541,6369.0,3.1368632316589355,102,9930.0
9960,0.32600024342536926,-32.34028625488281,-512,6369.0,-7.792909145355225,-268,9930.0
9970,0.326101690530777,-28.998554229736328,-443,6369.0,-16.294912338256836,-289,9930.0
9980,0.32822680473327637,-16.495895385742188,-268,6369.0,-10.410653114318848,-99,9930.0
9990,0.3292727768421173,-0.17578619718551636,70,6369.0,-5.103273391723633,-95,9930.0
10000,0.32960349321365356,19.121410369873047,446,6369.0,-7.982780933380127,-270,9930.0
10010,0.32993578910827637,36.86334991455078,606,6369.0,-10.375886917114258,-59,9930.0
10020,0.33020922541618347,44.54425048828125,744,6369.0,-12.955291748046875,-201,9930.0
10030,0.33110401034355164,41.903228759765625,688,6369.0,-12.16588020324707,-252,9930.0
10040,0.3313658535480499,32.82551193237305,359,6369.0,-10.272699356079102,-24,9930.0
10050,0.331421434879303,20.70425033569336,349,6369.0,0.5243661403656006,-47,9930.0
10060,0.33226248621940613,8.641830444335938,-5,6369.0,13.347230911254883,369,9930.0
10070,0.3333311975002289,-3.135322093963623,-61,6369.0,25.788272857666016,336,9930.0
10080,0.3334597647190094,-10.546942710876465,-281,6369.0,26.91945457458496,477,9930.0
10090,0.33360764384269714,-15.712084770202637,-215,6369.0,14.783819198608398,-3,9930.0
10100,0.3339085876941681,-16.82063865661621,-293,6369.0,-4.564599990844727,-100,9930.0
10110,0.3339310586452484,-20.44587516784668,-318,6369.0,-14.943193435668945,-302,9930.0
10120,0.33439669013023376,-21.362253189086914,-404,6369.0,-18.60983657836914,-240,9930.0
10130,0.33434027433395386,-25.48020362854004,-405,6369.0,-9.774267196655273,-67,9930.0
10140,0.33444008231163025,-25.151092529296875,-324,6369.0,1.4879343509674072,17,9930.0
10150,0.3346148431301117,-13.993382453918457,-141,6369.0,12.339923858642578,327,9930.0
10160,0.3360914885997772,6.250208854675293,312,6369.0,14.029513359069824,154,9930.0
10170,0.33655425906181335,25.151565551757812,453,6369.0,6.397751808166504,120,9930.0
10180,0.33707040548324585,27.78904151916504,444,6369.0,0.9731255769729614,20,9930.0
10190,0.33764955401420593,17.48680305480957,251,6369.0,-1.6189640760421753,-144,9930.0
10200,0.33966243267059326,1.1231122016906738,-26,6369.0,-12.251684188842773,-238,9930.0
10210,0.3404177725315094,-14.934738159179688,-335,6369.0,-24.243982315063477,-459,9930.0
10220,0.3411317467689514,-26.191715240478516,-491,6369.0,-27.19668197631836,-369,9930.0
10230,0.3417477011680603,-30.1885929107666,-449,6369.0,-9.33488655090332,-178,9930.0
10240,0.3425006568431854,-19.971481323242188,-330,6369.0,3.423349142074585,209,9930.0
10250,0.3441517949104309,-3.854680061340332,41,6369.0,13.72818660736084,147,9930.0
10260,0.3448531925678253,3.918560266494751,44,6369.0,20.055803298950195,385,9930.0
10270,0.3455556035041809,6.6095356941223145,147,6369.0,20.761795043945312,340,9930.0
10280,0.3461938500404358,5.881504535675049,132,6369.0,23.45945167541504,302,9930.0
10290,0.3464832305908203,4.516513347625732,40,6369.0,24.178499221801758,536,9930.0
10300,0.34701719880104065,2.05204439163208,58,6369.0,20.555410385131836,209,9930.0
10310,0.34743767976760864,2.8821120262145996,39,6369.0,14.900766372680664,287,9930.0
10320,0.34777966141700745,4.974753379821777,98,6369.0,5.081352710723877,15,9930.0
10330,0.3481273949146271,8.937889099121094,212,6369.0,-6.541571140289307,-222,9930.0
10340,0.34997084736824036,13.096098899841309,177,6369.0,-12.08712100982666,-128,9930.0
10350,0.35020753741264343,13.257570266723633,308,6369.0,-10.118406295776367,-213,9930.0
10360,0.3503618836402893,7.406877040863037,35,6369.0,-3.9507434368133545,17,9930.0
10370,0.35057398676872253,-1.175523042678833,-25,6369.0,2.608335018157959,32,9930.0
10380,0.3504510521888733,-13.232589721679688,-361,6369.0,8.751800537109375,185,9930.0
10390,0.3505668342113495,-24.813142776489258,-361,6369.0,7.663532257080078,23,9930.0
10400,0.3506917953491211,-25.734100341796875,-429,6369.0,0.2844041585922241,-53,9930.0
10410,0.35067665576934814,-17.964441299438477,-191,6369.0,-17.349002838134766,-355,9930.0
10420,0.35157063603401184,-5.12061071395874,27,6369.0,-32.54299545288086,-681,9930.0
10430,0.35189059376716614,8.181431770324707,135,6369.0,-42.820762634277344,-622,9930.0
10440,0.3522394001483917,15.053478240966797,299,6369.0,-41.706031799316406,-718,9930.0
10450,0.35251787304878235,18.056156158447266,259,6369.0,-29.435588836669922,-374,9930.0
10460,0.3527694642543793,22.046602249145508,516,6369.0,-11.150090217590332,-177,9930.0
10470,0.3520418703556061,33.67271423339844,512,6369.0,7.264852523803711,254,9930.0
10480,0.3523646593093872,30.344850540161133,445,6369.0,20.139530181884766,350,9930.0
10490,0.3525921404361725,17.228647232055664,208,6369.0,35.739662170410156,633,9930.0
10500,0.35271015763282776,-2.3645341396331787,-155,6369.0,47.9627799987793,786,9930.0
10510,0.3511980473995209,-12.779919624328613,-176,6369.0,48.51667022705078,726,9930.0
10520,0.35117319226264954,-12.709601402282715,-176,6369.0,39.513675689697266,597,9930.0
10530,0.35078126192092896,-8.582547187805176,-124,6369.0,22.449169158935547,370,9930.0
10540,0.35047513246536255,-4.862718105316162,12,6369.0,6.659206867218018,-6,9930.0
10550,0.35025298595428467,-2.5758297443389893,-88,6369.0,-7.849234580993652,-196,9930.0
10560,0.34853076934814453,-0.4497724771499634,-15,6369.0,-22.67738914489746,-375,9930.0
10570,0.3479839563369751,2.14351487159729,93,6369.0,-31.69969940185547,-683,9930.0
10580,0.34745922684669495,4.791440486907959,16,6369.0,-34.266571044921875,-470,9930.0
10590,0.34686097502708435,2.9730618000030518,56,6369.0,-20.530412673950195,-306,9930.0
10600,0.34648868441581726,-5.5505266189575195,-204,6369.0,-2.2349390983581543,117,9930.0
10610,0.34590932726860046,-14.084559440612793,-187,6369.0,19.08067512512207,337,9930.0
10620,0.34531426429748535,-14.544949531555176,-231,6369.0,28.244285583496094,423,9930.0
10630,0.34491589665412903,-5.625217437744141,-92,6369.0,19.022903442382812,348,9930.0
10640,0.3442867696285248,0.9062366485595703,109,6369.0,-0.7108097672462463,-205,9930.0
10650,0.3439805805683136,8.859315872192383,116,6369.0,-20.261240005493164,-357,9930.0
10660,0.34383663535118103,13.997106552124023,228,6369.0,-31.185447692871094,-460,9930.0
10670,0.34361302852630615,11.688169479370117,184,6369.0,-29.751861572265625,-568,9930.0
10680,0.3435186743736267,-1.719313144683838,-142,6369.0,-22.893856048583984,-221,9930.0
10690,0.34291693568229675,-15.043038368225098,-291,6369.0,-13.135784149169922,-217,9930.0
10700,0.3428860604763031,-24.451156616210938,-462,6369.0,-0.3285811245441437,126,9930.0
10710,0.34285464882850647,-22.3705997467041,-305,6369.0,15.949102401733398,315,9930.0
10720,0.34279415011405945,-10.102631568908691,8,6369.0,24.944652557373047,336,9930.0
10730,0.3433822989463806,12.210254669189453,322,6369.0,25.984607696533203,407,9930.0
10740,0.343431681394577,34.223201751708984,615,6369.0,18.91486167907715,382,9930.0
10750,0.3434229791164398,45.572731018066406,785,6369.0,10.850749969482422,91,9930.0
10760,0.3438260853290558,44.98545455932617,624,6369.0,1.510396122932434,-19,9930.0
10770,0.34384840726852417,31.159643173217773,355,6369.0,-1.3360158205032349,68,9930.0
10780,0.34399715065956116,13.02035140991211,157,6369.0,-2.102161169052124,-100,9930.0
10790,0.34393346309661865,-2.392960786819458,-192,6369.0,-1.5184153318405151,-17,9930.0
10800,0.343873530626297,-15.717118263244629,-345,6369.0,-3.3162872791290283,-31,9930.0
10810,0.34386420249938965,-25.4130916595459,-327,6369.0,-4.619610786437988,-219,9930.0
10820,0.3454805612564087,-23.371347427368164,-373,6369.0,-9.647329330444336,-98,9930.0
10830,0.34546369314193726,-19.376121520996094,-259,6369.0,-9.917205810546875,-251,9930.0
10840,0.34552472829818726,-15.078033447265625,-254,6369.0,-8.840654373168945,-99,9930.0
10850,0.3456411361694336,-14.265388488769531,-249,6369.0,-8.842169761657715,-39,9930.0
10860,0.3447195887565613,-9.5421142578125,-90,6369.0,-4.732779026031494,-150,9930.0
10870,0.3449305295944214,-4.533206939697266,-100,6369.0,-6.74556827545166,-165,9930.0
10880,0.3451096713542938,3.9948740005493164,66,6369.0,-14.586668014526367,-175,9930.0
10890,0.34535616636276245,12.241594314575195,286,6369.0,-23.98923683166504,-504,9930.0
10900,0.3457501232624054,17.061134338378906,252,6369.0,-25.401580810546875,-324,9930.0
10910,0.34567001461982727,10.331844329833984,142,6369.0,-14.309796333312988,-179,9930.0
10920,0.34600862860679626,-4.948399066925049,-185,6369.0,-1.0052108764648438,110,9930.0
10930,0.346369206905365,-19.587474822998047,-300,6369.0,11.159494400024414,207,9930.0
10940,0.34677809476852417,-20.29564666748047,-262,6369.0,19.319129943847656,248,9930.0
10950,0.34710693359375,-14.160843849182129,-239,6369.0,21.329971313476562,421,9930.0
10960,0.34750938415527344,-2.395841360092163,91,6369.0,19.5200138092041,336,9930.0
10970,0.3478158712387085,9.216625213623047,242,6369.0,17.75745391845703,143,9930.0
10980,0.34806373715400696,12.093084335327148,134,6369.0,16.017026901245117,322,9930.0
10990,0.3482031524181366,7.459596157073975,138,6369.0,13.625243186950684,247,9930.0
11000,0.3482913672924042,4.677831172943115,88,6369.0,9.269247055053711,0,9930.0
11010,0.34847161173820496,0.10567651689052582,-30,6369.0,-1.9017146825790405,12,9930.0
11020,0.34853002429008484,-1.4016824960708618,-40,6369.0,-9.810088157653809,-281,9930.0
11030,0.34856390953063965,-2.536752462387085,24,6369.0,-15.772261619567871,-341,9930.0
11040,0.349079430103302,-0.9994317293167114,-70,6369.0,-19.740732192993164,-275,9930.0
11050,0.3489462435245514,-0.7166351079940796,23,6369.0,-19.59591293334961,-309,9930.0
11060,0.348788857460022,-4.080376625061035,-127,6369.0,-11.254413604736328,-64,9930.0
11070,0.3486686646938324,-6.286487102508545,-98,6369.0,2.485485553741455,119,9930.0
11080,0.34872865676879883,-4.290229797363281,-59,6369.0,14.134499549865723,274,9930.0
11090,0.34871554374694824,-3.044774293899536,-83,6369.0,23.044631958007812,476,9930.0
11100,0.3487094044685364,-4.947969436645508,5,6369.0,26.679981231689453,328,9930.0
11110,0.3487532436847687,-2.3690547943115234,-78,6369.0,19.558073043823242,323,9930.0
11120,0.34897178411483765,0.05935326963663101,32,6369.0,3.057626247406006,29,9930.0
11130,0.34878483414649963,4.834290981292725,157,6369.0,-10.809112548828125,-381,9930.0
11140,0.34911996126174927,6.392953395843506,21,6369.0,-23.514989852905273,-371,9930.0
11150,0.3494817614555359,4.48063325881958,120,6369.0,-28.01600456237793,-443,9930.0
11160,0.3499181568622589,8.262462615966797,153,6369.0,-16.96733856201172,-274,9930.0
11170,0.35024183988571167,8.139908790588379,136,6369.0,-2.24482798576355,45,9930.0
11180,0.3506925106048584,8.236496925354004,110,6369.0,9.192955017089844,117,9930.0
11190,0.351054310798645,6.963347911834717,32,6369.0,5.250052452087402,122,9930.0
11200,0.3513009548187256,-5.515486240386963,-60,6369.0,5.803635120391846,-11,9930.0
11210,0.3514965772628784,-18.610309600830078,-385,6369.0,4.425835609436035,180,9930.0
11220,0.35140302777290344,-22.427913665771484,-286,6369.0,-0.2863915264606476,-82,9930.0
11230,0.3514220416545868,-15.543107032775879,-281,6369.0,-4.10076379776001,-13,9930.0
11240,0.35129499435424805,-6.157657146453857,-19,6369.0,-1.478736162185669,25,9930.0
11250,0.35113441944122314,1.3543429374694824,79,6369.0,6.6337690353393555,79,9930.0
11260,0.35169580578804016,5.8514814376831055,89,6369.0,9.142143249511719,255,9930.0
11270,0.3514389395713806,11.170948028564453,249,6369.0,7.517426013946533,-15,9930.0
11280,0.35115718841552734,14.565828323364258,171,6369.0,-1.8355309963226318,22,9930.0
11290,0.3511590361595154,8.647480964660645,65,6369.0,-6.554361820220947,-136,9930.0
11300,0.3521413505077362,1.6559244394302368,-26,6369.0,-4.679026126861572,-27,9930.0
11310,0.3520680367946625,-5.954720497131348,-137,6369.0,4.13836145401001,134,9930.0
11320,0.35204941034317017,-13.720666885375977,-186,6369.0,11.254227638244629,92,9930.0
11330,0.3521130084991455,-12.574780464172363,-246,6369.0,15.939138412475586,392,9930.0
11340,0.3522659242153168,-6.595371723175049,-42,6369.0,12.843884468078613,63,9930.0
11350,0.3526749610900879,1.713861346244812,-4,6369.0,1.1730120182037354,-37,9930.0
11360,0.3528774082660675,9.397881507873535,217,6369.0,-16.070823669433594,-369,9930.0
11370,0.35307174921035767,9.325252532958984,55,6369.0,-26.408245086669922,-490,9930.0
11380,0.35331225395202637,-4.97174072265625,-177,6369.0,-24.419456481933594,-337,9930.0
11390,0.3541054427623749,-21.8977108001709,-414,6369.0,-18.27208709716797,-270,9930.0
11400,0.35446619987487793,-28.730072021484375,-456,6369.0,-6.062630653381348,15,9930.0
11410,0.3548718988895416,-19.845157623291016,-216,6369.0,6.744808673858643,129,9930.0
11420,0.3552635908126831,-10.175232887268066,-145,6369.0,22.665695190429688,452,9930.0
11430,0.3556576371192932,-0.8854324817657471,108,6369.0,29.21867561340332,394,9930.0
11440,0.35610124468803406,12.828207969665527,228,6369.0,25.13142967224121,431,9930.0
11450,0.3563947081565857,18.918540954589844,346,6369.0,13.692681312561035,141,9930.0
11460,0.35673731565475464,17.83793830871582,171,6369.0,3.6894688606262207,48,9930.0
11470,0.3569614589214325,13.373268127441406,299,6369.0,2.5711658000946045,9,9930.0
11480,0.35826507210731506,7.831221580505371,73,6369.0,3.021900177001953,8,9930.0
11490,0.3584025204181671,5.632509231567383,156,6369.0,2.6074750423431396,46,9930.0
11500,0.35850512981414795,8.822953224182129,91,6369.0,-3.5037074089050293,-112,9930.0
11510,0.3585164248943329,9.487902641296387,238,6369.0,-7.581447124481201,-63,9930.0
11520,0.35831117630004883,14.459418296813965,217,6369.0,-11.215069770812988,-105,9930.0
11530,0.3583209812641144,15.170951843261719,250,6369.0,-11.909577369689941,-92,9930.0
11540,0.358386367559433,17.619260787963867,235,6369.0,-7.659651756286621,-20,9930.0
11550,0.3584713935852051,12.84718132019043,193,6369.0,6.586709022521973,63,9930.0
11560,0.35861536860466003,-2.2939271926879883,-174,6369.0,17.79267692565918,424,9930.0
11570,0.3601619601249695,-23.680763244628906,-425,6369.0,23.113370895385742,348,9930.0
11580,0.3604743778705597,-41.765743255615234,-714,6369.0,21.675334930419922,343,9930.0
11590,0.36101651191711426,-49.108421325683594,-738,6369.0,12.856184959411621,91,9930.0
11600,0.361384779214859,-40.00542068481445,-683,6369.0,-6.189587593078613,-124,9930.0
11610,0.361088365316391,-25.921464920043945,-295,6369.0,-23.365938186645508,-525,9930.0
11620,0.3615944981575012,-10.59438419342041,-165,6369.0,-29.658475875854492,-437,9930.0
11630,0.36202162504196167,7.867192268371582,196,6369.0,-23.117042541503906,-360,9930.0
11640,0.3625425398349762,20.58456039428711,369,6369.0,-6.547635078430176,-99,9930.0
11650,0.3631855249404907,31.60346794128418,587,6369.0,6.257355213165283,175,9930.0
11660,0.36305272579193115,34.601905822753906,511,6369.0,10.646245956420898,155,9930.0
11670,0.36333873867988586,31.667634963989258,494,6369.0,8.164871215820312,122,9930.0
11680,0.3633382022380829,26.332984924316406,372,6369.0,8.453020095825195,127,9930.0
11690,0.3631931245326996,14.870220184326172,180,6369.0,9.410969734191895,122,9930.0
11700,0.3621443510055542,-3.2610316276550293,-139,6369.0,12.175557136535645,250,9930.0
11710,0.361799418926239,-20.049497604370117,-390,6369.0,17.05472183227539,256,9930.0
11720,0.3613920509815216,-33.971675872802734,-572,6369.0,23.661792755126953,441,9930.0
11730,0.36093568801879883,-37.11774826049805,-620,6369.0,21.233192443847656,356,9930.0
11740,0.3594687581062317,-34.13456344604492,-460,6369.0,14.311911582946777,142,9930.0
11750,0.35897037386894226,-25.023042678833008,-401,6369.0,4.442759990692139,87,9930.0
11760,0.35821282863616943,-16.517831802368164,-225,6369.0,-4.446272373199463,-13,9930.0
11770,0.3575068414211273,-5.057337760925293,24,6369.0,-11.606800079345703,-313,9930.0
11780,0.3568997085094452,8.004716873168945,143,6369.0,-23.99226188659668,-387,9930.0
11790,0.35692650079727173,18.96317481994629,309,6369.0,-25.7967586517334,-250,9930.0
11800,0.35623762011528015,29.320009231567383,577,6369.0,-17.249967575073242,-320,9930.0
11810,0.3555733263492584,27.467756271362305,391,6369.0,-6.149974346160889,2,9930.0
11820,0.35498830676078796,15.552433967590332,197,6369.0,6.630130767822266,116,9930.0
11830,0.3539952337741852,0.6388528943061829,-60,6369.0,22.391416549682617,535,9930.0
11840,0.3536202013492584,-9.554637908935547,-160,6369.0,30.10346031188965,576,9930.0
11850,0.3532620966434479,-14.85037612915039,-196,6369.0,26.65481185913086,256,9930.0
11860,0.35310834646224976,-17.557323455810547,-347,6369.0,12.143442153930664,226,9930.0
11870,0.3532477617263794,-26.11488151550293,-488,6369.0,-0.8340753316879272,18,9930.0
11880,0.35469967126846313,-35.804298400878906,-561,6369.0,-19.533348083496094,-460,9930.0
11890,0.3549001216888428,-36.20058059692383,-514,6369.0,-43.55363464355469,-852,9930.0
11900,0.35511231422424316,-26.702112197875977,-407,6369.0,-51.431861877441406,-863,9930.0
11910,0.3554064631462097,-2.6790454387664795,18,6369.0,-44.83472442626953,-497,9930.0
11920,0.3558059632778168,24.192716598510742,554,6369.0,-25.941686630249023,-423,9930.0
11930,0.35593557357788086,51.471073150634766,899,6369.0,-13.150968551635742,-150,9930.0
11940,0.35668590664863586,65.2732925415039,986,6369.0,8.507183074951172,381,9930.0
11950,0.3570285141468048,57.803863525390625,965,6369.0,33.93571090698242,469,9930.0
11960,0.3560183346271515,42.853759765625,555,6369.0,44.00791931152344,808,9930.0
11970,0.35618263483047485,25.85078239440918,376,6369.0,44.49028778076172,659,9930.0
11980,0.3564772605895996,9.542505264282227,41,6369.0,37.35427474975586,481,9930.0
11990,0.3566555082798004,0.841230571269989,-9,6369.0,19.593339920043945,333,9930.0
12000,0.35672062635421753,0.977004885673523,98,6369.0,-1.8265156745910645,-170,9930.0
12010,0.3595106601715088,0.42849069833755493,7,6369.0,-24.120960235595703,-498,9930.0
12020,0.35971301794052124,4.7342448234558105,71,6369.0,-41.64256286621094,-674,9930.0
12030,0.35984373092651367,5.538530349731445,95,6369.0,-45.97480010986328,-799,9930.0
12040,0.36019155383110046,0.2192065417766571,-150,6369.0,-31.67346954345703,-312,9930.0
12050,0.35785624384880066,-10.552567481994629,-168,6369.0,-7.846371650695801,-75,9930.0
12060,0.3579850494861603,-20.581796646118164,-445,6369.0,13.453049659729004,363,9930.0
12070,0.35829928517341614,-20.313793182373047,-253,6369.0,28.072832107543945,388,9930.0
12080,0.35861736536026,-13.208564758300781,-196,6369.0,27.004732131958008,442,9930.0
12090,0.3590398132801056,-0.9582242965698242,63,6369.0,12.72189998626709,94,9930.0
12100,0.3579195737838745,3.2743217945098877,64,6369.0,0.8248780965805054,-87,9930.0
12110,0.3583575487136841,-0.6542584300041199,-136,6369.0,-13.221460342407227,-216,9930.0
12120,0.3587936758995056,-18.245609283447266,-269,6369.0,-16.328981399536133,-371,9930.0
12130,0.359239786863327,-30.701847076416016,-606,6369.0,-14.393213272094727,-156,9930.0
12140,0.35811275243759155,-31.51879119873047,-412,6369.0,-10.062564849853516,-124,9930.0
12150,0.3582868278026581,-16.28656578063965,-173,6369.0,-5.84726619720459,-99,9930.0
12160,0.35872000455856323,1.7424757480621338,179,6369.0,-2.308311700820923,84,9930.0
12170,0.35911938548088074,21.189577102661133,431,6369.0,-0.9905304312705994,-90,9930.0
12180,0.35959392786026,31.426441192626953,513,6369.0,1.940583348274231,138,9930.0
12190,0.3595914840698242,35.66769027709961,550,6369.0,9.976540565490723,221,9930.0
12200,0.3594740927219391,27.744028091430664,346,6369.0,18.32596778869629,428,9930.0
12210,0.359272837638855,14.553260803222656,102,6369.0,25.547292709350586,508,9930.0
12220,0.358933687210083,6.370749473571777,87,6369.0,22.487972259521484,297,9930.0
12230,0.3593398630619049,6.04386043548584,86,6369.0,11.495317459106445,132,9930.0
12240,0.3590160608291626,6.233985424041748,182,6369.0,-2.4192192554473877,-151,9930.0
12250,0.3585565686225891,9.079704284667969,231,6369.0,-14.341798782348633,-445,9930.0
12260,0.35794797539711,12.790924072265625,228,6369.0,-22.22783851623535,-286,9930.0
12270,0.3588249087333679,8.298136711120605,117,6369.0,-12.804060935974121,-184,9930.0
12280,0.3583982586860657,-5.338906288146973,-137,6369.0,-4.966209888458252,-27,9930.0
12290,0.35800597071647644,-19.148164749145508,-333,6369.0,2.4345827102661133,21,9930.0
12300,0.35769587755203247,-32.4874153137207,-711,6369.0,7.2532830238342285,234,9930.0
12310,0.3573911488056183,-45.098941802978516,-726,6369.0,9.036585807800293,122,9930.0
12320,0.35805314779281616,-38.07052230834961,-609,6369.0,4.069972515106201,72,9930.0
12330,0.35827401280403137,-17.483600616455078,-170,6369.0,-4.683155059814453,-132,9930.0
12340,0.35817769169807434,-0.6380854845046997,93,6369.0,-12.130955696105957,-241,9930.0
12350,0.358142614364624,-2.077998399734497,-66,6369.0,-2.7332849502563477,-148,9930.0
12360,0.35846638679504395,-17.546611785888672,-357,6369.0,6.3549981117248535,206,9930.0
12370,0.3584751784801483,-26.368003845214844,-393,6369.0,11.676467895507812,207,9930.0
12380,0.35847407579421997,-16.308597564697266,-242,6369.0,11.158148765563965,187,9930.0
12390,0.3586948812007904,4.965386390686035,244,6369.0,6.561873435974121,48,9930.0
12400,0.35960158705711365,26.272663116455078,514,6369.0,1.952996850013733,68,9930.0
12410,0.3596211373806,38.66427230834961,689,6369.0,-5.702893257141113,-22,9930.0
12420,0.35974007844924927,48.80648422241211,828,6369.0,-13.966403007507324,-286,9930.0
12430,0.35975581407546997,52.76435470581055,808,6369.0,-19.69260025024414,-281,9930.0
12440,0.359689861536026,40.56830596923828,605,6369.0,-12.648533821105957,-235,9930.0
12450,0.36067450046539307,16.708189010620117,177,6369.0,-7.045999526977539,-110,9930.0
12460,0.3605411946773529,-14.284356117248535,-373,6369.0,2.586298942565918,33,9930.0
12470,0.3604971766471863,-38.937042236328125,-712,6369.0,5.925136089324951,44,9930.0
12480,0.3605591952800751,-51.99118423461914,-857,6369.0,3.8972387313842773,134,9930.0
12490,0.35947516560554504,-42.197608947753906,-503,6369.0,2.1749322414398193,121,9930.0
12500,0.3593185842037201,-13.633726119995117,-106,6369.0,4.712160587310791,22,9930.0
12510,0.35920509696006775,10.821006774902344,252,6369.0,3.1722264289855957,57,9930.0
12520,0.3591657876968384,28.377058029174805,489,6369.0,-5.292969703674316,-107,9930.0
12530,0.359038382768631,26.29669952392578,454,6369.0,-10.321127891540527,-361,9930.0
12540,0.35971635580062866,18.06402015686035,238,6369.0,-16.84183692932129,-204,9930.0
12550,0.35966628789901733,9.92354679107666,127,6369.0,-13.102471351623535,-192,9930.0
12560,0.3596533536911011,-2.0970864295959473,-88,6369.0,-4.136257171630859,-13,9930.0
12570,0.3598008453845978,-9.031304359436035,-128,6369.0,4.263896465301514,147,9930.0
12580,0.3599671721458435,-13.976558685302734,-218,6369.0,15.697513580322266,253,9930.0
12590,0.36007580161094666,-19.72842788696289,-361,6369.0,21.81605339050293,479,9930.0
12600,0.3601846992969513,-26.184633255004883,-432,6369.0,22.454618453979492,374,9930.0
12610,0.36034727096557617,-30.379638671875,-534,6369.0,20.377079010009766,279,9930.0
12620,0.3610369861125946,-37.192996978759766,-698,6369.0,10.167435646057129,181,9930.0
12630,0.36145463585853577,-36.0240592956543,-470,6369.0,-1.4836740493774414,-34,9930.0
12640,0.36171954870224,-18.98673439025879,-165,6369.0,-10.476404190063477,-138,9930.0
12650,0.36195680499076843,8.744717597961426,352,6369.0,-7.180114269256592,-254,9930.0
12660,0.36262646317481995,35.149452209472656,676,6369.0,-12.812975883483887,-146,9930.0
12670,0.36526820063591003,49.23042678833008,786,6369.0,-13.101806640625,-116,9930.0
12680,0.36566099524497986,51.64736557006836,876,6369.0,-11.599786758422852,-197,9930.0
12690,0.3659711480140686,46.40427780151367,648,6369.0,-11.993461608886719,-153,9930.0
12700,0.3663252890110016,31.912080764770508,397,6369.0,-6.216526031494141,-65,9930.0
12710,0.36665990948677063,19.20454978942871,236,6369.0,-4.442272663116455,-142,9930.0
12720,0.3667588531970978,2.162431240081787,-74,6369.0,0.06511730700731277,64,9930.0
12730,0.36678633093833923,-10.516241073608398,-167,6369.0,3.3374431133270264,52,9930.0
12740,0.36667343974113464,-15.011649131774902,-307,6369.0,10.735588073730469,312,9930.0
12750,0.3665129244327545,-16.389671325683594,-192,6369.0,16.770641326904297,251,9930.0
12760,0.3665245771408081,-17.047527313232422,-304,6369.0,18.458904266357422,251,9930.0
12770,0.3663558065891266,-17.142494201660156,-259,6369.0,12.487739562988281,239,9930.0
12780,0.366258442401886,-14.466273307800293,-184,6369.0,7.318185329437256,0,9930.0
12790,0.3661373555660248,-9.795869827270508,-118,6369.0,4.654374122619629,117,9930.0
12800,0.3676869571208954,2.00825834274292,133,6369.0,-1.1683671474456787,-7,9930.0
12810,0.3679060935974121,12.401350021362305,186,6369.0,-6.404026031494141,-178,9930.0
12820,0.3681482672691345,13.243640899658203,145,6369.0,-10.97323226928711,-107,9930.0
12830,0.3684238791465759,3.4230782985687256,70,6369.0,-11.180015563964844,-308,9930.0
12840,0.3676888942718506,-8.629679679870605,-200,6369.0,-12.305126190185547,-111,9930.0
12850,0.3679903447628021,-16.622634887695312,-259,6369.0,-13.742663383483887,-302,9930.0
12860,0.36826956272125244,-21.205686569213867,-376,6369.0,-15.234971046447754,-157,9930.0
12870,0.3685639798641205,-15.510149955749512,-177,6369.0,-8.976146697998047,-53,9930.0
12880,0.36873123049736023,5.404837608337402,265,6369.0,1.063225269317627,-1,9930.0
12890,0.3682611882686615,26.4763126373291,456,6369.0,9.991235733032227,331,9930.0
12900,0.3683115541934967,34.0764045715332,585,6369.0,18.35515022277832,301,9930.0
12910,0.36835014820098877,34.670860290527344,553,6369.0,18.966995239257812,324,9930.0
12920,0.36824285984039307,27.324665069580078,373,6369.0,14.349020004272461,205,9930.0
12930,0.36722105741500854,12.886265754699707,214,6369.0,6.539011001586914,44,9930.0
12940,0.36703231930732727,-1.4095860719680786,-173,6369.0,-0.8136526942253113,7,9930.0
12950,0.36663997173309326,-15.4776611328125,-255,6369.0,-4.936263084411621,-165,9930.0
12960,0.3662097156047821,-19.435382843017578,-367,6369.0,-6.955982685089111,-106,9930.0
12970,0.36581358313560486,-13.980131149291992,-143,6369.0,-4.061600685119629,-110,9930.0
12980,0.365018755197525,-5.769257068634033,-138,6369.0,4.116621971130371,154,9930.0
12990,0.3645175099372864,5.030420780181885,163,6369.0,10.666257858276367,93,9930.0
13000,0.3639723062515259,9.995028495788574,137,6369.0,8.937870025634766,142,9930.0
13010,0.36338406801223755,6.902562618255615,139,6369.0,1.8345657587051392,-37,9930.0
13020,0.3644677996635437,3.119450807571411,-6,6369.0,-1.4490547180175781,7,9930.0
13030,0.3640601336956024,-4.918358325958252,-109,6369.0,-3.1919775009155273,-103,9930.0
13040,0.36369290947914124,-10.20983600616455,-165,6369.0,-4.743962287902832,-153,9930.0
13050,0.36334866285324097,-17.93975830078125,-338,6369.0,-5.147658824920654,-23,9930.0
13060,0.36188623309135437,-24.00997543334961,-387,6369.0,-5.949539661407471,-222,9930.0
13070,0.3615369200706482,-28.213897705078125,-587,6369.0,-6.129672050476074,10,9930.0
13080,0.3612408936023712,-37.04563903808594,-595,6369.0,1.1688828468322754,-79,9930.0
13090,0.360975444316864,-44.61262130737305,-805,6369.0,-1.6519370079040527,33,9930.0
13100,0.36066296696662903,-42.47709655761719,-639,6369.0,-4.779903411865234,-36,9930.0
13110,0.360350638628006,-28.237287521362305,-298,6369.0,-3.7132811546325684,-90,9930.0
13120,0.36021989583969116,4.25314998626709,192,6369.0,-1.0777041912078857,-57,9930.0
13130,0.35997453331947327,34.42595291137695,645,6369.0,2.137172222137451,139,9930.0
13140,0.3599052429199219,60.70703887939453,1110,6369.0,1.940661907196045,-41,9930.0
13150,0.35935893654823303,70.92527770996094,1191,6369.0,2.4165573120117188,-51,9930.0
13160,0.3590083718299866,59.889259338378906,782,6369.0,3.369657278060913,155,9930.0
13170,0.3585784435272217,31.715848922729492,434,6369.0,10.7722806930542,104,9930.0
13180,0.3582272529602051,3.1988425254821777,-130,6369.0,10.466858863830566,233,9930.0
13190,0.35811907052993774,-26.295133590698242,-517,6369.0,9.382790565490723,89,9930.0
13200,0.35881805419921875,-38.86155319213867,-655,6369.0,5.431896686553955,44,9930.0
13210,0.35835886001586914,-37.87019729614258,-654,6369.0,-2.3031582832336426,-10,9930.0
13220,0.357957124710083,-24.44415855407715,-294,6369.0,-9.901412963867188,-279,9930.0
13230,0.3575992286205292,-10.304769515991211,-105,6369.0,-20.40227508544922,-429,9930.0
13240,0.35794854164123535,2.823606014251709,22,6369.0,-26.809110641479492,-360,9930.0
13250,0.35763758420944214,14.390105247497559,352,6369.0,-23.068408966064453,-379,9930.0
13260,0.35753849148750305,22.840686798095703,330,6369.0,-9.482122421264648,17,9930.0
13270,0.3575952351093292,20.52280044555664,342,6369.0,8.46357250213623,184,9930.0
13280,0.35892149806022644,13.38418197631836,77,6369.0,26.52669906616211,536,9930.0
13290,0.35902103781700134,2.5373318195343018,25,6369.0,35.502079010009766,594,9930.0
13300,0.35926175117492676,-6.445998191833496,-181,6369.0,34.76568603515625,518,9930.0
13310,0.35960516333580017,-19.222209930419922,-405,6369.0,24.59347152709961,392,9930.0
13320,0.3600205183029175,-32.011085510253906,-507,6369.0,13.957265853881836,70,9930.0
13330,0.36160901188850403,-43.72503662109375,-841,6369.0,4.173342704772949,98,9930.0
13340,0.36210790276527405,-52.62773513793945,-833,6369.0,-5.087431907653809,-144,9930.0
13350,0.3625340461730957,-51.0745964050293,-796,6369.0,-12.531899452209473,-292,9930.0
13360,0.36357930302619934,-34.79853057861328,-519,6369.0,-16.737152099609375,-179,9930.0
13370,0.3651648759841919,-12.744956970214844,-18,6369.0,-19.39413833618164,-393,9930.0
13380,0.3658587336540222,11.157160758972168,281,6369.0,-22.67015838623047,-414,9930.0
13390,0.3665482997894287,26.20655059814453,501,6369.0,-21.026655197143555,-234,9930.0
13400,0.3671809136867523,39.924320220947266,750,6369.0,-19.457185745239258,-414,9930.0
13410,0.3677670657634735,45.901615142822266,718,6369.0,-19.55809211730957,-147,9930.0
13420,0.3676173686981201,41.09371566772461,622,6369.0,-9.271598815917969,-188,9930.0
13430,0.367925226688385,28.217947006225586,401,6369.0,7.205418109893799,275,9930.0
13440,0.36862242221832275,13.793904304504395,233,6369.0,18.217008590698242,339,9930.0
13450,0.36895591020584106,3.47005558013916,3,6369.0,29.686128616333008,522,9930.0
13460,0.36907652020454407,-1.0986266136169434,-89,6369.0,34.08617401123047,660,9930.0
13470,0.36916443705558777,-2.197464942932129,39,6369.0,32.95210266113281,452,9930.0
13480,0.3691461384296417,2.4104766845703125,-26,6369.0,21.807008743286133,237,9930.0
13490,0.3690107464790344,7.580317497253418,218,6369.0,5.7556986808776855,-38,9930.0
13500,0.3707781434059143,14.800188064575195,348,6369.0,-11.412128448486328,-351,9930.0
13510,0.3706129193305969,15.489073753356934,241,6369.0,-23.445816040039062,-446,9930.0
13520,0.370431512594223,10.097490310668945,88,6369.0,-20.46665382385254,-426,9930.0
13530,0.370145708322525,0.4375140964984894,-15,6369.0,-16.13228988647461,-241,9930.0
13540,0.3698529303073883,-9.355765342712402,-262,6369.0,-5.880722522735596,-31,9930.0
13550,0.36958619952201843,-16.97944450378418,-227,6369.0,4.725080966949463,107,9930.0
13560,0.3692876994609833,-17.038034439086914,-340,6369.0,10.735712051391602,231,9930.0
13570,0.36895978450775146,-22.46486473083496,-375,6369.0,18.185293197631836,381,9930.0
13580,0.3685699701309204,-26.527738571166992,-417,6369.0,27.407943725585938,448,9930.0
13590,0.36884260177612305,-28.459569931030273,-404,6369.0,27.489967346191406,410,9930.0
13600,0.36858856678009033,-21.272090911865234,-357,6369.0,19.93627166748047,226,9930.0
13610,0.36810413002967834,-13.516607284545898,-147,6369.0,9.723958015441895,116,9930.0
13620,0.36763161420822144,-2.4335739612579346,-29,6369.0,-1.616390347480774,-15,9930.0
13630,0.3672005236148834,4.357880115509033,146,6369.0,-12.477168083190918,-243,9930.0
13640,0.36657270789146423,15.488629341125488,355,6369.0,-16.70366668701172,-357,9930.0
13650,0.366046279668808,26.064184188842773,411,6369.0,-15.993979454040527,-200,9930.0
13660,0.36535507440567017,31.69106101989746,519,6369.0,-13.88691520690918,-202,9930.0
13670,0.36458122730255127,32.90412139892578,452,6369.0,-9.643896102905273,-29,9930.0
13680,0.3620087206363678,26.047231674194336,382,6369.0,-0.2802737057209015,53,9930.0
13690,0.36116859316825867,16.495532989501953,139,6369.0,7.105520725250244,216,9930.0
13700,0.3605358898639679,3.899850606918335,90,6369.0,12.51052474975586,111,9930.0
13710,0.3595708906650543,3.656521797180176,29,6369.0,15.02789306640625,303,9930.0
13720,0.3594955801963806,13.012075424194336,300,6369.0,17.599672317504883,367,9930.0
13730,0.35851678252220154,25.125059127807617,441,6369.0,16.134418487548828,259,9930.0
13740,0.3576631247997284,29.916492462158203,505,6369.0,10.557784080505371,178,9930.0
13750,0.3566828668117523,28.387325286865234,456,6369.0,3.6887106895446777,7,9930.0
13760,0.3557772934436798,20.36980628967285,265,6369.0,-7.384200096130371,-115,9930.0
13770,0.3565584421157837,6.346443176269531,26,6369.0,-15.227640151977539,-324,9930.0
13780,0.3558586537837982,-11.468059539794922,-283,6369.0,-20.16726303100586,-256,9930.0
13790,0.3551715314388275,-29.85231590270996,-555,6369.0,-21.32068634033203,-398,9930.0
13800,0.3545323610305786,-44.58262252807617,-773,6369.0,-15.663063049316406,-205,9930.0
13810,0.35669392347335815,-46.363277435302734,-685,6369.0,-7.288540840148926,-102,9930.0
13820,0.35617709159851074,-40.863014221191406,-704,6369.0,0.818650484085083,120,9930.0
13830,0.355722576379776,-33.848487854003906,-482,6369.0,7.83189058303833,239,9930.0
13840,0.3553396463394165,-30.54068374633789,-529,6369.0,14.628515243530273,252,9930.0
13850,0.3572099208831787,-24.963380813598633,-431,6369.0,23.645689010620117,543,9930.0
13860,0.35726672410964966,-17.778501510620117,-209,6369.0,28.14795684814453,395,9930.0
13870,0.357336163520813,-11.326436996459961,-155,6369.0,23.0134334564209,267,9930.0
13880,0.3574943542480469,-9.548299789428711,-206,6369.0,13.445501327514648,151,9930.0
13890,0.3577137589454651,-4.155679702758789,-81,6369.0,-2.0078556537628174,-44,9930.0
13900,0.3579969108104706,9.746685981750488,333,6369.0,-25.526214599609375,-619,9930.0
13910,0.3583802878856659,30.03704261779785,621,6369.0,-48.14884567260742,-852,9930.0
13920,0.3586830198764801,38.6365966796875,573,6369.0,-57.11628341674805,-883,9930.0
13930,0.35918015241622925,36.484535217285156,617,6369.0,-52.24094009399414,-852,9930.0
13940,0.3599812388420105,24.563987731933594,333,6369.0,-36.845176696777344,-451,9930.0
13950,0.3603712320327759,15.408428192138672,173,6369.0,-15.61429214477539,-171,9930.0
13960,0.36066827178001404,3.17563533782959,16,6369.0,9.911048889160156,306,9930.0
13970,0.36126020550727844,-0.11448529362678528,-7,6369.0,30.417940139770508,619,9930.0
13980,0.3616218864917755,1.308732509613037,53,6369.0,47.447052001953125,823,9930.0
13990,0.3638363778591156,5.234996318817139,114,6369.0,51.40532684326172,804,9930.0
14000,0.36420583724975586,11.158406257629395,217,6369.0,41.17679214477539,608,9930.0
14010,0.3645128011703491,15.509016036987305,276,6369.0,20.975170135498047,157,9930.0
14020,0.36482173204421997,14.67573070526123,201,6369.0,0.16941756010055542,-33,9930.0
14030,0.3661902844905853,4.821848392486572,41,6369.0,-14.786121368408203,-379,9930.0
14040,0.3665648400783539,-11.300704956054688,-211,6369.0,-25.356067657470703,-349,9930.0
14050,0.3669082522392273,-25.274629592895508,-393,6369.0,-28.32744026184082,-514,9930.0
14060,0.3671315908432007,-27.037931442260742,-411,6369.0,-18.170061111450195,-147,9930.0
14070,0.36946117877960205,-23.15480613708496,-421,6369.0,-7.969571590423584,-33,9930.0
14080,0.3696795701980591,-23.006309509277344,-347,6369.0,4.296372413635254,183,9930.0
14090,0.36971285939216614,-14.508213996887207,-260,6369.0,13.859823226928711,308,9930.0
