timestamp,kalman.stateZ,gyro.x,gyro.xRaw,gyro.xVariance,gyro.y,gyro.yRaw,gyro.yVariance
0,0.2610107660293579,0.4201756715774536,3,5497.0,-3.0123953819274902,-57,9926.0
10,0.2609567940235138,-0.08808974176645279,8,5497.0,-3.1552271842956543,-59,9926.0
20,0.260846883058548,0.1375586837530136,8,5497.0,-3.7674221992492676,-64,9926.0
30,0.26071932911872864,-0.0032746698707342148,3,5497.0,-4.061827659606934,-61,9926.0
40,0.26058799028396606,0.008738778531551361,-5,5497.0,-4.063604831695557,-67,9926.0
50,0.2598899304866791,-0.0808815062046051,2,5497.0,-4.269128322601318,-69,9926.0
60,0.25972211360931396,0.025161953642964363,5,5497.0,-4.3537678718566895,-74,9926.0
70,0.2595705986022949,0.2496235966682434,-1,5497.0,-4.2316741943359375,-64,9926.0
80,0.2594076693058014,0.08406286686658859,3,5497.0,-4.195836067199707,-65,9926.0
90,0.25952818989753723,0.1651785671710968,-1,5497.0,-3.6906819343566895,-59,9926.0
100,0.25936296582221985,0.17724524438381195,3,5497.0,-3.9723660945892334,-66,9926.0
110,0.259194940328598,-0.2434571385383606,0,5497.0,-3.5029170513153076,-52,9926.0
120,0.2590866684913635,0.09395530819892883,3,5497.0,-3.0475270748138428,-43,9926.0
130,0.25891679525375366,-0.003121637972071767,2,5497.0,-2.7136309146881104,-43,9926.0
140,0.25876128673553467,-0.16382662951946259,9,5497.0,-2.332247018814087,-39,9926.0
150,0.2586359977722168,0.13840976357460022,2,5497.0,-1.9166666269302368,-21,9926.0
160,0.25846990942955017,-0.2861800193786621,-6,5497.0,-1.3746694326400757,-10,9926.0
170,0.2583271861076355,-0.1316884458065033,0,5497.0,1.2684861421585083,44,9926.0
180,0.25930899381637573,0.9000914692878723,28,5497.0,4.743405818939209,102,9926.0
190,0.2593543231487274,-0.20317454636096954,-5,5497.0,10.398934364318848,237,9926.0
200,0.2594768702983856,2.6091063022613525,35,5497.0,17.491592407226562,336,9926.0
210,0.2595689296722412,3.527480125427246,87,5497.0,28.568317413330078,500,9926.0
220,0.2610110640525818,2.922210216522217,106,5497.0,42.427764892578125,738,9926.0
230,0.2613157629966736,5.155869007110596,133,5497.0,54.74927520751953,903,9926.0
240,0.2614629566669464,5.982224941253662,122,5497.0,67.33222198486328,1140,9926.0
250,0.261312872171402,7.0220746994018555,111,5497.0,75.42818450927734,1337,9926.0
260,0.26104965806007385,8.856901168823242,80,5497.0,82.70319366455078,1432,9926.0
270,0.26073166728019714,6.2393798828125,101,5497.0,85.14093017578125,1347,9926.0
280,0.2601393163204193,6.20994758605957,147,5497.0,79.72248840332031,1233,9926.0
290,0.26087382435798645,7.735579490661621,161,5497.0,69.28569030761719,1109,9926.0
300,0.26067206263542175,5.813152313232422,53,5497.0,53.18356704711914,878,9926.0
310,0.25903069972991943,4.679641246795654,113,5497.0,36.900997161865234,408,9926.0
320,0.25897416472435,5.8055338859558105,67,5497.0,16.173023223876953,289,9926.0
330,0.2596629858016968,3.9392597675323486,67,5497.0,-0.8333557844161987,-168,9926.0
340,0.2596035599708557,4.228454113006592,55,5497.0,-18.178213119506836,-295,9926.0
350,0.26051241159439087,2.0792181491851807,72,5497.0,-29.50017547607422,-596,9926.0
360,0.26050496101379395,2.1255409717559814,-33,5497.0,-35.7122917175293,-547,9926.0
370,0.26071789860725403,0.5242305397987366,35,5497.0,-37.59233856201172,-521,9926.0
380,0.26068517565727234,-0.6535441875457764,-14,5497.0,-29.82719612121582,-612,9926.0
390,0.2604844868183136,-1.3177299499511719,-49,5497.0,-22.24979019165039,-271,9926.0
400,0.2613982558250427,-2.0068111419677734,-90,5497.0,-8.298977851867676,-56,9926.0
410,0.26152804493904114,-2.980271100997925,-111,5497.0,4.653347969055176,373,9926.0
420,0.2617529034614563,-3.4702019691467285,-81,5497.0,19.15033721923828,493,9926.0
430,0.26183637976646423,-4.33250093460083,-117,5497.0,32.344051361083984,694,9926.0
440,0.26230284571647644,-1.151079535484314,38,5497.0,44.20347213745117,838,9926.0
450,0.2623584568500519,-2.734018325805664,34,5497.0,48.558197021484375,735,9926.0
460,0.2623575031757355,-2.115844488143921,59,5497.0,50.07188034057617,599,9926.0
470,0.26205822825431824,-0.45955610275268555,48,5497.0,45.66822814941406,634,9926.0
480,0.2618934214115143,1.686218500137329,26,5497.0,35.55696105957031,564,9926.0
490,0.2615102529525757,3.0589897632598877,82,5497.0,24.861934661865234,422,9926.0
500,0.2619164288043976,4.523497104644775,54,5497.0,9.72469711303711,113,9926.0
510,0.2620803415775299,4.9025421142578125,48,5497.0,-4.7639946937561035,-29,9926.0
520,0.2622227668762207,3.9504854679107666,45,5497.0,-16.812267303466797,-166,9926.0
530,0.26212549209594727,3.116946220397949,16,5497.0,-25.954940795898438,-287,9926.0
540,0.2623131275177002,2.4917399883270264,64,5497.0,-30.48941993713379,-439,9926.0
550,0.2623927593231201,-0.4034969210624695,41,5497.0,-31.603439331054688,-563,9926.0
560,0.26276353001594543,-2.7700726985931396,43,5497.0,-29.22657012939453,-582,9926.0
570,0.26226145029067993,-5.265745639801025,-79,5497.0,-24.511676788330078,-322,9926.0
580,0.2623334527015686,-4.089449882507324,-114,5497.0,-14.946343421936035,-99,9926.0
590,0.262539267539978,-4.495720386505127,-123,5497.0,-7.106267929077148,53,9926.0
600,0.26271915435791016,-4.650822162628174,-151,5497.0,5.105889320373535,187,9926.0
610,0.26300325989723206,-5.028745174407959,-154,5497.0,13.848404884338379,459,9926.0
620,0.2616211771965027,-4.138127326965332,-170,5497.0,21.11083221435547,523,9926.0
630,0.2616332471370697,-2.791170358657837,-122,5497.0,27.720947265625,536,9926.0
640,0.26174435019493103,-4.073953628540039,-86,5497.0,27.981922149658203,357,9926.0
650,0.2622184455394745,-2.726736307144165,-53,5497.0,27.767627716064453,417,9926.0
660,0.2618480324745178,0.8774905800819397,-65,5497.0,23.307222366333008,323,9926.0
670,0.2619765102863312,0.009441179223358631,-92,5497.0,14.402359008789062,209,9926.0
680,0.26250261068344116,0.04158710688352585,-107,5497.0,4.9334588050842285,150,9926.0
690,0.26286935806274414,-0.7520806789398193,-57,5497.0,-4.597745895385742,47,9926.0
700,0.26330816745758057,1.2977272272109985,4,5497.0,-12.080002784729004,-146,9926.0
710,0.2640950679779053,1.2218137979507446,41,5497.0,-18.755218505859375,-348,9926.0
720,0.2646861970424652,2.484921932220459,38,5497.0,-24.76361656188965,-405,9926.0
730,0.2652447521686554,5.098725318908691,35,5497.0,-26.50731658935547,-282,9926.0
740,0.26597750186920166,6.903222560882568,-21,5497.0,-24.457454681396484,-208,9926.0
750,0.26527494192123413,4.243805885314941,40,5497.0,-20.70026206970215,-210,9926.0
760,0.2660214602947235,2.1076862812042236,80,5497.0,-15.414365768432617,-347,9926.0
770,0.26675769686698914,3.069012403488159,60,5497.0,-7.855270862579346,-285,9926.0
780,0.2674647867679596,3.5052874088287354,79,5497.0,-1.9522393941879272,-33,9926.0
790,0.26676082611083984,-1.6874098777770996,65,5497.0,3.575672149658203,111,9926.0
800,0.2674897015094757,-2.512117624282837,60,5497.0,9.884730339050293,117,9926.0
810,0.2681727111339569,-2.3925974369049072,41,5497.0,13.261613845825195,161,9926.0
820,0.26883620023727417,-1.9757513999938965,48,5497.0,13.358835220336914,178,9926.0
830,0.26945868134498596,-2.846259593963623,-14,5497.0,13.311129570007324,248,9926.0
840,0.2682540714740753,-2.140073537826538,-49,5497.0,10.580156326293945,166,9926.0
850,0.26868462562561035,-2.0095443725585938,20,5497.0,7.14536714553833,8,9926.0
860,0.26905980706214905,-2.570812702178955,83,5497.0,2.152785539627075,-131,9926.0
870,0.26941075921058655,-1.1056184768676758,96,5497.0,-2.414419174194336,-169,9926.0
880,0.2670898139476776,-0.37729066610336304,64,5497.0,-9.28650188446045,-168,9926.0
890,0.26736047863960266,2.3701729774475098,26,5497.0,-13.036579132080078,-87,9926.0
900,0.2676248550415039,3.4955480098724365,32,5497.0,-16.26896095275879,-27,9926.0
910,0.26790013909339905,4.633018493652344,43,5497.0,-17.083316802978516,-28,9926.0
920,0.2681802213191986,3.6104867458343506,28,5497.0,-14.37342357635498,-131,9926.0
930,0.2651311159133911,1.1592955589294434,33,5497.0,-9.1041898727417,-212,9926.0
940,0.26518571376800537,0.47506120800971985,38,5497.0,-2.455888509750366,-182,9926.0
950,0.26550573110580444,1.65831458568573,53,5497.0,0.29455384612083435,-74,9926.0
960,0.26561596989631653,0.14799989759922028,4,5497.0,5.7889404296875,104,9926.0
970,0.264989972114563,2.0918102264404297,-1,5497.0,8.069697380065918,383,9926.0
980,0.2649388015270233,2.3729770183563232,-123,5497.0,10.550676345825195,302,9926.0
990,0.26487821340560913,1.3072048425674438,-63,5497.0,12.653892517089844,270,9926.0
1000,0.2649898827075958,-1.1303852796554565,-50,5497.0,10.296826362609863,228,9926.0
1010,0.2642609477043152,-1.881441354751587,23,5497.0,5.942752838134766,129,9926.0
1020,0.26445576548576355,-2.1378118991851807,101,5497.0,1.8605477809906006,40,9926.0
1030,0.2642561197280884,-0.06893669813871384,78,5497.0,-1.7633873224258423,-106,9926.0
1040,0.2640029489994049,-0.7519240379333496,-94,5497.0,-7.752199172973633,-51,9926.0
1050,0.26382043957710266,-3.328874349594116,-78,5497.0,-9.682263374328613,-71,9926.0
1060,0.2625870704650879,-3.181779623031616,24,5497.0,-12.965993881225586,-124,9926.0
1070,0.2623123228549957,-0.2532765865325928,-143,5497.0,-13.762415885925293,-78,9926.0
1080,0.26177123188972473,0.8446148037910461,-115,5497.0,-8.63532829284668,-4,9926.0
1090,0.261079877614975,-0.673054575920105,-9,5497.0,-5.114510536193848,29,9926.0
1100,0.26174402236938477,1.9588252305984497,-119,5497.0,0.9902516007423401,91,9926.0
1110,0.26098722219467163,5.915688514709473,46,5497.0,4.632425785064697,-33,9926.0
1120,0.26013416051864624,5.267492294311523,172,5497.0,10.422679901123047,163,9926.0
1130,0.25937968492507935,4.4698262214660645,88,5497.0,14.954283714294434,69,9926.0
1140,0.25854232907295227,6.039952754974365,152,5497.0,13.14858627319336,282,9926.0
1150,0.2602680027484894,3.0028018951416016,-36,5497.0,13.692558288574219,266,9926.0
1160,0.2595033645629883,1.5388964414596558,20,5497.0,10.997889518737793,206,9926.0
1170,0.25873443484306335,0.12240386754274368,-6,5497.0,5.512502193450928,-95,9926.0
1180,0.25813841819763184,0.68253493309021,95,5497.0,-0.26927345991134644,120,9926.0
1190,0.2602728605270386,0.9219005107879639,-90,5497.0,-2.610844850540161,-67,9926.0
1200,0.2598973214626312,0.36560356616973877,9,5497.0,-7.1122517585754395,-128,9926.0
1210,0.2597895860671997,0.5716426372528076,40,5497.0,-7.5330657958984375,11,9926.0
1220,0.2596665024757385,1.4976075887680054,-152,5497.0,-6.076684951782227,-64,9926.0
1230,0.2614312767982483,-2.036310911178589,32,5497.0,-0.7149596214294434,-104,9926.0
1240,0.261622816324234,-3.0731000900268555,22,5497.0,2.625197649002075,115,9926.0
1250,0.26165831089019775,-2.084754228591919,-153,5497.0,5.393576145172119,12,9926.0
1260,0.261798232793808,-4.6484904289245605,29,5497.0,8.056647300720215,114,9926.0
1270,0.2618074417114258,-3.2920217514038086,6,5497.0,11.501341819763184,232,9926.0
1280,0.2636983096599579,-1.8513532876968384,16,5497.0,12.196303367614746,80,9926.0
1290,0.26405248045921326,-0.7323978543281555,-65,5497.0,15.383026123046875,345,9926.0
1300,0.26445943117141724,2.6259448528289795,70,5497.0,15.244841575622559,258,9926.0
1310,0.26488450169563293,3.4166383743286133,149,5497.0,10.380391120910645,202,9926.0
1320,0.2686231732368469,4.226225852966309,53,5497.0,6.92841911315918,-61,9926.0
1330,0.26934781670570374,4.427089691162109,100,5497.0,8.951086044311523,238,9926.0
1340,0.27018603682518005,3.098259687423706,53,5497.0,5.659637451171875,35,9926.0
1350,0.2709132432937622,3.4151275157928467,71,5497.0,6.407076835632324,135,9926.0
1360,0.271627813577652,1.3662018775939941,-165,5497.0,6.699251174926758,69,9926.0
1370,0.27341750264167786,-1.486081838607788,20,5497.0,10.957841873168945,109,9926.0
1380,0.27419719099998474,-0.8639535307884216,-49,5497.0,9.929731369018555,256,9926.0
1390,0.27496907114982605,-2.062523126602173,37,5497.0,12.71246337890625,-41,9926.0
1400,0.2757461667060852,-1.819703221321106,-140,5497.0,10.304370880126953,236,9926.0
1410,0.2780821621417999,-5.988711357116699,-131,5497.0,14.645633697509766,249,9926.0
1420,0.27905791997909546,-6.320803642272949,16,5497.0,14.254593849182129,246,9926.0
1430,0.28003352880477905,-1.6701899766921997,-159,5497.0,9.947357177734375,93,9926.0
1440,0.28122392296791077,-2.798391580581665,-24,5497.0,10.56049919128418,159,9926.0
1450,0.2810482680797577,-2.1014621257781982,31,5497.0,10.143884658813477,243,9926.0
1460,0.28204891085624695,-0.22400791943073273,7,5497.0,10.511795997619629,33,9926.0
1470,0.2830688953399658,-0.14331480860710144,84,5497.0,4.519338130950928,62,9926.0
1480,0.2839367091655731,-0.13153845071792603,8,5497.0,8.99005126953125,125,9926.0
1490,0.2847630977630615,1.2932243347167969,-59,5497.0,7.049622058868408,125,9926.0
1500,0.2848925292491913,0.7157017588615417,165,5497.0,7.985872745513916,80,9926.0
1510,0.2856427729129791,0.045196887105703354,-67,5497.0,6.867015361785889,269,9926.0
1520,0.2862694263458252,0.22050271928310394,-17,5497.0,7.709660530090332,128,9926.0
1530,0.28699201345443726,-1.7904143333435059,62,5497.0,6.076046466827393,-12,9926.0
1540,0.2857573926448822,-2.4645423889160156,-82,5497.0,4.70667028427124,245,9926.0
1550,0.2862417995929718,-2.3587257862091064,-29,5497.0,4.860349655151367,101,9926.0
1560,0.28669682145118713,-1.8844640254974365,-41,5497.0,4.6309285163879395,49,9926.0
1570,0.28699514269828796,-0.15986855328083038,-21,5497.0,2.485731601715088,230,9926.0
1580,0.28734174370765686,-0.030576789751648903,-65,5497.0,5.017820835113525,-10,9926.0
1590,0.28619977831840515,1.7443459033966064,43,5497.0,4.646012306213379,124,9926.0
1600,0.2863699495792389,2.5912649631500244,42,5497.0,5.707326889038086,250,9926.0
1610,0.2865079939365387,4.845610618591309,-79,5497.0,4.2104387283325195,28,9926.0
1620,0.2866383492946625,1.2206552028656006,124,5497.0,1.9702175855636597,13,9926.0
1630,0.2840668261051178,1.3689424991607666,16,5497.0,3.2274794578552246,36,9926.0
1640,0.2839689254760742,2.07047700881958,-24,5497.0,-0.864232063293457,-24,9926.0
1650,0.2838670611381531,0.0831395760178566,128,5497.0,-0.07252351194620132,72,9926.0
1660,0.2838020324707031,1.610325574874878,-87,5497.0,-3.731820583343506,15,9926.0
1670,0.282254159450531,0.8540031909942627,3,5497.0,-1.4148125648498535,-75,9926.0
1680,0.28223830461502075,0.3567112684249878,72,5497.0,-1.3093231916427612,104,9926.0
1690,0.2823582887649536,-0.12178580462932587,-96,5497.0,-0.4284215271472931,-96,9926.0
1700,0.2826630473136902,2.5695724487304688,20,5497.0,0.02020714432001114,89,9926.0
1710,0.28315895795822144,0.7099849581718445,-10,5497.0,-3.61289119720459,-32,9926.0
1720,0.2812340557575226,-0.26010507345199585,40,5497.0,-5.356756687164307,-173,9926.0
1730,0.28184106945991516,0.5375005602836609,-149,5497.0,-10.227410316467285,-134,9926.0
1740,0.2825409173965454,-1.674668312072754,60,5497.0,-12.34741497039795,-146,9926.0
1750,0.28320249915122986,-1.490199327468872,-106,5497.0,-9.060816764831543,-139,9926.0
1760,0.28108489513397217,-0.6853905916213989,7,5497.0,-13.667259216308594,-337,9926.0
1770,0.28161823749542236,0.9835001230239868,-80,5497.0,-14.898202896118164,-109,9926.0
1780,0.2821125388145447,-1.78103506565094,95,5497.0,-15.076377868652344,-261,9926.0
1790,0.2826894521713257,-0.49968019127845764,-33,5497.0,-12.231800079345703,-244,9926.0
1800,0.2831933796405792,-1.8737728595733643,-31,5497.0,-10.75439167022705,-338,9926.0
1810,0.28194165229797363,0.13249129056930542,11,5497.0,-12.438318252563477,25,9926.0
1820,0.2824539840221405,1.6713255643844604,47,5497.0,-8.80250072479248,-180,9926.0
1830,0.28291594982147217,1.0279772281646729,35,5497.0,-8.664286613464355,-165,9926.0
1840,0.2833012342453003,0.7867015600204468,-126,5497.0,-8.648138999938965,-219,9926.0
1850,0.28115424513816833,-0.007990081794559956,122,5497.0,-10.84826946258545,-173,9926.0
1860,0.28132686018943787,1.1687711477279663,23,5497.0,-10.487419128417969,-135,9926.0
1870,0.28142380714416504,0.6382117867469788,61,5497.0,-10.15725040435791,-338,9926.0
1880,0.2815086245536804,0.6551796197891235,-89,5497.0,-8.124258041381836,-38,9926.0
1890,0.2804403007030487,1.1302261352539062,81,5497.0,-12.13957405090332,-231,9926.0
1900,0.28021860122680664,1.3419727087020874,61,5497.0,-10.378186225891113,-117,9926.0
1910,0.2800856828689575,2.9425806999206543,-73,5497.0,-9.731122016906738,-265,9926.0
1920,0.2798415422439575,2.0243709087371826,74,5497.0,-12.770094871520996,-33,9926.0
1930,0.2796168625354767,0.028064768761396408,26,5497.0,-7.825212478637695,-53,9926.0
1940,0.279966801404953,4.052526473999023,164,5497.0,-9.767037391662598,-197,9926.0
1950,0.2798278033733368,3.420631170272827,-119,5497.0,-8.497567176818848,-73,9926.0
1960,0.2796997129917145,4.745532989501953,70,5497.0,-11.17492389678955,-142,9926.0
1970,0.2796354591846466,1.5532928705215454,84,5497.0,-6.159509658813477,37,9926.0
1980,0.2798517942428589,1.3866325616836548,-1,5497.0,-5.567170143127441,-59,9926.0
1990,0.27981898188591003,2.0194687843322754,-14,5497.0,-2.2601561546325684,-7,9926.0
2000,0.27980974316596985,2.584683656692505,-26,5497.0,-1.1869179010391235,-28,9926.0
2010,0.27989983558654785,1.0909188985824585,117,5497.0,0.7037344574928284,160,9926.0
2020,0.28007856011390686,-0.11050590127706528,-71,5497.0,3.4695465564727783,24,9926.0
2030,0.2793373465538025,-2.3686065673828125,-19,5497.0,1.533191442489624,19,9926.0
2040,0.2793460190296173,-2.3443403244018555,-246,5497.0,-0.9233191609382629,4,9926.0
2050,0.2794581353664398,-1.6388074159622192,97,5497.0,-0.30189356207847595,10,9926.0
2060,0.2796263098716736,-3.3762519359588623,-39,5497.0,1.0327808856964111,-21,9926.0
2070,0.2796235978603363,-0.03825736418366432,79,5497.0,-3.435328960418701,-144,9926.0
2080,0.27988573908805847,0.5528968572616577,13,5497.0,-2.0222599506378174,-56,9926.0
2090,0.28013473749160767,-1.176566481590271,67,5497.0,1.1521159410476685,-4,9926.0
2100,0.2803516089916229,1.4601937532424927,32,5497.0,2.2717549800872803,123,9926.0
2110,0.28080615401268005,1.6349537372589111,-34,5497.0,6.922708034515381,-109,9926.0
2120,0.2811019718647003,2.998607873916626,37,5497.0,9.47852611541748,325,9926.0
2130,0.28141918778419495,3.0630247592926025,15,5497.0,9.896004676818848,190,9926.0
2140,0.28175732493400574,0.37199389934539795,118,5497.0,8.258888244628906,214,9926.0
2150,0.2821447551250458,-1.6246734857559204,-141,5497.0,9.36983585357666,-9,9926.0
2160,0.28212735056877136,-3.6343328952789307,-75,5497.0,2.1789333820343018,67,9926.0
2170,0.2825358211994171,-2.426568031311035,-131,5497.0,2.6326513290405273,105,9926.0
2180,0.28297358751296997,-4.468997001647949,81,5497.0,2.1039867401123047,89,9926.0
2190,0.2833368182182312,-2.6082253456115723,-202,5497.0,4.115030765533447,22,9926.0
2200,0.2831815183162689,-1.2156755924224854,-39,5497.0,2.873932123184204,34,9926.0
2210,0.28352031111717224,0.8102405667304993,-76,5497.0,2.9604082107543945,193,9926.0
2220,0.28382498025894165,-1.2080378532409668,144,5497.0,8.401371002197266,32,9926.0
2230,0.2841658592224121,0.8075759410858154,-61,5497.0,6.5641374588012695,43,9926.0
2240,0.2855154871940613,-1.8253369331359863,-32,5497.0,3.8852574825286865,-12,9926.0
2250,0.28598088026046753,-0.5201994776725769,-47,5497.0,5.995098114013672,275,9926.0
2260,0.2864304184913635,-3.534982204437256,80,5497.0,6.687641620635986,-33,9926.0
2270,0.286984384059906,-0.45960643887519836,6,5497.0,7.067827224731445,121,9926.0
2280,0.28746315836906433,-0.7324185371398926,-56,5497.0,7.10132360458374,39,9926.0
2290,0.28894877433776855,-0.6407763957977295,-21,5497.0,3.8685195446014404,230,9926.0
2300,0.2894452214241028,-2.320641040802002,-9,5497.0,5.607212066650391,27,9926.0
2310,0.289850652217865,-5.513570785522461,-62,5497.0,4.4136223793029785,115,9926.0
2320,0.2903676927089691,-3.209456205368042,-164,5497.0,8.705496788024902,74,9926.0
2330,0.29025259613990784,-0.853451669216156,70,5497.0,7.9546122550964355,299,9926.0
2340,0.29073071479797363,1.4701648950576782,-9,5497.0,10.90015983581543,176,9926.0
2350,0.29142385721206665,1.790314793586731,78,5497.0,11.751197814941406,150,9926.0
2360,0.2919216752052307,4.538722515106201,-122,5497.0,11.81229305267334,190,9926.0
2370,0.29238268733024597,3.461444616317749,166,5497.0,8.987452507019043,191,9926.0
2380,0.29260993003845215,4.252168655395508,28,5497.0,8.456233978271484,118,9926.0
2390,0.29290637373924255,2.493818998336792,94,5497.0,7.398733139038086,32,9926.0
2400,0.2931865155696869,2.0233113765716553,-94,5497.0,6.058152675628662,163,9926.0
2410,0.29346969723701477,-2.7268028259277344,133,5497.0,9.546507835388184,170,9926.0
2420,0.29478275775909424,-0.8597468733787537,-77,5497.0,3.612485408782959,127,9926.0
2430,0.29531028866767883,-0.3891562521457672,25,5497.0,4.302714824676514,2,9926.0
2440,0.2957025468349457,-0.7495395541191101,-137,5497.0,6.884105205535889,273,9926.0
2450,0.29604020714759827,-1.9947000741958618,91,5497.0,5.96403169631958,67,9926.0
2460,0.2957981526851654,0.3913656175136566,-6,5497.0,5.194745063781738,73,9926.0
2470,0.29601380228996277,-1.1929877996444702,11,5497.0,6.528564453125,-67,9926.0
2480,0.2962048053741455,0.8304770588874817,-28,5497.0,5.219857692718506,222,9926.0
2490,0.2963830232620239,0.23004962503910065,154,5497.0,3.7480268478393555,-16,9926.0
2500,0.296506404876709,2.402688980102539,9,5497.0,-0.38793420791625977,29,9926.0
2510,0.2956039011478424,0.043464500457048416,-9,5497.0,2.568570375442505,-74,9926.0
2520,0.29565703868865967,1.925245761871338,-43,5497.0,3.8433053493499756,253,9926.0
2530,0.2957092225551605,4.759909152984619,104,5497.0,2.7763986587524414,21,9926.0
2540,0.2956311106681824,-0.366086483001709,-82,5497.0,3.7618141174316406,129,9926.0
2550,0.2948846220970154,-0.6300514936447144,-5,5497.0,4.56986665725708,-96,9926.0
2560,0.2947707176208496,-1.630773663520813,-85,5497.0,5.012416362762451,178,9926.0
2570,0.2946290075778961,-2.94543194770813,74,5497.0,4.185924530029297,-1,9926.0
2580,0.2944982945919037,-1.39104425907135,5,5497.0,0.6105902791023254,-8,9926.0
2590,0.2943609654903412,2.6302835941314697,127,5497.0,-3.4547905921936035,-84,9926.0
2600,0.2931918203830719,3.828714609146118,-129,5497.0,-3.5641584396362305,-34,9926.0
2610,0.29294463992118835,1.8964167833328247,133,5497.0,-2.976853370666504,1,9926.0
2620,0.2927286624908447,-0.3557056486606598,-51,5497.0,-2.794311285018921,-40,9926.0
2630,0.2925345003604889,-2.0788183212280273,73,5497.0,-1.9830904006958008,-5,9926.0
2640,0.29331880807876587,0.7972685098648071,-30,5497.0,-5.083775520324707,-114,9926.0
2650,0.2932891547679901,-1.2100268602371216,-6,5497.0,-2.689223289489746,79,9926.0
2660,0.2932949960231781,0.3714331388473511,-70,5497.0,2.144775152206421,-115,9926.0
2670,0.29325777292251587,1.438076376914978,112,5497.0,5.490306854248047,127,9926.0
2680,0.29356884956359863,1.629040241241455,50,5497.0,4.583693027496338,-49,9926.0
2690,0.2936917841434479,1.9137731790542603,74,5497.0,5.735380172729492,21,9926.0
2700,0.2938689887523651,2.8182761669158936,75,5497.0,-0.7488371729850769,-146,9926.0
2710,0.29401475191116333,3.704425811767578,-131,5497.0,-3.394336700439453,-101,9926.0
2720,0.29420262575149536,4.049067974090576,87,5497.0,-8.842182159423828,-37,9926.0
2730,0.29551756381988525,2.3035683631896973,-21,5497.0,-6.009891986846924,-103,9926.0
2740,0.29583871364593506,0.686283528804779,72,5497.0,-6.514377117156982,40,9926.0
2750,0.2961541414260864,-0.9055683016777039,50,5497.0,-10.083425521850586,-195,9926.0
2760,0.29650023579597473,-0.5111679434776306,-18,5497.0,-4.724312782287598,48,9926.0
2770,0.2981170117855072,-4.036985397338867,-38,5497.0,0.020774058997631073,-154,9926.0
2780,0.2985436022281647,-4.6279683113098145,-244,5497.0,4.150576114654541,111,9926.0
2790,0.2990286350250244,-3.8611068725585938,-53,5497.0,0.3507496416568756,-16,9926.0
2800,0.29961755871772766,-3.1088385581970215,-155,5497.0,1.430397391319275,63,9926.0
2810,0.30020543932914734,-3.022838592529297,36,5497.0,-5.234144687652588,93,9926.0
2820,0.3006895184516907,-3.8473589420318604,-124,5497.0,-2.645101547241211,-306,9926.0
2830,0.3012765645980835,-0.7872432470321655,62,5497.0,-8.29177188873291,-96,9926.0
2840,0.30188724398612976,-1.9588567018508911,-8,5497.0,-7.094546318054199,-334,9926.0
2850,0.3025120794773102,-0.6249873638153076,-14,5497.0,-8.997809410095215,-8,9926.0
2860,0.3048417270183563,3.126624584197998,42,5497.0,-5.731895923614502,-100,9926.0
2870,0.3054777979850769,0.7354029417037964,8,5497.0,-4.1511759757995605,63,9926.0
2880,0.306085467338562,1.374650001525879,100,5497.0,0.5626651644706726,-63,9926.0
2890,0.3066725730895996,2.65716552734375,-54,5497.0,-2.1761598587036133,18,9926.0
2900,0.3075525760650635,1.4235502481460571,40,5497.0,1.8932989835739136,-27,9926.0
2910,0.30813542008399963,1.744870662689209,-57,5497.0,1.4923707246780396,119,9926.0
2920,0.3087072968482971,-0.9431743025779724,132,5497.0,2.85414981842041,-1,9926.0
2930,0.30914628505706787,1.6947721242904663,38,5497.0,-0.5695869326591492,-12,9926.0
2940,0.3095381557941437,0.1566895842552185,78,5497.0,-1.9250227212905884,-71,9926.0
2950,0.309276819229126,0.31944575905799866,-143,5497.0,-3.4153528213500977,-31,9926.0
2960,0.3096265494823456,-0.5512841939926147,98,5497.0,-5.1147541999816895,-82,9926.0
2970,0.31000030040740967,-1.2287179231643677,-73,5497.0,-5.338588714599609,-63,9926.0
2980,0.31037428975105286,-2.728064775466919,62,5497.0,-5.212545394897461,-163,9926.0
2990,0.3097918629646301,-4.654399394989014,-228,5497.0,-6.6402506828308105,-45,9926.0
3000,0.30999627709388733,-3.106234073638916,14,5497.0,-9.447331428527832,-158,9926.0
3010,0.3100733458995819,-3.9311587810516357,-128,5497.0,-2.5325710773468018,-14,9926.0
3020,0.3101096749305725,-1.1188104152679443,107,5497.0,-4.1493635177612305,15,9926.0
3030,0.31014829874038696,-2.317729949951172,-84,5497.0,-3.214188814163208,-37,9926.0
3040,0.3100860118865967,-1.2290745973587036,63,5497.0,-4.412106990814209,-106,9926.0
3050,0.3100917637348175,2.6102123260498047,-149,5497.0,-1.4067977666854858,-63,9926.0
3060,0.3100167512893677,4.151444435119629,167,5497.0,-4.457630157470703,-18,9926.0
3070,0.30989083647727966,4.7897562980651855,49,5497.0,0.6952970623970032,15,9926.0
3080,0.30894508957862854,3.6096014976501465,209,5497.0,3.2696170806884766,151,9926.0
3090,0.30867448449134827,-0.647230863571167,-15,5497.0,4.791639804840088,-17,9926.0
3100,0.30840057134628296,4.068027019500732,57,5497.0,0.6278967261314392,102,9926.0
3110,0.30810800194740295,5.346996307373047,-16,5497.0,4.258530139923096,-46,9926.0
3120,0.3094848692417145,1.0027282238006592,6,5497.0,-2.091931104660034,124,9926.0
3130,0.3092134892940521,1.2640693187713623,94,5497.0,-2.427445411682129,-51,9926.0
3140,0.30890199542045593,4.011497974395752,75,5497.0,-2.000861406326294,54,9926.0
3150,0.3085686266422272,0.6853834390640259,142,5497.0,-2.5099639892578125,-41,9926.0
3160,0.30825275182724,2.8338944911956787,-46,5497.0,0.4043712913990021,-33,9926.0
3170,0.3078453242778778,1.339207410812378,66,5497.0,-0.49306830763816833,18,9926.0
3180,0.3075302839279175,-1.1298326253890991,-79,5497.0,1.7549247741699219,-36,9926.0
3190,0.307218074798584,-1.3865602016448975,12,5497.0,8.770934104919434,128,9926.0
3200,0.3069486618041992,-0.5376319885253906,-3,5497.0,6.488725662231445,-20,9926.0
3210,0.3067420423030853,-1.3044482469558716,-75,5497.0,1.113961100578308,100,9926.0
3220,0.3065492510795593,-2.392082452774048,58,5497.0,-3.0622782707214355,66,9926.0
3230,0.306335985660553,-2.374986171722412,-105,5497.0,-0.998155415058136,-40,9926.0
3240,0.3061669170856476,-3.1207962036132812,4,5497.0,0.8739964962005615,173,9926.0
3250,0.30604273080825806,-1.4732425212860107,9,5497.0,1.2683662176132202,-79,9926.0
3260,0.3068043291568756,0.023432472720742226,-91,5497.0,0.9034960269927979,88,9926.0
3270,0.3068073093891144,0.3106516897678375,68,5497.0,4.046640872955322,51,9926.0
3280,0.3068258464336395,-0.08814918249845505,-104,5497.0,4.180139541625977,-63,9926.0
3290,0.30688974261283875,-0.5673750638961792,66,5497.0,5.7726216316223145,-71,9926.0
3300,0.30754217505455017,-2.0191588401794434,0,5497.0,5.2533745765686035,-26,9926.0
3310,0.3077899217605591,-0.3598023056983948,112,5497.0,-2.201430559158325,96,9926.0
3320,0.30809277296066284,2.1558756828308105,48,5497.0,-2.605132579803467,-122,9926.0
3330,0.3085181415081024,-1.0019055604934692,-34,5497.0,5.191978454589844,72,9926.0
3340,0.309162437915802,-1.3545185327529907,103,5497.0,0.8670315742492676,-90,9926.0
3350,0.3096531331539154,-3.4755477905273438,-228,5497.0,3.5425236225128174,88,9926.0
3360,0.31014224886894226,-4.9188666343688965,-72,5497.0,1.405465841293335,126,9926.0
3370,0.3106571137905121,-5.9252142906188965,-139,5497.0,5.465040683746338,-24,9926.0
3380,0.31113606691360474,-3.6593992710113525,-68,5497.0,5.642866611480713,327,9926.0
3390,0.31409016251564026,-2.7379660606384277,72,5497.0,-0.04719323292374611,45,9926.0
3400,0.3147670030593872,1.2295165061950684,-76,5497.0,-0.016827313229441643,96,9926.0
3410,0.3153845965862274,-1.3821618556976318,125,5497.0,1.288299560546875,68,9926.0
3420,0.3159625828266144,1.102408766746521,5,5497.0,1.089707851409912,-175,9926.0
3430,0.3170948624610901,2.8022804260253906,74,5497.0,0.2916415333747864,44,9926.0
3440,0.3177776038646698,2.8871498107910156,44,5497.0,3.3591842651367188,-118,9926.0
3450,0.3184701204299927,3.0731561183929443,50,5497.0,5.558904647827148,162,9926.0
3460,0.3190968930721283,3.010685920715332,105,5497.0,0.41314220428466797,16,9926.0
3470,0.3190056085586548,3.5455074310302734,32,5497.0,2.27919602394104,159,9926.0
3480,0.3195081353187561,2.070570468902588,104,5497.0,5.001826286315918,-25,9926.0
3490,0.3199925720691681,1.929274082183838,-63,5497.0,-1.0349957942962646,-5,9926.0
3500,0.3204673230648041,0.7351042032241821,29,5497.0,2.3094327449798584,-48,9926.0
3510,0.32095280289649963,-0.5525630712509155,-180,5497.0,2.4084420204162598,27,9926.0
3520,0.32015568017959595,-0.46311259269714355,154,5497.0,-0.24980463087558746,11,9926.0
3530,0.3204321265220642,0.1204330325126648,-60,5497.0,-0.0884830579161644,30,9926.0
3540,0.3206724524497986,-0.6897534728050232,85,5497.0,-1.8434587717056274,45,9926.0
3550,0.320869505405426,1.2972067594528198,-116,5497.0,-2.995501756668091,-139,9926.0
3560,0.3210649788379669,-0.9094976186752319,12,5497.0,-5.706746578216553,-99,9926.0
3570,0.32113543152809143,-0.6095341444015503,-79,5497.0,-1.5773521661758423,-146,9926.0
3580,0.32116270065307617,0.45708712935447693,34,5497.0,-4.787116050720215,86,9926.0
3590,0.3211651146411896,-0.5335687398910522,-9,5497.0,-3.8594448566436768,-73,9926.0
3600,0.32117149233818054,0.5828407406806946,-19,5497.0,-2.645080089569092,169,9926.0
3610,0.32107970118522644,-0.08175747841596603,94,5497.0,-3.0388386249542236,-157,9926.0
3620,0.3209826946258545,1.1752394437789917,-37,5497.0,1.939942717552185,109,9926.0
3630,0.32081344723701477,0.05397527664899826,45,5497.0,1.655621886253357,-39,9926.0
3640,0.32060492038726807,1.6619337797164917,-82,5497.0,4.14127779006958,43,9926.0
3650,0.32092851400375366,1.653519868850708,87,5497.0,3.2497177124023438,49,9926.0
3660,0.3207239508628845,2.871307134628296,-23,5497.0,1.640395998954773,-37,9926.0
3670,0.32051321864128113,-0.14833885431289673,-84,5497.0,-4.112701416015625,105,9926.0
3680,0.3202749490737915,2.337254285812378,-23,5497.0,-1.5676854848861694,-88,9926.0
3690,0.3203849792480469,-0.8325725197792053,-30,5497.0,-1.264041781425476,138,9926.0
3700,0.3200766444206238,-2.9840168952941895,62,5497.0,-1.396897554397583,-94,9926.0
3710,0.31979963183403015,-1.6065503358840942,-67,5497.0,-1.9829039573669434,-43,9926.0
3720,0.3195313513278961,-2.544297456741333,65,5497.0,0.3950207829475403,11,9926.0
3730,0.31920284032821655,-3.2328522205352783,-25,5497.0,0.09542105346918106,-61,9926.0
3740,0.3196403384208679,1.146915316581726,109,5497.0,-0.05833757296204567,71,9926.0
3750,0.31938761472702026,4.729398250579834,119,5497.0,0.3345603346824646,-103,9926.0
3760,0.31912723183631897,7.442462921142578,-34,5497.0,-1.6733729839324951,80,9926.0
3770,0.318864107131958,10.018796920776367,183,5497.0,2.778096914291382,94,9926.0
3780,0.31864166259765625,9.78847885131836,36,5497.0,1.254517912864685,-58,9926.0
3790,0.3183760344982147,5.483051300048828,99,5497.0,1.3671859502792358,72,9926.0
3800,0.3181264102458954,3.670314311981201,83,5497.0,1.851245641708374,-6,9926.0
3810,0.3178133964538574,-0.6444635987281799,-124,5497.0,1.2004175186157227,57,9926.0
3820,0.3178684413433075,-5.17090368270874,14,5497.0,0.8813502788543701,1,9926.0
3830,0.31814125180244446,-5.067797660827637,-157,5497.0,-1.2742254734039307,-153,9926.0
3840,0.31805258989334106,-5.597886562347412,-89,5497.0,-1.4455894231796265,141,9926.0
3850,0.31799501180648804,-6.969219207763672,-18,5497.0,-0.8151994943618774,-158,9926.0
3860,0.3179028630256653,-3.9002418518066406,-153,5497.0,-3.6685686111450195,5,9926.0
3870,0.31828635931015015,-4.099018573760986,56,5497.0,0.6000702977180481,134,9926.0
3880,0.3182743787765503,-1.1857836246490479,21,5497.0,3.708189010620117,-32,9926.0
3890,0.31829744577407837,1.0380325317382812,10,5497.0,-0.4036616384983063,22,9926.0
3900,0.31830331683158875,4.40317440032959,206,5497.0,1.4118846654891968,-81,9926.0
3910,0.3183504343032837,4.376709938049316,-23,5497.0,1.554610013961792,15,9926.0
3920,0.32047465443611145,0.9254119396209717,30,5497.0,2.3325653076171875,200,9926.0
3930,0.3206888437271118,1.7417975664138794,-97,5497.0,-1.1466442346572876,-63,9926.0
3940,0.3212418258190155,-1.5707545280456543,10,5497.0,-1.879757046699524,146,9926.0
3950,0.3215617835521698,-3.2112319469451904,-72,5497.0,-1.141231656074524,-137,9926.0
3960,0.3229232132434845,-0.9046441316604614,-102,5497.0,2.9048995971679688,43,9926.0
3970,0.32338088750839233,-1.8618252277374268,62,5497.0,0.4423879086971283,-47,9926.0
3980,0.32387471199035645,-1.1455581188201904,-97,5497.0,1.4416247606277466,-65,9926.0
3990,0.324362188577652,-0.7385271787643433,33,5497.0,-0.0748797357082367,169,9926.0
4000,0.32432782649993896,-0.5801068544387817,24,5497.0,-3.0226686000823975,-72,9926.0
4010,0.3248099088668823,-0.7361044883728027,-10,5497.0,2.1917600631713867,186,9926.0
4020,0.32526588439941406,-0.44440963864326477,96,5497.0,4.061717987060547,-77,9926.0
4030,0.3257017731666565,0.9538084268569946,-80,5497.0,3.8691225051879883,115,9926.0
4040,0.326099693775177,0.8312092423439026,103,5497.0,-3.010350465774536,72,9926.0
4050,0.3261442184448242,3.18306303024292,-44,5497.0,-5.019646167755127,-326,9926.0
4060,0.3265298008918762,2.8042352199554443,107,5497.0,-3.2920966148376465,-93,9926.0
4070,0.326910138130188,0.9885907173156738,-14,5497.0,-5.72251033782959,-189,9926.0
4080,0.327210009098053,1.4019465446472168,29,5497.0,-8.702916145324707,-13,9926.0
4090,0.327843576669693,-1.2046587467193604,-13,5497.0,-1.2320033311843872,-23,9926.0
4100,0.3281822204589844,-1.6739838123321533,-94,5497.0,0.36426472663879395,212,9926.0
4110,0.3284892141819,-4.442992210388184,52,5497.0,3.390923023223877,52,9926.0
4120,0.3288053274154663,0.8817210793495178,-65,5497.0,4.228274345397949,107,9926.0
4130,0.32867854833602905,-1.4561028480529785,99,5497.0,3.3819408416748047,52,9926.0
4140,0.32879722118377686,-0.4144528806209564,-75,5497.0,2.4554762840270996,-2,9926.0
4150,0.3289017379283905,-2.0354974269866943,57,5497.0,6.650417804718018,91,9926.0
4160,0.3289879560470581,0.3366748094558716,-16,5497.0,-2.9392848014831543,-217,9926.0
4170,0.32878074049949646,-0.6669171452522278,26,5497.0,-1.6804953813552856,35,9926.0
4180,0.32876935601234436,3.597677707672119,35,5497.0,-1.913752794265747,-108,9926.0
4190,0.3318752348423004,6.502228736877441,38,5497.0,-8.07494068145752,21,9926.0
4200,0.33199813961982727,6.660111427307129,236,5497.0,-7.1888861656188965,-154,9926.0
4210,0.33198004961013794,10.334952354431152,75,5497.0,-6.223627090454102,-111,9926.0
4220,0.33006805181503296,4.953226566314697,164,5497.0,0.6473497152328491,38,9926.0
4230,0.3301820158958435,2.5249032974243164,-68,5497.0,6.08093786239624,121,9926.0
4240,0.33009853959083557,-0.28911006450653076,38,5497.0,9.601517677307129,241,9926.0
4250,0.33204248547554016,-0.09744461625814438,-75,5497.0,12.973316192626953,105,9926.0
4260,0.3320043087005615,-1.9431302547454834,18,5497.0,7.603727340698242,249,9926.0
4270,0.33084577322006226,-1.685396432876587,-89,5497.0,0.6352294683456421,-66,9926.0
4280,0.33077505230903625,-4.383663177490234,-141,5497.0,0.1403273344039917,89,9926.0
4290,0.33078354597091675,-5.716469764709473,-28,5497.0,-2.856571912765503,-68,9926.0
4300,0.33067554235458374,-4.549062728881836,-120,5497.0,-9.136466979980469,-112,9926.0
4310,0.32939034700393677,-3.6406919956207275,77,5497.0,-6.8574323654174805,-122,9926.0
4320,0.32939624786376953,-0.6995652914047241,-58,5497.0,-6.406213283538818,-161,9926.0
4330,0.328925758600235,1.704359531402588,78,5497.0,-8.648242950439453,-58,9926.0
4340,0.328925758600235,3.0697107315063477,91,5497.0,-3.4454801082611084,-174,9926.0
4350,0.3275260031223297,4.326172828674316,75,5497.0,0.9469080567359924,150,9926.0
4360,0.3275260031223297,4.121732711791992,88,5497.0,9.2566556930542,18,9926.0
4370,0.32744675874710083,1.7915611267089844,4,5497.0,7.999619007110596,200,9926.0
4380,0.32720187306404114,2.809753179550171,80,5497.0,8.291918754577637,128,9926.0
4390,0.3269672095775604,-0.20198234915733337,-119,5497.0,8.809224128723145,166,9926.0
4400,0.3267916440963745,0.1487070918083191,51,5497.0,3.613905429840088,113,9926.0
4410,0.3265305757522583,-0.5563721656799316,-77,5497.0,2.7443814277648926,-160,9926.0
4420,0.3263148367404938,-1.4043498039245605,-114,5497.0,-3.3292429447174072,43,9926.0
4430,0.3263779878616333,-4.966187000274658,-27,5497.0,-4.1523027420043945,-159,9926.0
4440,0.3253050744533539,-2.4198312759399414,-112,5497.0,-8.25546646118164,-146,9926.0
4450,0.3251432478427887,-4.793128967285156,-100,5497.0,-11.004142761230469,20,9926.0
4460,0.32492128014564514,-3.641247272491455,-144,5497.0,-6.670934677124023,-194,9926.0
4470,0.32479774951934814,-4.054512023925781,-81,5497.0,-5.509432315826416,111,9926.0
4480,0.3246682584285736,-2.6624932289123535,35,5497.0,0.6871857047080994,89,9926.0
4490,0.3252250552177429,-2.995148181915283,-49,5497.0,2.2110278606414795,-5,9926.0
4500,0.32545018196105957,2.548412799835205,121,5497.0,6.7088942527771,260,9926.0
4510,0.3257714509963989,10.286409378051758,67,5497.0,5.625437259674072,-12,9926.0
4520,0.3258945941925049,4.7338995933532715,69,5497.0,6.418860912322998,130,9926.0
4530,0.32639843225479126,3.7094621658325195,200,5497.0,6.869757175445557,53,9926.0
4540,0.328194797039032,3.937100410461426,-15,5497.0,8.021807670593262,95,9926.0
4550,0.32852962613105774,3.5933303833007812,124,5497.0,4.129535675048828,68,9926.0
4560,0.3288517892360687,4.476408958435059,-13,5497.0,0.4032938480377197,-154,9926.0
4570,0.3275912404060364,2.792675733566284,102,5497.0,-4.855834484100342,77,9926.0
4580,0.32987552881240845,-2.157792329788208,-14,5497.0,-4.828061580657959,-138,9926.0
4590,0.3307860791683197,-5.632040023803711,-204,5497.0,-4.780089378356934,-28,9926.0
4600,0.3312561810016632,-4.335206985473633,39,5497.0,-3.741044044494629,-80,9926.0
4610,0.3317989706993103,-5.049617290496826,-166,5497.0,-0.1845807284116745,-54,9926.0
4620,0.3306700885295868,-4.844685077667236,-59,5497.0,1.3941558599472046,178,9926.0
4630,0.33116066455841064,-6.238997459411621,-99,5497.0,4.991462230682373,-5,9926.0
4640,0.3315354287624359,-1.8766553401947021,-65,5497.0,1.686038613319397,191,9926.0
4650,0.332091748714447,-4.083938121795654,62,5497.0,6.09876012802124,43,9926.0
4660,0.3315342664718628,1.0506007671356201,-48,5497.0,6.988183498382568,111,9926.0
4670,0.3318745195865631,2.4884159564971924,179,5497.0,3.4173877239227295,79,9926.0
4680,0.3322061002254486,4.647909164428711,-14,5497.0,1.6691455841064453,-126,9926.0
4690,0.33245882391929626,4.111196994781494,59,5497.0,-2.424938440322876,37,9926.0
4700,0.3326541781425476,2.1195030212402344,14,5497.0,-1.8124892711639404,-159,9926.0
4710,0.3320966362953186,3.0106658935546875,25,5497.0,-5.011695861816406,16,9926.0
4720,0.33220788836479187,-3.3823421001434326,37,5497.0,-2.8711137771606445,-136,9926.0
4730,0.3322713077068329,0.4117036461830139,-62,5497.0,-3.320531129837036,50,9926.0
4740,0.332274854183197,-1.8659087419509888,86,5497.0,1.1898165941238403,-54,9926.0
4750,0.331729531288147,-3.764639139175415,-98,5497.0,4.660624980926514,-11,9926.0
4760,0.3317073583602905,0.3416430652141571,123,5497.0,-2.416191577911377,-29,9926.0
4770,0.33160102367401123,2.177950143814087,-56,5497.0,-0.6962594389915466,-21,9926.0
4780,0.3315316140651703,2.9816832542419434,95,5497.0,0.7648637890815735,77,9926.0
4790,0.33008816838264465,1.035335659980774,15,5497.0,1.9214977025985718,-100,9926.0
4800,0.32977497577667236,-0.47068342566490173,-133,5497.0,-2.390911817550659,10,9926.0
4810,0.3296886682510376,-1.2848116159439087,-4,5497.0,-1.2712538242340088,-120,9926.0
4820,0.3309709429740906,0.25798943638801575,-107,5497.0,0.3439209461212158,65,9926.0
4830,0.3309013247489929,1.9886753559112549,151,5497.0,-0.728215217590332,14,9926.0
4840,0.33253538608551025,3.4766430854797363,44,5497.0,-7.232583045959473,-183,9926.0
4850,0.33340877294540405,8.437878608703613,124,5497.0,-11.648734092712402,6,9926.0
4860,0.3336128294467926,9.298086166381836,255,5497.0,-6.849497318267822,-99,9926.0
4870,0.33358141779899597,5.66931676864624,-8,5497.0,-10.535735130310059,-34,9926.0
4880,0.3331196904182434,2.4752893447875977,112,5497.0,1.5195621252059937,178,9926.0
4890,0.33396387100219727,1.7632977962493896,-87,5497.0,7.456814765930176,133,9926.0
4900,0.3349495530128479,-4.832208156585693,-43,5497.0,8.93117618560791,281,9926.0
4910,0.3357160985469818,-6.712322235107422,-174,5497.0,12.797146797180176,207,9926.0
4920,0.33617016673088074,-8.550832748413086,-119,5497.0,10.216812133789062,270,9926.0
4930,0.33395063877105713,-6.567549705505371,54,5497.0,5.15978479385376,45,9926.0
4940,0.3341417908668518,-5.468791484832764,-164,5497.0,8.270964622497559,138,9926.0
4950,0.33435672521591187,-3.3059606552124023,20,5497.0,4.58349084854126,70,9926.0
4960,0.3346780836582184,-1.5186020135879517,-41,5497.0,3.5658793449401855,-270,9926.0
4970,0.3326854705810547,-3.0537772178649902,-13,5497.0,5.3236823081970215,138,9926.0
4980,0.33279627561569214,-2.127331018447876,3,5497.0,3.1204349994659424,-152,9926.0
4990,0.332913875579834,-1.2272499799728394,-168,5497.0,-0.5231828093528748,6,9926.0
5000,0.33307546377182007,-3.2972166538238525,44,5497.0,-1.9942349195480347,-83,9926.0
5010,0.3327846825122833,0.044403545558452606,-68,5497.0,-4.09888219833374,-133,9926.0
5020,0.3329309821128845,0.060938552021980286,100,5497.0,-1.9142327308654785,103,9926.0
5030,0.33305609226226807,2.665555715560913,-23,5497.0,-0.7864152193069458,-66,9926.0
5040,0.3331817388534546,1.6561979055404663,-5,5497.0,-0.8195931315422058,216,9926.0
5050,0.3333270847797394,-1.0222954750061035,53,5497.0,6.168673515319824,19,9926.0
5060,0.3328720033168793,-3.207336187362671,-80,5497.0,2.609670400619507,129,9926.0
5070,0.3329220712184906,-2.3272387981414795,84,5497.0,6.2502217292785645,98,9926.0
5080,0.3329804539680481,0.2069372683763504,-101,5497.0,1.479643702507019,-42,9926.0
5090,0.33303457498550415,-1.283263921737671,7,5497.0,0.7623157501220703,55,9926.0
5100,0.3334466218948364,-0.04269496724009514,-13,5497.0,-1.8040047883987427,-145,9926.0
5110,0.3335331082344055,-2.421943187713623,-124,5497.0,-4.486867427825928,-10,9926.0
5120,0.3333858251571655,-1.4109464883804321,47,5497.0,-2.519721269607544,-17,9926.0
5130,0.33497124910354614,1.2352900505065918,-68,5497.0,-2.358691930770874,-198,9926.0
5140,0.33535173535346985,3.5279417037963867,121,5497.0,-9.455236434936523,-75,9926.0
5150,0.33637338876724243,5.569344520568848,121,5497.0,-6.887454032897949,-182,9926.0
5160,0.336708664894104,2.254777193069458,86,5497.0,-9.331961631774902,-140,9926.0
5170,0.3371336758136749,-0.056329142302274704,-27,5497.0,-10.186630249023438,-219,9926.0
5180,0.33754807710647583,-6.369266033172607,-143,5497.0,-10.861468315124512,-63,9926.0
5190,0.33637353777885437,-11.665385246276855,-147,5497.0,-7.898341178894043,-197,9926.0
5200,0.3365972936153412,-14.240580558776855,-317,5497.0,-8.005176544189453,-100,9926.0
5210,0.33676013350486755,-17.639686584472656,-199,5497.0,-7.010481357574463,-78,9926.0
5220,0.3368631601333618,-14.694376945495605,-327,5497.0,-5.314720630645752,-33,9926.0
5230,0.3358484208583832,-11.637152671813965,-151,5497.0,-1.2899179458618164,38,9926.0
5240,0.3358701169490814,-8.478150367736816,-194,5497.0,0.9279342293739319,-85,9926.0
5250,0.33592507243156433,-2.4509024620056152,-34,5497.0,2.7644498348236084,131,9926.0
5260,0.33595362305641174,1.7368240356445312,31,5497.0,3.8259339332580566,-69,9926.0
5270,0.33592313528060913,6.999488353729248,85,5497.0,-0.8602774143218994,17,9926.0
5280,0.3355358839035034,8.624536514282227,235,5497.0,-1.8958061933517456,-26,9926.0
5290,0.3354652523994446,9.471017837524414,57,5497.0,-1.8947964906692505,-26,9926.0
5300,0.33537596464157104,7.142193794250488,183,5497.0,-0.5933722257614136,63,9926.0
5310,0.3352581858634949,4.440704345703125,-26,5497.0,2.460530996322632,-93,9926.0
5320,0.33396095037460327,4.143620491027832,128,5497.0,2.1937825679779053,109,9926.0
5330,0.3337964415550232,0.47910553216934204,17,5497.0,-0.3481638431549072,-149,9926.0
5340,0.3336693346500397,1.678331971168518,70,5497.0,2.901730537414551,116,9926.0
5350,0.3334663212299347,0.22823724150657654,97,5497.0,5.128864765167236,-24,9926.0
5360,0.3327676057815552,1.5156774520874023,-55,5497.0,2.701385736465454,148,9926.0
5370,0.3325652480125427,2.2259156703948975,97,5497.0,4.086005210876465,79,9926.0
5380,0.3323724567890167,3.9343643188476562,42,5497.0,1.4984755516052246,-120,9926.0
5390,0.3321840763092041,3.884392499923706,94,5497.0,4.767749309539795,60,9926.0
5400,0.3319898247718811,5.378563404083252,118,5497.0,0.30080339312553406,-137,9926.0
5410,0.33265817165374756,8.301898956298828,-15,5497.0,-10.26270580291748,-25,9926.0
5420,0.332549124956131,2.0074949264526367,103,5497.0,2.757952928543091,4,9926.0
5430,0.33250662684440613,3.3192756175994873,-49,5497.0,4.435178756713867,53,9926.0
5440,0.33248716592788696,0.6141811013221741,103,5497.0,3.486013412475586,107,9926.0
5450,0.3315829038619995,0.6067689657211304,14,5497.0,3.220126152038574,-54,9926.0
5460,0.3315625786781311,-0.34946566820144653,-36,5497.0,3.1881051063537598,58,9926.0
5470,0.3315719664096832,1.184852957725525,119,5497.0,6.504735469818115,6,9926.0
5480,0.33160117268562317,0.9843178391456604,-108,5497.0,10.609314918518066,80,9926.0
5490,0.33168256282806396,0.5291739702224731,107,5497.0,6.374239444732666,195,9926.0
5500,0.33191972970962524,0.614797055721283,-24,5497.0,8.430811882019043,-10,9926.0
5510,0.3321252465248108,-0.08855701237916946,-62,5497.0,6.680405139923096,141,9926.0
5520,0.33236920833587646,-1.9548513889312744,53,5497.0,2.045032024383545,-8,9926.0
5530,0.3326086103916168,-1.5020756721496582,-111,5497.0,3.927513360977173,-56,9926.0
5540,0.33331209421157837,0.7104375958442688,47,5497.0,2.022490978240967,95,9926.0
5550,0.33362746238708496,-1.9131590127944946,-43,5497.0,3.5794780254364014,-173,9926.0
5560,0.3339592218399048,-0.2643609344959259,-84,5497.0,1.2186968326568604,80,9926.0
5570,0.33428019285202026,-3.8607265949249268,64,5497.0,2.816293239593506,14,9926.0
5580,0.33473458886146545,-2.2238211631774902,-95,5497.0,3.3909778594970703,-47,9926.0
5590,0.3350844979286194,-1.2353821992874146,62,5497.0,1.9059351682662964,120,9926.0
5600,0.3354453146457672,-0.1612589806318283,-9,5497.0,2.2497596740722656,-56,9926.0
5610,0.33580631017684937,-1.428451657295227,-51,5497.0,1.4178708791732788,33,9926.0
5620,0.33614450693130493,-0.04784192889928818,141,5497.0,0.11872801184654236,-57,9926.0
5630,0.335497111082077,-1.5344182252883911,-92,5497.0,5.43972635269165,57,9926.0
5640,0.3357813358306885,-0.5858996510505676,57,5497.0,3.8833038806915283,179,9926.0
5650,0.33604297041893005,2.0571062564849854,-24,5497.0,-0.9278519153594971,-85,9926.0
5660,0.336285263299942,-2.1402084827423096,-59,5497.0,2.013599395751953,162,9926.0
5670,0.33748817443847656,-1.1851686239242554,92,5497.0,1.2826154232025146,-52,9926.0
5680,0.33779585361480713,-1.6726592779159546,-114,5497.0,0.38171014189720154,27,9926.0
5690,0.33811962604522705,-5.326899528503418,25,5497.0,6.683968544006348,180,9926.0
5700,0.3384203016757965,0.3833732604980469,-97,5497.0,1.5581408739089966,65,9926.0
5710,0.3386976718902588,-2.6520328521728516,4,5497.0,2.0832266807556152,212,9926.0
5720,0.33949124813079834,-0.5940132737159729,33,5497.0,3.13775634765625,95,9926.0
5730,0.3398713767528534,0.9054738283157349,-131,5497.0,0.8054752349853516,71,9926.0
5740,0.34020546078681946,-0.11251480877399445,5,5497.0,-1.4836724996566772,39,9926.0
5750,0.34051212668418884,2.849867105484009,13,5497.0,-2.1184539794921875,-157,9926.0
5760,0.3404976725578308,2.262343645095825,161,5497.0,-1.7043088674545288,-3,9926.0
5770,0.3407840430736542,3.651991367340088,3,5497.0,-0.967026948928833,-73,9926.0
5780,0.34105873107910156,1.5928938388824463,78,5497.0,-1.159918189048767,107,9926.0
5790,0.34124138951301575,0.29988905787467957,-3,5497.0,0.8432440161705017,9,9926.0
5800,0.3408523499965668,-1.434467077255249,-3,5497.0,2.872267723083496,159,9926.0
5810,0.3409588932991028,0.05604314059019089,108,5497.0,-0.6641177535057068,-41,9926.0
5820,0.34104782342910767,1.6037241220474243,-30,5497.0,-2.140231132507324,39,9926.0
5830,0.3410843312740326,1.0703303813934326,105,5497.0,-0.4336753785610199,12,9926.0
5840,0.34107673168182373,0.5841268301010132,-27,5497.0,2.6540462970733643,-95,9926.0
5850,0.3417987823486328,3.2357113361358643,106,5497.0,-3.4992268085479736,-24,9926.0
5860,0.3418520987033844,5.240133762359619,101,5497.0,-1.514194130897522,-215,9926.0
5870,0.34185299277305603,5.6770806312561035,-40,5497.0,-5.985655784606934,-89,9926.0
5880,0.3418591320514679,4.620575428009033,104,5497.0,-7.2713799476623535,-182,9926.0
5890,0.34268033504486084,3.3882901668548584,-70,5497.0,-6.694478511810303,-111,9926.0
5900,0.34267160296440125,1.463518500328064,96,5497.0,-8.53880786895752,-141,9926.0
5910,0.34264370799064636,2.3668079376220703,23,5497.0,-8.18899917602539,-234,9926.0
5920,0.34257182478904724,1.537947654724121,25,5497.0,-11.015424728393555,-52,9926.0
5930,0.34304705262184143,0.9819269180297852,42,5497.0,-2.9597809314727783,-136,9926.0
5940,0.34298062324523926,1.6351014375686646,8,5497.0,-2.601743459701538,4,9926.0
5950,0.3429621756076813,0.9332333207130432,104,5497.0,0.3181968033313751,-30,9926.0
5960,0.34294745326042175,1.6740957498550415,-56,5497.0,1.9448505640029907,44,9926.0
5970,0.34293290972709656,-0.9974133968353271,115,5497.0,0.9722647666931152,40,9926.0
5980,0.34254172444343567,0.07417166233062744,-87,5497.0,-1.2665013074874878,-59,9926.0
5990,0.3424920439720154,-2.1679413318634033,25,5497.0,-6.3097028732299805,45,9926.0
6000,0.34248003363609314,-1.8755370378494263,-90,5497.0,-7.723865985870361,-207,9926.0
6010,0.342471718788147,1.7933706045150757,-15,5497.0,-8.318219184875488,59,9926.0
6020,0.342293918132782,0.9016633033752441,24,5497.0,-8.617961883544922,-115,9926.0
6030,0.3422747552394867,-0.5450297594070435,-40,5497.0,-4.8887410163879395,-6,9926.0
6040,0.34226754307746887,-3.680600166320801,27,5497.0,-1.1788498163223267,-68,9926.0
6050,0.3422958254814148,-3.241880178451538,-105,5497.0,-0.14246690273284912,81,9926.0
6060,0.3423313498497009,-2.219745635986328,46,5497.0,1.5341373682022095,17,9926.0
6070,0.3418685793876648,-0.947708010673523,-147,5497.0,7.235957145690918,16,9926.0
6080,0.3419099748134613,-0.18172647058963776,21,5497.0,3.263284921646118,74,9926.0
6090,0.3419426679611206,1.491050124168396,-37,5497.0,1.5392544269561768,-122,9926.0
6100,0.3419443964958191,5.5732035636901855,50,5497.0,-0.34914112091064453,125,9926.0
6110,0.3404029309749603,1.084243655204773,18,5497.0,-0.5864996910095215,-98,9926.0
6120,0.34036338329315186,0.3840058147907257,-67,5497.0,-0.52471524477005,35,9926.0
6130,0.34033966064453125,0.3492553234100342,90,5497.0,-3.782594680786133,-10,9926.0
6140,0.3402894139289856,-1.7118585109710693,-150,5497.0,-3.641505718231201,40,9926.0
6150,0.340911328792572,-1.7571280002593994,69,5497.0,2.310305118560791,149,9926.0
6160,0.34091541171073914,-4.099649906158447,-100,5497.0,5.6216278076171875,-21,9926.0
6170,0.34092581272125244,-3.0142219066619873,-54,5497.0,4.266186714172363,197,9926.0
6180,0.34095481038093567,-5.209895133972168,-27,5497.0,5.623473167419434,-67,9926.0
6190,0.34100058674812317,-7.319464683532715,-159,5497.0,5.427515506744385,93,9926.0
6200,0.34143751859664917,-2.2807419300079346,56,5497.0,2.686779022216797,-12,9926.0
6210,0.34155625104904175,-1.1821492910385132,-91,5497.0,-1.9417272806167603,-113,9926.0
6220,0.3416678011417389,-0.5896527171134949,69,5497.0,-2.742682456970215,-24,9926.0
6230,0.3417767286300659,-3.265108585357666,-48,5497.0,0.04995831102132797,-211,9926.0
6240,0.3403640687465668,-1.217297911643982,-11,5497.0,-3.5982275009155273,-18,9926.0
6250,0.340383380651474,-3.9704158306121826,-20,5497.0,-4.808514595031738,-157,9926.0
6260,0.34043920040130615,-3.323150873184204,-152,5497.0,-2.197136878967285,61,9926.0
6270,0.3404802680015564,-4.191483974456787,11,5497.0,2.8277297019958496,16,9926.0
6280,0.34051811695098877,-2.6462936401367188,-105,5497.0,6.413862705230713,135,9926.0
6290,0.3387094736099243,-1.5534693002700806,101,5497.0,4.121058940887451,118,9926.0
6300,0.3386516273021698,1.1346402168273926,-15,5497.0,10.092101097106934,114,9926.0
6310,0.3386271595954895,0.6487200260162354,30,5497.0,6.7303571701049805,258,9926.0
6320,0.338708758354187,0.3201296925544739,-11,5497.0,9.091835975646973,16,9926.0
6330,0.337644100189209,-0.7672333717346191,-40,5497.0,6.899037837982178,195,9926.0
6340,0.3375895917415619,-2.377526044845581,34,5497.0,5.377963066101074,-2,9926.0
6350,0.3375638723373413,0.6365464329719543,-148,5497.0,2.6571006774902344,-22,9926.0
6360,0.33756789565086365,-2.0770747661590576,63,5497.0,5.420670032501221,-3,9926.0
6370,0.3381417691707611,1.8348029851913452,-24,5497.0,-6.171426296234131,-5,9926.0
6380,0.33821728825569153,1.9226833581924438,19,5497.0,-6.104227066040039,13,9926.0
6390,0.3383544385433197,2.960047721862793,-97,5497.0,-4.21475887298584,-35,9926.0
6400,0.3385355770587921,0.33172938227653503,30,5497.0,-0.5337103009223938,138,9926.0
6410,0.33877041935920715,0.700918972492218,-1,5497.0,3.583012342453003,-96,9926.0
6420,0.33820080757141113,3.320502996444702,-19,5497.0,-0.34395021200180054,101,9926.0
6430,0.33847513794898987,0.07729851454496384,9,5497.0,7.186452388763428,52,9926.0
6440,0.33878564834594727,0.030440593138337135,-78,5497.0,8.259954452514648,213,9926.0
6450,0.33912912011146545,-0.23345507681369781,132,5497.0,9.096601486206055,81,9926.0
6460,0.33894822001457214,1.380831241607666,-38,5497.0,1.7126609086990356,98,9926.0
6470,0.33926525712013245,-1.0457485914230347,114,5497.0,1.8415768146514893,128,9926.0
6480,0.3395891487598419,-0.7619555592536926,-27,5497.0,-3.277545928955078,-179,9926.0
6490,0.33993634581565857,0.26166853308677673,9,5497.0,-5.873534679412842,-53,9926.0
6500,0.3403085172176361,2.2991445064544678,39,5497.0,-5.296596527099609,-210,9926.0
6510,0.34055325388908386,5.519423961639404,93,5497.0,-2.233383893966675,99,9926.0
6520,0.3408920168876648,7.026620388031006,198,5497.0,-2.428297519683838,-79,9926.0
6530,0.34120792150497437,7.603950500488281,71,5497.0,-5.147249698638916,34,9926.0
6540,0.3415057063102722,7.03157377243042,198,5497.0,-5.1434502601623535,-168,9926.0
6550,0.34111860394477844,4.398253917694092,5,5497.0,-0.09102659672498703,76,9926.0
6560,0.34142541885375977,4.102193832397461,95,5497.0,-0.46040990948677063,-68,9926.0
6570,0.3417360782623291,2.7501962184906006,-86,5497.0,0.23994764685630798,145,9926.0
6580,0.3420158624649048,-0.18234427273273468,33,5497.0,1.5138349533081055,80,9926.0
6590,0.341400146484375,-1.5381685495376587,-64,5497.0,1.7994736433029175,185,9926.0
6600,0.341582715511322,-4.882295608520508,22,5497.0,3.0232503414154053,22,9926.0
6610,0.3417779803276062,-4.300921440124512,-142,5497.0,2.6626522541046143,108,9926.0
6620,0.34196388721466064,-4.259178161621094,-14,5497.0,0.6951958537101746,-50,9926.0
6630,0.3421447277069092,-3.145496368408203,-145,5497.0,4.349956512451172,15,9926.0
6640,0.342227965593338,1.7784591913223267,44,5497.0,-3.252981662750244,-59,9926.0
6650,0.3422889709472656,4.389249324798584,-9,5497.0,-2.1999409198760986,2,9926.0
6660,0.34228187799453735,5.152029514312744,200,5497.0,-1.2965919971466064,6,9926.0
6670,0.34225159883499146,5.8618903160095215,58,5497.0,-2.4231116771698,55,9926.0
6680,0.3405682444572449,4.868991374969482,186,5497.0,-5.498668670654297,-96,9926.0
6690,0.3404867649078369,3.3844571113586426,-106,5497.0,-7.713570594787598,-93,9926.0
6700,0.34041261672973633,-0.8515442609786987,18,5497.0,-1.698824405670166,-34,9926.0
6710,0.3403961956501007,-3.7583751678466797,-206,5497.0,2.6900126934051514,-3,9926.0
6720,0.34131404757499695,-5.651443004608154,-35,5497.0,2.1329715251922607,73,9926.0
6730,0.3412209749221802,-6.358059406280518,-239,5497.0,10.347190856933594,142,9926.0
6740,0.34109359979629517,-8.033312797546387,-69,5497.0,7.118063926696777,178,9926.0
6750,0.3410102128982544,-6.002448081970215,-169,5497.0,4.7305908203125,37,9926.0
6760,0.34100937843322754,-3.8020458221435547,20,5497.0,-0.45902150869369507,231,9926.0
6770,0.3405981659889221,-7.447019577026367,-40,5497.0,-3.8824567794799805,-185,9926.0
6780,0.3405657410621643,-5.750080108642578,-61,5497.0,-3.2662243843078613,4,9926.0
6790,0.34056180715560913,-1.6954476833343506,34,5497.0,-0.7130232453346252,-68,9926.0
6800,0.34059733152389526,0.6969069242477417,-162,5497.0,-2.4728715419769287,-46,9926.0
6810,0.34118565917015076,1.3326468467712402,36,5497.0,-3.9484360218048096,-74,9926.0
6820,0.3413013815879822,1.1420493125915527,-89,5497.0,-2.277477741241455,-35,9926.0
6830,0.3414067029953003,-1.023127794265747,66,5497.0,2.428417921066284,142,9926.0
6840,0.341473788022995,-0.39431503415107727,-44,5497.0,7.091799736022949,37,9926.0
6850,0.341540664434433,0.291338175535202,32,5497.0,2.6380083560943604,196,9926.0
6860,0.3414601981639862,3.022681713104248,48,5497.0,3.530975103378296,-61,9926.0
6870,0.3416077196598053,2.075263261795044,-45,5497.0,-2.17809796333313,60,9926.0
6880,0.34173905849456787,-3.3743510246276855,-43,5497.0,1.812645673751831,-62,9926.0
6890,0.34183523058891296,-8.223803520202637,-250,5497.0,-0.9221817851066589,58,9926.0
6900,0.34271886944770813,-5.714814186096191,8,5497.0,-1.73978853225708,-9,9926.0
6910,0.3428502082824707,-2.704421043395996,-89,5497.0,-5.426548480987549,-88,9926.0
6920,0.34298133850097656,2.458770513534546,130,5497.0,-4.420634746551514,176,9926.0
6930,0.34315866231918335,7.379886150360107,83,5497.0,-3.20913028717041,-112,9926.0
6940,0.34331071376800537,13.986608505249023,299,5497.0,-2.4926130771636963,89,9926.0
6950,0.3446877896785736,27.848617553710938,629,5497.0,-1.4134036302566528,-109,9926.0
6960,0.3449740409851074,42.174346923828125,597,5497.0,-2.3231098651885986,86,9926.0
6970,0.3453739881515503,35.762882232666016,456,5497.0,-2.8029894828796387,-118,9926.0
6980,0.3458192050457001,17.607463836669922,24,5497.0,-8.569352149963379,-142,9926.0
6990,0.34703314304351807,-2.004227638244629,7,5497.0,-11.887847900390625,-316,9926.0
7000,0.3475407660007477,-12.030923843383789,-255,5497.0,-13.661118507385254,-183,9926.0
7010,0.34799572825431824,-17.006669998168945,-360,5497.0,-13.22091293334961,-219,9926.0
7020,0.3485407829284668,-19.975732803344727,-253,5497.0,-10.491011619567871,-89,9926.0
7030,0.3494883179664612,-17.268463134765625,-380,5497.0,-3.729495048522949,-80,9926.0
7040,0.349967896938324,-14.642911911010742,-224,5497.0,-5.824653625488281,-67,9926.0
7050,0.3504566252231598,-9.966533660888672,-258,5497.0,-2.746213674545288,53,9926.0
7060,0.3509102463722229,-4.053989887237549,96,5497.0,-3.740083932876587,-28,9926.0
7070,0.3514903485774994,1.3051810264587402,7,5497.0,-0.8204160332679749,28,9926.0
7080,0.3513360619544983,-1.3117059469223022,40,5497.0,-1.66385817527771,-131,9926.0
7090,0.35157397389411926,-5.227827072143555,-72,5497.0,-6.750453948974609,-129,9926.0
7100,0.35172152519226074,-7.799526691436768,-176,5497.0,-4.5783491134643555,-240,9926.0
7110,0.35183846950531006,-9.145638465881348,-178,5497.0,-5.626829147338867,-52,9926.0
7120,0.35143283009529114,-15.675743103027344,-254,5497.0,-5.5324249267578125,-54,9926.0
7130,0.351787805557251,-14.718855857849121,-118,5497.0,-3.1145517826080322,-17,9926.0
7140,0.35193172097206116,-16.15313720703125,-333,5497.0,0.06271503120660782,46,9926.0
7150,0.35197722911834717,-15.357438087463379,-206,5497.0,2.327955484390259,-98,9926.0
7160,0.3518652617931366,-10.39038372039795,-249,5497.0,-1.0777949094772339,106,9926.0
7170,0.3517422378063202,-12.839529037475586,-189,5497.0,4.092167854309082,-50,9926.0
7180,0.3517010807991028,-11.667739868164062,-208,5497.0,0.2129838615655899,125,9926.0
7190,0.3514983654022217,-12.892313957214355,-256,5497.0,5.706614017486572,83,9926.0
7200,0.3511562943458557,-16.060956954956055,-199,5497.0,0.6887468099594116,94,9926.0
7210,0.3509606719017029,-20.136817932128906,-336,5497.0,-5.093140602111816,-165,9926.0
7220,0.3504902124404907,-17.97808837890625,-282,5497.0,-6.753800868988037,-127,9926.0
7230,0.35033687949180603,-18.886445999145508,-394,5497.0,-8.392965316772461,-242,9926.0
7240,0.34992045164108276,-18.104581832885742,-292,5497.0,-6.202071666717529,-65,9926.0
7250,0.3507554829120636,-20.149076461791992,-390,5497.0,-3.533628463745117,-88,9926.0
7260,0.35037124156951904,-17.693275451660156,-154,5497.0,0.6641345620155334,42,9926.0
7270,0.34992527961730957,-11.900303840637207,-184,5497.0,-0.8579503893852234,4,9926.0
7280,0.3495582342147827,-12.123443603515625,-41,5497.0,7.3314127922058105,272,9926.0
7290,0.34915414452552795,-6.733722686767578,-203,5497.0,5.355452060699463,96,9926.0
7300,0.3482006788253784,-6.004588603973389,-8,5497.0,5.687267780303955,148,9926.0
7310,0.3477880358695984,0.47459647059440613,-135,5497.0,3.3111181259155273,21,9926.0
7320,0.34741678833961487,3.663304090499878,119,5497.0,3.3828463554382324,102,9926.0
7330,0.3470470905303955,6.688941955566406,50,5497.0,3.475260019302368,-59,9926.0
7340,0.3454301655292511,7.1999921798706055,145,5497.0,0.3825496733188629,44,9926.0
7350,0.3449977934360504,2.22567081451416,-56,5497.0,3.8913965225219727,-2,9926.0
7360,0.3445531725883484,-2.0721025466918945,41,5497.0,5.112309455871582,37,9926.0
7370,0.34407666325569153,-0.8130115866661072,-93,5497.0,4.254598617553711,-15,9926.0
7380,0.34412339329719543,-1.186158537864685,36,5497.0,3.9403796195983887,118,9926.0
7390,0.3437972366809845,-1.9458802938461304,-97,5497.0,5.9721479415893555,67,9926.0
7400,0.34349578619003296,1.973806381225586,135,5497.0,6.357462406158447,230,9926.0
7410,0.3433579206466675,4.748572826385498,75,5497.0,7.806373119354248,125,9926.0
7420,0.3431119918823242,7.445888519287109,221,5497.0,7.2787041664123535,214,9926.0
7430,0.34357231855392456,11.189004898071289,76,5497.0,4.381040573120117,92,9926.0
7440,0.3434387147426605,9.095600128173828,242,5497.0,8.367218971252441,237,9926.0
7450,0.3432624936103821,6.5633721351623535,6,5497.0,8.340555191040039,193,9926.0
7460,0.34313735365867615,9.135786056518555,235,5497.0,5.495115280151367,52,9926.0
7470,0.34301847219467163,9.924756050109863,29,5497.0,10.633421897888184,225,9926.0
7480,0.34303683042526245,8.50127124786377,190,5497.0,10.002379417419434,27,9926.0
7490,0.3430578410625458,8.544304847717285,117,5497.0,8.48910140991211,206,9926.0
7500,0.3430909812450409,9.098196983337402,151,5497.0,10.446313858032227,-2,9926.0
7510,0.34312018752098083,8.072927474975586,136,5497.0,8.2825345993042,192,9926.0
7520,0.3422134220600128,8.939828872680664,56,5497.0,5.592418670654297,15,9926.0
7530,0.34220102429389954,6.081002235412598,163,5497.0,1.239741563796997,98,9926.0
7540,0.3421162962913513,6.864891052246094,50,5497.0,2.4991507530212402,-9,9926.0
7550,0.34205782413482666,6.631112098693848,227,5497.0,1.4138139486312866,72,9926.0
7560,0.34194523096084595,8.424612045288086,60,5497.0,7.571555137634277,124,9926.0
7570,0.3419520854949951,8.478158950805664,265,5497.0,6.148420810699463,133,9926.0
7580,0.34200718998908997,13.076093673706055,137,5497.0,3.4367756843566895,148,9926.0
7590,0.34207651019096375,11.769414901733398,306,5497.0,7.659356117248535,156,9926.0
7600,0.341327965259552,13.645668029785156,186,5497.0,7.4748992919921875,171,9926.0
7610,0.34135201573371887,15.635663986206055,395,5497.0,7.721704959869385,20,9926.0
7620,0.34139785170555115,18.48491859436035,339,5497.0,3.967350721359253,61,9926.0
7630,0.34140750765800476,14.71099853515625,186,5497.0,5.8199896812438965,-37,9926.0
7640,0.34144073724746704,13.27915096282959,235,5497.0,5.8131256103515625,175,9926.0
7650,0.3413599729537964,12.165328025817871,201,5497.0,4.755367755889893,-71,9926.0
7660,0.34150615334510803,9.045394897460938,181,5497.0,2.7794532775878906,137,9926.0
7670,0.3416546583175659,8.037269592285156,130,5497.0,3.2913949489593506,-87,9926.0
7680,0.3417961597442627,4.998714923858643,105,5497.0,2.5319480895996094,112,9926.0
7690,0.34192129969596863,3.950698137283325,54,5497.0,3.8660457134246826,-105,9926.0
7700,0.3420330882072449,-0.8100992441177368,-95,5497.0,3.847639560699463,74,9926.0
7710,0.34215179085731506,-4.180826663970947,-15,5497.0,-0.2672138512134552,-129,9926.0
7720,0.3422427773475647,4.040328502655029,66,5497.0,-1.9521856307983398,29,9926.0
7730,0.3423777222633362,10.955998420715332,237,5497.0,-0.7743564248085022,-81,9926.0
7740,0.3427659571170807,10.295394897460938,60,5497.0,-4.012367248535156,-27,9926.0
7750,0.3429107069969177,8.054536819458008,225,5497.0,0.022085607051849365,-13,9926.0
7760,0.34313684701919556,7.245672225952148,26,5497.0,2.694359302520752,-9,9926.0
7770,0.34329453110694885,6.450812816619873,124,5497.0,3.624300479888916,84,9926.0
7780,0.3437056839466095,7.816164970397949,65,5497.0,1.4678303003311157,-155,9926.0
7790,0.3439774811267853,6.5145416259765625,226,5497.0,0.5145329833030701,17,9926.0
7800,0.3442510664463043,5.945302486419678,55,5497.0,-1.218775987625122,-132,9926.0
7810,0.34444040060043335,-0.15323448181152344,76,5497.0,5.673976898193359,72,9926.0
7820,0.3423590064048767,0.7512242794036865,-28,5497.0,2.8334085941314697,-54,9926.0
7830,0.3424871861934662,1.9755750894546509,76,5497.0,0.3455263674259186,43,9926.0
7840,0.34258097410202026,2.3480894565582275,-47,5497.0,0.9167590141296387,-74,9926.0
7850,0.34272482991218567,1.3679723739624023,62,5497.0,-2.2934188842773438,37,9926.0
7860,0.34279441833496094,3.8729350566864014,43,5497.0,-2.07726788520813,-189,9926.0
7870,0.3433712422847748,4.552158355712891,103,5497.0,-10.649744033813477,-50,9926.0
7880,0.34343522787094116,-0.2616063356399536,-4,5497.0,-3.3238065242767334,-102,9926.0
7890,0.343502014875412,2.64229679107666,48,5497.0,-1.6361664533615112,166,9926.0
7900,0.34354421496391296,2.7702443599700928,5,5497.0,-0.2681485712528229,-50,9926.0
7910,0.34374311566352844,1.9149483442306519,84,5497.0,-5.850540637969971,-9,9926.0
7920,0.3438583314418793,0.9959951639175415,-38,5497.0,4.270068168640137,41,9926.0
7930,0.3439621329307556,-0.7795018553733826,36,5497.0,3.852022171020508,203,9926.0
7940,0.3440350890159607,-3.082270860671997,-90,5497.0,6.923208236694336,19,9926.0
7950,0.3441254496574402,-2.0722250938415527,6,5497.0,4.13973331451416,165,9926.0
7960,0.3428601622581482,-1.3803235292434692,-54,5497.0,0.8317784667015076,-124,9926.0
7970,0.34281304478645325,-3.4012093544006348,-35,5497.0,-2.5132479667663574,13,9926.0
7980,0.3427450954914093,-3.7875983715057373,-43,5497.0,-6.779011249542236,-270,9926.0
7990,0.3427102863788605,-1.8539575338363647,-28,5497.0,-7.334537506103516,-112,9926.0
8000,0.34427282214164734,-0.8032307028770447,30,5497.0,-9.239986419677734,-276,9926.0
8010,0.3442895710468292,0.17289017140865326,-87,5497.0,-4.398670673370361,-79,9926.0
8020,0.34431782364845276,2.058871030807495,115,5497.0,-5.04169225692749,-131,9926.0
8030,0.3442640006542206,4.446712970733643,-58,5497.0,-3.014616012573242,-24,9926.0
8040,0.34496447443962097,8.476226806640625,109,5497.0,-1.5829541683197021,-8,9926.0
8050,0.3450499475002289,7.646648406982422,8,5497.0,-0.038273945450782776,21,9926.0
8060,0.3451562821865082,4.5871477127075195,118,5497.0,3.39845609664917,150,9926.0
8070,0.34524622559547424,4.278278350830078,-34,5497.0,1.1908103227615356,-2,9926.0
8080,0.34528854489326477,1.2463709115982056,84,5497.0,1.292738914489746,167,9926.0
8090,0.34438556432724,0.037707384675741196,-60,5497.0,-2.1745893955230713,-153,9926.0
8100,0.34443286061286926,-4.329388618469238,-80,5497.0,-5.527936935424805,63,9926.0
8110,0.3445073962211609,-4.4075822830200195,-62,5497.0,-10.524231910705566,-257,9926.0
8120,0.34454867243766785,-2.859989881515503,-35,5497.0,-14.476078987121582,-108,9926.0
8130,0.3459411859512329,-2.4784343242645264,-8,5497.0,-10.02414608001709,-247,9926.0
8140,0.346060574054718,-2.074561357498169,-78,5497.0,-9.180464744567871,-96,9926.0
8150,0.34615206718444824,-1.9027193784713745,53,5497.0,-5.941727638244629,-224,9926.0
8160,0.3462747633457184,0.08457661420106888,-71,5497.0,-2.038146734237671,-41,9926.0
8170,0.3464059829711914,-0.4731796085834503,91,5497.0,0.26211079955101013,24,9926.0
8180,0.3463577628135681,0.8283800482749939,-72,5497.0,6.365591049194336,90,9926.0
8190,0.3464575707912445,0.8747487664222717,119,5497.0,6.355578899383545,123,9926.0
8200,0.3465559780597687,1.2474479675292969,-72,5497.0,6.912118911743164,32,9926.0
8210,0.34668615460395813,0.6365087032318115,45,5497.0,3.813713788986206,108,9926.0
8220,0.3465593457221985,-1.1340017318725586,-96,5497.0,0.6447688937187195,-161,9926.0
8230,0.34673765301704407,-5.6235222816467285,-111,5497.0,-4.873003959655762,-147,9926.0
8240,0.346880704164505,-6.1614909172058105,-112,5497.0,-9.077244758605957,-149,9926.0
8250,0.34696540236473083,-6.893526077270508,-15,5497.0,-11.484169960021973,-145,9926.0
8260,0.34659045934677124,-8.627532005310059,-63,5497.0,-17.305259704589844,-270,9926.0
8270,0.3466803729534149,-4.338674068450928,112,5497.0,-8.625039100646973,-123,9926.0
8280,0.34678295254707336,-0.061709169298410416,-67,5497.0,-3.376105546951294,-44,9926.0
8290,0.34681111574172974,0.5629513263702393,100,5497.0,2.7024986743927,69,9926.0
8300,0.3468222916126251,1.879625916481018,-47,5497.0,6.959427356719971,89,9926.0
8310,0.34600895643234253,-0.44911277294158936,87,5497.0,6.582396030426025,106,9926.0
8320,0.34587952494621277,-1.8120999336242676,-79,5497.0,6.185244083404541,34,9926.0
8330,0.345753937959671,-0.8712772727012634,1,5497.0,5.165592193603516,38,9926.0
8340,0.3457147479057312,-1.497687816619873,-152,5497.0,-0.7927793860435486,-101,9926.0
8350,0.3461940586566925,-0.8835086226463318,7,5497.0,-7.045031547546387,-39,9926.0
8360,0.34620606899261475,-4.2219414710998535,-153,5497.0,-2.8427162170410156,-147,9926.0
8370,0.34620437026023865,-4.87217903137207,-19,5497.0,-9.033308029174805,-115,9926.0
8380,0.3461666703224182,-5.12865686416626,-179,5497.0,-3.828479766845703,-96,9926.0
8390,0.3460485637187958,-5.244446754455566,-9,5497.0,-1.6887534856796265,-36,9926.0
8400,0.34595099091529846,-4.352903842926025,-186,5497.0,1.2902089357376099,19,9926.0
8410,0.34589606523513794,-1.6409167051315308,49,5497.0,-1.9302070140838623,53,9926.0
8420,0.345912903547287,-3.722308874130249,-162,5497.0,3.785212278366089,89,9926.0
8430,0.34596607089042664,-2.8910322189331055,3,5497.0,6.177252292633057,136,9926.0
8440,0.34565600752830505,-2.5708253383636475,-123,5497.0,8.692334175109863,122,9926.0
8450,0.3457324206829071,-0.5560646057128906,27,5497.0,6.121422290802002,132,9926.0
8460,0.34575340151786804,0.08700685948133469,-91,5497.0,3.923753023147583,-35,9926.0
8470,0.3457798361778259,-0.42337530851364136,35,5497.0,3.0396275520324707,119,9926.0
8480,0.34433385729789734,0.5878474116325378,-98,5497.0,-2.2130727767944336,-140,9926.0
8490,0.3443593382835388,-0.09523267298936844,49,5497.0,-7.082188606262207,37,9926.0
8500,0.3443780243396759,-5.685974597930908,-117,5497.0,1.123611330986023,-154,9926.0
8510,0.34437423944473267,-3.982388973236084,-45,5497.0,-3.93277907371521,60,9926.0
8520,0.3443439304828644,-3.251220703125,-71,5497.0,-1.6339036226272583,-138,9926.0
8530,0.3433489203453064,-3.7556264400482178,-101,5497.0,-0.3290279507637024,122,9926.0
8540,0.34325554966926575,-3.511262893676758,-72,5497.0,0.5727635622024536,-49,9926.0
8550,0.3432188928127289,-4.242335319519043,-148,5497.0,3.7839794158935547,66,9926.0
8560,0.34323152899742126,-3.615297317504883,23,5497.0,8.105411529541016,156,9926.0
8570,0.34430593252182007,-1.2184172868728638,-127,5497.0,7.996953964233398,90,9926.0
8580,0.3443114161491394,0.12308934330940247,72,5497.0,4.7181315422058105,54,9926.0
8590,0.34436818957328796,-0.3371429145336151,-66,5497.0,2.0004167556762695,-51,9926.0
8600,0.3444806933403015,-2.1022562980651855,-13,5497.0,5.286385536193848,185,9926.0
8610,0.3447546064853668,-1.3428754806518555,-53,5497.0,0.5650725364685059,-121,9926.0
8620,0.34485530853271484,-3.724489212036133,-157,5497.0,1.3122189044952393,15,9926.0
8630,0.34494850039482117,-3.332577705383301,9,5497.0,-0.6577972769737244,-24,9926.0
8640,0.3450359106063843,-0.9667662382125854,-115,5497.0,-2.440136671066284,-112,9926.0
8650,0.3451474905014038,-1.0775997638702393,39,5497.0,-1.1834794282913208,121,9926.0
8660,0.34523388743400574,0.9715491533279419,18,5497.0,5.011599540710449,-43,9926.0
8670,0.34535691142082214,1.3006638288497925,-20,5497.0,6.306022644042969,168,9926.0
8680,0.34550485014915466,0.5922762155532837,74,5497.0,10.665180206298828,73,9926.0
8690,0.3456701338291168,0.3570834994316101,-86,5497.0,16.12870216369629,78,9926.0
8700,0.3455350697040558,4.0687713623046875,100,5497.0,2.255443811416626,127,9926.0
8710,0.3456798493862152,1.8792096376419067,10,5497.0,2.9678192138671875,-84,9926.0
8720,0.34584105014801025,0.8308377265930176,-9,5497.0,-1.5888233184814453,13,9926.0
8730,0.3460457921028137,1.4810444116592407,116,5497.0,-2.3703489303588867,-10,9926.0
8740,0.3462999761104584,0.15667766332626343,-56,5497.0,-2.911825180053711,-185,9926.0
8750,0.34638509154319763,1.4489866495132446,70,5497.0,0.16236747801303864,19,9926.0
8760,0.34661665558815,1.6830787658691406,39,5497.0,-1.1184037923812866,-191,9926.0
8770,0.3468945026397705,0.4820040166378021,-128,5497.0,2.2036218643188477,70,9926.0
8780,0.34720173478126526,2.7520573139190674,99,5497.0,3.434312582015991,69,9926.0
8790,0.34621188044548035,1.98424232006073,-17,5497.0,7.145100116729736,-29,9926.0
8800,0.346413791179657,1.741468906402588,55,5497.0,5.009125709533691,164,9926.0
8810,0.3466329276561737,0.3478422164916992,56,5497.0,4.869320392608643,40,9926.0
8820,0.34685930609703064,1.2714223861694336,55,5497.0,-0.15152369439601898,-29,9926.0
8830,0.3478392958641052,1.2709589004516602,-2,5497.0,-5.557669639587402,-18,9926.0
8840,0.348044216632843,-0.16291822493076324,-19,5497.0,-5.263604164123535,-98,9926.0
8850,0.34822627902030945,1.7332431077957153,89,5497.0,-1.9053081274032593,-44,9926.0
8860,0.3484056293964386,0.9987912774085999,-80,5497.0,-3.68581485748291,-153,9926.0
8870,0.34859660267829895,0.5126246809959412,88,5497.0,-5.312421798706055,-84,9926.0
8880,0.34769347310066223,-0.1928107589483261,-6,5497.0,-4.432250022888184,-144,9926.0
8890,0.3477233648300171,1.0440034866333008,34,5497.0,-3.5366463661193848,-2,9926.0
8900,0.34785693883895874,3.397876024246216,100,5497.0,-3.295269727706909,-97,9926.0
8910,0.3479789197444916,1.0969456434249878,-82,5497.0,-2.4832379817962646,-34,9926.0
8920,0.34680983424186707,3.867448091506958,130,5497.0,-2.757636547088623,92,9926.0
8930,0.3468187153339386,3.3879127502441406,-12,5497.0,0.264545202255249,-69,9926.0
8940,0.34675613045692444,2.899103879928589,-34,5497.0,3.121636390686035,126,9926.0
8950,0.34672096371650696,7.872490882873535,151,5497.0,-1.2015317678451538,-25,9926.0
8960,0.34657546877861023,8.433121681213379,46,5497.0,-1.0408365726470947,-7,9926.0
8970,0.34665799140930176,6.9555511474609375,230,5497.0,1.193108081817627,52,9926.0
8980,0.3465045094490051,8.623302459716797,120,5497.0,1.6717302799224854,-134,9926.0
8990,0.34629347920417786,5.922030925750732,63,5497.0,-2.609884738922119,-12,9926.0
9000,0.3460441529750824,4.222182750701904,180,5497.0,-0.008996699005365372,-48,9926.0
9010,0.3449578285217285,2.822235584259033,-49,5497.0,-2.6364457607269287,-54,9926.0
9020,0.3446353077888489,-1.3145886659622192,24,5497.0,1.3207969665527344,78,9926.0
9030,0.3443315029144287,-0.00021421638666652143,-11,5497.0,3.638439893722534,-53,9926.0
9040,0.3440417945384979,1.2297996282577515,-40,5497.0,2.667518377304077,77,9926.0
9050,0.34307533502578735,1.6014058589935303,108,5497.0,5.704588890075684,207,9926.0
9060,0.3428018093109131,-0.14335647225379944,-34,5497.0,2.970345973968506,-204,9926.0
9070,0.34257692098617554,1.596670389175415,-73,5497.0,-2.8309402465820312,11,9926.0
9080,0.3423539400100708,-0.4459751844406128,36,5497.0,-1.5735704898834229,82,9926.0
9090,0.34207242727279663,-1.7230381965637207,-44,5497.0,-2.475376844406128,-204,9926.0
9100,0.34299588203430176,2.698643445968628,-10,5497.0,-1.4281216859817505,93,9926.0
9110,0.34283918142318726,-1.7057982683181763,110,5497.0,2.7594456672668457,73,9926.0
9120,0.342708557844162,1.120113492012024,-72,5497.0,-0.6805940866470337,-57,9926.0
9130,0.34265708923339844,-1.562567114830017,-86,5497.0,-0.2028546780347824,28,9926.0
9140,0.343167245388031,-0.940973699092865,70,5497.0,1.8506221771240234,200,9926.0
9150,0.3432142436504364,-1.938860535621643,-93,5497.0,1.2933388948440552,-68,9926.0
9160,0.34327971935272217,-3.7672698497772217,-135,5497.0,6.057960033416748,120,9926.0
9170,0.34336215257644653,-2.740220308303833,55,5497.0,4.00827169418335,150,9926.0
9180,0.3434596061706543,-2.9679973125457764,-94,5497.0,5.47920560836792,-40,9926.0
9190,0.342987984418869,-1.7550630569458008,-245,5497.0,0.36094626784324646,6,9926.0
9200,0.3431737422943115,-0.5580883026123047,99,5497.0,0.12571680545806885,73,9926.0
9210,0.3433689475059509,-0.4883892238140106,-4,5497.0,0.793113112449646,-130,9926.0
9220,0.34358468651771545,2.5449793338775635,-135,5497.0,-4.966320037841797,19,9926.0
9230,0.34437572956085205,1.0611943006515503,69,5497.0,-6.007991313934326,-33,9926.0
9240,0.3446352779865265,-3.4002199172973633,-47,5497.0,-3.323716402053833,-167,9926.0
9250,0.34489041566848755,-2.7692179679870605,-152,5497.0,-3.2241580486297607,-24,9926.0
9260,0.3451113998889923,-4.502621650695801,56,5497.0,-7.073906898498535,-41,9926.0
9270,0.3455947935581207,0.715618371963501,-14,5497.0,-2.037877321243286,-204,9926.0
9280,0.3457953929901123,1.2796880006790161,-13,5497.0,1.824289083480835,114,9926.0
9290,0.34599336981773376,-0.5765184164047241,113,5497.0,2.301818609237671,-18,9926.0
9300,0.3462469279766083,1.5182057619094849,-84,5497.0,3.92809796333313,26,9926.0
9310,0.346512109041214,0.23963123559951782,30,5497.0,4.071243762969971,203,9926.0
9320,0.3474130928516388,2.7830419540405273,165,5497.0,3.0148887634277344,-80,9926.0
9330,0.3477513790130615,5.89467191696167,0,5497.0,-5.821715831756592,-17,9926.0
9340,0.3481329679489136,2.023479461669922,121,5497.0,-3.928157091140747,-9,9926.0
9350,0.3484951853752136,1.9337178468704224,-39,5497.0,-5.027190685272217,-94,9926.0
9360,0.3502120077610016,-0.5282873511314392,-54,5497.0,-0.15419268608093262,24,9926.0
9370,0.35056793689727783,-2.5079996585845947,56,5497.0,-4.502389430999756,-61,9926.0
9380,0.3509141802787781,-4.39746618270874,-123,5497.0,-2.1725399494171143,-70,9926.0
9390,0.3512175679206848,-4.0579938888549805,-27,5497.0,-3.488577127456665,-37,9926.0
9400,0.3514646291732788,-5.316938400268555,-90,5497.0,-2.6495285034179688,-232,9926.0
9410,0.35106194019317627,-5.386933326721191,-66,5497.0,-0.9810119867324829,30,9926.0
9420,0.3512462079524994,-3.281743049621582,62,5497.0,-1.1358716487884521,-42,9926.0
9430,0.3514023423194885,1.1702169179916382,-51,5497.0,-1.2792812585830688,50,9926.0
9440,0.3515428602695465,1.631632685661316,118,5497.0,1.0350981950759888,-112,9926.0
9450,0.3514193892478943,4.66145133972168,-20,5497.0,0.6584875583648682,69,9926.0
9460,0.3514959514141083,2.7421979904174805,44,5497.0,1.3303797245025635,30,9926.0
9470,0.35157206654548645,2.3645312786102295,-51,5497.0,-1.2641547918319702,-175,9926.0
9480,0.35162675380706787,2.7995471954345703,103,5497.0,-0.3549153804779053,-3,9926.0
9490,0.351352721452713,0.6959219574928284,1,5497.0,-0.4711909592151642,-126,9926.0
9500,0.3512748181819916,-1.7059249877929688,-27,5497.0,0.37507691979408264,48,9926.0
9510,0.35120075941085815,-0.514204740524292,28,5497.0,-3.447723388671875,-138,9926.0
9520,0.3511173725128174,-1.4081608057022095,-91,5497.0,-5.073831558227539,-105,9926.0
9530,0.35102084279060364,-4.2920756340026855,46,5497.0,-2.0793087482452393,-43,9926.0
9540,0.351287841796875,-3.1736342906951904,-136,5497.0,-3.8819847106933594,-126,9926.0
9550,0.3511340320110321,-3.0231246948242188,-52,5497.0,-4.178361892700195,159,9926.0
9560,0.35098379850387573,-1.2410531044006348,-51,5497.0,1.390380620956421,-97,9926.0
9570,0.3508411943912506,-0.3186595141887665,-27,5497.0,-1.0311248302459717,149,9926.0
9580,0.3499380648136139,-1.4135408401489258,56,5497.0,0.23277050256729126,-33,9926.0
9590,0.3496830463409424,1.537717342376709,-85,5497.0,-1.748523235321045,33,9926.0
9600,0.349411278963089,-2.9073872566223145,11,5497.0,5.759926795959473,79,9926.0
9610,0.34916236996650696,3.1711771488189697,26,5497.0,3.486201286315918,-40,9926.0
9620,0.34894564747810364,1.5267690420150757,28,5497.0,2.5690948963165283,207,9926.0
9630,0.3486790955066681,1.188342571258545,30,5497.0,3.014302968978882,36,9926.0
9640,0.3483746349811554,1.0024806261062622,-35,5497.0,1.6899000406265259,69,9926.0
9650,0.34805580973625183,-0.6729040741920471,105,5497.0,-1.3948910236358643,34,9926.0
9660,0.34771981835365295,-0.3423791825771332,-36,5497.0,-4.239247798919678,-106,9926.0
9670,0.348267525434494,-0.7895404100418091,9,5497.0,-2.639003038406372,43,9926.0
9680,0.3479280173778534,-2.7810821533203125,-31,5497.0,0.9494086503982544,-97,9926.0
9690,0.34761756658554077,0.18867845833301544,-57,5497.0,-2.4137580394744873,40,9926.0
9700,0.3473535478115082,-0.8606570959091187,84,5497.0,0.8126063942909241,6,9926.0
9710,0.34771060943603516,-1.094329595565796,-79,5497.0,1.525907039642334,10,9926.0
9720,0.34744584560394287,-1.0355950593948364,31,5497.0,1.6033220291137695,202,9926.0
9730,0.34717389941215515,-1.9119932651519775,-45,5497.0,2.5192999839782715,-54,9926.0
9740,0.34693843126296997,3.2717883586883545,-5,5497.0,3.6076760292053223,112,9926.0
9750,0.34676334261894226,2.4420278072357178,132,5497.0,-1.7762010097503662,-44,9926.0
9760,0.3471212685108185,2.329188108444214,-19,5497.0,4.559194564819336,-11,9926.0
9770,0.346973717212677,1.5624934434890747,91,5497.0,3.790494441986084,155,9926.0
9780,0.3468177616596222,1.6210871934890747,33,5497.0,8.614018440246582,-3,9926.0
9790,0.34667807817459106,-0.18716704845428467,-64,5497.0,4.3152008056640625,108,9926.0
9800,0.3466465473175049,-1.6645300388336182,48,5497.0,2.079845428466797,33,9926.0
9810,0.3465069532394409,-1.5436978340148926,-155,5497.0,-4.16621732711792,-169,9926.0
9820,0.34640881419181824,-1.1568090915679932,32,5497.0,-6.506346702575684,65,9926.0
9830,0.3463551700115204,2.4696109294891357,43,5497.0,-4.2473602294921875,-183,9926.0
9840,0.34697455167770386,4.145064830780029,10,5497.0,-5.272723197937012,33,9926.0
9850,0.346968412399292,1.0407373905181885,88,5497.0,0.8149900436401367,2,9926.0
9860,0.3469533920288086,0.18773870170116425,-108,5497.0,0.8603771328926086,69,9926.0
9870,0.34697434306144714,-2.783860206604004,-6,5497.0,3.2546050548553467,131,9926.0
9880,0.34704580903053284,-5.251529216766357,-156,5497.0,3.492274284362793,1,9926.0
9890,0.3466700315475464,-5.80368709564209,-81,5497.0,5.691473484039307,243,9926.0
9900,0.3466953933238983,-5.565654754638672,-37,5497.0,7.114524841308594,-21,9926.0
9910,0.34674960374832153,-1.7413747310638428,-82,5497.0,0.9431831240653992,97,9926.0
9920,0.3468110263347626,-3.149540901184082,86,5497.0,3.2670416831970215,48,9926.0
9930,0.347322940826416,-2.2461724281311035,-101,5497.0,1.600711703300476,49,9926.0
9940,0.34735938906669617,0.26036614179611206,66,5497.0,3.8732666969299316,145,9926.0
9950,0.3473939001560211,-0.00958415400236845,-1,5497.0,3.8999717235565186,-53,9926.0
9960,0.3474702835083008,1.225014567375183,-8,5497.0,0.5038980841636658,71,9926.0
9970,0.34761878848075867,0.3700909912586212,49,5497.0,1.8595837354660034,-35,9926.0
9980,0.3479249179363251,-1.5256917476654053,-152,5497.0,1.1299277544021606,-64,9926.0
9990,0.3480762541294098,-0.26193660497665405,30,5497.0,1.7624455690383911,48,9926.0
10000,0.348235547542572,-1.1523479223251343,-43,5497.0,0.2630155682563782,-136,9926.0
10010,0.34841808676719666,-0.12189757078886032,54,5497.0,2.2292630672454834,118,9926.0
10020,0.3480628728866577,0.4673546254634857,17,5497.0,0.7922887206077576,-90,9926.0
10030,0.3482673466205597,-1.6179465055465698,-91,5497.0,3.248704433441162,101,9926.0
10040,0.34844428300857544,0.7801990509033203,57,5497.0,2.401297092437744,-6,9926.0
10050,0.3485895097255707,-0.5758671760559082,-82,5497.0,2.2209393978118896,98,9926.0
10060,0.34871599078178406,0.2377091497182846,175,5497.0,4.084344387054443,27,9926.0
10070,0.35024744272232056,1.2845991849899292,-63,5497.0,0.03786115720868111,-60,9926.0
10080,0.3504545986652374,-2.012476921081543,56,5497.0,-0.8667343258857727,-67,9926.0
10090,0.350647509098053,0.2759034335613251,-90,5497.0,-1.960559606552124,-6,9926.0
10100,0.3508244752883911,-0.24163120985031128,97,5497.0,0.8066892027854919,20,9926.0
10110,0.3518895208835602,2.400434732437134,-93,5497.0,-0.31542646884918213,20,9926.0
10120,0.3521440625190735,2.3056111335754395,84,5497.0,3.4455435276031494,37,9926.0
10130,0.3524148762226105,3.2530994415283203,-45,5497.0,1.7133265733718872,-100,9926.0
10140,0.35267382860183716,2.399142265319824,100,5497.0,1.1930328607559204,52,9926.0
10150,0.35340818762779236,1.2907661199569702,-58,5497.0,4.0619025230407715,-46,9926.0
10160,0.3536392152309418,-2.3641889095306396,19,5497.0,5.104659557342529,145,9926.0
10170,0.3538990616798401,2.8265252113342285,10,5497.0,-4.252724647521973,-57,9926.0
10180,0.3541853129863739,-0.8562025427818298,-51,5497.0,-2.941776752471924,95,9926.0
10190,0.35445353388786316,-2.5726993083953857,9,5497.0,-2.161999464035034,-147,9926.0
10200,0.35488471388816833,-0.25183507800102234,-61,5497.0,-4.848720550537109,54,9926.0
10210,0.3550497889518738,-2.436448335647583,10,5497.0,-5.285523891448975,-62,9926.0
10220,0.3552096486091614,1.892163872718811,-40,5497.0,-3.0653181076049805,24,9926.0
10230,0.3553621768951416,1.4470092058181763,66,5497.0,-0.20548148453235626,-146,9926.0
10240,0.35376814007759094,3.440445899963379,42,5497.0,0.18795010447502136,47,9926.0
10250,0.35383275151252747,5.279568672180176,64,5497.0,0.11613593995571136,-81,9926.0
10260,0.3538936972618103,4.068971157073975,2,5497.0,-1.5779517889022827,62,9926.0
10270,0.35391953587532043,1.3261849880218506,33,5497.0,4.276846408843994,25,9926.0
10280,0.35352835059165955,0.6417480707168579,-27,5497.0,1.6755611896514893,195,9926.0
10290,0.35342279076576233,-0.2855134904384613,5,5497.0,3.6938421726226807,29,9926.0
10300,0.3534276485443115,-1.4669768810272217,-24,5497.0,0.6750770211219788,157,9926.0
10310,0.3531293570995331,-3.8819689750671387,-93,5497.0,-0.09352440387010574,-64,9926.0
10320,0.3531442880630493,-4.241483211517334,-64,5497.0,-1.4499597549438477,69,9926.0
10330,0.3528423607349396,-2.774306297302246,-69,5497.0,-3.9907965660095215,-219,9926.0
10340,0.3528687357902527,0.07986947149038315,-12,5497.0,-6.788475036621094,-6,9926.0
10350,0.3526081144809723,0.4835808277130127,-48,5497.0,-7.38044548034668,-158,9926.0
10360,0.35260888934135437,0.3688298165798187,-5,5497.0,-10.004996299743652,7,9926.0
10370,0.35255226492881775,2.559359073638916,9,5497.0,-6.831247806549072,-24,9926.0
10380,0.3525680899620056,0.47586727142333984,71,5497.0,1.680964469909668,183,9926.0
10390,0.3524416983127594,2.1571972370147705,13,5497.0,1.9009217023849487,-2,9926.0
10400,0.3523229658603668,2.1730740070343018,106,5497.0,1.5903277397155762,110,9926.0
10410,0.35220983624458313,1.5854694843292236,-58,5497.0,3.6972177028656006,-39,9926.0
10420,0.3524547219276428,-0.306204617023468,55,5497.0,2.401071310043335,46,9926.0
10430,0.3523675799369812,0.589629590511322,-104,5497.0,0.7631704211235046,-1,9926.0
10440,0.35233074426651,-1.3290444612503052,11,5497.0,-6.745098114013672,-76,9926.0
10450,0.3522663712501526,-2.5761165618896484,-165,5497.0,-3.7866973876953125,-47,9926.0
10460,0.35032355785369873,-4.797519207000732,11,5497.0,-1.9454044103622437,-34,9926.0
10470,0.3503684401512146,-3.6270768642425537,-121,5497.0,-1.778786063194275,73,9926.0
10480,0.34993860125541687,-3.875854969024658,42,5497.0,-1.6091240644454956,-13,9926.0
10490,0.34993860125541687,0.19050666689872742,-14,5497.0,-6.106126308441162,11,9926.0
10500,0.34897252917289734,-0.0957530215382576,27,5497.0,-2.8782551288604736,-104,9926.0
10510,0.34897252917289734,0.396373450756073,6,5497.0,-1.6798237562179565,55,9926.0
10520,0.3489013910293579,2.1805789470672607,47,5497.0,1.4638231992721558,-164,9926.0
10530,0.34884804487228394,4.2125468254089355,70,5497.0,-0.02170782908797264,95,9926.0
10540,0.34883344173431396,3.261531352996826,-12,5497.0,4.7112202644348145,-25,9926.0
10550,0.3486219048500061,-3.2985904216766357,-24,5497.0,3.2153496742248535,153,9926.0
10560,0.3485240638256073,-1.4160176515579224,-63,5497.0,4.976268291473389,-38,9926.0
10570,0.34849050641059875,-2.418320417404175,-33,5497.0,-0.2654761075973511,60,9926.0
10580,0.3483593761920929,-2.3405981063842773,-86,5497.0,-3.699328660964966,-109,9926.0
10590,0.3470214307308197,-2.101419448852539,30,5497.0,-3.0060017108917236,-15,9926.0
10600,0.34688448905944824,-6.107226848602295,-133,5497.0,-0.3138578534126282,-25,9926.0
10610,0.3468853235244751,-2.606173038482666,30,5497.0,-1.742140769958496,18,9926.0
10620,0.34700679779052734,-0.0193326473236084,-69,5497.0,2.161299467086792,-78,9926.0
10630,0.34697023034095764,0.840684175491333,49,5497.0,1.0366147756576538,8,9926.0
10640,0.34697213768959045,0.2778482437133789,-79,5497.0,3.2722814083099365,-7,9926.0
10650,0.34693050384521484,0.8397623896598816,89,5497.0,3.9233038425445557,-26,9926.0
10660,0.3469044268131256,3.2302932739257812,-29,5497.0,0.25349774956703186,-15,9926.0
10670,0.3469407856464386,4.166533470153809,156,5497.0,2.32163405418396,36,9926.0
10680,0.34578466415405273,7.114654064178467,46,5497.0,1.705456018447876,7,9926.0
10690,0.34608790278434753,5.442110061645508,212,5497.0,2.641214370727539,-30,9926.0
10700,0.34625300765037537,2.6108429431915283,79,5497.0,-2.2368597984313965,123,9926.0
10710,0.3464512825012207,0.470208078622818,7,5497.0,4.54746675491333,-139,9926.0
10720,0.34635135531425476,0.9904075860977173,50,5497.0,3.9910471439361572,98,9926.0
10730,0.34644582867622375,-2.5634474754333496,-89,5497.0,3.5917952060699463,-81,9926.0
10740,0.3464796245098114,-4.235632419586182,-89,5497.0,1.2158058881759644,56,9926.0
10750,0.346604585647583,-6.3688483238220215,-173,5497.0,-1.568780779838562,-107,9926.0
10760,0.346713125705719,-7.980129241943359,-108,5497.0,-2.5168654918670654,104,9926.0
10770,0.3465035557746887,-6.0227742195129395,-152,5497.0,-2.7767162322998047,-65,9926.0
10780,0.3467242121696472,-7.517252445220947,-71,5497.0,-2.8942832946777344,66,9926.0
10790,0.346949964761734,-5.5259857177734375,-136,5497.0,-1.7714951038360596,-51,9926.0
10800,0.34716373682022095,-4.376533508300781,44,5497.0,-1.6110174655914307,18,9926.0
10810,0.34723198413848877,-1.154495358467102,-76,5497.0,-0.5598088502883911,-86,9926.0
10820,0.347401887178421,-1.037833571434021,26,5497.0,-2.6711254119873047,4,9926.0
10830,0.3475615680217743,-3.530212879180908,-117,5497.0,-6.727520942687988,-165,9926.0
10840,0.347730427980423,-3.232726573944092,1,5497.0,0.798616349697113,35,9926.0
10850,0.3479312062263489,-2.08150053024292,-131,5497.0,-1.4586637020111084,-26,9926.0
10860,0.3473030626773834,-3.790275812149048,-11,5497.0,1.2598488330841064,24,9926.0
10870,0.34755703806877136,-2.4265506267547607,-171,5497.0,3.019212484359741,64,9926.0
10880,0.3478192389011383,-2.187052011489868,-19,5497.0,4.858475208282471,58,9926.0
10890,0.34804850816726685,-0.993533730506897,-98,5497.0,5.456789493560791,98,9926.0
10900,0.3489075303077698,0.2794734537601471,33,5497.0,4.805171966552734,82,9926.0
10910,0.3491091728210449,-0.10956545919179916,-75,5497.0,9.960868835449219,156,9926.0
10920,0.34935346245765686,1.614241600036621,127,5497.0,4.69025993347168,95,9926.0
10930,0.3496081531047821,2.7666563987731934,7,5497.0,-0.6052132844924927,-59,9926.0
10940,0.34955188632011414,0.39336708188056946,159,5497.0,1.1617201566696167,-87,9926.0
10950,0.3498333990573883,-0.045282769948244095,-14,5497.0,0.37546852231025696,-14,9926.0
10960,0.35009416937828064,-0.02333027496933937,125,5497.0,-1.771146535873413,32,9926.0
10970,0.35031139850616455,4.510632514953613,-29,5497.0,-3.239549160003662,42,9926.0
10980,0.3504865765571594,4.037665843963623,135,5497.0,2.37526273727417,59,9926.0
10990,0.3503877520561218,2.9898006916046143,-29,5497.0,2.445728302001953,108,9926.0
11000,0.3505377769470215,3.4849255084991455,110,5497.0,2.7289984226226807,34,9926.0
11010,0.3507111072540283,2.905320644378662,-58,5497.0,3.5666213035583496,126,9926.0
11020,0.350894957780838,0.9047132134437561,49,5497.0,5.338414192199707,58,9926.0
11030,0.34989285469055176,-0.7525248527526855,-165,5497.0,2.608125686645508,84,9926.0
11040,0.3500062823295593,0.8442558646202087,57,5497.0,1.2405036687850952,-40,9926.0
11050,0.35007044672966003,2.0870163440704346,-137,5497.0,-2.741192102432251,30,9926.0
11060,0.350089430809021,2.1217660903930664,132,5497.0,-4.345409393310547,8,9926.0
11070,0.3500833511352539,2.0021235942840576,-69,5497.0,0.2498418241739273,45,9926.0
11080,0.3504626750946045,2.5664403438568115,164,5497.0,-0.5150339603424072,-14,9926.0
11090,0.3504975140094757,3.2400786876678467,0,5497.0,1.5905154943466187,77,9926.0
11100,0.35053420066833496,2.5164527893066406,142,5497.0,3.0306551456451416,40,9926.0
11110,0.35057204961776733,4.048609256744385,32,5497.0,3.703225612640381,72,9926.0
11120,0.3503584861755371,1.1922112703323364,109,5497.0,1.5149142742156982,69,9926.0
11130,0.350287526845932,2.770277738571167,-20,5497.0,0.11457691341638565,42,9926.0
11140,0.35021451115608215,2.6565027236938477,108,5497.0,1.3287733793258667,34,9926.0
11150,0.3501899242401123,3.0594351291656494,-81,5497.0,-1.5668085813522339,-66,9926.0
11160,0.34937137365341187,3.242438316345215,83,5497.0,2.4721262454986572,67,9926.0
11170,0.3493598699569702,4.967663764953613,-20,5497.0,5.184693336486816,27,9926.0
11180,0.34936144948005676,4.647690773010254,104,5497.0,6.365781784057617,142,9926.0
11190,0.3493306338787079,3.422398805618286,-25,5497.0,6.181389808654785,25,9926.0
11200,0.34925076365470886,1.5066701173782349,32,5497.0,6.830039978027344,171,9926.0
11210,0.3498905599117279,2.839693069458008,-38,5497.0,4.485091686248779,7,9926.0
11220,0.3498840630054474,-0.8213183879852295,4,5497.0,2.175077199935913,145,9926.0
11230,0.349903404712677,1.968194842338562,-51,5497.0,-0.368784636259079,-78,9926.0
11240,0.3499327301979065,0.35994231700897217,10,5497.0,-0.8672282695770264,253,9926.0
11250,0.3499665856361389,1.0076450109481812,10,5497.0,-3.584949493408203,-171,9926.0
11260,0.3499756157398224,2.9253792762756348,64,5497.0,-5.953463077545166,83,9926.0
11270,0.34995102882385254,0.17653432488441467,90,5497.0,-2.4473447799682617,-129,9926.0
11280,0.3499160408973694,4.208799839019775,43,5497.0,-3.032015562057495,70,9926.0
11290,0.3499351143836975,3.113513708114624,52,5497.0,-0.040991079062223434,-82,9926.0
11300,0.3488132357597351,2.9315245151519775,43,5497.0,0.8899595141410828,109,9926.0
11310,0.348766565322876,1.4664188623428345,59,5497.0,3.8379147052764893,-82,9926.0
11320,0.3486495316028595,-0.8784265518188477,61,5497.0,5.642755508422852,141,9926.0
11330,0.34849217534065247,0.21764962375164032,-58,5497.0,4.486165523529053,-45,9926.0
11340,0.34779128432273865,0.956953227519989,47,5497.0,-4.934051990509033,71,9926.0
11350,0.3476133346557617,0.5567476749420166,-38,5497.0,-1.9775569438934326,-36,9926.0
11360,0.34743908047676086,1.0544965267181396,22,5497.0,-2.0686588287353516,115,9926.0
11370,0.3472779393196106,2.361629009246826,102,5497.0,-0.8023447394371033,-138,9926.0
11380,0.34821346402168274,3.5812087059020996,44,5497.0,-3.622025489807129,-16,9926.0
11390,0.3480931222438812,0.7840102910995483,112,5497.0,-2.005618095397949,-145,9926.0
11400,0.34797510504722595,0.9161345362663269,-9,5497.0,-1.5070641040802002,-29,9926.0
11410,0.3479125201702118,-1.5669382810592651,37,5497.0,1.8787143230438232,61,9926.0
11420,0.34792134165763855,-2.576683521270752,-176,5497.0,-1.782155156135559,-9,9926.0
11430,0.34798210859298706,-5.695685863494873,-29,5497.0,0.45322781801223755,56,9926.0
11440,0.34801387786865234,-7.889501094818115,-158,5497.0,4.799862861633301,-29,9926.0
11450,0.34806716442108154,-4.561307430267334,-9,5497.0,-3.1875457763671875,-11,9926.0
11460,0.34818145632743835,-5.9081292152404785,-129,5497.0,-2.6376218795776367,-236,9926.0
11470,0.3482200801372528,-3.9716732501983643,-72,5497.0,-9.09011173248291,-4,9926.0
11480,0.3483995497226715,-1.6440720558166504,-34,5497.0,-6.713839054107666,-150,9926.0
11490,0.34862542152404785,-3.33904767036438,-55,5497.0,-7.38207483291626,-32,9926.0
11500,0.3488270938396454,-0.7138504981994629,48,5497.0,-4.387720584869385,-130,9926.0
11510,0.34899666905403137,1.3767644166946411,-22,5497.0,-2.8426408767700195,30,9926.0
11520,0.34916752576828003,1.6984881162643433,166,5497.0,-1.0224804878234863,-69,9926.0
11530,0.34935063123703003,1.6380687952041626,18,5497.0,1.0254017114639282,62,9926.0
11540,0.34957560896873474,1.7426985502243042,158,5497.0,-3.184809684753418,-113,9926.0
11550,0.3497832715511322,2.4490957260131836,25,5497.0,-3.7576706409454346,-7,9926.0
11560,0.34999093413352966,-0.1697152704000473,84,5497.0,-2.1085870265960693,-100,9926.0
11570,0.3501303195953369,-2.2224667072296143,-61,5497.0,-4.830705165863037,103,9926.0
11580,0.3502478003501892,-3.4841911792755127,47,5497.0,-2.141080379486084,-127,9926.0
11590,0.35037150979042053,-0.41770055890083313,-78,5497.0,-4.219377040863037,-39,9926.0
11600,0.3499378263950348,-2.3442814350128174,-14,5497.0,4.102783679962158,-63,9926.0
11610,0.35008227825164795,-2.6477415561676025,-160,5497.0,1.8492488861083984,90,9926.0
11620,0.3502577841281891,-4.673209190368652,-48,5497.0,7.20812463760376,-10,9926.0
11630,0.3504143953323364,-4.466466426849365,-83,5497.0,2.213592052459717,122,9926.0
11640,0.3505302667617798,-3.3285770416259766,-3,5497.0,1.1969010829925537,-37,9926.0
11650,0.35042956471443176,-0.2008238434791565,-23,5497.0,0.3389320969581604,70,9926.0
11660,0.35053592920303345,2.5865674018859863,217,5497.0,0.4841505289077759,-80,9926.0
11670,0.3506581485271454,2.959329605102539,3,5497.0,-4.013417720794678,-48,9926.0
11680,0.3508690893650055,-1.3082263469696045,50,5497.0,-2.4635305404663086,-166,9926.0
11690,0.3502047061920166,-0.01921960525214672,-162,5497.0,-11.279816627502441,-84,9926.0
11700,0.35026997327804565,-2.110673189163208,0,5497.0,-2.559950113296509,-145,9926.0
11710,0.35029342770576477,-2.30730938911438,-219,5497.0,-1.5885473489761353,-36,9926.0
11720,0.3503047823905945,-5.236501216888428,-58,5497.0,-1.067686676979065,-19,9926.0
11730,0.34980639815330505,-6.429241180419922,-218,5497.0,-1.2680180072784424,-27,9926.0
11740,0.3498147130012512,-7.106242656707764,6,5497.0,-3.97723650932312,14,9926.0
11750,0.3498198688030243,-4.637086391448975,-109,5497.0,-0.09282124042510986,9,9926.0
11760,0.34980934858322144,-1.2642860412597656,112,5497.0,-1.9394868612289429,-2,9926.0
11770,0.34975287318229675,1.7193471193313599,3,5497.0,-3.3941385746002197,-145,9926.0
11780,0.34897276759147644,0.9698365330696106,53,5497.0,0.14298748970031738,-80,9926.0
11790,0.34878021478652954,2.9999496936798096,-8,5497.0,-2.4667270183563232,-220,9926.0
11800,0.3485783636569977,4.10891580581665,147,5497.0,-3.942812919616699,-72,9926.0
11810,0.34840673208236694,5.104348182678223,36,5497.0,-1.3623168468475342,-127,9926.0
11820,0.34932342171669006,3.3535773754119873,126,5497.0,-0.911748468875885,52,9926.0
11830,0.3491976261138916,3.5591135025024414,28,5497.0,2.907884120941162,-33,9926.0
11840,0.34899917244911194,1.5280624628067017,-18,5497.0,-0.23535698652267456,135,9926.0
11850,0.3487643897533417,0.4409825801849365,-86,5497.0,6.332986354827881,63,9926.0
11860,0.34853261709213257,-5.018838405609131,-104,5497.0,4.667579650878906,233,9926.0
11870,0.34895971417427063,-3.6153273582458496,-56,5497.0,-1.07229745388031,-40,9926.0
11880,0.3488319218158722,-4.51947546005249,-95,5497.0,-3.9597244262695312,55,9926.0
11890,0.34873127937316895,-3.092874765396118,-9,5497.0,-3.9523978233337402,-207,9926.0
11900,0.3486323952674866,0.7615031003952026,28,5497.0,-3.686633586883545,-5,9926.0
11910,0.34952056407928467,3.3721518516540527,-13,5497.0,-8.092314720153809,-126,9926.0
11920,0.34948357939720154,4.538664817810059,112,5497.0,-4.69175910949707,37,9926.0
11930,0.34944847226142883,4.528543949127197,24,5497.0,0.9481593370437622,24,9926.0
11940,0.3494691848754883,2.3912224769592285,63,5497.0,4.781717777252197,210,9926.0
11950,0.3492959439754486,-0.09827736765146255,-20,5497.0,2.997621774673462,-28,9926.0
11960,0.349325567483902,1.1152979135513306,30,5497.0,9.127657890319824,152,9926.0
11970,0.34936830401420593,-0.42165607213974,-7,5497.0,6.0422234535217285,-102,9926.0
11980,0.349376916885376,-3.252159833908081,-21,5497.0,4.585811138153076,89,9926.0
11990,0.3494003415107727,-0.3846331536769867,-46,5497.0,1.6710641384124756,-86,9926.0
12000,0.34929555654525757,-0.04652029648423195,-31,5497.0,2.1986660957336426,199,9926.0
12010,0.3493686616420746,1.5370614528656006,26,5497.0,-5.393961429595947,-125,9926.0
12020,0.3494158089160919,-0.1182507798075676,16,5497.0,-5.403375625610352,62,9926.0
12030,0.349450021982193,0.9117679595947266,9,5497.0,-7.195621013641357,-192,9926.0
12040,0.34889283776283264,1.1973283290863037,70,5497.0,-1.2052857875823975,49,9926.0
12050,0.34886428713798523,3.4905200004577637,0,5497.0,5.122279644012451,-65,9926.0
12060,0.34882044792175293,3.4769322872161865,75,5497.0,8.46280574798584,236,9926.0
12070,0.3487532138824463,3.8931469917297363,-11,5497.0,12.35057258605957,125,9926.0
12080,0.3487216830253601,3.427469253540039,92,5497.0,12.002886772155762,211,9926.0
12090,0.3491980731487274,1.4363847970962524,-32,5497.0,8.585403442382812,79,9926.0
12100,0.3492463231086731,-1.9545695781707764,55,5497.0,4.7435407638549805,229,9926.0
12110,0.34936484694480896,-2.8151795864105225,-31,5497.0,0.6109052896499634,-125,9926.0
12120,0.3494706153869629,-3.1764907836914062,-28,5497.0,-5.122767925262451,-9,9926.0
12130,0.35050836205482483,-4.032567501068115,-116,5497.0,-6.902851104736328,-330,9926.0
12140,0.35063233971595764,0.0912889912724495,23,5497.0,-6.442436695098877,-59,9926.0
12150,0.350770503282547,-1.721724271774292,-96,5497.0,-2.142946720123291,-65,9926.0
12160,0.3508889675140381,-1.7536048889160156,20,5497.0,-2.4346187114715576,79,9926.0
12170,0.35061967372894287,1.6799343824386597,42,5497.0,3.1637306213378906,74,9926.0
12180,0.3507400453090668,1.386562705039978,162,5497.0,3.7118079662323,109,9926.0
12190,0.35085973143577576,2.592811346054077,-49,5497.0,6.685954570770264,65,9926.0
12200,0.3509417772293091,1.8339308500289917,85,5497.0,8.264678955078125,75,9926.0
12210,0.35095474123954773,3.1579227447509766,-55,5497.0,3.9913477897644043,117,9926.0
12220,0.3509496748447418,2.3803369998931885,118,5497.0,5.948412895202637,2,9926.0
12230,0.3509628474712372,0.8262661695480347,-45,5497.0,1.0260438919067383,36,9926.0
12240,0.35096225142478943,3.986250877380371,202,5497.0,0.4677063524723053,-38,9926.0
12250,0.35095685720443726,2.26751971244812,0,5497.0,-5.439844131469727,-71,9926.0
12260,0.35096409916877747,-2.413752317428589,37,5497.0,-4.10762357711792,-89,9926.0
12270,0.35097068548202515,1.8673386573791504,-115,5497.0,-9.861413955688477,-64,9926.0
12280,0.3509404957294464,1.7405180931091309,-73,5497.0,-5.417840480804443,-145,9926.0
12290,0.35086145997047424,-3.37790584564209,-122,5497.0,-2.0437679290771484,39,9926.0
12300,0.35072916746139526,0.6565554141998291,37,5497.0,-5.791293621063232,-61,9926.0
12310,0.35069331526756287,-1.37554931640625,-29,5497.0,2.243168354034424,193,9926.0
12320,0.3504871129989624,-1.014850378036499,-23,5497.0,2.307204484939575,17,9926.0
12330,0.3503057658672333,0.872138261795044,-8,5497.0,3.0918381214141846,192,9926.0
12340,0.3501705825328827,-3.0278539657592773,-75,5497.0,6.736476898193359,109,9926.0
12350,0.35083603858947754,-1.7927947044372559,-46,5497.0,2.5162482261657715,33,9926.0
12360,0.3507556617259979,-0.01960713230073452,-89,5497.0,1.8056035041809082,-67,9926.0
12370,0.3506329357624054,1.6480518579483032,-4,5497.0,-2.628706216812134,166,9926.0
12380,0.35049593448638916,-0.562377393245697,-5,5497.0,0.5418804883956909,7,9926.0
12390,0.3513590097427368,-0.886903703212738,28,5497.0,-0.3997589647769928,61,9926.0
12400,0.3512381613254547,-1.8313851356506348,70,5497.0,-2.0604801177978516,-156,9926.0
12410,0.35114699602127075,-0.6503810286521912,30,5497.0,-0.9940600991249084,22,9926.0
12420,0.35111626982688904,-0.38650304079055786,-25,5497.0,-3.0536489486694336,-188,9926.0
12430,0.35112735629081726,-1.5206408500671387,52,5497.0,1.389644742012024,13,9926.0
12440,0.3507011830806732,-0.7779501676559448,-76,5497.0,2.272167921066284,-80,9926.0
12450,0.3506947457790375,-3.138047933578491,37,5497.0,2.0795016288757324,108,9926.0
12460,0.3506656587123871,-0.9970322847366333,-80,5497.0,2.978332757949829,94,9926.0
12470,0.35058948397636414,-1.4011508226394653,98,5497.0,3.82489013671875,103,9926.0
12480,0.35149839520454407,-0.09062023460865021,-94,5497.0,2.8415937423706055,-5,9926.0
12490,0.3514742851257324,-0.7922636866569519,50,5497.0,1.8545756340026855,46,9926.0
12500,0.3514889180660248,1.1101140975952148,-78,5497.0,-1.4243477582931519,-116,9926.0
12510,0.351520836353302,3.8266103267669678,91,5497.0,-0.8937771916389465,-5,9926.0
12520,0.3515411615371704,4.501381874084473,15,5497.0,-3.848595142364502,28,9926.0
12530,0.35090258717536926,0.35065481066703796,118,5497.0,0.430965781211853,-104,9926.0
12540,0.3508356213569641,0.5948199033737183,12,5497.0,-0.5987852215766907,38,9926.0
12550,0.3507075607776642,0.1108139380812645,-51,5497.0,2.0688376426696777,-103,9926.0
12560,0.3505135178565979,1.7942073345184326,8,5497.0,-1.9252841472625732,186,9926.0
12570,0.3497962951660156,1.3416951894760132,18,5497.0,3.9663236141204834,83,9926.0
12580,0.34965091943740845,0.6940578818321228,36,5497.0,6.298260688781738,283,9926.0
12590,0.34957244992256165,2.874025583267212,-2,5497.0,9.415216445922852,44,9926.0
12600,0.34949108958244324,2.2763073444366455,32,5497.0,6.467378616333008,223,9926.0
12610,0.3492388427257538,1.7087520360946655,21,5497.0,4.5168657302856445,-113,9926.0
12620,0.34914007782936096,2.5350229740142822,-17,5497.0,4.128729343414307,146,9926.0
12630,0.34899961948394775,3.642159938812256,20,5497.0,0.3541821241378784,-84,9926.0
12640,0.3488565683364868,0.8366762399673462,-34,5497.0,-4.6488471031188965,103,9926.0
12650,0.3487510085105896,-0.13597363233566284,40,5497.0,-3.3342232704162598,-51,9926.0
12660,0.3487456738948822,-2.3117783069610596,-48,5497.0,-2.2737696170806885,-34,9926.0
12670,0.3487228453159332,-1.0181989669799805,46,5497.0,-4.7292704582214355,-122,9926.0
12680,0.3486902713775635,0.15207433700561523,-101,5497.0,-4.499227523803711,-37,9926.0
12690,0.3487110137939453,1.4771944284439087,89,5497.0,-3.900928020477295,-68,9926.0
12700,0.34567832946777344,3.4714341163635254,-79,5497.0,-3.60357403755188,-45,9926.0
12710,0.3454703688621521,5.030561447143555,169,5497.0,0.7331075668334961,-82,9926.0
12720,0.3452644646167755,1.1281071901321411,-73,5497.0,2.416780471801758,19,9926.0
12730,0.3451026976108551,-2.9697329998016357,54,5497.0,2.6903138160705566,92,9926.0
12740,0.34609857201576233,-0.7194890379905701,-37,5497.0,0.8876535892486572,-96,9926.0
12750,0.34599539637565613,-0.7224405407905579,30,5497.0,-3.9007482528686523,66,9926.0
12760,0.34586986899375916,-0.8188848495483398,-19,5497.0,-6.916416645050049,-269,9926.0
12770,0.34574177861213684,-0.3094249367713928,-10,5497.0,-1.6672449111938477,-23,9926.0
12780,0.3456430733203888,0.22016829252243042,-3,5497.0,-5.275857925415039,-150,9926.0
12790,0.3460988998413086,0.5044005513191223,-20,5497.0,-1.6464738845825195,-97,9926.0
12800,0.34605586528778076,1.6233553886413574,129,5497.0,-2.5561516284942627,-23,9926.0
12810,0.3459946811199188,1.798363208770752,-29,5497.0,-1.0706619024276733,-16,9926.0
12820,0.34595808386802673,-0.7122135162353516,116,5497.0,-1.9402018785476685,6,9926.0
12830,0.34675613045692444,2.426476240158081,38,5497.0,-1.4388515949249268,-60,9926.0
12840,0.3468550741672516,2.082827568054199,151,5497.0,-0.45347973704338074,15,9926.0
12850,0.3469613790512085,2.327150344848633,36,5497.0,0.8388970494270325,-287,9926.0
12860,0.347042441368103,1.1868312358856201,62,5497.0,1.5096358060836792,37,9926.0
12870,0.34711313247680664,-1.4273712635040283,-47,5497.0,4.379866123199463,-158,9926.0
12880,0.348355770111084,-3.616168260574341,-5,5497.0,2.1733877658843994,69,9926.0
12890,0.3485569655895233,-1.7007288932800293,-44,5497.0,-2.079533338546753,-132,9926.0
12900,0.348749041557312,-0.967905580997467,-56,5497.0,-2.131521463394165,94,9926.0
12910,0.3489108979701996,1.822075605392456,140,5497.0,-5.574317932128906,-20,9926.0
12920,0.3493996560573578,2.8166892528533936,-25,5497.0,2.001314401626587,-24,9926.0
12930,0.3496076762676239,2.243009090423584,228,5497.0,-8.409570693969727,-153,9926.0
12940,0.34978529810905457,3.4670538902282715,-62,5497.0,-3.5716195106506348,-18,9926.0
12950,0.3499910533428192,3.5520424842834473,123,5497.0,-1.6541345119476318,-25,9926.0
12960,0.34971699118614197,2.4082255363464355,-138,5497.0,0.44430461525917053,18,9926.0
12970,0.34982675313949585,3.3715832233428955,87,5497.0,5.604877471923828,140,9926.0
12980,0.3498882055282593,5.3080220222473145,39,5497.0,-0.9969037175178528,-46,9926.0
12990,0.34990522265434265,2.5820114612579346,139,5497.0,-2.1086249351501465,133,9926.0
13000,0.3498947322368622,4.012027263641357,77,5497.0,3.7230730056762695,-13,9926.0
13010,0.3511267900466919,3.6299571990966797,117,5497.0,1.297377586364746,59,9926.0
13020,0.3511771261692047,3.1695516109466553,-45,5497.0,-5.928924083709717,-151,9926.0
13030,0.3511908948421478,-0.6947008967399597,8,5497.0,0.2301744520664215,-15,9926.0
13040,0.35113245248794556,1.0721360445022583,-93,5497.0,-1.7847025394439697,-155,9926.0
13050,0.3514048457145691,-2.9613592624664307,11,5497.0,0.4806784689426422,30,9926.0
13060,0.35131534934043884,3.6229405403137207,50,5497.0,-5.3253254890441895,-120,9926.0
13070,0.3511931598186493,3.6396284103393555,31,5497.0,-4.141083240509033,14,9926.0
13080,0.35102060437202454,5.020560264587402,77,5497.0,-4.261378765106201,-140,9926.0
13090,0.35085824131965637,6.699952125549316,118,5497.0,-2.90035080909729,7,9926.0
13100,0.352364718914032,4.005599021911621,-1,5497.0,0.6104192733764648,-94,9926.0
13110,0.35222312808036804,1.77547025680542,78,5497.0,0.8940801620483398,106,9926.0
13120,0.3520336449146271,0.6706506013870239,-93,5497.0,2.2517740726470947,44,9926.0
13130,0.3517790734767914,0.8524960279464722,41,5497.0,2.931575059890747,98,9926.0
13140,0.3524923622608185,-0.7680431008338928,-140,5497.0,1.0578489303588867,69,9926.0
13150,0.3522385358810425,-0.4061909019947052,20,5497.0,3.9803214073181152,80,9926.0
13160,0.3519913852214813,-2.6692419052124023,-39,5497.0,4.460709095001221,171,9926.0
13170,0.35178330540657043,-2.5766074657440186,-23,5497.0,1.5633350610733032,-45,9926.0
13180,0.35133349895477295,-2.9651308059692383,-63,5497.0,0.28617069125175476,181,9926.0
13190,0.3510453402996063,-4.541506767272949,-101,5497.0,0.18802297115325928,32,9926.0
13200,0.3507072627544403,-3.1128714084625244,-50,5497.0,-3.895125150680542,52,9926.0
13210,0.3503170311450958,-3.1150107383728027,-63,5497.0,-0.06846855580806732,-96,9926.0
13220,0.3499281108379364,-1.8921500444412231,-42,5497.0,-3.737431764602661,45,9926.0
13230,0.35077139735221863,-2.5217864513397217,-35,5497.0,-0.16662529110908508,-94,9926.0
13240,0.350511759519577,-1.3394215106964111,-78,5497.0,0.8071490526199341,154,9926.0
13250,0.3502875864505768,-2.776137590408325,-20,5497.0,4.142595291137695,-40,9926.0
13260,0.3500744104385376,-1.310962438583374,-42,5497.0,2.0644891262054443,134,9926.0
13270,0.35069578886032104,-2.8548271656036377,-17,5497.0,9.507856369018555,124,9926.0
13280,0.3505105674266815,-1.132682204246521,-29,5497.0,8.561596870422363,232,9926.0
13290,0.3503142297267914,-2.6508374214172363,2,5497.0,8.733392715454102,72,9926.0
13300,0.3501143157482147,-1.982654094696045,-115,5497.0,6.63032865524292,99,9926.0
13310,0.34995681047439575,-3.7513163089752197,16,5497.0,2.055377721786499,24,9926.0
13320,0.3497892916202545,-6.026413440704346,-203,5497.0,-0.35382989048957825,-72,9926.0
13330,0.34963148832321167,-6.0987067222595215,-28,5497.0,-3.0229897499084473,-111,9926.0
13340,0.34944871068000793,-8.089858055114746,-129,5497.0,-5.285027027130127,-304,9926.0
13350,0.34924250841140747,-8.23209285736084,-66,5497.0,-5.405689239501953,2,9926.0
13360,0.3505394756793976,-6.931735515594482,-81,5497.0,-5.274942874908447,-241,9926.0
13370,0.3504445552825928,-3.252345323562622,-27,5497.0,-1.687759280204773,9,9926.0
13380,0.35032862424850464,0.3721981346607208,50,5497.0,-2.7537410259246826,-144,9926.0
13390,0.3502081334590912,2.5727643966674805,-49,5497.0,3.1644556522369385,85,9926.0
13400,0.3492332100868225,-0.11819054931402206,76,5497.0,5.954235076904297,50,9926.0
13410,0.34914830327033997,0.7724336981773376,-66,5497.0,6.247950077056885,31,9926.0
13420,0.34905198216438293,-2.2476308345794678,55,5497.0,3.691255807876587,66,9926.0
13430,0.34893685579299927,-3.000598192214966,-80,5497.0,3.52078914642334,-108,9926.0
13440,0.3487916886806488,-4.6629157066345215,10,5497.0,1.770965337753296,75,9926.0
13450,0.34753888845443726,-5.977223873138428,-57,5497.0,2.978283643722534,-130,9926.0
13460,0.3473779857158661,-5.496406078338623,-179,5497.0,7.7576446533203125,159,9926.0
13470,0.34723007678985596,-5.8382720947265625,15,5497.0,-1.5795472860336304,-65,9926.0
13480,0.34704238176345825,-1.8776984214782715,-119,5497.0,-5.732361316680908,-75,9926.0
13490,0.34733113646507263,-1.8686641454696655,30,5497.0,-0.7169530987739563,39,9926.0
13500,0.34731006622314453,-1.9047244787216187,-48,5497.0,4.094318389892578,-64,9926.0
13510,0.34729477763175964,-1.856895089149475,17,5497.0,5.477645397186279,205,9926.0
13520,0.34726008772850037,-1.5304299592971802,-17,5497.0,15.315592765808105,77,9926.0
13530,0.3491741120815277,0.5384024381637573,-28,5497.0,9.469710350036621,203,9926.0
13540,0.34938159584999084,-0.46692654490470886,88,5497.0,11.073366165161133,115,9926.0
13550,0.3495248854160309,-0.8790484666824341,-87,5497.0,10.73225212097168,116,9926.0
13560,0.3496418595314026,1.5083447694778442,103,5497.0,7.239828109741211,111,9926.0
13570,0.3497481048107147,-1.0928001403808594,-34,5497.0,5.853893280029297,-67,9926.0
13580,0.3499583601951599,-2.289825201034546,-121,5497.0,-0.9271586537361145,100,9926.0
13590,0.35014280676841736,-4.9846296310424805,-9,5497.0,-9.118979454040527,-127,9926.0
13600,0.35035499930381775,-6.3782219886779785,-240,5497.0,-8.685084342956543,-166,9926.0
13610,0.35057684779167175,-5.3165411949157715,-60,5497.0,-8.994908332824707,-110,9926.0
13620,0.350466251373291,-3.8163657188415527,-122,5497.0,-8.961384773254395,-265,9926.0
13630,0.3506050407886505,0.13403433561325073,31,5497.0,-10.691864013671875,-21,9926.0
13640,0.350710928440094,-0.3190995156764984,26,5497.0,0.06506955623626709,-124,9926.0
13650,0.3508521020412445,-0.16318678855895996,-79,5497.0,-1.2469208240509033,59,9926.0
13660,0.3510410785675049,2.488617181777954,172,5497.0,3.9379587173461914,46,9926.0
13670,0.3499440848827362,6.121767520904541,18,5497.0,4.165402412414551,14,9926.0
13680,0.34999942779541016,7.205174922943115,189,5497.0,7.229237079620361,219,9926.0
13690,0.3500252366065979,8.95814323425293,94,5497.0,7.182419776916504,24,9926.0
13700,0.34999290108680725,7.999231815338135,110,5497.0,3.9926419258117676,138,9926.0
13710,0.35040223598480225,4.61707067489624,126,5497.0,5.440605640411377,-77,9926.0
13720,0.35034579038619995,4.711450099945068,-21,5497.0,0.1948464810848236,-18,9926.0
13730,0.3502747714519501,3.4107987880706787,93,5497.0,-3.923525094985962,-202,9926.0
13740,0.3502771854400635,5.278149127960205,10,5497.0,-8.103741645812988,-232,9926.0
13750,0.3497498631477356,-0.7560364007949829,64,5497.0,-7.395656585693359,49,9926.0
13760,0.3496597409248352,3.719913959503174,24,5497.0,-6.714492321014404,-189,9926.0
13770,0.34952375292778015,2.0398972034454346,135,5497.0,-4.038508415222168,13,9926.0
13780,0.34938207268714905,1.2779829502105713,-52,5497.0,-3.597611904144287,-73,9926.0
13790,0.34928280115127563,-1.1259160041809082,-4,5497.0,0.6673452258110046,199,9926.0
13800,0.349103182554245,-1.342418909072876,-10,5497.0,1.3376073837280273,-81,9926.0
13810,0.3490219712257385,-0.09475479274988174,18,5497.0,0.7117064595222473,127,9926.0
13820,0.348918080329895,-1.4092007875442505,32,5497.0,2.9259417057037354,44,9926.0
13830,0.3488250970840454,0.7282744646072388,-24,5497.0,8.748906135559082,153,9926.0
13840,0.3480565845966339,0.4666903614997864,154,5497.0,5.439531326293945,110,9926.0
13850,0.34798017144203186,4.444085121154785,34,5497.0,3.1980626583099365,-62,9926.0
13860,0.347919762134552,5.822116374969482,137,5497.0,-6.80697774887085,96,9926.0
13870,0.34787535667419434,7.386998176574707,191,5497.0,-2.8541786670684814,-159,9926.0
13880,0.3471616208553314,6.303940296173096,-3,5497.0,-5.220575332641602,-51,9926.0
13890,0.34714800119400024,4.881592750549316,149,5497.0,-0.9403363466262817,-22,9926.0
13900,0.3471238315105438,1.3920319080352783,-68,5497.0,-3.883884906768799,-80,9926.0
13910,0.34708142280578613,-0.908018946647644,16,5497.0,-2.6335647106170654,53,9926.0
13920,0.3469708263874054,-3.092503786087036,-108,5497.0,-1.6844193935394287,-201,9926.0
13930,0.3464389145374298,-3.544551134109497,-87,5497.0,1.2875665426254272,73,9926.0
13940,0.34624406695365906,-4.594857692718506,-39,5497.0,1.1114747524261475,8,9926.0
13950,0.3460078537464142,-3.6963467597961426,-147,5497.0,0.8249362707138062,13,9926.0
13960,0.3457585871219635,-2.3134467601776123,35,5497.0,0.5666102766990662,81,9926.0
13970,0.34605300426483154,-0.2950456142425537,-50,5497.0,0.38968130946159363,-84,9926.0
13980,0.34577080607414246,1.8762001991271973,28,5497.0,1.9193952083587646,146,9926.0
13990,0.34548214077949524,3.9143545627593994,233,5497.0,0.6405842900276184,-22,9926.0
14000,0.34520667791366577,6.522476673126221,87,5497.0,-1.867308259010315,-137,9926.0
14010,0.3449728488922119,6.747467517852783,175,5497.0,-1.0449658632278442,65,9926.0
14020,0.34520262479782104,4.173501491546631,86,5497.0,-2.815260648727417,-194,9926.0
14030,0.34505295753479004,2.0164365768432617,-27,5497.0,-0.5115375518798828,-43,9926.0
14040,0.34489139914512634,-2.1841931343078613,65,5497.0,2.267522096633911,33,9926.0
14050,0.34473708271980286,-1.6148571968078613,-89,5497.0,4.120667457580566,-72,9926.0
14060,0.34434953331947327,-4.408786773681641,-89,5497.0,3.7334749698638916,176,9926.0
14070,0.34425628185272217,-4.883686065673828,-4,5497.0,0.4240119755268097,-111,9926.0
14080,0.34416767954826355,-5.5901079177856445,-188,5497.0,-1.1701133251190186,-45,9926.0
14090,0.3441171646118164,0.00204863422550261,39,5497.0,-6.873459815979004,-72,9926.0
14100,0.3436690866947174,-2.743330955505371,18,5497.0,-5.704167366027832,-161,9926.0
14110,0.34368205070495605,4.871026039123535,9,5497.0,-5.60201358795166,-30,9926.0
14120,0.34373462200164795,3.044250726699829,146,5497.0,-2.4265191555023193,-70,9926.0
14130,0.3438374400138855,4.134028911590576,18,5497.0,-0.654035747051239,-129,9926.0
14140,0.3439662754535675,6.816830158233643,169,5497.0,-0.9270439147949219,37,9926.0
14150,0.34412258863449097,6.28855037689209,96,5497.0,-0.5927894115447998,-131,9926.0
14160,0.3442649841308594,5.545760154724121,71,5497.0,-4.020328998565674,28,9926.0
14170,0.34448331594467163,3.331183671951294,111,5497.0,0.21895959973335266,-40,9926.0
14180,0.3447295129299164,1.8875503540039062,-40,5497.0,3.207439422607422,114,9926.0
14190,0.3449864387512207,-1.0476701259613037,82,5497.0,2.487093925476074,30,9926.0
14200,0.3452400863170624,-1.9367080926895142,-88,5497.0,5.544130802154541,60,9926.0
14210,0.3454836308956146,-4.526541709899902,18,5497.0,0.19208411872386932,7,9926.0
14220,0.3457171618938446,-5.515073299407959,-107,5497.0,1.3782713413238525,-133,9926.0
14230,0.34596356749534607,-5.905004978179932,-34,5497.0,3.7477855682373047,113,9926.0
