timestamp,kalman.stateZ,gyro.x,gyro.xRaw,gyro.xVariance,gyro.y,gyro.yRaw,gyro.yVariance
0,0.2781290113925934,0.26744022965431213,0,5497.0,-2.503901481628418,-45,9926.0
10,0.2787829339504242,0.20525014400482178,0,5497.0,-3.1140377521514893,-54,9926.0
20,0.2787703275680542,-0.07756729423999786,1,5497.0,-4.13667631149292,-71,9926.0
30,0.2787133753299713,-0.007300845813006163,-2,5497.0,-5.050944805145264,-88,9926.0
40,0.2786405682563782,-0.04033142328262329,-8,5497.0,-5.957865238189697,-97,9926.0
50,0.2786705493927002,0.06795109063386917,1,5497.0,-6.466259002685547,-107,9926.0
60,0.2785762846469879,0.16254150867462158,1,5497.0,-7.207538604736328,-117,9926.0
70,0.27851632237434387,-0.05833039805293083,-3,5497.0,-7.48289680480957,-121,9926.0
80,0.27840501070022583,0.07550042867660522,-1,5497.0,-7.544448375701904,-125,9926.0
90,0.27827784419059753,0.3348989188671112,0,5497.0,-7.764619827270508,-121,9926.0
100,0.2794792354106903,-0.038824521005153656,8,5497.0,-7.340304374694824,-117,9926.0
110,0.279437780380249,-0.09690899401903152,-1,5497.0,-7.304624080657959,-116,9926.0
120,0.2793743312358856,0.0882280245423317,0,5497.0,-6.921411037445068,-110,9926.0
130,0.2793077826499939,-0.10209112614393234,3,5497.0,-6.219202518463135,-95,9926.0
140,0.2792092561721802,-0.081664077937603,5,5497.0,-5.82656717300415,-83,9926.0
150,0.27922436594963074,0.2582794725894928,5,5497.0,-5.046142101287842,-78,9926.0
160,0.27917805314064026,-0.056025855243206024,2,5497.0,-4.369557857513428,-59,9926.0
170,0.27931731939315796,-0.30998659133911133,7,5497.0,-1.7046220302581787,-17,9926.0
180,0.28060516715049744,0.9993391036987305,16,5497.0,1.8087835311889648,49,9926.0
190,0.28073111176490784,-0.7644742131233215,-17,5497.0,7.834425926208496,165,9926.0
200,0.28070497512817383,1.7045499086380005,14,5497.0,13.857843399047852,276,9926.0
210,0.2811749279499054,1.791790246963501,77,5497.0,25.57765769958496,447,9926.0
220,0.2816771864891052,2.5006916522979736,89,5497.0,39.99219512939453,677,9926.0
230,0.2804598808288574,1.7857227325439453,87,5497.0,55.82547378540039,942,9926.0
240,0.28060510754585266,5.145807266235352,84,5497.0,67.75936126708984,1167,9926.0
250,0.28061822056770325,5.350109577178955,77,5497.0,79.3769302368164,1374,9926.0
260,0.27999621629714966,7.356780529022217,89,5497.0,92.28679656982422,1557,9926.0
270,0.2794211208820343,6.796571254730225,119,5497.0,95.72476196289062,1512,9926.0
280,0.278836190700531,7.634326457977295,184,5497.0,91.10604858398438,1383,9926.0
290,0.2779790163040161,9.0927734375,166,5497.0,80.16075134277344,1278,9926.0
300,0.2784832715988159,8.241671562194824,39,5497.0,65.3032455444336,1002,9926.0
310,0.2788906991481781,4.973442077636719,136,5497.0,46.07371520996094,615,9926.0
320,0.27753591537475586,5.596289157867432,57,5497.0,24.056461334228516,289,9926.0
330,0.2770392894744873,3.9424285888671875,88,5497.0,4.055744171142578,28,9926.0
340,0.27687767148017883,3.544346332550049,57,5497.0,-13.846946716308594,-368,9926.0
350,0.2772819995880127,2.386997938156128,50,5497.0,-28.45412254333496,-487,9926.0
360,0.2758450508117676,1.2318921089172363,25,5497.0,-38.33901596069336,-659,9926.0
370,0.27561086416244507,-1.0663981437683105,-27,5497.0,-39.61322021484375,-699,9926.0
380,0.2753053903579712,-2.8551318645477295,-41,5497.0,-36.98139572143555,-584,9926.0
390,0.27523693442344666,-2.9979398250579834,-89,5497.0,-28.895034790039062,-301,9926.0
400,0.2762121856212616,-4.524022579193115,-4,5497.0,-15.754859924316406,-173,9926.0
410,0.27612730860710144,-5.58412504196167,-83,5497.0,2.0707809925079346,12,9926.0
420,0.276216983795166,-6.264681339263916,49,5497.0,16.153749465942383,221,9926.0
430,0.2762436866760254,-5.93765115737915,-28,5497.0,32.418174743652344,349,9926.0
440,0.2763344943523407,-2.449963331222534,-36,5497.0,47.05385208129883,746,9926.0
450,0.2757667601108551,-3.319004774093628,27,5497.0,50.996341705322266,841,9926.0
460,0.2755177617073059,0.19342626631259918,0,5497.0,53.609153747558594,811,9926.0
470,0.2755127251148224,1.8720015287399292,-23,5497.0,50.813560485839844,872,9926.0
480,0.2758360803127289,3.7828264236450195,-9,5497.0,41.76036071777344,866,9926.0
490,0.2753981351852417,5.382655143737793,51,5497.0,28.129243850708008,650,9926.0
500,0.2754431962966919,6.796624660491943,151,5497.0,11.849771499633789,261,9926.0
510,0.2759544551372528,6.640004634857178,203,5497.0,-1.6790088415145874,-191,9926.0
520,0.27599552273750305,6.793551921844482,185,5497.0,-13.976347923278809,-539,9926.0
530,0.27724069356918335,5.635432720184326,147,5497.0,-23.786840438842773,-698,9926.0
540,0.27733737230300903,5.268916606903076,71,5497.0,-31.290822982788086,-678,9926.0
550,0.27746230363845825,5.4098896980285645,-7,5497.0,-35.16516876220703,-542,9926.0
560,0.2775556147098541,3.3401081562042236,-30,5497.0,-33.8707160949707,-527,9926.0
570,0.27789387106895447,-0.3570910692214966,55,5497.0,-25.81605339050293,-436,9926.0
580,0.2778332829475403,-3.275576591491699,-71,5497.0,-14.133238792419434,-271,9926.0
590,0.2785671353340149,-5.097517490386963,-75,5497.0,-2.127051591873169,-6,9926.0
600,0.27879393100738525,-7.492308616638184,-72,5497.0,9.337315559387207,133,9926.0
610,0.2789865732192993,-8.901420593261719,42,5497.0,20.297029495239258,268,9926.0
620,0.2778688967227936,-7.492999076843262,-8,5497.0,27.114057540893555,429,9926.0
630,0.27802982926368713,-6.231258869171143,-19,5497.0,30.957242965698242,587,9926.0
640,0.27837130427360535,-6.90923547744751,-43,5497.0,28.709537506103516,571,9926.0
650,0.27855849266052246,-4.989616870880127,16,5497.0,27.10504722595215,427,9926.0
660,0.2785370945930481,-2.7603936195373535,52,5497.0,19.04092788696289,138,9926.0
670,0.2782543897628784,-2.950730800628662,124,5497.0,10.340018272399902,-45,9926.0
680,0.27856311202049255,-1.0136271715164185,187,5497.0,-2.016775131225586,-268,9926.0
690,0.2789207398891449,1.0985811948776245,154,5497.0,-11.973483085632324,-453,9926.0
700,0.27910417318344116,3.3748114109039307,133,5497.0,-20.21694564819336,-559,9926.0
710,0.27801549434661865,5.09158182144165,119,5497.0,-27.059907913208008,-591,9926.0
720,0.2781004011631012,4.215655326843262,88,5497.0,-28.602642059326172,-474,9926.0
730,0.27810347080230713,4.353187084197998,78,5497.0,-28.4122257232666,-285,9926.0
740,0.27809739112854004,0.6595304012298584,75,5497.0,-24.9752140045166,-474,9926.0
750,0.2780754864215851,2.4818484783172607,0,5497.0,-15.151848793029785,-318,9926.0
760,0.2771050035953522,1.494104027748108,-23,5497.0,-8.088288307189941,-115,9926.0
770,0.27717453241348267,-1.395265817642212,-22,5497.0,0.22699624300003052,176,9926.0
780,0.2769604027271271,-1.432115912437439,-31,5497.0,7.887619495391846,371,9926.0
790,0.27674031257629395,-2.1750364303588867,-58,5497.0,14.330629348754883,318,9926.0
800,0.2769838273525238,-4.303133964538574,-97,5497.0,19.746036529541016,322,9926.0
810,0.27688100934028625,-2.5134620666503906,-80,5497.0,20.057701110839844,472,9926.0
820,0.27673211693763733,-0.3843362033367157,-73,5497.0,20.801170349121094,504,9926.0
830,0.27661415934562683,0.7099364399909973,-67,5497.0,17.26123046875,465,9926.0
840,0.27629220485687256,1.544029712677002,-39,5497.0,11.486602783203125,331,9926.0
850,0.2765822410583496,-1.2105262279510498,-59,5497.0,2.931002378463745,179,9926.0
860,0.27660274505615234,-0.16884665191173553,-25,5497.0,-2.9489336013793945,-154,9926.0
870,0.27655693888664246,2.5083577632904053,-36,5497.0,-9.74112606048584,-220,9926.0
880,0.2765083909034729,0.4943922162055969,-24,5497.0,-13.935538291931152,-324,9926.0
890,0.2774721682071686,1.4202947616577148,-48,5497.0,-18.103179931640625,-392,9926.0
900,0.27756744623184204,1.624504566192627,-28,5497.0,-19.520774841308594,-342,9926.0
910,0.2776947021484375,0.8673306703567505,27,5497.0,-19.369678497314453,-309,9926.0
920,0.2777557671070099,0.6499869227409363,57,5497.0,-16.752809524536133,-262,9926.0
930,0.2775334119796753,0.26794642210006714,33,5497.0,-11.244704246520996,-208,9926.0
940,0.2775517702102661,1.270869493484497,35,5497.0,-5.429076194763184,-61,9926.0
950,0.27754414081573486,-1.9861947298049927,-44,5497.0,3.260312795639038,-12,9926.0
960,0.27744153141975403,-1.7267640829086304,-101,5497.0,8.070883750915527,153,9926.0
970,0.27676939964294434,-3.9209468364715576,-54,5497.0,13.914093017578125,307,9926.0
980,0.2765776216983795,-1.9874669313430786,-30,5497.0,16.09162139892578,285,9926.0
990,0.2763960659503937,-5.002460956573486,-72,5497.0,17.66327667236328,306,9926.0
1000,0.2760813534259796,1.299755573272705,-16,5497.0,16.445636749267578,333,9926.0
1010,0.27575913071632385,-1.466060757637024,-122,5497.0,8.892852783203125,300,9926.0
1020,0.27630308270454407,2.637814998626709,-84,5497.0,6.127573490142822,288,9926.0
1030,0.2761622369289398,1.396304726600647,-45,5497.0,1.8740001916885376,127,9926.0
1040,0.27606555819511414,0.9462318420410156,-46,5497.0,-3.5452864170074463,-80,9926.0
1050,0.275886207818985,2.78786563873291,-1,5497.0,-10.627948760986328,-127,9926.0
1060,0.277328759431839,3.8014891147613525,-61,5497.0,-13.360516548156738,-115,9926.0
1070,0.2770249843597412,2.632119655609131,-3,5497.0,-15.061454772949219,-261,9926.0
1080,0.27677464485168457,0.1989881694316864,63,5497.0,-12.906194686889648,-410,9926.0
1090,0.2766244113445282,-0.9870877265930176,89,5497.0,-10.361488342285156,-190,9926.0
1100,0.2767419219017029,-1.9270931482315063,36,5497.0,-2.2458107471466064,-153,9926.0
1110,0.2780522406101227,-0.01806434988975525,161,5497.0,3.3049111366271973,-73,9926.0
1120,0.27827173471450806,-0.3062863051891327,12,5497.0,8.556413650512695,239,9926.0
1130,0.27850693464279175,-0.5640963912010193,25,5497.0,14.693683624267578,335,9926.0
1140,0.2788376212120056,2.438319683074951,19,5497.0,16.029817581176758,459,9926.0
1150,0.28093159198760986,1.8784669637680054,-114,5497.0,16.00046730041504,367,9926.0
1160,0.28162503242492676,-0.12718284130096436,74,5497.0,17.8638916015625,109,9926.0
1170,0.28223615884780884,0.0965578630566597,37,5497.0,13.831389427185059,246,9926.0
1180,0.28281155228614807,1.312106966972351,45,5497.0,8.79738712310791,118,9926.0
1190,0.28241363167762756,2.252690076828003,-18,5497.0,2.2644734382629395,214,9926.0
1200,0.2829807698726654,1.441872239112854,-118,5497.0,-0.23652943968772888,-64,9926.0
1210,0.283555805683136,-0.9930053949356079,84,5497.0,-4.932275295257568,-266,9926.0
1220,0.2841391861438751,-1.7747913599014282,24,5497.0,-8.699319839477539,-67,9926.0
1230,0.2846624553203583,-2.034010410308838,-23,5497.0,-9.15733528137207,-133,9926.0
1240,0.28317052125930786,-0.6044424772262573,-58,5497.0,-9.141597747802734,-102,9926.0
1250,0.2833648920059204,-2.2244794368743896,-7,5497.0,-4.302473545074463,-188,9926.0
1260,0.28350576758384705,-2.476395845413208,19,5497.0,-0.08536960184574127,24,9926.0
1270,0.28364795446395874,-1.0563809871673584,-33,5497.0,1.694434642791748,85,9926.0
1280,0.28230568766593933,-0.6445707082748413,-71,5497.0,6.507524013519287,61,9926.0
1290,0.2825359106063843,0.34968963265419006,169,5497.0,10.612507820129395,88,9926.0
1300,0.28282853960990906,-0.07825903594493866,-64,5497.0,9.19778823852539,339,9926.0
1310,0.2832722067832947,2.672217607498169,67,5497.0,11.328134536743164,130,9926.0
1320,0.28374093770980835,2.591618299484253,89,5497.0,11.160320281982422,164,9926.0
1330,0.2838921844959259,3.9374003410339355,-16,5497.0,8.40234375,192,9926.0
1340,0.28450456261634827,3.417469024658203,178,5497.0,7.306947708129883,-46,9926.0
1350,0.2851502597332001,3.07920241355896,-63,5497.0,8.4925537109375,196,9926.0
1360,0.28584253787994385,3.500612735748291,85,5497.0,3.346100091934204,53,9926.0
1370,0.28585678339004517,1.7081626653671265,83,5497.0,3.601149559020996,10,9926.0
1380,0.286651611328125,2.472771644592285,-96,5497.0,-1.0960052013397217,8,9926.0
1390,0.28745967149734497,0.6464788913726807,-28,5497.0,-0.4189707040786743,-160,9926.0
1400,0.2882612645626068,-2.406076669692993,-9,5497.0,0.02190418168902397,-21,9926.0
1410,0.2890678346157074,-1.1321710348129272,0,5497.0,0.2720640003681183,24,9926.0
1420,0.2881743013858795,-0.948384702205658,58,5497.0,-2.235236406326294,-121,9926.0
1430,0.28885430097579956,-1.1437127590179443,-70,5497.0,-1.9462194442749023,191,9926.0
1440,0.2894270420074463,-1.9388450384140015,-32,5497.0,2.7448911666870117,-56,9926.0
1450,0.2899940013885498,-2.9896819591522217,-47,5497.0,2.2835593223571777,98,9926.0
1460,0.2893338203430176,-1.6151989698410034,-76,5497.0,6.725495338439941,299,9926.0
1470,0.2897064983844757,-1.0125675201416016,-28,5497.0,10.153133392333984,-56,9926.0
1480,0.2899937331676483,-1.4720410108566284,26,5497.0,10.431795120239258,215,9926.0
1490,0.2902688980102539,0.25609874725341797,21,5497.0,9.6376314163208,191,9926.0
1500,0.2888759970664978,0.27354341745376587,-18,5497.0,8.422404289245605,-57,9926.0
1510,0.28897491097450256,-0.47867733240127563,94,5497.0,4.318840980529785,173,9926.0
1520,0.28899428248405457,-0.34164726734161377,-88,5497.0,1.8173869848251343,67,9926.0
1530,0.28899314999580383,-0.6649875640869141,-2,5497.0,2.001863956451416,61,9926.0
1540,0.2890380322933197,-1.1096729040145874,32,5497.0,1.3465604782104492,-4,9926.0
1550,0.28742748498916626,1.0842608213424683,-53,5497.0,-2.5816521644592285,-147,9926.0
1560,0.28736525774002075,0.9022111892700195,134,5497.0,-5.725472927093506,-122,9926.0
1570,0.2872786819934845,2.223668098449707,-22,5497.0,-7.031683921813965,-158,9926.0
1580,0.2872067391872406,2.7320291996002197,71,5497.0,-3.9429733753204346,-85,9926.0
1590,0.287058562040329,1.3379418849945068,81,5497.0,-1.2139005661010742,94,9926.0
1600,0.2869828939437866,3.1159989833831787,-94,5497.0,-2.1426150798797607,-95,9926.0
1610,0.2868908643722534,-0.010868692770600319,80,5497.0,0.7867831587791443,38,9926.0
1620,0.28675779700279236,1.409752607345581,21,5497.0,0.5176796317100525,86,9926.0
1630,0.285616934299469,0.4108981490135193,-47,5497.0,2.616495370864868,2,9926.0
1640,0.28531408309936523,-0.7207173109054565,-12,5497.0,-0.9195754528045654,160,9926.0
1650,0.2850167453289032,-0.7827628254890442,-24,5497.0,-1.1410576105117798,-139,9926.0
1660,0.2847060561180115,0.4066027104854584,0,5497.0,-2.3075063228607178,-3,9926.0
1670,0.2844088673591614,0.6176242828369141,-45,5497.0,-0.7795798182487488,19,9926.0
1680,0.28511542081832886,0.5987588167190552,149,5497.0,-3.218024969100952,-97,9926.0
1690,0.2848793864250183,1.1635820865631104,-84,5497.0,-0.27866092324256897,-132,9926.0
1700,0.28467923402786255,-0.1680532544851303,77,5497.0,-4.44980525970459,-112,9926.0
1710,0.28452983498573303,0.3189583420753479,-10,5497.0,-3.4376845359802246,41,9926.0
1720,0.2861345112323761,-1.4142956733703613,49,5497.0,-3.830885648727417,-242,9926.0
1730,0.28606122732162476,1.0648778676986694,-61,5497.0,-5.801868438720703,-40,9926.0
1740,0.2860523760318756,-0.20699450373649597,38,5497.0,-5.652153015136719,-76,9926.0
1750,0.2859356701374054,-0.20328457653522491,61,5497.0,-3.2065348625183105,84,9926.0
1760,0.2857591211795807,0.8059822916984558,-19,5497.0,-0.087086021900177,-225,9926.0
1770,0.2873557507991791,-0.9720772504806519,-3,5497.0,-1.114573359489441,42,9926.0
1780,0.2872578203678131,0.2018405944108963,40,5497.0,0.40040475130081177,-15,9926.0
1790,0.2871668338775635,0.9119551181793213,79,5497.0,-2.932865858078003,97,9926.0
1800,0.28716540336608887,0.6119644045829773,-96,5497.0,-5.438255310058594,-229,9926.0
1810,0.2886827290058136,-4.60657262802124,10,5497.0,-1.6134138107299805,9,9926.0
1820,0.2887622117996216,-2.7246854305267334,-36,5497.0,-1.1984961032867432,-32,9926.0
1830,0.28885266184806824,-3.5287516117095947,72,5497.0,-1.8660056591033936,-49,9926.0
1840,0.28889375925064087,0.6020182967185974,-129,5497.0,-0.9176629185676575,20,9926.0
1850,0.2893390357494354,-0.350058913230896,61,5497.0,-4.201625823974609,30,9926.0
1860,0.28936412930488586,1.271677851676941,34,5497.0,-3.5419509410858154,13,9926.0
1870,0.2893546521663666,0.33203527331352234,50,5497.0,0.8464547991752625,-146,9926.0
1880,0.28936442732810974,0.8629324436187744,-64,5497.0,-1.8469728231430054,224,9926.0
1890,0.2893923223018646,0.23189204931259155,-31,5497.0,2.2493228912353516,64,9926.0
1900,0.28928661346435547,-0.5666000247001648,43,5497.0,1.4796218872070312,103,9926.0
1910,0.2893688678741455,1.4544378519058228,-49,5497.0,0.21362048387527466,-129,9926.0
1920,0.28944042325019836,-2.6677560806274414,30,5497.0,1.5412547588348389,130,9926.0
1930,0.28950339555740356,-0.5794076323509216,-29,5497.0,-0.5749919414520264,30,9926.0
1940,0.290551096200943,-0.2515495717525482,41,5497.0,-1.613161563873291,-83,9926.0
1950,0.2906191051006317,-1.6371073722839355,-174,5497.0,-2.262617349624634,4,9926.0
1960,0.29066556692123413,-1.0547277927398682,51,5497.0,1.5686635971069336,26,9926.0
1970,0.29068389534950256,-1.2056097984313965,-29,5497.0,1.1461931467056274,82,9926.0
1980,0.2906832993030548,0.74803626537323,9,5497.0,-0.9200247526168823,-118,9926.0
1990,0.2904092073440552,-0.3315369188785553,-112,5497.0,0.026617376133799553,74,9926.0
2000,0.2904717028141022,0.36112433671951294,87,5497.0,-0.9303166270256042,-78,9926.0
2010,0.29061171412467957,2.049197196960449,37,5497.0,-0.2388640195131302,-23,9926.0
2020,0.29076382517814636,3.29736328125,-18,5497.0,1.5012506246566772,109,9926.0
2030,0.29021909832954407,4.253481388092041,200,5497.0,0.7777600288391113,-168,9926.0
2040,0.2903527021408081,2.602144718170166,22,5497.0,3.1790037155151367,23,9926.0
2050,0.29047003388404846,1.0222493410110474,11,5497.0,4.11653995513916,-23,9926.0
2060,0.2905426025390625,2.3421504497528076,49,5497.0,1.034263014793396,182,9926.0
2070,0.2899923622608185,0.22234073281288147,-30,5497.0,1.778581142425537,-117,9926.0
2080,0.2900405824184418,1.8926466703414917,26,5497.0,-0.7454237341880798,-26,9926.0
2090,0.2901149094104767,-0.16764409840106964,-12,5497.0,3.078273296356201,-13,9926.0
2100,0.29021206498146057,-0.6671425104141235,143,5497.0,-2.289590358734131,27,9926.0
2110,0.29034292697906494,-1.44556725025177,-94,5497.0,1.068159818649292,-57,9926.0
2120,0.2912081480026245,-1.2681423425674438,-17,5497.0,-4.526772975921631,-50,9926.0
2130,0.2914746403694153,-0.34487301111221313,-56,5497.0,-3.7785396575927734,-37,9926.0
2140,0.2917361855506897,-2.548161745071411,128,5497.0,-4.02703332901001,-99,9926.0
2150,0.2919551134109497,-0.95249342918396,-136,5497.0,-4.7983784675598145,-89,9926.0
2160,0.29175448417663574,0.12052241712808609,41,5497.0,-3.364118814468384,-101,9926.0
2170,0.2918604910373688,-0.2108200639486313,38,5497.0,-2.367823839187622,14,9926.0
2180,0.2919367849826813,-0.24071349203586578,143,5497.0,2.0631096363067627,-187,9926.0
2190,0.29203322529792786,3.012367010116577,-28,5497.0,0.7064316272735596,120,9926.0
2200,0.29213276505470276,0.8416864275932312,40,5497.0,2.5940253734588623,56,9926.0
2210,0.2917384207248688,-0.6674545407295227,33,5497.0,6.073972702026367,212,9926.0
2220,0.29180774092674255,-1.4355146884918213,-21,5497.0,6.746637344360352,-185,9926.0
2230,0.29186874628067017,-0.061863936483860016,34,5497.0,5.196579456329346,129,9926.0
2240,0.2919735014438629,-0.8720981478691101,-32,5497.0,2.5823330879211426,38,9926.0
2250,0.29199761152267456,0.48468703031539917,100,5497.0,0.2212405949831009,88,9926.0
2260,0.2920887768268585,-0.15510614216327667,-123,5497.0,0.6614176034927368,-133,9926.0
2270,0.2921150326728821,-1.1379985809326172,12,5497.0,-2.030222177505493,-75,9926.0
2280,0.292052686214447,0.14834581315517426,14,5497.0,-3.358469247817993,-92,9926.0
2290,0.2931379973888397,1.319031000137329,142,5497.0,-4.1634087562561035,-40,9926.0
2300,0.29319339990615845,2.596022129058838,-124,5497.0,-2.4901936054229736,6,9926.0
2310,0.29319337010383606,1.44285249710083,98,5497.0,-3.416158676147461,-20,9926.0
2320,0.2932168245315552,3.3875818252563477,58,5497.0,0.013380301184952259,-71,9926.0
2330,0.29321378469467163,1.9931360483169556,109,5497.0,2.224097490310669,-70,9926.0
2340,0.2923818528652191,1.51056706905365,-162,5497.0,3.69305682182312,35,9926.0
2350,0.2923232913017273,-0.5751858353614807,24,5497.0,3.684544801712036,105,9926.0
2360,0.29221510887145996,-4.305819511413574,-125,5497.0,6.733057022094727,197,9926.0
2370,0.2920713424682617,-6.516653537750244,-21,5497.0,2.940202474594116,38,9926.0
2380,0.2923208177089691,-3.5785601139068604,-247,5497.0,6.227280139923096,95,9926.0
2390,0.2921072542667389,-2.080113410949707,50,5497.0,-0.5184962749481201,-25,9926.0
2400,0.2921842336654663,-0.6270521283149719,-7,5497.0,0.2027038335800171,53,9926.0
2410,0.2920677363872528,1.4380176067352295,151,5497.0,0.17401723563671112,44,9926.0
2420,0.2921614944934845,1.1963740587234497,-137,5497.0,2.2054121494293213,-7,9926.0
2430,0.2927153706550598,1.7866451740264893,21,5497.0,-2.3731467723846436,43,9926.0
2440,0.29275450110435486,-1.2128233909606934,-67,5497.0,3.4023208618164062,100,9926.0
2450,0.2924749255180359,-0.8871089220046997,178,5497.0,5.865471839904785,151,9926.0
2460,0.2925514876842499,-0.5277405977249146,-110,5497.0,12.762885093688965,67,9926.0
2470,0.2930935025215149,2.302302122116089,11,5497.0,8.068764686584473,175,9926.0
2480,0.29311662912368774,0.7657219171524048,-64,5497.0,10.093520164489746,138,9926.0
2490,0.29321011900901794,0.2682553231716156,108,5497.0,9.368111610412598,248,9926.0
2500,0.29330191016197205,-0.8989888429641724,7,5497.0,7.03811502456665,46,9926.0
2510,0.2947690486907959,1.9334971904754639,52,5497.0,5.683998107910156,24,9926.0
2520,0.294930100440979,3.276824951171875,-8,5497.0,2.8298656940460205,-91,9926.0
2530,0.2951980531215668,2.621225118637085,98,5497.0,1.9234135150909424,183,9926.0
2540,0.29544684290885925,0.7571574449539185,67,5497.0,-1.9357575178146362,-97,9926.0
2550,0.2956841289997101,1.896392583847046,10,5497.0,-2.1181838512420654,57,9926.0
2560,0.2963358163833618,0.13775621354579926,-3,5497.0,-0.9920037984848022,-167,9926.0
2570,0.2965256869792938,0.4292507469654083,-75,5497.0,0.7424528002738953,112,9926.0
2580,0.2967320382595062,1.2126829624176025,47,5497.0,0.1323087215423584,32,9926.0
2590,0.29692453145980835,1.0260822772979736,4,5497.0,3.1409902572631836,115,9926.0
2600,0.29784151911735535,-0.8402331471443176,-10,5497.0,3.342146635055542,-105,9926.0
2610,0.298069566488266,-2.4832327365875244,-67,5497.0,2.320017099380493,160,9926.0
2620,0.29828929901123047,-0.6688739657402039,-103,5497.0,0.9158914685249329,88,9926.0
2630,0.29845130443573,-2.0114924907684326,12,5497.0,2.5316789150238037,-21,9926.0
2640,0.29855695366859436,-0.3091038465499878,-160,5497.0,1.8709380626678467,57,9926.0
2650,0.29876425862312317,1.1907650232315063,165,5497.0,-0.014668924733996391,30,9926.0
2660,0.29885321855545044,1.8071378469467163,30,5497.0,-1.4571162462234497,-92,9926.0
2670,0.29895973205566406,3.7356455326080322,122,5497.0,-2.7704436779022217,-120,9926.0
2680,0.29905974864959717,3.2254467010498047,-68,5497.0,0.3017599880695343,-48,9926.0
2690,0.2990879416465759,1.9425562620162964,102,5497.0,-1.864490270614624,187,9926.0
2700,0.29918983578681946,3.0623161792755127,5,5497.0,1.9197943210601807,38,9926.0
2710,0.2991822361946106,0.4574865996837616,72,5497.0,4.621158123016357,34,9926.0
2720,0.2991371154785156,0.21305418014526367,-154,5497.0,4.012352466583252,-17,9926.0
2730,0.300155907869339,0.08431054651737213,74,5497.0,0.5849674344062805,119,9926.0
2740,0.30017799139022827,1.6029467582702637,3,5497.0,1.8591203689575195,43,9926.0
2750,0.30024048686027527,0.34283286333084106,81,5497.0,4.283301830291748,95,9926.0
2760,0.3003162145614624,0.9674557447433472,-94,5497.0,2.4437074661254883,-63,9926.0
2770,0.3004058301448822,-1.1201272010803223,9,5497.0,-0.6467543840408325,125,9926.0
2780,0.3018368184566498,-0.36835354566574097,-19,5497.0,1.2339115142822266,-36,9926.0
2790,0.30194294452667236,-2.0297961235046387,35,5497.0,0.5061211585998535,103,9926.0
2800,0.30205678939819336,0.06982403993606567,-12,5497.0,1.5596368312835693,-175,9926.0
2810,0.30219340324401855,-2.9863107204437256,-55,5497.0,7.115231990814209,139,9926.0
2820,0.3021993637084961,0.7348498702049255,50,5497.0,0.7896857857704163,-1,9926.0
2830,0.30231600999832153,-0.43435409665107727,24,5497.0,-1.5299263000488281,77,9926.0
2840,0.30239927768707275,-0.42022624611854553,70,5497.0,-1.7680163383483887,-124,9926.0
2850,0.3024847209453583,-0.9256203770637512,-188,5497.0,-4.4272894859313965,62,9926.0
2860,0.30161839723587036,-2.415064811706543,50,5497.0,-3.0095183849334717,28,9926.0
2870,0.30168306827545166,-1.2008334398269653,-50,5497.0,-1.7704211473464966,-11,9926.0
2880,0.30172932147979736,-1.564745306968689,79,5497.0,1.9921290874481201,-39,9926.0
2890,0.3017307221889496,-0.8935750722885132,-104,5497.0,1.680618405342102,-113,9926.0
2900,0.30170372128486633,-1.7040249109268188,-10,5497.0,-1.6134990453720093,161,9926.0
2910,0.30177417397499084,-1.39391028881073,-53,5497.0,-1.6944681406021118,-47,9926.0
2920,0.3017234206199646,-0.7160452008247375,26,5497.0,-0.8547512292861938,82,9926.0
2930,0.3016512393951416,0.7417313456535339,-25,5497.0,-2.610898494720459,-228,9926.0
2940,0.3015621602535248,4.002389907836914,-31,5497.0,-10.330948829650879,23,9926.0
2950,0.3016281723976135,-0.887087345123291,104,5497.0,-6.31798791885376,-56,9926.0
2960,0.3014678359031677,0.5767833590507507,4,5497.0,-3.7081756591796875,15,9926.0
2970,0.30126121640205383,0.9803104400634766,71,5497.0,-0.07023492455482483,-96,9926.0
2980,0.30106863379478455,0.5072686076164246,-166,5497.0,1.0717874765396118,102,9926.0
2990,0.30088672041893005,0.5364635586738586,107,5497.0,2.0262115001678467,18,9926.0
3000,0.3000345528125763,2.6588640213012695,-7,5497.0,0.5108716487884521,15,9926.0
3010,0.2998257875442505,0.08561573922634125,106,5497.0,1.0395228862762451,115,9926.0
3020,0.29964062571525574,-1.6994041204452515,-52,5497.0,-0.15790073573589325,-197,9926.0
3030,0.2995210289955139,-2.059568405151367,-54,5497.0,-3.194491147994995,50,9926.0
3040,0.30158257484436035,-0.6496309041976929,-58,5497.0,-7.063500881195068,-116,9926.0
3050,0.3016655445098877,-3.697200298309326,-151,5497.0,-3.5391204357147217,101,9926.0
3060,0.3017522990703583,-1.5983399152755737,148,5497.0,-3.311119794845581,-207,9926.0
3070,0.3018728792667389,-2.7675693035125732,-98,5497.0,-5.422830104827881,-105,9926.0
3080,0.30202311277389526,0.4390747845172882,24,5497.0,-1.9442262649536133,-25,9926.0
3090,0.302244633436203,-0.47742077708244324,-90,5497.0,1.6460038423538208,-134,9926.0
3100,0.30251869559288025,-2.0911788940429688,-2,5497.0,2.1896934509277344,224,9926.0
3110,0.3028084635734558,-1.056308627128601,17,5497.0,-0.9428561925888062,-101,9926.0
3120,0.3031461238861084,-1.6631135940551758,128,5497.0,-0.6806718707084656,-95,9926.0
3130,0.3033139109611511,2.563678503036499,109,5497.0,-0.9009187817573547,-135,9926.0
3140,0.3037373423576355,2.765221357345581,-129,5497.0,-2.9726006984710693,-84,9926.0
3150,0.304205060005188,-0.655504047870636,95,5497.0,-2.152810573577881,64,9926.0
3160,0.30464282631874084,1.9845086336135864,37,5497.0,-2.5725831985473633,-47,9926.0
3170,0.30463907122612,1.8748834133148193,53,5497.0,-3.9954311847686768,76,9926.0
3180,0.3050658702850342,0.3220458924770355,-110,5497.0,-1.1510056257247925,-193,9926.0
3190,0.3055112957954407,-0.2507842779159546,7,5497.0,0.3501678705215454,17,9926.0
3200,0.30598047375679016,-0.5485665202140808,-66,5497.0,-0.13690805435180664,-65,9926.0
3210,0.30642810463905334,-0.7156957387924194,58,5497.0,-0.563463032245636,64,9926.0
3220,0.30649831891059875,-2.4901089668273926,-221,5497.0,9.857544898986816,-116,9926.0
3230,0.3068791627883911,-3.0109028816223145,74,5497.0,-0.33809131383895874,113,9926.0
3240,0.307259738445282,-0.04603113234043121,-30,5497.0,-3.6962764263153076,-21,9926.0
3250,0.3075760304927826,0.2858670949935913,70,5497.0,-3.7956957817077637,-33,9926.0
3260,0.3067763149738312,0.5569506883621216,-134,5497.0,-2.394623279571533,-190,9926.0
3270,0.30700480937957764,2.3112094402313232,108,5497.0,-5.450860977172852,-7,9926.0
3280,0.3071894943714142,-0.641821026802063,49,5497.0,-2.102060079574585,-110,9926.0
3290,0.3073976933956146,-1.2957457304000854,33,5497.0,-0.5803368091583252,50,9926.0
3300,0.30620265007019043,-2.551011800765991,-95,5497.0,0.27848994731903076,-124,9926.0
3310,0.30619120597839355,-4.751979351043701,-76,5497.0,4.492106914520264,242,9926.0
3320,0.3061639368534088,-2.0876271724700928,-52,5497.0,-2.72257137298584,44,9926.0
3330,0.3061182498931885,-0.006920631509274244,31,5497.0,0.9328221678733826,144,9926.0
3340,0.3060095012187958,0.47920966148376465,32,5497.0,2.670421838760376,-136,9926.0
3350,0.30670687556266785,0.5300891995429993,-99,5497.0,2.491471767425537,35,9926.0
3360,0.3066180944442749,1.4468357563018799,143,5497.0,-1.4531689882278442,-82,9926.0
3370,0.306527316570282,-1.2357289791107178,10,5497.0,0.6893507838249207,6,9926.0
3380,0.30643466114997864,1.9881982803344727,184,5497.0,-2.4481101036071777,-16,9926.0
3390,0.30883923172950745,-2.219586133956909,-61,5497.0,2.2397255897521973,-33,9926.0
3400,0.3088296949863434,2.0240683555603027,-1,5497.0,-0.5146538615226746,168,9926.0
3410,0.3087766766548157,3.723484754562378,32,5497.0,4.748579978942871,-27,9926.0
3420,0.30870622396469116,4.568329811096191,62,5497.0,1.5819011926651,196,9926.0
3430,0.30880436301231384,2.450678825378418,135,5497.0,2.109494209289551,-14,9926.0
3440,0.3087867200374603,-0.18016669154167175,-98,5497.0,5.375810146331787,49,9926.0
3450,0.30876263976097107,-0.4360641539096832,11,5497.0,3.805539846420288,-32,9926.0
3460,0.30876150727272034,0.5997500419616699,-124,5497.0,0.942736029624939,-57,9926.0
3470,0.3087941110134125,1.175980806350708,62,5497.0,-1.5183542966842651,150,9926.0
3480,0.30893048644065857,-1.075916051864624,-45,5497.0,2.753124475479126,73,9926.0
3490,0.30909132957458496,-1.6534110307693481,18,5497.0,2.248910903930664,216,9926.0
3500,0.30915361642837524,-2.4193341732025146,4,5497.0,5.4383955001831055,-16,9926.0
3510,0.3092154860496521,-1.680101990699768,-96,5497.0,5.206249237060547,108,9926.0
3520,0.3099471926689148,-0.08290185034275055,14,5497.0,4.559670448303223,87,9926.0
3530,0.31008192896842957,1.90481698513031,-83,5497.0,4.952533721923828,123,9926.0
3540,0.31020596623420715,2.6247000694274902,106,5497.0,4.944197177886963,102,9926.0
3550,0.3103446662425995,1.8173691034317017,-11,5497.0,-1.6518528461456299,-155,9926.0
3560,0.3105013966560364,0.3089452385902405,24,5497.0,-1.3843718767166138,-6,9926.0
3570,0.30962011218070984,-1.2348637580871582,-50,5497.0,-2.636267900466919,-263,9926.0
3580,0.30975577235221863,-3.671281099319458,-31,5497.0,-0.5705777406692505,-13,9926.0
3590,0.3098897933959961,-2.782297372817993,67,5497.0,-4.360039710998535,-125,9926.0
3600,0.3100053071975708,1.279334545135498,31,5497.0,-3.0188684463500977,60,9926.0
3610,0.3104460537433624,3.5032522678375244,175,5497.0,-1.2594220638275146,-37,9926.0
3620,0.3106003403663635,3.2023212909698486,-26,5497.0,1.382474660873413,68,9926.0
3630,0.310743510723114,4.64303731918335,102,5497.0,0.5619661808013916,14,9926.0
3640,0.3108885586261749,3.959699869155884,-51,5497.0,0.990308403968811,37,9926.0
3650,0.31250694394111633,1.5258307456970215,93,5497.0,2.43632173538208,78,9926.0
3660,0.31281423568725586,0.08944855630397797,-17,5497.0,-0.5783337354660034,-24,9926.0
3670,0.31295913457870483,-1.5123306512832642,25,5497.0,-2.404029130935669,-59,9926.0
3680,0.3131202459335327,-3.533738851547241,-102,5497.0,-0.510932207107544,-207,9926.0
3690,0.31334927678108215,-2.878589153289795,3,5497.0,0.44244396686553955,26,9926.0
3700,0.31525593996047974,-2.434903860092163,-34,5497.0,1.7630870342254639,-40,9926.0
3710,0.3156214654445648,0.6284193396568298,21,5497.0,1.767850399017334,263,9926.0
3720,0.3158605694770813,-0.012982526794075966,83,5497.0,7.9128642082214355,67,9926.0
3730,0.3163021504878998,1.2366353273391724,33,5497.0,9.066247940063477,223,9926.0
3740,0.3172163963317871,2.94804310798645,84,5497.0,9.062978744506836,73,9926.0
3750,0.3175676763057709,3.3033628463745117,-99,5497.0,6.099222183227539,154,9926.0
3760,0.317898690700531,3.30277419090271,61,5497.0,8.869965553283691,128,9926.0
3770,0.3182670474052429,3.2748022079467773,-11,5497.0,7.2516255378723145,232,9926.0
3780,0.31858259439468384,2.97354793548584,164,5497.0,5.853311061859131,21,9926.0
3790,0.3201354444026947,1.1005122661590576,1,5497.0,3.193851947784424,40,9926.0
3800,0.3204948604106903,-1.417448878288269,19,5497.0,0.7175093293190002,-46,9926.0
3810,0.3208937346935272,-1.7082995176315308,-160,5497.0,-1.238590121269226,12,9926.0
3820,0.3212641179561615,-0.9649378657341003,98,5497.0,-0.8018868565559387,-167,9926.0
3830,0.3213445246219635,-1.300465703010559,-25,5497.0,-2.666567802429199,-67,9926.0
3840,0.3215734362602234,-1.3029561042785645,88,5497.0,-5.273651599884033,-221,9926.0
3850,0.3217267692089081,-0.1540149599313736,-122,5497.0,-1.1413894891738892,129,9926.0
3860,0.3218557834625244,-0.37184035778045654,-10,5497.0,-1.2083195447921753,43,9926.0
3870,0.3219880759716034,-0.6359822154045105,-44,5497.0,0.3287110924720764,150,9926.0
3880,0.32330021262168884,-2.3083555698394775,14,5497.0,1.0344126224517822,-132,9926.0
3890,0.32348349690437317,-2.10286021232605,-115,5497.0,-0.5832654237747192,10,9926.0
3900,0.3235999047756195,-2.774810791015625,-52,5497.0,1.6155211925506592,-68,9926.0
3910,0.3236941397190094,-1.3020554780960083,-41,5497.0,-1.1574641466140747,173,9926.0
3920,0.32268011569976807,1.8530851602554321,177,5497.0,-2.602534055709839,-122,9926.0
3930,0.3226974904537201,2.823660135269165,-7,5497.0,-2.2712206840515137,50,9926.0
3940,0.32270655035972595,2.0262715816497803,71,5497.0,-0.31180405616760254,-84,9926.0
3950,0.322727233171463,3.06691575050354,-95,5497.0,-2.760686159133911,-77,9926.0
3960,0.32434555888175964,3.5105440616607666,152,5497.0,0.2561153769493103,-71,9926.0
3970,0.324422687292099,3.1904590129852295,23,5497.0,-0.6293936967849731,10,9926.0
3980,0.324404776096344,1.3336844444274902,136,5497.0,-1.245582103729248,-2,9926.0
3990,0.3243493139743805,0.11187847703695297,-90,5497.0,-1.8925503492355347,-109,9926.0
4000,0.3242461085319519,-1.0596411228179932,-9,5497.0,-2.2697906494140625,-33,9926.0
4010,0.32247474789619446,-1.5898773670196533,-146,5497.0,-3.926757574081421,-73,9926.0
4020,0.322247177362442,-3.125966787338257,47,5497.0,-3.7701852321624756,39,9926.0
4030,0.3220072090625763,-2.419508695602417,-62,5497.0,-2.746265411376953,6,9926.0
4040,0.32172560691833496,-0.8632279634475708,45,5497.0,-1.1628562211990356,30,9926.0
4050,0.32315686345100403,-1.7459532022476196,-60,5497.0,-0.08301138877868652,-286,9926.0
4060,0.322933554649353,1.4849649667739868,-16,5497.0,3.94541335105896,147,9926.0
4070,0.3227154314517975,1.3176865577697754,-12,5497.0,4.197751522064209,13,9926.0
4080,0.3224981725215912,2.3577938079833984,20,5497.0,4.484875202178955,321,9926.0
4090,0.322299987077713,3.369173049926758,55,5497.0,0.5863900184631348,34,9926.0
4100,0.3207989037036896,1.8467702865600586,-25,5497.0,0.30870306491851807,126,9926.0
4110,0.32049980759620667,-0.8305965662002563,27,5497.0,1.8852697610855103,-6,9926.0
4120,0.32021814584732056,-2.28493332862854,-142,5497.0,-4.704547882080078,-81,9926.0
4130,0.31999218463897705,-3.924175500869751,-31,5497.0,-2.0901708602905273,-63,9926.0
4140,0.3202729821205139,-1.427162528038025,-127,5497.0,-5.497428894042969,-125,9926.0
4150,0.32010790705680847,-2.2463572025299072,56,5497.0,-5.463067531585693,23,9926.0
4160,0.31992530822753906,-0.9027207493782043,-24,5497.0,-2.4673452377319336,-79,9926.0
4170,0.31972554326057434,1.384100079536438,100,5497.0,-1.4175127744674683,88,9926.0
4180,0.3204811215400696,3.0554044246673584,93,5497.0,-4.6049323081970215,-158,9926.0
4190,0.3204100430011749,3.5917837619781494,24,5497.0,-0.9016532897949219,-9,9926.0
4200,0.3203812837600708,0.9126601815223694,46,5497.0,5.870777130126953,35,9926.0
4210,0.32032665610313416,1.3619297742843628,-108,5497.0,4.1685943603515625,114,9926.0
4220,0.3202688694000244,-1.7913180589675903,37,5497.0,6.071309566497803,134,9926.0
4230,0.321358323097229,0.962773323059082,-91,5497.0,-0.886290431022644,10,9926.0
4240,0.32147878408432007,-4.5468010902404785,-53,5497.0,-3.697845935821533,136,9926.0
4250,0.32164648175239563,-7.376612663269043,-141,5497.0,-2.522733449935913,-138,9926.0
4260,0.3218112289905548,-5.096824645996094,-149,5497.0,-5.622894287109375,-21,9926.0
4270,0.3227848708629608,-6.323552131652832,-37,5497.0,-2.833771228790283,-131,9926.0
4280,0.3230142593383789,-2.3118016719818115,-141,5497.0,-0.6244127750396729,-30,9926.0
4290,0.3232707679271698,-0.08476121723651886,55,5497.0,-1.586593747138977,-4,9926.0
4300,0.3235248029232025,0.6729075312614441,-13,5497.0,0.548897385597229,-90,9926.0
4310,0.32423436641693115,1.570863962173462,126,5497.0,2.4475603103637695,266,9926.0
4320,0.3245098888874054,0.16071158647537231,41,5497.0,4.424002647399902,-17,9926.0
4330,0.3248899579048157,0.8688033819198608,-40,5497.0,0.048313360661268234,21,9926.0
4340,0.32529962062835693,1.4334512948989868,75,5497.0,-1.701686143875122,-93,9926.0
4350,0.3257180452346802,1.3422616720199585,-204,5497.0,-4.578314304351807,6,9926.0
4360,0.32483747601509094,1.4666367769241333,61,5497.0,-6.816320896148682,-13,9926.0
4370,0.3252100348472595,-0.9448986649513245,-86,5497.0,-4.689962863922119,-54,9926.0
4380,0.325550377368927,-3.868001699447632,-6,5497.0,-3.0313990116119385,-31,9926.0
4390,0.3258693218231201,-1.7783551216125488,12,5497.0,-5.411303520202637,-223,9926.0
4400,0.3245536983013153,-4.920029640197754,-35,5497.0,1.9764792919158936,24,9926.0
4410,0.32470425963401794,-4.26423978805542,-86,5497.0,1.1517813205718994,-73,9926.0
4420,0.32481470704078674,-1.9923890829086304,-46,5497.0,-0.18361811339855194,216,9926.0
4430,0.32485538721084595,-0.21956732869148254,15,5497.0,4.519478797912598,79,9926.0
4440,0.3249083459377289,0.11098653823137283,-26,5497.0,2.273181915283203,98,9926.0
4450,0.32660770416259766,2.398969888687134,124,5497.0,1.9012062549591064,-20,9926.0
4460,0.3267629146575928,4.628325939178467,-102,5497.0,-0.8425597548484802,17,9926.0
4470,0.3269213140010834,4.48523473739624,133,5497.0,1.3136723041534424,-70,9926.0
4480,0.3270561397075653,4.79733943939209,65,5497.0,-0.9822611808776855,-17,9926.0
4490,0.3259352743625641,3.9158565998077393,132,5497.0,-2.9542617797851562,-122,9926.0
4500,0.32602304220199585,5.456467628479004,-49,5497.0,-3.1901886463165283,30,9926.0
4510,0.3260962963104248,1.693790078163147,120,5497.0,-3.3936965465545654,49,9926.0
4520,0.32613077759742737,2.3629047870635986,-1,5497.0,-1.7131681442260742,-18,9926.0
4530,0.32530391216278076,0.5755487084388733,111,5497.0,0.8246676325798035,124,9926.0
4540,0.3252062201499939,0.496804416179657,-57,5497.0,1.8908627033233643,-132,9926.0
4550,0.3251015245914459,1.7492804527282715,47,5497.0,-0.7220639586448669,36,9926.0
4560,0.3250235617160797,1.3935227394104004,17,5497.0,0.6921344995498657,-74,9926.0
4570,0.32494795322418213,1.6376484632492065,-3,5497.0,-1.0120887756347656,45,9926.0
4580,0.32608479261398315,0.9748955965042114,145,5497.0,1.68355131149292,10,9926.0
4590,0.3260514736175537,0.15503562986850739,-19,5497.0,-2.504002809524536,-26,9926.0
4600,0.3260436952114105,0.7508831024169922,84,5497.0,-0.783619225025177,70,9926.0
4610,0.32606372237205505,0.5736267566680908,-54,5497.0,-1.229052186012268,-246,9926.0
4620,0.3248690068721771,1.1770612001419067,30,5497.0,0.052050646394491196,110,9926.0
4630,0.3248154819011688,3.7320618629455566,61,5497.0,1.9752273559570312,-26,9926.0
4640,0.3248010575771332,5.472712516784668,1,5497.0,1.1906344890594482,95,9926.0
4650,0.3247939646244049,2.495769500732422,169,5497.0,1.048718810081482,111,9926.0
4660,0.32410693168640137,0.8089042901992798,-5,5497.0,4.063798427581787,-50,9926.0
4670,0.32404565811157227,-0.7720686793327332,39,5497.0,-0.8377112150192261,100,9926.0
4680,0.32396891713142395,0.5585334300994873,-52,5497.0,4.187661170959473,-52,9926.0
4690,0.3238842785358429,-1.929294228553772,-130,5497.0,2.3257157802581787,86,9926.0
4700,0.32389917969703674,-3.9668447971343994,-10,5497.0,1.0858815908432007,-24,9926.0
4710,0.3239040970802307,-2.4973270893096924,-129,5497.0,1.7324120998382568,-106,9926.0
4720,0.32382604479789734,-0.586605429649353,-35,5497.0,-4.480899810791016,102,9926.0
4730,0.3237553536891937,-0.30926480889320374,13,5497.0,0.17517760396003723,-11,9926.0
4740,0.32370588183403015,-0.829815685749054,-53,5497.0,-0.44600018858909607,90,9926.0
4750,0.3245563507080078,0.41081297397613525,186,5497.0,1.6937682628631592,-11,9926.0
4760,0.3245960772037506,0.26819154620170593,-50,5497.0,3.8907978534698486,-42,9926.0
4770,0.3246643543243408,3.467747688293457,19,5497.0,7.774588108062744,171,9926.0
4780,0.3247860074043274,2.181614875793457,51,5497.0,4.436366081237793,-105,9926.0
4790,0.32491907477378845,2.233996868133545,-106,5497.0,5.904114723205566,111,9926.0
4800,0.3262576460838318,7.616039752960205,162,5497.0,-4.3365912437438965,29,9926.0
4810,0.32643628120422363,1.3726835250854492,-37,5497.0,0.6988528370857239,-26,9926.0
4820,0.32663479447364807,-0.5830772519111633,27,5497.0,1.4182780981063843,284,9926.0
4830,0.3268223702907562,-2.1961629390716553,-43,5497.0,-3.281949996948242,-46,9926.0
4840,0.32622095942497253,-2.577234983444214,-45,5497.0,1.7705802917480469,118,9926.0
4850,0.32637301087379456,-2.471942901611328,101,5497.0,3.6729578971862793,105,9926.0
4860,0.3265317976474762,-3.0316550731658936,-139,5497.0,2.8256983757019043,88,9926.0
4870,0.3266993761062622,-2.393193483352661,-4,5497.0,1.8255698680877686,61,9926.0
4880,0.3272848129272461,-1.8669133186340332,-97,5497.0,2.1650302410125732,-153,9926.0
4890,0.3274169862270355,-3.2339046001434326,-102,5497.0,-1.2160497903823853,76,9926.0
4900,0.3275594413280487,2.267723560333252,11,5497.0,0.23444899916648865,-64,9926.0
4910,0.32773205637931824,0.3148532509803772,-76,5497.0,1.4465782642364502,53,9926.0
4920,0.32796338200569153,1.4706270694732666,129,5497.0,-1.1492600440979004,46,9926.0
4930,0.32686108350753784,0.31259071826934814,-49,5497.0,5.713244438171387,25,9926.0
4940,0.3269246816635132,1.8063130378723145,64,5497.0,2.0690948963165283,185,9926.0
4950,0.3269771337509155,1.0892219543457031,64,5497.0,0.5125506520271301,-390,9926.0
4960,0.32710227370262146,1.0344815254211426,-18,5497.0,4.48750114440918,54,9926.0
4970,0.32672297954559326,2.7853147983551025,74,5497.0,1.344943642616272,-62,9926.0
4980,0.3267786502838135,2.523463249206543,-115,5497.0,3.4890384674072266,27,9926.0
4990,0.3268860876560211,0.9784049987792969,70,5497.0,1.324296236038208,55,9926.0
5000,0.32702481746673584,2.4729301929473877,8,5497.0,3.2104671001434326,-128,9926.0
5010,0.3271770775318146,1.8735774755477905,89,5497.0,-0.5756572484970093,92,9926.0
5020,0.32886043190956116,3.234837055206299,118,5497.0,-0.8354753851890564,-14,9926.0
5030,0.3290713131427765,2.568279981613159,-43,5497.0,0.5778038501739502,66,9926.0
5040,0.3292744755744934,0.8206766247749329,163,5497.0,1.0629922151565552,28,9926.0
5050,0.3294770121574402,-1.4834421873092651,-44,5497.0,2.2873969078063965,0,9926.0
5060,0.32900434732437134,-1.142118215560913,53,5497.0,2.8658125400543213,128,9926.0
5070,0.3291519582271576,2.1433615684509277,18,5497.0,-1.094213604927063,-109,9926.0
5080,0.3292863667011261,-1.0419542789459229,-31,5497.0,0.9660705924034119,111,9926.0
5090,0.32945048809051514,0.3788073658943176,-83,5497.0,-2.124249219894409,-93,9926.0
5100,0.3296337425708771,-1.5737289190292358,9,5497.0,-4.95700216293335,-231,9926.0
5110,0.32832804322242737,1.5543304681777954,-19,5497.0,-6.546117782592773,-80,9926.0
5120,0.3283712863922119,-0.4640091359615326,-45,5497.0,-2.87842059135437,59,9926.0
5130,0.3283820152282715,-0.43670302629470825,79,5497.0,-3.384889602661133,-51,9926.0
5140,0.3283979594707489,0.7291994094848633,-49,5497.0,1.7606651782989502,45,9926.0
5150,0.3290455937385559,-2.200932741165161,20,5497.0,4.420589447021484,111,9926.0
5160,0.3290689289569855,-1.113842487335205,-98,5497.0,6.481105327606201,-83,9926.0
5170,0.329057514667511,-0.5149888396263123,21,5497.0,3.9446558952331543,151,9926.0
5180,0.32903432846069336,-2.229954242706299,-18,5497.0,4.845887184143066,-59,9926.0
5190,0.32787489891052246,-1.4150902032852173,-93,5497.0,2.775254964828491,61,9926.0
5200,0.32783299684524536,-1.5473769903182983,97,5497.0,0.5933031439781189,16,9926.0
5210,0.3277583122253418,-0.17883221805095673,-53,5497.0,-1.04291570186615,-66,9926.0
5220,0.3276563286781311,0.6139827966690063,64,5497.0,-5.480180740356445,87,9926.0
5230,0.3275424838066101,-0.053023453801870346,99,5497.0,-4.808266639709473,-125,9926.0
5240,0.3287613093852997,-0.582831859588623,-87,5497.0,-4.806717395782471,-91,9926.0
5250,0.32868608832359314,-0.8506672978401184,60,5497.0,-9.088311195373535,-191,9926.0
5260,0.3286021649837494,2.8845298290252686,-86,5497.0,-7.068019390106201,-214,9926.0
5270,0.3286154270172119,-0.2062462717294693,58,5497.0,-5.047199249267578,36,9926.0
5280,0.3299717903137207,-3.1386327743530273,-33,5497.0,4.236067771911621,-114,9926.0
5290,0.3301328420639038,-3.50026535987854,-93,5497.0,5.3332438468933105,123,9926.0
5300,0.3302967846393585,-3.0733132362365723,-6,5497.0,7.304691314697266,136,9926.0
5310,0.33048462867736816,0.3150629997253418,-129,5497.0,8.710366249084473,90,9926.0
5320,0.3323257565498352,0.5986959338188171,63,5497.0,5.962071418762207,181,9926.0
5330,0.3326798677444458,1.7281289100646973,11,5497.0,6.425612449645996,-5,9926.0
5340,0.3330225646495819,1.7797257900238037,-15,5497.0,2.9414732456207275,60,9926.0
5350,0.33340349793434143,4.326628684997559,185,5497.0,-2.430333137512207,-32,9926.0
5360,0.333818644285202,1.22817063331604,26,5497.0,-8.387617111206055,-297,9926.0
5370,0.3343065679073334,2.7813570499420166,39,5497.0,-7.521658897399902,-12,9926.0
5380,0.33468854427337646,2.61328125,104,5497.0,-9.973784446716309,-363,9926.0
5390,0.33507370948791504,2.387549638748169,-46,5497.0,-8.392827987670898,-92,9926.0
5400,0.33553630113601685,1.8902535438537598,77,5497.0,-6.239742755889893,-161,9926.0
5410,0.3361406922340393,-0.16276110708713531,-158,5497.0,-1.2730133533477783,-11,9926.0
5420,0.33652088046073914,-4.3103532791137695,23,5497.0,2.3691792488098145,81,9926.0
5430,0.3369825780391693,-5.406289100646973,-140,5497.0,0.7025222182273865,-35,9926.0
5440,0.33740177750587463,-3.1099767684936523,-2,5497.0,1.0706210136413574,216,9926.0
5450,0.33786094188690186,-3.0151214599609375,-37,5497.0,4.644441604614258,53,9926.0
5460,0.3379441499710083,-0.5387940406799316,-13,5497.0,5.397105693817139,184,9926.0
5470,0.3382886052131653,1.4398432970046997,83,5497.0,2.5643367767333984,29,9926.0
5480,0.3385966122150421,2.020690441131592,-62,5497.0,4.1019768714904785,93,9926.0
5490,0.33893030881881714,2.0001912117004395,83,5497.0,1.3865554332733154,-29,9926.0
5500,0.33717069029808044,2.5913641452789307,-113,5497.0,-0.21842323243618011,-155,9926.0
5510,0.3373655378818512,0.8002957701683044,109,5497.0,-0.287695974111557,22,9926.0
5520,0.3374960124492645,2.2860164642333984,42,5497.0,-3.411548137664795,-99,9926.0
5530,0.33758196234703064,4.259480953216553,102,5497.0,-3.68820858001709,122,9926.0
5540,0.33764374256134033,2.7226850986480713,51,5497.0,-2.918701171875,-64,9926.0
5550,0.3358146846294403,2.2987096309661865,12,5497.0,-0.16608324646949768,115,9926.0
5560,0.33574432134628296,1.0969212055206299,-1,5497.0,1.8533821105957031,-8,9926.0
5570,0.3356359899044037,-4.343691825866699,23,5497.0,8.41565227508545,32,9926.0
5580,0.33544838428497314,-0.7540718913078308,53,5497.0,-0.3647049367427826,79,9926.0
5590,0.3350282311439514,-0.783073902130127,-124,5497.0,0.8069645762443542,3,9926.0
5600,0.33476340770721436,-1.2585487365722656,46,5497.0,-1.3274741172790527,24,9926.0
5610,0.3345229923725128,-1.4113656282424927,-85,5497.0,1.0636446475982666,-100,9926.0
5620,0.3342393636703491,-1.0737215280532837,11,5497.0,0.9870193004608154,136,9926.0
5630,0.33556583523750305,-1.0121407508850098,27,5497.0,-1.61770761013031,-68,9926.0
5640,0.3353792130947113,-0.16792583465576172,-50,5497.0,-0.3627570867538452,89,9926.0
5650,0.33521756529808044,-0.009231788106262684,143,5497.0,-4.208969593048096,21,9926.0
5660,0.33506008982658386,-1.5601686239242554,-55,5497.0,0.7635791301727295,-162,9926.0
5670,0.33489346504211426,1.7904154062271118,64,5497.0,-6.129055976867676,46,9926.0
5680,0.3347773551940918,-0.5470146536827087,5,5497.0,-1.9835498332977295,-163,9926.0
5690,0.33466118574142456,-0.7918695211410522,-116,5497.0,-4.420226573944092,-42,9926.0
5700,0.3345811069011688,-1.8214619159698486,-55,5497.0,-1.3739312887191772,-62,9926.0
5710,0.3345261514186859,-2.567840814590454,-54,5497.0,-1.9781601428985596,8,9926.0
5720,0.33553096652030945,-7.767708778381348,82,5497.0,5.3976030349731445,140,9926.0
5730,0.33582592010498047,0.7914013266563416,-83,5497.0,3.274465799331665,-17,9926.0
5740,0.3358941376209259,-1.5015714168548584,4,5497.0,0.5496596693992615,264,9926.0
5750,0.3359977900981903,-0.019048018380999565,3,5497.0,-0.03265305608510971,-44,9926.0
5760,0.33609604835510254,0.3273228406906128,-50,5497.0,-2.6079719066619873,52,9926.0
5770,0.33696916699409485,-0.4935302138328552,119,5497.0,-1.9803650379180908,-42,9926.0
5780,0.3371369540691376,-0.1930103898048401,-88,5497.0,0.06252727657556534,-122,9926.0
5790,0.33729100227355957,-0.22580304741859436,14,5497.0,-3.29489803314209,121,9926.0
5800,0.33744266629219055,0.7385714650154114,-7,5497.0,1.0508390665054321,-30,9926.0
5810,0.3370535671710968,0.9345220327377319,-55,5497.0,0.7841700911521912,111,9926.0
5820,0.3372493088245392,1.6274433135986328,86,5497.0,1.4431099891662598,42,9926.0
5830,0.33747294545173645,4.510735034942627,9,5497.0,-2.1325864791870117,-106,9926.0
5840,0.3377115726470947,0.931725800037384,31,5497.0,1.7118796110153198,133,9926.0
5850,0.3383943736553192,1.513763189315796,1,5497.0,2.6755471229553223,-126,9926.0
5860,0.3386569023132324,-1.4849194288253784,-115,5497.0,3.9108643531799316,99,9926.0
5870,0.3389337360858917,-2.0142383575439453,8,5497.0,1.7357205152511597,-28,9926.0
5880,0.33922719955444336,-0.8765325546264648,-116,5497.0,1.0105421543121338,26,9926.0
5890,0.3395251929759979,-1.4141018390655518,66,5497.0,-6.801353454589844,-74,9926.0
5900,0.33922502398490906,0.5560293197631836,-30,5497.0,-2.0450007915496826,-109,9926.0
5910,0.3396226763725281,2.35270357131958,127,5497.0,-4.463286399841309,64,9926.0
5920,0.33993464708328247,3.461987018585205,35,5497.0,-3.20690655708313,-152,9926.0
5930,0.3401820659637451,3.6548407077789307,47,5497.0,-0.8761997222900391,51,9926.0
5940,0.3410549461841583,4.062632083892822,120,5497.0,-0.47389695048332214,-55,9926.0
5950,0.34134092926979065,3.1504111289978027,-4,5497.0,3.0570948123931885,111,9926.0
5960,0.3416000306606293,4.1619391441345215,76,5497.0,1.0377901792526245,56,9926.0
5970,0.3417951762676239,4.6130595207214355,-94,5497.0,1.911511778831482,1,9926.0
5980,0.3427360951900482,4.373928546905518,117,5497.0,1.2960593700408936,27,9926.0
5990,0.34288403391838074,-0.89179927110672,-45,5497.0,-3.6998512744903564,-47,9926.0
6000,0.3429783582687378,-3.3182246685028076,-30,5497.0,-0.9221174716949463,164,9926.0
6010,0.3430280089378357,-3.266842842102051,-114,5497.0,0.20404241979122162,-117,9926.0
6020,0.34305834770202637,-4.677213191986084,-56,5497.0,0.9664353728294373,118,9926.0
6030,0.34381571412086487,-2.157243013381958,26,5497.0,-3.2364230155944824,-241,9926.0
6040,0.34377172589302063,-1.2567527294158936,-79,5497.0,-1.8195642232894897,18,9926.0
6050,0.3436768651008606,-0.13336151838302612,6,5497.0,1.6553947925567627,-118,9926.0
6060,0.343537300825119,0.5756459832191467,-144,5497.0,-1.5700411796569824,44,9926.0
6070,0.34442439675331116,-1.2975142002105713,53,5497.0,1.1726728677749634,-22,9926.0
6080,0.34431904554367065,-1.1073473691940308,-68,5497.0,3.357909679412842,66,9926.0
6090,0.3441416323184967,-0.9085013270378113,79,5497.0,5.278409481048584,170,9926.0
6100,0.343914657831192,0.3366423547267914,-40,5497.0,1.4210067987442017,19,9926.0
6110,0.3436511158943176,-3.799213409423828,6,5497.0,4.8161301612854,181,9926.0
6120,0.3435606360435486,-0.3541578948497772,14,5497.0,-3.075368881225586,-186,9926.0
6130,0.3431939482688904,-2.1492395401000977,-15,5497.0,3.9659812450408936,63,9926.0
6140,0.34325525164604187,-1.1474603414535522,0,5497.0,-0.5206742286682129,-130,9926.0
6150,0.34292301535606384,-0.2814817726612091,-145,5497.0,-2.8712899684906006,12,9926.0
6160,0.3415451645851135,-1.0691176652908325,48,5497.0,-2.1195178031921387,-78,9926.0
6170,0.3411423861980438,-0.7886216640472412,-94,5497.0,-2.3422646522521973,-89,9926.0
6180,0.3407590985298157,1.910293459892273,135,5497.0,-1.3379919528961182,-19,9926.0
6190,0.3403708338737488,1.6240620613098145,-1,5497.0,-2.9031646251678467,-49,9926.0
6200,0.3399884104728699,2.3523030281066895,93,5497.0,3.4273219108581543,206,9926.0
6210,0.3403674364089966,1.875551700592041,56,5497.0,4.770466327667236,28,9926.0
6220,0.33999818563461304,2.046091079711914,40,5497.0,5.290262222290039,192,9926.0
6230,0.3396788537502289,3.350987434387207,175,5497.0,7.610426902770996,123,9926.0
6240,0.3394030034542084,3.13781476020813,14,5497.0,4.409143447875977,-14,9926.0
6250,0.34132689237594604,2.866783618927002,139,5497.0,1.0785049200057983,48,9926.0
6260,0.34114784002304077,1.8481324911117554,54,5497.0,-2.603278160095215,-255,9926.0
6270,0.3409786522388458,0.7791634202003479,-44,5497.0,-1.8629735708236694,-177,9926.0
6280,0.3408600986003876,0.309679239988327,3,5497.0,-12.623505592346191,-220,9926.0
6290,0.34202566742897034,-6.488163948059082,-109,5497.0,-8.468165397644043,-162,9926.0
6300,0.3419577181339264,-7.737808704376221,-45,5497.0,-7.189094543457031,-74,9926.0
6310,0.3419053554534912,-5.407802581787109,-162,5497.0,-3.2469382286071777,-131,9926.0
6320,0.3419227600097656,-5.901576519012451,77,5497.0,5.120213985443115,143,9926.0
6330,0.3419739603996277,-3.038071870803833,-53,5497.0,5.347127437591553,-13,9926.0
6340,0.3432649075984955,1.2932575941085815,61,5497.0,6.4278244972229,218,9926.0
6350,0.3435235321521759,3.512350082397461,112,5497.0,3.9460153579711914,-12,9926.0
6360,0.34365350008010864,4.8494672775268555,-11,5497.0,1.1778285503387451,19,9926.0
6370,0.3438662886619568,2.267498016357422,120,5497.0,2.041693687438965,12,9926.0
6380,0.3448314070701599,1.3105546236038208,-107,5497.0,-0.48532816767692566,-89,9926.0
6390,0.34507012367248535,-0.0030238660983741283,-9,5497.0,-6.362955093383789,39,9926.0
6400,0.3453071713447571,-0.2894570231437683,-34,5497.0,-7.797854423522949,-190,9926.0
6410,0.34556305408477783,-4.013428688049316,-126,5497.0,-8.193585395812988,64,9926.0
6420,0.34573033452033997,-6.986318588256836,-44,5497.0,-5.513089179992676,10,9926.0
6430,0.34443315863609314,-6.418814182281494,-131,5497.0,0.13665415346622467,111,9926.0
6440,0.34449565410614014,-9.311074256896973,-54,5497.0,3.2815988063812256,-41,9926.0
6450,0.3446192741394043,-8.310721397399902,-225,5497.0,3.775562286376953,80,9926.0
6460,0.3446009159088135,-8.659830093383789,-77,5497.0,2.294074058532715,42,9926.0
6470,0.3436591625213623,-4.502651691436768,-180,5497.0,6.9987053871154785,-6,9926.0
6480,0.3436324894428253,-2.130577325820923,5,5497.0,4.735611915588379,65,9926.0
6490,0.34349632263183594,2.3143041133880615,11,5497.0,4.661586284637451,-51,9926.0
6500,0.3433288335800171,5.572713851928711,140,5497.0,-0.19689874351024628,161,9926.0
6510,0.34505507349967957,1.489856481552124,164,5497.0,2.9038634300231934,-54,9926.0
6520,0.34497466683387756,7.663546085357666,164,5497.0,0.11008194833993912,109,9926.0
6530,0.34485697746276855,5.498752593994141,151,5497.0,3.896038293838501,-33,9926.0
6540,0.3447370231151581,5.679516792297363,-16,5497.0,3.207073450088501,2,9926.0
6550,0.34455618262290955,0.3930353820323944,81,5497.0,1.4737045764923096,30,9926.0
6560,0.34536221623420715,1.651641845703125,-80,5497.0,0.3199532926082611,-74,9926.0
6570,0.34525007009506226,2.386690616607666,83,5497.0,-8.21504020690918,-45,9926.0
6580,0.34508460760116577,-2.0728232860565186,-63,5497.0,-1.629289984703064,-54,9926.0
6590,0.34489163756370544,0.00849973876029253,25,5497.0,-3.3317975997924805,92,9926.0
6600,0.3458605706691742,-1.0129073858261108,-4,5497.0,0.9670565724372864,-144,9926.0
6610,0.3456946909427643,0.7700731754302979,2,5497.0,0.8788921236991882,98,9926.0
6620,0.3455505073070526,0.3613336384296417,52,5497.0,1.6765830516815186,-27,9926.0
6630,0.34555017948150635,1.5468521118164062,-63,5497.0,-3.1021339893341064,-11,9926.0
6640,0.34567710757255554,-0.9308009743690491,81,5497.0,-0.4628022611141205,67,9926.0
6650,0.34555763006210327,-0.2369433343410492,-66,5497.0,1.360254168510437,46,9926.0
6660,0.34543144702911377,3.0555574893951416,143,5497.0,-2.054535150527954,68,9926.0
6670,0.3453359007835388,3.1415181159973145,7,5497.0,0.08961045742034912,-40,9926.0
6680,0.34529978036880493,4.020978927612305,132,5497.0,0.5608422160148621,152,9926.0
6690,0.3451451063156128,7.6335577964782715,41,5497.0,-1.8924565315246582,-56,9926.0
6700,0.345018208026886,5.096182346343994,107,5497.0,2.2661073207855225,205,9926.0
6710,0.34490343928337097,3.623648166656494,63,5497.0,-0.2773178517818451,-187,9926.0
6720,0.34475913643836975,0.46172529458999634,27,5497.0,-1.7281161546707153,-24,9926.0
6730,0.34524214267730713,0.7217146754264832,-5,5497.0,-1.124889612197876,-48,9926.0
6740,0.3452376127243042,-2.446625232696533,-83,5497.0,-0.9720469117164612,145,9926.0
6750,0.3452313542366028,-8.438141822814941,-66,5497.0,0.5220215916633606,-31,9926.0
6760,0.34517914056777954,-6.741268634796143,-160,5497.0,-1.5968180894851685,111,9926.0
6770,0.34510311484336853,-8.919561386108398,4,5497.0,-1.7269760370254517,-71,9926.0
6780,0.34541386365890503,-5.513296604156494,-161,5497.0,-4.963103294372559,-27,9926.0
6790,0.34541231393814087,-6.900864124298096,-2,5497.0,-0.5147472620010376,15,9926.0
6800,0.3454384505748749,-5.4953389167785645,-156,5497.0,-3.8914012908935547,58,9926.0
6810,0.34549346566200256,-3.3496456146240234,-14,5497.0,3.919445037841797,115,9926.0
6820,0.3456854522228241,0.9263865351676941,-88,5497.0,3.667649745941162,-4,9926.0
6830,0.34568536281585693,4.475304126739502,-11,5497.0,7.4334001541137695,238,9926.0
6840,0.3456956744194031,3.760537624359131,1,5497.0,-2.528002977371216,52,9926.0
6850,0.3457241356372833,2.677060604095459,59,5497.0,1.9154081344604492,213,9926.0
6860,0.345785915851593,1.7517861127853394,34,5497.0,3.270861864089966,-30,9926.0
6870,0.34634315967559814,-0.3227837085723877,-3,5497.0,-0.5315689444541931,78,9926.0
6880,0.3463021218776703,-1.2997792959213257,-32,5497.0,-0.9630053043365479,-122,9926.0
6890,0.34622544050216675,-2.182830810546875,-181,5497.0,-2.4256980419158936,-28,9926.0
6900,0.3461993932723999,-0.056400932371616364,-112,5497.0,-7.435574531555176,-76,9926.0
6910,0.3456501066684723,-0.9059464931488037,-64,5497.0,-8.387297630310059,9,9926.0
6920,0.345569372177124,0.384162575006485,118,5497.0,0.5215825438499451,-188,9926.0
6930,0.345430850982666,0.32299602031707764,-48,5497.0,-1.480850100517273,54,9926.0
6940,0.34523260593414307,0.5018019676208496,6,5497.0,2.611363172531128,-149,9926.0
6950,0.3446851074695587,1.5807068347930908,26,5497.0,4.1138386726379395,153,9926.0
6960,0.34451743960380554,3.399348258972168,86,5497.0,7.465203285217285,-15,9926.0
6970,0.34440240263938904,2.9540679454803467,2,5497.0,2.9345054626464844,164,9926.0
6980,0.3443700969219208,2.290944814682007,167,5497.0,4.57993745803833,-78,9926.0
6990,0.34430864453315735,2.435124158859253,-10,5497.0,-1.0058518648147583,-37,9926.0
7000,0.34328940510749817,3.5284194946289062,151,5497.0,0.6687897443771362,-34,9926.0
7010,0.3430953621864319,5.075566291809082,-54,5497.0,-7.7292094230651855,-302,9926.0
7020,0.34292706847190857,4.817856788635254,103,5497.0,-1.2371114492416382,63,9926.0
7030,0.3428186774253845,4.229741096496582,19,5497.0,3.555112361907959,-30,9926.0
7040,0.3435870110988617,4.810701847076416,115,5497.0,5.2027435302734375,132,9926.0
7050,0.3435401916503906,3.9138543605804443,55,5497.0,7.405749320983887,0,9926.0
7060,0.34351539611816406,2.375930070877075,50,5497.0,2.2754995822906494,129,9926.0
7070,0.3434317409992218,2.664447069168091,107,5497.0,2.069511651992798,-3,9926.0
7080,0.34340643882751465,0.781653106212616,-3,5497.0,0.5722852349281311,8,9926.0
7090,0.3440706729888916,-1.401939034461975,85,5497.0,1.082696557044983,-16,9926.0
7100,0.3441302478313446,-0.8892278671264648,-141,5497.0,-0.4174256920814514,-83,9926.0
7110,0.34423983097076416,-2.2966933250427246,33,5497.0,-3.1111440658569336,-51,9926.0
7120,0.34425991773605347,-2.166886329650879,-94,5497.0,-5.6660614013671875,-253,9926.0
7130,0.34341204166412354,-0.3428339660167694,40,5497.0,-3.3021745681762695,26,9926.0
7140,0.3434334993362427,-1.4278656244277954,-24,5497.0,1.3878042697906494,-75,9926.0
7150,0.34347689151763916,-0.5370357632637024,-29,5497.0,0.6465749144554138,187,9926.0
7160,0.343463659286499,-1.1776117086410522,35,5497.0,1.280172348022461,71,9926.0
7170,0.34328997135162354,-1.756071925163269,-105,5497.0,1.020465612411499,97,9926.0
7180,0.34324929118156433,-3.2685601711273193,61,5497.0,-4.236311912536621,-89,9926.0
7190,0.3432345688343048,-2.4999663829803467,-157,5497.0,-2.2759251594543457,-156,9926.0
7200,0.3432038128376007,-5.268104553222656,-43,5497.0,-1.9708147048950195,-7,9926.0
7210,0.343148410320282,-3.3669605255126953,-132,5497.0,-2.7570927143096924,-131,9926.0
7220,0.342427521944046,-7.053366661071777,-81,5497.0,-1.6140750646591187,73,9926.0
7230,0.3423934280872345,-4.325963973999023,-50,5497.0,-1.1828974485397339,-102,9926.0
7240,0.3423549234867096,-3.0098111629486084,-104,5497.0,-4.327874660491943,105,9926.0
7250,0.34236907958984375,-6.906769752502441,-5,5497.0,-3.1835219860076904,-68,9926.0
7260,0.34257379174232483,-4.392776012420654,-159,5497.0,-7.2123589515686035,-50,9926.0
7270,0.3425360321998596,-9.293600082397461,-60,5497.0,-3.9338793754577637,-50,9926.0
7280,0.3425125777721405,-4.533264636993408,-166,5497.0,-2.082094192504883,-160,9926.0
7290,0.3425438702106476,-1.7107300758361816,35,5497.0,-5.59596061706543,-60,9926.0
7300,0.34275922179222107,-1.2520840167999268,-11,5497.0,-2.8339529037475586,-178,9926.0
7310,0.3428782820701599,4.905200004577637,16,5497.0,-3.2766194343566895,39,9926.0
7320,0.3429715633392334,2.487931728363037,85,5497.0,2.989058494567871,-35,9926.0
7330,0.34307870268821716,3.38246750831604,10,5497.0,3.844587802886963,70,9926.0
7340,0.34322217106819153,1.252632975578308,173,5497.0,-1.3912092447280884,79,9926.0
7350,0.34245190024375916,-2.9759926795959473,-68,5497.0,-2.62712025642395,-36,9926.0
7360,0.34251970052719116,-0.7729077935218811,29,5497.0,-1.1769745349884033,87,9926.0
7370,0.342678040266037,-0.6165828108787537,-50,5497.0,-2.9739012718200684,-157,9926.0
7380,0.34286895394325256,-0.24657729268074036,-5,5497.0,-1.549077033996582,-35,9926.0
7390,0.3426164984703064,1.88656747341156,23,5497.0,-6.994941711425781,-213,9926.0
7400,0.3427753746509552,2.7081379890441895,-93,5497.0,-7.5023274421691895,8,9926.0
7410,0.34291496872901917,0.16739776730537415,115,5497.0,-4.32604455947876,-116,9926.0
7420,0.34306541085243225,1.4706850051879883,-30,5497.0,-0.7681191563606262,-20,9926.0
7430,0.3432826101779938,3.6826441287994385,154,5497.0,0.8154458403587341,155,9926.0
7440,0.3429906666278839,5.464619159698486,-5,5497.0,1.7491296529769897,36,9926.0
7450,0.3432101011276245,2.7562360763549805,72,5497.0,4.229636192321777,96,9926.0
7460,0.3434196412563324,0.9661284685134888,-79,5497.0,4.4396820068359375,-41,9926.0
7470,0.34355488419532776,-1.6356523036956787,7,5497.0,-0.1010061651468277,229,9926.0
7480,0.3430051803588867,-0.10982554405927658,-41,5497.0,3.0539474487304688,118,9926.0
7490,0.3431214690208435,3.059858798980713,81,5497.0,2.0386760234832764,186,9926.0
7500,0.3432430922985077,6.156719207763672,123,5497.0,-2.135236978530884,-118,9926.0
7510,0.3433825969696045,3.424859046936035,51,5497.0,-4.8531599044799805,-23,9926.0
7520,0.3435207009315491,4.9307475090026855,135,5497.0,-2.6349010467529297,-84,9926.0
7530,0.34189364314079285,4.43068790435791,-44,5497.0,-5.600370407104492,-69,9926.0
7540,0.3420146405696869,6.737527847290039,256,5497.0,-2.397991180419922,-6,9926.0
7550,0.34210750460624695,6.084786415100098,124,5497.0,0.4881875514984131,65,9926.0
7560,0.3422401249408722,5.767955303192139,79,5497.0,4.352948188781738,-99,9926.0
7570,0.341524213552475,5.095556259155273,27,5497.0,5.845144748687744,183,9926.0
7580,0.34166252613067627,1.40358304977417,-21,5497.0,5.121922492980957,22,9926.0
7590,0.34176817536354065,2.1718664169311523,26,5497.0,2.1954445838928223,235,9926.0
7600,0.341863214969635,-1.5382919311523438,-19,5497.0,4.230008125305176,107,9926.0
7610,0.34119364619255066,-2.1046323776245117,-40,5497.0,2.230217933654785,121,9926.0
7620,0.341309130191803,-3.7699687480926514,-58,5497.0,1.7876123189926147,-131,9926.0
7630,0.3414510190486908,-2.8540902137756348,-136,5497.0,0.22581490874290466,120,9926.0
7640,0.34163761138916016,-3.9789037704467773,-52,5497.0,-2.934133529663086,-34,9926.0
7650,0.34184885025024414,-2.878265380859375,-65,5497.0,-5.5362749099731445,83,9926.0
7660,0.34128203988075256,-1.6838085651397705,96,5497.0,-1.5914250612258911,-75,9926.0
7670,0.3414611220359802,1.4498568773269653,2,5497.0,-2.4003024101257324,4,9926.0
7680,0.34163764119148254,-1.9979034662246704,-37,5497.0,1.1389931440353394,-72,9926.0
7690,0.34185704588890076,-5.384067058563232,-208,5497.0,1.055445671081543,56,9926.0
7700,0.341351181268692,-7.785764694213867,-134,5497.0,1.714795470237732,-57,9926.0
7710,0.3415190577507019,-9.683589935302734,-243,5497.0,6.725424766540527,165,9926.0
7720,0.34169241786003113,-12.780755996704102,-115,5497.0,8.171053886413574,59,9926.0
7730,0.34180495142936707,-10.43360710144043,-158,5497.0,6.126249313354492,193,9926.0
7740,0.3427030146121979,-5.820641040802002,-14,5497.0,2.3653759956359863,-10,9926.0
7750,0.3428604304790497,-4.777514934539795,-140,5497.0,5.936352252960205,159,9926.0
7760,0.342903733253479,-2.6756742000579834,-12,5497.0,7.418185234069824,34,9926.0
7770,0.3429624140262604,-1.017484426498413,-125,5497.0,8.69495964050293,195,9926.0
7780,0.3430781960487366,-0.9204668402671814,72,5497.0,4.437013149261475,-1,9926.0
7790,0.3427804410457611,-1.897507667541504,-58,5497.0,0.26870280504226685,88,9926.0
7800,0.34291699528694153,-2.416275978088379,60,5497.0,0.17878493666648865,20,9926.0
7810,0.3430958390235901,-2.7512214183807373,-157,5497.0,2.2565324306488037,79,9926.0
7820,0.3432231545448303,-5.514634132385254,-51,5497.0,3.2809576988220215,-42,9926.0
7830,0.34213700890541077,-8.484689712524414,-276,5497.0,-0.038664549589157104,65,9926.0
7840,0.34226834774017334,-11.071016311645508,-139,5497.0,4.334630966186523,66,9926.0
7850,0.3424225151538849,-11.318506240844727,-238,5497.0,5.136441230773926,198,9926.0
7860,0.3426450490951538,-10.644981384277344,32,5497.0,5.709757328033447,46,9926.0
7870,0.34285831451416016,-5.8058624267578125,-132,5497.0,6.099294662475586,57,9926.0
7880,0.34342461824417114,-3.3668735027313232,29,5497.0,2.6956305503845215,-76,9926.0
7890,0.3435453474521637,-3.111112117767334,-189,5497.0,3.422597646713257,66,9926.0
7900,0.3437933921813965,-4.285364627838135,3,5497.0,-0.4759524464607239,-53,9926.0
7910,0.34389811754226685,-5.868962287902832,-143,5497.0,-1.5065194368362427,44,9926.0
7920,0.3438342809677124,-4.546092510223389,93,5497.0,-1.8077393770217896,-109,9926.0
7930,0.3440534174442291,-1.9058820009231567,-61,5497.0,-3.7030622959136963,-8,9926.0
7940,0.3442792594432831,-6.362858772277832,-97,5497.0,-2.765562057495117,-172,9926.0
7950,0.3444467782974243,-11.79848861694336,-314,5497.0,2.0712835788726807,121,9926.0
7960,0.3439701199531555,-13.386687278747559,-238,5497.0,1.5414984226226807,8,9926.0
7970,0.344068706035614,-13.977104187011719,-175,5497.0,4.186168193817139,282,9926.0
7980,0.34416866302490234,-10.173065185546875,-56,5497.0,3.8960118293762207,-61,9926.0
7990,0.34426945447921753,-2.4891133308410645,-1,5497.0,3.529690980911255,65,9926.0
8000,0.3443882465362549,2.2133524417877197,-24,5497.0,5.066508769989014,-88,9926.0
8010,0.34391823410987854,7.202645778656006,117,5497.0,0.10904749482870102,117,9926.0
8020,0.3440791070461273,8.664933204650879,114,5497.0,2.7773282527923584,16,9926.0
8030,0.34426596760749817,8.928048133850098,229,5497.0,1.2402849197387695,91,9926.0
8040,0.34440210461616516,9.944483757019043,56,5497.0,2.9690475463867188,-47,9926.0
8050,0.34391477704048157,8.642866134643555,149,5497.0,-2.4806759357452393,-36,9926.0
8060,0.3439255356788635,7.0731353759765625,-40,5497.0,-3.615776538848877,-4,9926.0
8070,0.3438609838485718,3.3096699714660645,122,5497.0,-0.2938534617424011,35,9926.0
8080,0.3437751829624176,3.7175989151000977,-9,5497.0,0.9866231083869934,128,9926.0
8090,0.343673437833786,1.2594014406204224,75,5497.0,0.6471384167671204,-124,9926.0
8100,0.3441169261932373,-2.348515510559082,-49,5497.0,5.7369184494018555,128,9926.0
8110,0.3440670669078827,-3.392582654953003,-81,5497.0,4.354080677032471,-178,9926.0
8120,0.34406909346580505,-4.048907279968262,-4,5497.0,2.9094247817993164,-2,9926.0
8130,0.3440796732902527,-0.988224446773529,-114,5497.0,0.5571627616882324,-49,9926.0
8140,0.3452601730823517,-1.3066356182098389,76,5497.0,2.8712077140808105,98,9926.0
8150,0.34533196687698364,1.802812933921814,-30,5497.0,-0.9075694680213928,-31,9926.0
8160,0.3453502058982849,-1.3382829427719116,-13,5497.0,-2.593024492263794,-257,9926.0
8170,0.34532544016838074,2.41782808303833,-69,5497.0,-6.622762680053711,61,9926.0
8180,0.3452698886394501,0.6871626973152161,-3,5497.0,-0.41634121537208557,-92,9926.0
8190,0.34416916966438293,0.9281895160675049,75,5497.0,-2.9248645305633545,86,9926.0
8200,0.3440229594707489,1.343643307685852,36,5497.0,4.811474800109863,95,9926.0
8210,0.3438975512981415,4.752861022949219,85,5497.0,8.521650314331055,257,9926.0
8220,0.34383052587509155,5.493556499481201,52,5497.0,9.837230682373047,-16,9926.0
8230,0.34427517652511597,3.9291040897369385,99,5497.0,7.997828960418701,131,9926.0
8240,0.34429702162742615,5.858563423156738,-4,5497.0,3.887152671813965,-29,9926.0
8250,0.3443434536457062,3.87787127494812,120,5497.0,1.4584711790084839,116,9926.0
8260,0.34436550736427307,-1.5164610147476196,-30,5497.0,-0.9674297571182251,-34,9926.0
8270,0.34462970495224,1.6399224996566772,72,5497.0,-3.4864776134490967,31,9926.0
8280,0.3446592390537262,1.0421313047409058,-67,5497.0,-8.632896423339844,-192,9926.0
8290,0.3447690010070801,-1.4278932809829712,2,5497.0,-5.3728108406066895,-28,9926.0
8300,0.3448905646800995,1.398072600364685,-89,5497.0,-6.136953830718994,-131,9926.0
8310,0.345029354095459,3.032611131668091,140,5497.0,-3.8103439807891846,2,9926.0
8320,0.3443344533443451,4.417814254760742,6,5497.0,0.5053772926330566,46,9926.0
8330,0.3444206118583679,2.4132466316223145,195,5497.0,6.245087623596191,84,9926.0
8340,0.3444513976573944,2.81661319732666,1,5497.0,5.615528106689453,135,9926.0
8350,0.34445083141326904,2.5096640586853027,90,5497.0,7.2733893394470215,5,9926.0
8360,0.3438294529914856,2.8292624950408936,-120,5497.0,10.996318817138672,130,9926.0
8370,0.34379085898399353,1.564665675163269,39,5497.0,2.051830291748047,-24,9926.0
8380,0.34379681944847107,5.419692039489746,33,5497.0,-6.694074630737305,55,9926.0
8390,0.3438553214073181,2.235015630722046,119,5497.0,-8.396738052368164,-113,9926.0
8400,0.34365397691726685,2.041555643081665,-18,5497.0,-4.472968101501465,-10,9926.0
8410,0.343801885843277,-1.1528916358947754,7,5497.0,-2.804717540740967,-279,9926.0
8420,0.34379902482032776,-0.7638516426086426,-67,5497.0,-5.231801986694336,-20,9926.0
8430,0.3440534770488739,0.6653785705566406,-21,5497.0,3.2780210971832275,-27,9926.0
8440,0.3440457880496979,-1.5278141498565674,16,5497.0,2.5900838375091553,174,9926.0
8450,0.3437389135360718,-0.8780805468559265,-1,5497.0,1.4963189363479614,-85,9926.0
8460,0.34373340010643005,1.272221565246582,89,5497.0,6.180771350860596,89,9926.0
8470,0.3438521921634674,2.0357112884521484,24,5497.0,2.990730047225952,-106,9926.0
8480,0.34385645389556885,3.4863312244415283,96,5497.0,-2.8333470821380615,-9,9926.0
8490,0.34471312165260315,6.1221022605896,44,5497.0,-2.638310432434082,-113,9926.0
8500,0.34486252069473267,8.077800750732422,245,5497.0,-1.3989989757537842,112,9926.0
8510,0.3449900448322296,6.9452128410339355,150,5497.0,-3.3870298862457275,-44,9926.0
8520,0.3450712263584137,6.450211524963379,221,5497.0,-2.344916582107544,-119,9926.0
8530,0.3451538383960724,6.9761881828308105,-6,5497.0,-9.685012817382812,-172,9926.0
8540,0.34692147374153137,2.709273099899292,28,5497.0,-2.422632932662964,-153,9926.0
8550,0.3469255268573761,-1.0042340755462646,-100,5497.0,-1.2773525714874268,91,9926.0
8560,0.3472512364387512,-1.2313021421432495,-51,5497.0,-3.9362971782684326,-64,9926.0
8570,0.347281277179718,-0.38622912764549255,52,5497.0,-1.5795432329177856,71,9926.0
8580,0.34754306077957153,-0.08886886388063431,-81,5497.0,-1.7562263011932373,-82,9926.0
8590,0.3475634455680847,-1.5157549381256104,19,5497.0,-0.28723880648612976,23,9926.0
8600,0.34804660081863403,0.48471519351005554,-145,5497.0,0.021943768486380577,29,9926.0
8610,0.34803491830825806,-0.49666863679885864,91,5497.0,-0.9220936894416809,-21,9926.0
8620,0.34962543845176697,3.0649759769439697,43,5497.0,-4.9686408042907715,-44,9926.0
8630,0.34962406754493713,3.7036728858947754,261,5497.0,-8.28683853149414,-196,9926.0
8640,0.34994804859161377,4.063365936279297,30,5497.0,-5.9790730476379395,-94,9926.0
8650,0.3502274453639984,4.681779384613037,60,5497.0,-4.182712078094482,-188,9926.0
8660,0.35042786598205566,1.3696870803833008,8,5497.0,-3.561533212661743,21,9926.0
8670,0.3503718972206116,1.5083528757095337,-32,5497.0,-1.4601284265518188,-24,9926.0
8680,0.3504542112350464,-1.6541372537612915,25,5497.0,1.0258110761642456,106,9926.0
8690,0.35049667954444885,-1.564160704612732,-56,5497.0,-2.6378064155578613,-2,9926.0
8700,0.3505105674266815,-3.5780577659606934,-5,5497.0,-3.5022523403167725,-80,9926.0
8710,0.350712388753891,-4.7601447105407715,-201,5497.0,0.3453541696071625,99,9926.0
8720,0.3507453203201294,-2.4421658515930176,39,5497.0,0.26956477761268616,-34,9926.0
8730,0.35077396035194397,-0.15066203474998474,4,5497.0,-3.5699381828308105,50,9926.0
8740,0.3508128523826599,4.034540176391602,107,5497.0,-5.394800662994385,-122,9926.0
8750,0.35083189606666565,4.634068965911865,43,5497.0,-4.746617317199707,17,9926.0
8760,0.349653035402298,5.406230926513672,40,5497.0,-3.2983310222625732,-166,9926.0
8770,0.34943702816963196,4.230096817016602,98,5497.0,-3.499333620071411,46,9926.0
8780,0.34920355677604675,6.415325164794922,83,5497.0,-2.9538016319274902,82,9926.0
8790,0.34893491864204407,2.7854392528533936,66,5497.0,2.977574586868286,-5,9926.0
8800,0.34835389256477356,3.504662036895752,72,5497.0,2.122297763824463,104,9926.0
8810,0.34797409176826477,1.1936619281768799,-14,5497.0,6.139917373657227,-79,9926.0
8820,0.3476174771785736,0.13829196989536285,-9,5497.0,3.4033873081207275,171,9926.0
8830,0.3473357856273651,2.7102487087249756,10,5497.0,5.715554237365723,30,9926.0
8840,0.3466270864009857,3.2066075801849365,89,5497.0,5.651196479797363,254,9926.0
8850,0.3462919592857361,6.4130682945251465,107,5497.0,3.1125080585479736,-34,9926.0
8860,0.3459494709968567,6.445026874542236,170,5497.0,0.7866894602775574,108,9926.0
8870,0.3455817699432373,4.646829128265381,74,5497.0,1.6966724395751953,-117,9926.0
8880,0.34520211815834045,5.885936260223389,121,5497.0,0.14998961985111237,47,9926.0
8890,0.3441180884838104,3.9203083515167236,41,5497.0,4.0229811668396,-148,9926.0
8900,0.3437107503414154,3.5156543254852295,84,5497.0,-0.18671230971813202,104,9926.0
8910,0.34330135583877563,1.631553053855896,-61,5497.0,3.245856761932373,-60,9926.0
8920,0.34294459223747253,-1.2719335556030273,-25,5497.0,3.028919219970703,142,9926.0
8930,0.3423849642276764,-1.6172882318496704,-76,5497.0,2.098942518234253,-69,9926.0
8940,0.34207186102867126,-5.170294761657715,-70,5497.0,3.234102964401245,134,9926.0
8950,0.3417438864707947,-4.259446620941162,-88,5497.0,4.091078758239746,-34,9926.0
8960,0.3414362967014313,-0.31462982296943665,-16,5497.0,1.1635411977767944,134,9926.0
8970,0.34146884083747864,-0.8132227659225464,74,5497.0,-1.1105073690414429,-59,9926.0
8980,0.34128835797309875,1.2831425666809082,7,5497.0,0.44288334250450134,53,9926.0
8990,0.3411705195903778,1.470956802368164,102,5497.0,-1.4040429592132568,-79,9926.0
9000,0.34110432863235474,-0.9190943837165833,-37,5497.0,-0.5157755017280579,51,9926.0
9010,0.3410492241382599,-4.166361331939697,5,5497.0,4.524861812591553,139,9926.0
9020,0.3409954607486725,-6.867405414581299,-209,5497.0,2.9741947650909424,102,9926.0
9030,0.340987890958786,-9.924610137939453,-73,5497.0,-0.5172864198684692,85,9926.0
9040,0.3410288691520691,-11.790414810180664,-257,5497.0,2.139374017715454,-21,9926.0
9050,0.3411225974559784,-9.345742225646973,-103,5497.0,2.028455972671509,166,9926.0
9060,0.34039196372032166,-1.171923279762268,37,5497.0,0.42020654678344727,-34,9926.0
9070,0.34052562713623047,0.279924213886261,-80,5497.0,-0.1806461662054062,3,9926.0
9080,0.34071218967437744,-2.8914051055908203,28,5497.0,-1.5556676387786865,7,9926.0
9090,0.34095299243927,0.850216805934906,-41,5497.0,1.4671852588653564,-154,9926.0
9100,0.34121623635292053,5.577809810638428,186,5497.0,-2.4892051219940186,63,9926.0
9110,0.34168103337287903,5.315620422363281,103,5497.0,2.548218250274658,-154,9926.0
9120,0.34191709756851196,5.547303199768066,-2,5497.0,-2.5038554668426514,21,9926.0
9130,0.3421730697154999,3.478297710418701,101,5497.0,2.251699924468994,-62,9926.0
9140,0.342483788728714,0.42024490237236023,-160,5497.0,0.5455052256584167,47,9926.0
9150,0.3409757912158966,-5.033087730407715,-81,5497.0,2.50608491897583,30,9926.0
9160,0.34117060899734497,-6.256870746612549,-199,5497.0,1.7602813243865967,-67,9926.0
9170,0.34132567048072815,-9.134744644165039,-119,5497.0,1.5208096504211426,116,9926.0
9180,0.3414933979511261,-8.045194625854492,-142,5497.0,-0.9424579739570618,-122,9926.0
9190,0.3425622284412384,-3.1815412044525146,-59,5497.0,-0.8325327634811401,158,9926.0
9200,0.34282565116882324,-0.17205910384655,23,5497.0,-1.4770402908325195,14,9926.0
9210,0.3430772125720978,2.460949659347534,-37,5497.0,-0.5101220607757568,25,9926.0
9220,0.3433294892311096,3.9291372299194336,199,5497.0,6.133266448974609,102,9926.0
9230,0.3436099886894226,8.379803657531738,44,5497.0,5.472050189971924,74,9926.0
9240,0.3439512848854065,6.244369983673096,151,5497.0,6.230345726013184,192,9926.0
9250,0.3442578613758087,7.466831207275391,65,5497.0,2.2246084213256836,-15,9926.0
9260,0.34451255202293396,3.2876875400543213,79,5497.0,0.6096977591514587,127,9926.0
9270,0.3447372615337372,-1.9755363464355469,1,5497.0,1.4172207117080688,-161,9926.0
9280,0.34382617473602295,-3.236757516860962,-73,5497.0,-4.2939581871032715,28,9926.0
9290,0.34406939148902893,-6.463642597198486,-69,5497.0,-1.8264931440353394,-105,9926.0
9300,0.3443174362182617,-7.8924994468688965,-240,5497.0,-6.442476749420166,4,9926.0
9310,0.344527006149292,-10.29880142211914,-78,5497.0,0.07086946070194244,-108,9926.0
9320,0.344742089509964,-7.136447429656982,-230,5497.0,-1.9329415559768677,-14,9926.0
9330,0.34414389729499817,-2.4612669944763184,-14,5497.0,4.764550685882568,76,9926.0
9340,0.3443320393562317,-0.04356459900736809,-49,5497.0,5.545825481414795,-9,9926.0
9350,0.34456807374954224,3.0158965587615967,125,5497.0,6.029788494110107,140,9926.0
9360,0.3447999060153961,6.211690425872803,68,5497.0,9.1774263381958,0,9926.0
9370,0.3446151912212372,6.684881210327148,113,5497.0,5.264759063720703,208,9926.0
9380,0.34477943181991577,8.821626663208008,72,5497.0,5.043558120727539,83,9926.0
9390,0.34495773911476135,1.467437505722046,161,5497.0,-3.9418694972991943,-67,9926.0
9400,0.34515100717544556,0.6429240703582764,8,5497.0,-6.413711071014404,-205,9926.0
9410,0.34519901871681213,-0.6073323488235474,1,5497.0,-11.141778945922852,-87,9926.0
9420,0.3453347384929657,-2.816983461380005,-40,5497.0,-9.021917343139648,-220,9926.0
9430,0.34544527530670166,-5.006428241729736,-118,5497.0,-10.495039939880371,-31,9926.0
9440,0.3455321490764618,-7.1869330406188965,-122,5497.0,-4.329954147338867,-122,9926.0
9450,0.3456471860408783,-5.612061500549316,-133,5497.0,-0.6796825528144836,110,9926.0
9460,0.34626680612564087,-4.81403112411499,55,5497.0,4.2624616622924805,13,9926.0
9470,0.3464635908603668,-6.227977752685547,-106,5497.0,-0.4431186020374298,-16,9926.0
9480,0.3466278314590454,-0.7414602637290955,86,5497.0,1.9178467988967896,-71,9926.0
9490,0.34679481387138367,4.663582801818848,25,5497.0,-2.8604462146759033,-141,9926.0
9500,0.34768497943878174,11.536393165588379,241,5497.0,-1.2046399116516113,-44,9926.0
9510,0.34797269105911255,11.436782836914062,132,5497.0,0.027932556346058846,-159,9926.0
9520,0.3482270836830139,15.205079078674316,303,5497.0,-5.539945602416992,7,9926.0
9530,0.3484635651111603,11.203425407409668,172,5497.0,-0.8657290935516357,-76,9926.0
9540,0.3487403392791748,10.649540901184082,188,5497.0,-1.920312762260437,122,9926.0
9550,0.3486025333404541,8.780620574951172,108,5497.0,0.08868410438299179,-61,9926.0
9560,0.3487720191478729,5.2216315269470215,166,5497.0,0.40126833319664,77,9926.0
9570,0.3490016460418701,2.9091804027557373,4,5497.0,3.5254414081573486,-6,9926.0
9580,0.3492412865161896,3.450017213821411,108,5497.0,2.4963557720184326,82,9926.0
9590,0.349668949842453,2.221524238586426,-26,5497.0,-0.07622635364532471,-150,9926.0
9600,0.34989503026008606,0.634869396686554,48,5497.0,2.9163265228271484,53,9926.0
9610,0.35007938742637634,0.33408164978027344,-81,5497.0,1.437788724899292,-47,9926.0
9620,0.35023006796836853,2.3215742111206055,157,5497.0,-2.8693015575408936,-55,9926.0
9630,0.35095927119255066,-0.36392414569854736,36,5497.0,-6.043191909790039,-15,9926.0
9640,0.3511584997177124,1.541116714477539,173,5497.0,-6.5151753425598145,-63,9926.0
9650,0.3513682186603546,4.6535234451293945,-20,5497.0,-2.5469179153442383,-3,9926.0
9660,0.35158371925354004,5.7607421875,127,5497.0,-1.9382374286651611,-117,9926.0
9670,0.3518655598163605,6.78743839263916,58,5497.0,1.9446417093276978,154,9926.0
9680,0.3524699807167053,3.4238288402557373,16,5497.0,4.045340061187744,56,9926.0
9690,0.35274624824523926,1.2138656377792358,43,5497.0,1.723332166671753,195,9926.0
9700,0.35302862524986267,-0.3655487298965454,-67,5497.0,1.8093515634536743,69,9926.0
9710,0.3533123731613159,-3.7168078422546387,28,5497.0,1.764129638671875,-73,9926.0
9720,0.35220852494239807,-2.1208486557006836,-227,5497.0,-2.262402057647705,-112,9926.0
9730,0.35235974192619324,-4.222105979919434,-66,5497.0,-2.7708966732025146,-59,9926.0
9740,0.35244932770729065,-2.6843085289001465,-53,5497.0,-1.0063543319702148,175,9926.0
9750,0.3524796664714813,-2.333578586578369,-27,5497.0,2.3322768211364746,-39,9926.0
9760,0.35043418407440186,-1.7396667003631592,63,5497.0,1.4370988607406616,-69,9926.0
9770,0.3502839505672455,-0.06095840409398079,-148,5497.0,1.7381359338760376,31,9926.0
9780,0.35018351674079895,1.0296047925949097,12,5497.0,0.669032096862793,-24,9926.0
9790,0.34997043013572693,1.2021881341934204,34,5497.0,-1.2686563730239868,159,9926.0
9800,0.3497052788734436,-0.5331062078475952,-36,5497.0,-0.9371080994606018,-169,9926.0
9810,0.3493348956108093,-0.5974518656730652,14,5497.0,1.8560656309127808,88,9926.0
9820,0.34902897477149963,1.4876282215118408,-134,5497.0,1.2663620710372925,47,9926.0
9830,0.3486795425415039,2.5288448333740234,123,5497.0,5.045557975769043,109,9926.0
9840,0.34829774498939514,3.1804275512695312,42,5497.0,8.150609016418457,243,9926.0
9850,0.34721672534942627,2.9170005321502686,92,5497.0,7.69989538192749,40,9926.0
9860,0.3468770682811737,4.669105529785156,115,5497.0,4.3568115234375,88,9926.0
9870,0.3465603291988373,3.2903101444244385,26,5497.0,4.4640021324157715,-62,9926.0
9880,0.34631043672561646,0.40801745653152466,51,5497.0,4.812399387359619,81,9926.0
9890,0.34607431292533875,2.65907883644104,35,5497.0,-1.1331828832626343,-100,9926.0
9900,0.34547698497772217,-2.174556016921997,84,5497.0,0.4860244393348694,-3,9926.0
9910,0.34521040320396423,-2.9792330265045166,-145,5497.0,-8.671147346496582,-147,9926.0
9920,0.3449499011039734,-4.929110527038574,-73,5497.0,-3.962348222732544,-128,9926.0
9930,0.344684898853302,-3.1234419345855713,-194,5497.0,-2.9757590293884277,-62,9926.0
9940,0.34385809302330017,-2.667898178100586,54,5497.0,-0.41447973251342773,-36,9926.0
9950,0.3435859978199005,-3.9258828163146973,-66,5497.0,0.8452746868133545,65,9926.0
9960,0.3434000611305237,-4.109567165374756,69,5497.0,5.671658992767334,63,9926.0
9970,0.34326809644699097,-4.008642673492432,-114,5497.0,4.118137359619141,52,9926.0
9980,0.3432244658470154,-3.442843437194824,-6,5497.0,1.5027282238006592,-67,9926.0
9990,0.3423238694667816,-2.267810344696045,-151,5497.0,-2.8069825172424316,102,9926.0
10000,0.3423076868057251,-5.1520867347717285,40,5497.0,-3.7859790325164795,-206,9926.0
10010,0.34230703115463257,-3.828380584716797,-53,5497.0,-4.095141887664795,-78,9926.0
10020,0.34232649207115173,-3.6115286350250244,-98,5497.0,-9.535242080688477,-235,9926.0
10030,0.3406532108783722,-6.155206680297852,-41,5497.0,-3.1558146476745605,-3,9926.0
10040,0.34069278836250305,-1.720490574836731,-82,5497.0,-2.5910651683807373,-55,9926.0
10050,0.3408185541629791,-3.361109733581543,41,5497.0,-2.113288164138794,89,9926.0
10060,0.3409784734249115,-1.824209213256836,-92,5497.0,-5.186704635620117,-90,9926.0
10070,0.3422474265098572,-4.15632438659668,18,5497.0,-1.1649456024169922,-14,9926.0
10080,0.34253883361816406,-2.296581268310547,-143,5497.0,-2.5219998359680176,-151,9926.0
10090,0.34285619854927063,-0.7099018692970276,84,5497.0,-9.047868728637695,-85,9926.0
10100,0.3431541919708252,-3.3073830604553223,-118,5497.0,-2.2220354080200195,-38,9926.0
10110,0.34345799684524536,-5.763526916503906,34,5497.0,-0.4091545045375824,-60,9926.0
10120,0.34229180216789246,-4.306428909301758,-102,5497.0,-6.203845024108887,-21,9926.0
10130,0.342612087726593,-3.594931125640869,-7,5497.0,-3.235973834991455,-205,9926.0
10140,0.34298521280288696,-0.10084376484155655,-170,5497.0,-2.714345693588257,28,9926.0
10150,0.3434324264526367,-1.9622026681900024,-99,5497.0,-2.4738638401031494,-68,9926.0
10160,0.3439549207687378,-1.8118218183517456,-36,5497.0,-1.760764718055725,172,9926.0
10170,0.344512015581131,-2.502657175064087,-41,5497.0,3.6024651527404785,18,9926.0
10180,0.3450941741466522,-2.9177870750427246,16,5497.0,4.692715167999268,154,9926.0
10190,0.34560996294021606,-3.591006278991699,-221,5497.0,9.223017692565918,28,9926.0
10200,0.34529608488082886,-1.4308677911758423,12,5497.0,2.619479179382324,26,9926.0
10210,0.3456432521343231,-1.1016902923583984,-54,5497.0,7.422641754150391,162,9926.0
10220,0.34591972827911377,-1.9622611999511719,120,5497.0,4.347785472869873,-21,9926.0
10230,0.3461838960647583,-2.325880765914917,-60,5497.0,4.0973100662231445,13,9926.0
10240,0.34645628929138184,-0.22662170231342316,-12,5497.0,-0.23164597153663635,-62,9926.0
10250,0.34722310304641724,-0.7901356220245361,-28,5497.0,1.9849557876586914,157,9926.0
10260,0.34756898880004883,-0.9993417263031006,93,5497.0,-0.4234742224216461,-135,9926.0
10270,0.34788262844085693,0.6155077219009399,37,5497.0,-0.01625036634504795,-31,9926.0
10280,0.34822338819503784,1.6098254919052124,-27,5497.0,0.4747081995010376,-167,9926.0
10290,0.34948763251304626,-0.45750561356544495,34,5497.0,-0.7930078506469727,143,9926.0
10300,0.3498445749282837,-0.9821084141731262,-9,5497.0,2.375248908996582,38,9926.0
10310,0.3501785695552826,-1.3688063621520996,97,5497.0,0.47826191782951355,97,9926.0
10320,0.3505135774612427,-1.4747154712677002,-160,5497.0,4.237834453582764,33,9926.0
10330,0.3508339822292328,2.9214749336242676,80,5497.0,5.1658453941345215,150,9926.0
10340,0.35196784138679504,2.0863521099090576,16,5497.0,9.133718490600586,223,9926.0
10350,0.35225826501846313,1.5728132724761963,122,5497.0,7.048303604125977,81,9926.0
10360,0.3526116907596588,0.5353742241859436,-3,5497.0,8.378164291381836,130,9926.0
10370,0.35297614336013794,2.636536121368408,59,5497.0,4.220090866088867,88,9926.0
10380,0.3531908392906189,1.6152857542037964,74,5497.0,-1.5573358535766602,142,9926.0
10390,0.35352787375450134,1.9641878604888916,-13,5497.0,-4.117002487182617,-203,9926.0
10400,0.35381925106048584,1.9751743078231812,1,5497.0,-3.9191792011260986,-2,9926.0
10410,0.354067862033844,1.7451938390731812,-11,5497.0,-4.636075019836426,-107,9926.0
10420,0.3541903495788574,0.16220678389072418,178,5497.0,-4.279648303985596,-93,9926.0
10430,0.35438933968544006,3.7889797687530518,-102,5497.0,-4.0267157554626465,-42,9926.0
10440,0.35454851388931274,2.165436029434204,54,5497.0,-4.527927398681641,-63,9926.0
10450,0.3546457290649414,-1.4457591772079468,-13,5497.0,1.2794551849365234,139,9926.0
10460,0.354693740606308,-2.6347227096557617,-29,5497.0,3.0219287872314453,-85,9926.0
10470,0.3532104790210724,-3.9859619140625,-85,5497.0,5.5592474937438965,84,9926.0
10480,0.35311394929885864,-2.2727880477905273,-93,5497.0,5.934450626373291,52,9926.0
10490,0.3530086278915405,-2.7256293296813965,128,5497.0,5.806888103485107,46,9926.0
10500,0.35292503237724304,-3.2478129863739014,-212,5497.0,3.2020392417907715,26,9926.0
10510,0.35290971398353577,-2.1837961673736572,39,5497.0,0.6667096018791199,64,9926.0
10520,0.3528674244880676,-0.21928034722805023,-19,5497.0,-3.915137529373169,-15,9926.0
10530,0.35283830761909485,0.3384561836719513,78,5497.0,-4.934064865112305,-179,9926.0
10540,0.35279107093811035,0.0985356792807579,-81,5497.0,-8.655041694641113,-72,9926.0
10550,0.352676123380661,0.41232892870903015,113,5497.0,-6.698911190032959,-93,9926.0
10560,0.35064077377319336,1.49257493019104,-32,5497.0,-10.665621757507324,-61,9926.0
10570,0.3502993881702423,2.2435050010681152,11,5497.0,-7.883825302124023,-181,9926.0
10580,0.34995993971824646,1.8181401491165161,27,5497.0,-3.289780616760254,191,9926.0
10590,0.34957101941108704,5.435598850250244,41,5497.0,-3.0691261291503906,-26,9926.0
10600,0.3483198881149292,3.9995217323303223,28,5497.0,7.000706195831299,270,9926.0
10610,0.34800368547439575,-0.3289280831813812,-78,5497.0,9.590895652770996,113,9926.0
10620,0.34767258167266846,-0.8710622191429138,102,5497.0,10.130843162536621,1,9926.0
10630,0.3473736047744751,1.9016920328140259,-139,5497.0,6.135989189147949,106,9926.0
10640,0.3455037772655487,0.2632695734500885,117,5497.0,1.1214133501052856,19,9926.0
10650,0.3450533449649811,1.433770775794983,30,5497.0,-1.8489717245101929,-52,9926.0
10660,0.3446189761161804,3.703886032104492,97,5497.0,-7.929719924926758,-181,9926.0
10670,0.3441874086856842,6.772141456604004,-35,5497.0,-8.338207244873047,-136,9926.0
10680,0.3438134491443634,7.1934590339660645,289,5497.0,-8.309000968933105,-38,9926.0
10690,0.3433026671409607,9.28741455078125,69,5497.0,-0.16376322507858276,-58,9926.0
10700,0.342950701713562,8.91830825805664,182,5497.0,-0.6663551926612854,23,9926.0
10710,0.34259355068206787,3.7612178325653076,-96,5497.0,6.555150985717773,61,9926.0
10720,0.34224507212638855,0.4510669410228729,41,5497.0,1.5651671886444092,203,9926.0
10730,0.34234538674354553,-1.58273446559906,-22,5497.0,4.347933769226074,-47,9926.0
10740,0.3421480655670166,-4.385892391204834,-34,5497.0,2.89144229888916,82,9926.0
10750,0.34202107787132263,-5.158070087432861,-165,5497.0,-0.3805963099002838,-179,9926.0
10760,0.34193938970565796,-8.262360572814941,-137,5497.0,-6.054266452789307,96,9926.0
10770,0.3419095277786255,-5.192296504974365,-11,5497.0,-6.643594741821289,-137,9926.0
10780,0.33914119005203247,-2.2543065547943115,-26,5497.0,-8.476128578186035,-114,9926.0
10790,0.33903199434280396,1.33402419090271,84,5497.0,-9.783074378967285,-209,9926.0
10800,0.3390197455883026,3.534883975982666,-114,5497.0,-5.262083053588867,-6,9926.0
10810,0.3390718698501587,2.455056667327881,167,5497.0,-2.264214038848877,61,9926.0
10820,0.33833643794059753,4.123765468597412,16,5497.0,0.6129137277603149,40,9926.0
10830,0.3384006917476654,5.926790714263916,150,5497.0,2.413975238800049,85,9926.0
10840,0.3384801149368286,4.327084064483643,-68,5497.0,2.2554779052734375,-73,9926.0
10850,0.33856937289237976,-1.22417414188385,-11,5497.0,5.3275322914123535,213,9926.0
10860,0.3383864462375641,0.47331205010414124,-6,5497.0,-1.4251177310943604,-21,9926.0
10870,0.3385827839374542,-1.6045637130737305,-4,5497.0,-2.0580859184265137,-24,9926.0
10880,0.338805615901947,-1.0307537317276,-3,5497.0,-5.6821184158325195,-250,9926.0
10890,0.3390432298183441,2.908477544784546,-84,5497.0,-3.873610258102417,-32,9926.0
10900,0.3393406569957733,5.066646099090576,219,5497.0,-3.526836633682251,33,9926.0
10910,0.33911556005477905,7.701961994171143,119,5497.0,-6.052387714385986,-82,9926.0
10920,0.3394611179828644,6.290766716003418,198,5497.0,-2.895984411239624,-27,9926.0
10930,0.3397422134876251,7.7357330322265625,-15,5497.0,-0.35016071796417236,-89,9926.0
10940,0.34006690979003906,4.731034755706787,173,5497.0,-6.8606181144714355,11,9926.0
10950,0.33903026580810547,6.489672660827637,94,5497.0,3.898874282836914,29,9926.0
10960,0.339261531829834,5.359895706176758,167,5497.0,3.1803781986236572,156,9926.0
10970,0.33947694301605225,2.170971155166626,-57,5497.0,4.417857646942139,-90,9926.0
10980,0.33976033329963684,1.7675076723098755,-28,5497.0,5.7338080406188965,152,9926.0
10990,0.34041255712509155,-3.3072407245635986,-101,5497.0,7.687448501586914,103,9926.0
11000,0.3407687246799469,-4.14016580581665,53,5497.0,6.048482418060303,154,9926.0
11010,0.34109947085380554,-6.555716037750244,-146,5497.0,1.7710298299789429,-211,9926.0
11020,0.3414139747619629,-1.8545904159545898,-28,5497.0,1.916560411453247,11,9926.0
11030,0.3417114317417145,-0.4061606526374817,-56,5497.0,2.173170566558838,-27,9926.0
11040,0.3417392075061798,2.287233591079712,163,5497.0,0.593427836894989,74,9926.0
11050,0.34207862615585327,5.106362819671631,46,5497.0,3.620570659637451,-138,9926.0
11060,0.34244322776794434,5.066967487335205,82,5497.0,1.2191650867462158,64,9926.0
11070,0.34284070134162903,3.0057570934295654,-26,5497.0,3.9108102321624756,47,9926.0
11080,0.3435590863227844,3.328411817550659,94,5497.0,4.768751621246338,216,9926.0
11090,0.3439626693725586,-1.497124195098877,-68,5497.0,3.434962272644043,-40,9926.0
11100,0.34436342120170593,-3.1278164386749268,-32,5497.0,2.489816665649414,55,9926.0
11110,0.3448043167591095,-2.5060486793518066,-102,5497.0,0.18427076935768127,1,9926.0
11120,0.34526339173316956,-3.681959867477417,50,5497.0,0.08417339622974396,128,9926.0
11130,0.345659077167511,-3.3515098094940186,-86,5497.0,-2.2163751125335693,-159,9926.0
11140,0.34617680311203003,-0.6034412384033203,-46,5497.0,0.13485094904899597,71,9926.0
11150,0.34669992327690125,-0.04989537596702576,-38,5497.0,0.034762803465127945,-42,9926.0
11160,0.34719911217689514,0.5939394235610962,172,5497.0,-0.6309318542480469,41,9926.0
11170,0.3473815619945526,2.177699327468872,-41,5497.0,-0.3064672350883484,-118,9926.0
11180,0.34779131412506104,2.2213447093963623,58,5497.0,-1.4283257722854614,11,9926.0
11190,0.3481934368610382,3.072802782058716,-16,5497.0,-0.6157034635543823,70,9926.0
11200,0.3485865890979767,0.7635975480079651,159,5497.0,2.599005699157715,-4,9926.0
11210,0.34897199273109436,2.307385206222534,-155,5497.0,-0.7961978912353516,28,9926.0
11220,0.3493141829967499,-3.4660720825195312,21,5497.0,0.9051191806793213,-35,9926.0
11230,0.3496313691139221,-3.6190407276153564,-83,5497.0,-0.6829146146774292,62,9926.0
11240,0.34992724657058716,-2.8565735816955566,-112,5497.0,-2.3597404956817627,-95,9926.0
11250,0.3501931130886078,-3.7626171112060547,93,5497.0,-3.2236807346343994,68,9926.0
11260,0.350728303194046,-3.7590930461883545,-55,5497.0,-2.2464780807495117,-133,9926.0
11270,0.3508988618850708,-1.4575552940368652,-25,5497.0,-5.525071144104004,-79,9926.0
11280,0.3510098159313202,-0.8535079956054688,-43,5497.0,-4.146831035614014,-77,9926.0
11290,0.3511282503604889,-0.7415353655815125,169,5497.0,-5.824822425842285,-81,9926.0
11300,0.3507636487483978,3.1829299926757812,-78,5497.0,-2.93216609954834,-74,9926.0
11310,0.35084086656570435,1.9235256910324097,94,5497.0,-1.7556179761886597,8,9926.0
11320,0.35089269280433655,-1.9440057277679443,-29,5497.0,0.9984374642372131,167,9926.0
11330,0.35092049837112427,-3.9051289558410645,-14,5497.0,2.0751466751098633,-172,9926.0
11340,0.35086268186569214,-3.316331624984741,-128,5497.0,0.802650511264801,149,9926.0
11350,0.3504045605659485,-3.4194111824035645,16,5497.0,1.8328131437301636,31,9926.0
11360,0.3502187728881836,-1.0920602083206177,-1,5497.0,1.1871472597122192,86,9926.0
11370,0.3499939441680908,1.3427494764328003,-19,5497.0,2.0642614364624023,-103,9926.0
11380,0.34978213906288147,2.252380847930908,35,5497.0,5.226247310638428,369,9926.0
11390,0.34932321310043335,1.6227657794952393,116,5497.0,0.3242238461971283,18,9926.0
11400,0.34918859601020813,3.7955527305603027,28,5497.0,2.2472872734069824,79,9926.0
11410,0.3490675985813141,3.1033504009246826,-4,5497.0,1.7353731393814087,-88,9926.0
11420,0.3489438593387604,0.5699403882026672,-4,5497.0,3.0820703506469727,248,9926.0
11430,0.3484571874141693,-0.07035716623067856,69,5497.0,-3.998878002166748,-170,9926.0
11440,0.3482462763786316,-2.521876335144043,-39,5497.0,-1.7260351181030273,-42,9926.0
11450,0.3480370342731476,-5.719785690307617,-94,5497.0,1.809365153312683,-110,9926.0
11460,0.34780293703079224,-4.0872015953063965,-60,5497.0,1.3934388160705566,149,9926.0
11470,0.3475853204727173,-0.9219790101051331,72,5497.0,-1.5490366220474243,-210,9926.0
11480,0.34713149070739746,0.4704172909259796,-53,5497.0,1.9881335496902466,-8,9926.0
11490,0.34691157937049866,1.5162441730499268,42,5497.0,1.6080759763717651,19,9926.0
11500,0.34669533371925354,2.4774863719940186,1,5497.0,1.664115071296692,79,9926.0
11510,0.34648507833480835,3.457582950592041,168,5497.0,0.727388322353363,79,9926.0
11520,0.34577950835227966,0.6956726312637329,-115,5497.0,5.823643684387207,46,9926.0
11530,0.3456174433231354,-0.9269016981124878,-58,5497.0,6.064549446105957,96,9926.0
11540,0.34546759724617004,-2.9472086429595947,-113,5497.0,4.413019180297852,40,9926.0
11550,0.3453424274921417,-5.662898540496826,31,5497.0,3.8281126022338867,304,9926.0
11560,0.3466808497905731,-7.998093605041504,-87,5497.0,3.431352138519287,-40,9926.0
11570,0.3466595411300659,-5.636723518371582,-137,5497.0,-1.106694221496582,104,9926.0
11580,0.3466845452785492,-5.600128650665283,-102,5497.0,-0.9319687485694885,-94,9926.0
11590,0.34676891565322876,-5.143482685089111,-162,5497.0,-0.2189880609512329,61,9926.0
11600,0.3468599319458008,-5.648669242858887,112,5497.0,2.642947196960449,75,9926.0
11610,0.3489799499511719,0.24540817737579346,-52,5497.0,-0.3916769027709961,-123,9926.0
11620,0.3491929769515991,-0.15100204944610596,7,5497.0,1.2168675661087036,63,9926.0
11630,0.34942150115966797,-0.6682115197181702,-10,5497.0,3.3070569038391113,-76,9926.0
11640,0.34968915581703186,2.077834367752075,84,5497.0,-4.8293890953063965,68,9926.0
11650,0.35114988684654236,-0.43534132838249207,64,5497.0,-1.9750664234161377,-170,9926.0
11660,0.35145387053489685,-1.4752527475357056,-208,5497.0,0.13433890044689178,-82,9926.0
11670,0.351758748292923,0.26815006136894226,64,5497.0,-6.9749603271484375,-75,9926.0
11680,0.3520983159542084,-3.0291659832000732,-110,5497.0,-1.9916237592697144,-23,9926.0
11690,0.3524702787399292,-0.017958765849471092,64,5497.0,-5.9740681648254395,-60,9926.0
11700,0.3530515432357788,-0.23809723556041718,-98,5497.0,-4.737736701965332,-211,9926.0
11710,0.35338011384010315,0.30544596910476685,14,5497.0,-4.733736038208008,120,9926.0
11720,0.35366562008857727,0.42279720306396484,19,5497.0,-5.168046474456787,-211,9926.0
11730,0.35390233993530273,0.12534937262535095,30,5497.0,-6.846319675445557,-70,9926.0
11740,0.35407379269599915,1.5506943464279175,-44,5497.0,-3.546389579772949,-175,9926.0
11750,0.3542625904083252,0.940743625164032,9,5497.0,-1.098840594291687,93,9926.0
11760,0.35439005494117737,-0.7101790904998779,45,5497.0,8.776650428771973,163,9926.0
11770,0.3544478118419647,1.5893445014953613,34,5497.0,1.9048185348510742,-65,9926.0
11780,0.35385963320732117,3.469914436340332,28,5497.0,3.327181816101074,-14,9926.0
11790,0.35372957587242126,3.7123453617095947,22,5497.0,2.1270508766174316,156,9926.0
11800,0.3536081612110138,5.313349723815918,242,5497.0,1.7404742240905762,-149,9926.0
11810,0.35348621010780334,8.627678871154785,-96,5497.0,4.145762920379639,-34,9926.0
11820,0.3533923923969269,4.090213298797607,67,5497.0,-2.0785410404205322,-44,9926.0
11830,0.3531123101711273,2.174517869949341,9,5497.0,-3.762087345123291,-25,9926.0
11840,0.3530060350894928,0.728024959564209,169,5497.0,-5.92503023147583,-145,9926.0
11850,0.35287877917289734,0.7797238230705261,-105,5497.0,-7.808355331420898,-211,9926.0
11860,0.3527750074863434,0.4110485017299652,137,5497.0,-11.09598445892334,-11,9926.0
11870,0.35242924094200134,2.995229721069336,28,5497.0,-3.669466018676758,49,9926.0
11880,0.352359801530838,0.5050724744796753,50,5497.0,0.02073945291340351,-99,9926.0
11890,0.35226938128471375,1.1934592723846436,-82,5497.0,-0.7519010305404663,103,9926.0
11900,0.35212305188179016,1.5541175603866577,136,5497.0,2.999994993209839,34,9926.0
11910,0.3519573211669922,-1.7290996313095093,-26,5497.0,2.5321969985961914,89,9926.0
11920,0.3518325686454773,-0.8607307076454163,64,5497.0,4.572471618652344,99,9926.0
11930,0.3517061769962311,-0.8724972009658813,-157,5497.0,2.237758159637451,-40,9926.0
11940,0.3516068756580353,-0.4366629123687744,27,5497.0,-2.691293478012085,54,9926.0
11950,0.3514603078365326,0.9869533777236938,-20,5497.0,0.519182026386261,-78,9926.0
11960,0.34997448325157166,1.0675177574157715,21,5497.0,-5.643432140350342,54,9926.0
11970,0.3497236371040344,-0.4036686420440674,-33,5497.0,-1.5843240022659302,-212,9926.0
11980,0.3495270013809204,0.549187421798706,-60,5497.0,-4.296131610870361,47,9926.0
11990,0.34937989711761475,-2.191746473312378,5,5497.0,0.47694310545921326,9,9926.0
12000,0.3499302566051483,-0.16326668858528137,-37,5497.0,1.7658226490020752,129,9926.0
12010,0.34989097714424133,0.5629963874816895,82,5497.0,4.924161434173584,39,9926.0
12020,0.34983256459236145,4.749123573303223,-50,5497.0,11.479788780212402,180,9926.0
12030,0.3497721254825592,6.331240177154541,106,5497.0,5.95202112197876,129,9926.0
12040,0.34971123933792114,4.122768878936768,10,5497.0,5.468972682952881,109,9926.0
12050,0.3502098321914673,2.465944290161133,183,5497.0,2.426522731781006,113,9926.0
12060,0.35024312138557434,1.1087429523468018,-60,5497.0,0.1904752552509308,-170,9926.0
12070,0.35027462244033813,4.5012102127075195,39,5497.0,-5.705114364624023,-167,9926.0
12080,0.3502156436443329,0.48437726497650146,-15,5497.0,-2.5310564041137695,-118,9926.0
12090,0.3497092127799988,0.4208184480667114,22,5497.0,-2.056875228881836,165,9926.0
12100,0.3496604561805725,-0.183623805642128,59,5497.0,-2.7587852478027344,-138,9926.0
12110,0.34962019324302673,-0.33543750643730164,-38,5497.0,2.9109673500061035,3,9926.0
12120,0.34957101941108704,-1.172607183456421,-25,5497.0,2.537658214569092,-60,9926.0
12130,0.34948062896728516,-1.4098113775253296,-80,5497.0,-0.6655278205871582,-25,9926.0
12140,0.34797051548957825,-2.130476236343384,77,5497.0,0.9030213356018066,25,9926.0
12150,0.34780773520469666,-0.017572887241840363,-27,5497.0,2.0567333698272705,59,9926.0
12160,0.3476857542991638,-1.3903648853302002,-14,5497.0,1.1318851709365845,45,9926.0
12170,0.3475886583328247,-2.05094575881958,-169,5497.0,-0.38360753655433655,-66,9926.0
12180,0.3476465046405792,-0.9618832468986511,48,5497.0,-5.4991960525512695,70,9926.0
12190,0.34751105308532715,-1.0130780935287476,-67,5497.0,-4.29501485824585,-84,9926.0
12200,0.3473689556121826,-0.8829535245895386,-4,5497.0,-4.889632701873779,74,9926.0
12210,0.3472481667995453,-0.6816613078117371,24,5497.0,1.5388593673706055,-80,9926.0
12220,0.34551507234573364,0.31411680579185486,-117,5497.0,2.089395523071289,175,9926.0
12230,0.34534919261932373,0.1874820590019226,-5,5497.0,6.317320823669434,96,9926.0
12240,0.3451980650424957,-2.448765516281128,-165,5497.0,7.457915782928467,137,9926.0
12250,0.34504690766334534,-3.3630852699279785,27,5497.0,6.963656425476074,237,9926.0
12260,0.3449515104293823,-4.0409345626831055,-79,5497.0,6.302589416503906,10,9926.0
12270,0.3449103832244873,-4.886712551116943,-51,5497.0,0.9496926069259644,108,9926.0
12280,0.34491196274757385,-2.5576183795928955,-10,5497.0,-1.5652881860733032,-199,9926.0
12290,0.34495633840560913,0.16018237173557281,-151,5497.0,-8.56457233428955,-123,9926.0
12300,0.34504541754722595,-2.217343807220459,58,5497.0,-6.733031272888184,-133,9926.0
12310,0.34466540813446045,0.5759711861610413,-37,5497.0,-9.391590118408203,-131,9926.0
12320,0.3448040783405304,-2.52382230758667,76,5497.0,-8.425987243652344,-45,9926.0
12330,0.34488868713378906,-1.7248026132583618,-118,5497.0,-4.608205318450928,-219,9926.0
12340,0.34509238600730896,-5.110593318939209,-60,5497.0,-6.829851150512695,-17,9926.0
12350,0.3453322649002075,-7.266376972198486,-152,5497.0,1.1283890008926392,-130,9926.0
12360,0.3445550501346588,-7.517281532287598,-77,5497.0,-1.4239978790283203,93,9926.0
12370,0.3446924090385437,-4.288115501403809,-113,5497.0,1.858454704284668,41,9926.0
12380,0.3448713719844818,-6.264405250549316,-95,5497.0,-0.938644528388977,82,9926.0
12390,0.3450811505317688,-4.750105857849121,10,5497.0,0.840321958065033,-62,9926.0
12400,0.34565645456314087,-1.5411896705627441,-163,5497.0,-2.288479804992676,-71,9926.0
12410,0.3458985686302185,-2.334124803543091,-47,5497.0,-3.5613231658935547,-61,9926.0
12420,0.34619805216789246,-2.846987724304199,-96,5497.0,-2.15666127204895,11,9926.0
12430,0.34660935401916504,0.9023388028144836,260,5497.0,-5.31083345413208,-138,9926.0
12440,0.3473968505859375,4.306337833404541,60,5497.0,-4.399866104125977,-56,9926.0
12450,0.3477655053138733,2.469672679901123,24,5497.0,2.795789957046509,77,9926.0
12460,0.34810754656791687,3.1035664081573486,57,5497.0,1.2390336990356445,66,9926.0
12470,0.34845206141471863,4.237639427185059,160,5497.0,3.6164278984069824,32,9926.0
12480,0.34877151250839233,-0.9569448828697205,-30,5497.0,4.907649517059326,118,9926.0
12490,0.34723708033561707,-3.831167459487915,-75,5497.0,6.799972057342529,-59,9926.0
12500,0.34748396277427673,-5.164765357971191,-99,5497.0,2.728922128677368,41,9926.0
12510,0.3477107584476471,-3.594425678253174,-29,5497.0,2.53591251373291,-54,9926.0
12520,0.3478715121746063,-2.860403060913086,-45,5497.0,-1.0191922187805176,108,9926.0
12530,0.34723523259162903,-2.028384208679199,88,5497.0,-3.6159160137176514,-215,9926.0
12540,0.3472847044467926,3.3995113372802734,-84,5497.0,-5.647270202636719,-119,9926.0
12550,0.3473242521286011,2.043935775756836,58,5497.0,-1.5027474164962769,-75,9926.0
12560,0.3474171459674835,3.9647016525268555,-23,5497.0,-0.9021583199501038,27,9926.0
12570,0.3475015461444855,2.2551472187042236,200,5497.0,0.5649670362472534,-7,9926.0
12580,0.34814634919166565,5.042829513549805,63,5497.0,6.243835926055908,-93,9926.0
12590,0.348158061504364,0.6812950968742371,55,5497.0,4.673797130584717,80,9926.0
12600,0.3480739891529083,0.33408796787261963,-149,5497.0,7.960249423980713,140,9926.0
12610,0.34803348779678345,-1.9611018896102905,37,5497.0,8.323200225830078,63,9926.0
12620,0.34756314754486084,-0.4521738588809967,-49,5497.0,7.08848237991333,44,9926.0
12630,0.3474815785884857,-0.183367058634758,65,5497.0,3.633140802383423,171,9926.0
12640,0.34735655784606934,7.038581848144531,111,5497.0,-2.55367112159729,-75,9926.0
12650,0.34717458486557007,2.6307525634765625,73,5497.0,-0.6036129593849182,-22,9926.0
12660,0.3469865918159485,1.025486946105957,16,5497.0,-0.5134508609771729,-169,9926.0
12670,0.346813440322876,1.9522554874420166,-57,5497.0,-1.0722419023513794,68,9926.0
12680,0.34674784541130066,-0.6021589040756226,-29,5497.0,-1.9565349817276,-16,9926.0
12690,0.3466964364051819,-3.4806313514709473,-133,5497.0,1.9847345352172852,182,9926.0
12700,0.346647173166275,-7.926337242126465,14,5497.0,5.336781978607178,109,9926.0
12710,0.3474857211112976,-2.8270063400268555,-51,5497.0,7.087321758270264,101,9926.0
12720,0.3474276065826416,0.9055023789405823,97,5497.0,5.267139434814453,110,9926.0
12730,0.34742337465286255,1.1436959505081177,-22,5497.0,4.708086967468262,-22,9926.0
12740,0.34748923778533936,7.4686970710754395,89,5497.0,0.13749437034130096,52,9926.0
12750,0.34701114892959595,5.684759616851807,18,5497.0,-0.02192617766559124,-45,9926.0
12760,0.3470841348171234,2.067858934402466,37,5497.0,-4.107762336730957,102,9926.0
12770,0.3471408486366272,7.1405510902404785,117,5497.0,-3.451890468597412,-23,9926.0
12780,0.34721073508262634,3.184082508087158,58,5497.0,-2.8581392765045166,42,9926.0
12790,0.3468019962310791,1.2869375944137573,18,5497.0,-1.8285671472549438,-175,9926.0
12800,0.3469292223453522,-0.6907826066017151,-15,5497.0,-1.2791244983673096,26,9926.0
12810,0.34708020091056824,-2.9419429302215576,-56,5497.0,0.9853878021240234,-134,9926.0
12820,0.34726718068122864,-1.0725356340408325,-86,5497.0,-2.3563830852508545,66,9926.0
12830,0.3474487364292145,-3.4143645763397217,-75,5497.0,4.176162242889404,63,9926.0
12840,0.34745433926582336,-3.8595478534698486,-78,5497.0,7.794792652130127,299,9926.0
12850,0.34761694073677063,-3.2380807399749756,34,5497.0,6.927040100097656,91,9926.0
12860,0.3478655517101288,1.2003434896469116,3,5497.0,6.8113508224487305,146,9926.0
12870,0.3481616973876953,3.273732900619507,111,5497.0,4.7055888175964355,-101,9926.0
12880,0.3486868441104889,6.57105016708374,-76,5497.0,-0.5099378228187561,22,9926.0
12890,0.3490053415298462,2.474055528640747,166,5497.0,1.5797221660614014,-9,9926.0
12900,0.34927427768707275,5.83223295211792,55,5497.0,-2.0651328563690186,50,9926.0
12910,0.3495326638221741,3.1480071544647217,217,5497.0,-4.067811012268066,-83,9926.0
12920,0.34977585077285767,2.92693829536438,-21,5497.0,-8.451769828796387,-95,9926.0
12930,0.3480782210826874,-0.49733465909957886,35,5497.0,-3.168407917022705,-141,9926.0
12940,0.348222553730011,1.0254812240600586,-28,5497.0,-2.254457712173462,-85,9926.0
12950,0.34837809205055237,-3.3113770484924316,25,5497.0,-0.07387122511863708,-57,9926.0
12960,0.3486030101776123,-4.458348274230957,-92,5497.0,0.4643031060695648,165,9926.0
12970,0.34889915585517883,-6.610208511352539,-3,5497.0,4.243367671966553,-11,9926.0
12980,0.3489876687526703,-3.0697689056396484,-20,5497.0,-0.5601439476013184,68,9926.0
12990,0.34898900985717773,-1.841896891593933,8,5497.0,1.21823251247406,-179,9926.0
13000,0.34896597266197205,-0.6637730598449707,-79,5497.0,4.705435276031494,150,9926.0
13010,0.348968505859375,-0.2324598878622055,54,5497.0,-0.7416778206825256,-33,9926.0
13020,0.34861570596694946,2.086379051208496,24,5497.0,1.0017096996307373,167,9926.0
13030,0.34863877296447754,2.2365598678588867,174,5497.0,4.038938999176025,-69,9926.0
13040,0.3486495912075043,4.30790901184082,58,5497.0,2.1411213874816895,-7,9926.0
13050,0.348610520362854,2.282930374145508,58,5497.0,0.5109854936599731,50,9926.0
13060,0.3478829264640808,2.4387452602386475,-60,5497.0,4.65196418762207,165,9926.0
13070,0.3477782607078552,3.113121271133423,61,5497.0,5.724483966827393,77,9926.0
13080,0.347686231136322,1.7559210062026978,35,5497.0,0.4074747860431671,13,9926.0
13090,0.34759321808815,1.4160950183868408,-3,5497.0,-1.435134768486023,-25,9926.0
13100,0.3468971252441406,2.0020437240600586,80,5497.0,-2.521160364151001,-6,9926.0
13110,0.3467920422554016,1.6831271648406982,-58,5497.0,-6.48859167098999,11,9926.0
13120,0.34669971466064453,-5.096485614776611,19,5497.0,1.8022005558013916,163,9926.0
13130,0.34658104181289673,-4.813379287719727,-118,5497.0,3.5015175342559814,18,9926.0
13140,0.3464173674583435,-3.1813735961914062,0,5497.0,-0.6669506430625916,-6,9926.0
13150,0.3472834825515747,-1.009401559829712,-110,5497.0,-0.3649836480617523,-108,9926.0
13160,0.3472065031528473,0.06607799977064133,20,5497.0,-3.705071449279785,-71,9926.0
13170,0.347199946641922,3.8676342964172363,1,5497.0,-2.416790008544922,2,9926.0
13180,0.34717342257499695,3.408440351486206,113,5497.0,1.2912895679473877,192,9926.0
13190,0.34744980931282043,4.919463157653809,76,5497.0,3.804028272628784,-80,9926.0
13200,0.3473890423774719,6.242382049560547,90,5497.0,2.7156755924224854,101,9926.0
13210,0.347317636013031,4.766249179840088,60,5497.0,4.566840648651123,-38,9926.0
13220,0.3473414182662964,6.9936604499816895,46,5497.0,0.6437738537788391,132,9926.0
13230,0.34737592935562134,2.3368496894836426,57,5497.0,-2.6406118869781494,-69,9926.0
13240,0.34813985228538513,-1.7795741558074951,-29,5497.0,-0.6136258840560913,137,9926.0
13250,0.34827810525894165,-1.0006814002990723,1,5497.0,1.1141241788864136,-92,9926.0
13260,0.3484107553958893,-0.07695002108812332,-37,5497.0,-0.2600717544555664,51,9926.0
13270,0.34855183959007263,-0.9991510510444641,14,5497.0,-0.8077474236488342,-183,9926.0
13280,0.34922900795936584,-0.5579928159713745,-60,5497.0,-2.749174118041992,7,9926.0
13290,0.3493954539299011,-0.925220251083374,53,5497.0,-0.9095571637153625,-2,9926.0
13300,0.3496147394180298,1.748207926750183,-42,5497.0,-1.9560298919677734,109,9926.0
13310,0.34987539052963257,2.213487386703491,241,5497.0,-1.9094133377075195,-51,9926.0
13320,0.34930241107940674,8.218961715698242,59,5497.0,-5.839159965515137,-71,9926.0
13330,0.34949102997779846,3.961322069168091,120,5497.0,-5.575216293334961,-111,9926.0
13340,0.34964945912361145,4.529221534729004,-27,5497.0,-4.584336280822754,-80,9926.0
13350,0.34982743859291077,0.018946010619401932,5,5497.0,-6.63668155670166,-115,9926.0
13360,0.35001835227012634,-4.7803120613098145,-212,5497.0,-3.4387636184692383,47,9926.0
13370,0.3494402766227722,-3.9881606101989746,-60,5497.0,-5.691084384918213,-93,9926.0
13380,0.3496319651603699,-7.398234844207764,-187,5497.0,-4.943454742431641,46,9926.0
13390,0.3498091399669647,-9.468966484069824,-66,5497.0,2.428757429122925,25,9926.0
13400,0.3499530851840973,-4.242307662963867,-79,5497.0,1.9434772729873657,108,9926.0
13410,0.3496544361114502,-2.6710686683654785,16,5497.0,3.1271369457244873,-98,9926.0
13420,0.3496829569339752,2.4297361373901367,-78,5497.0,1.7342579364776611,207,9926.0
13430,0.34969452023506165,5.339341640472412,61,5497.0,7.411747455596924,111,9926.0
13440,0.34971168637275696,7.207324504852295,109,5497.0,0.675407886505127,124,9926.0
13450,0.34906086325645447,6.66320276260376,223,5497.0,1.500205159187317,-58,9926.0
13460,0.3490830361843109,8.10621452331543,65,5497.0,-5.215165138244629,-78,9926.0
13470,0.3491293787956238,3.176950454711914,78,5497.0,-5.469255447387695,-232,9926.0
13480,0.3491936922073364,1.2629141807556152,-44,5497.0,-7.533329486846924,-32,9926.0
13490,0.3491649627685547,-0.6059456467628479,-55,5497.0,-6.2331929206848145,-183,9926.0
13500,0.3490307629108429,-2.724158525466919,-75,5497.0,-4.006289005279541,100,9926.0
13510,0.34896737337112427,-6.5444416999816895,-60,5497.0,3.352146625518799,-119,9926.0
13520,0.34885072708129883,-2.313685178756714,-103,5497.0,2.0724172592163086,130,9926.0
13530,0.348697692155838,-6.7972588539123535,-101,5497.0,5.764346122741699,-43,9926.0
13540,0.34782758355140686,-5.237595081329346,-105,5497.0,4.271337032318115,130,9926.0
13550,0.34760603308677673,-6.861771106719971,-90,5497.0,4.134505271911621,-64,9926.0
13560,0.3473829925060272,-2.2973320484161377,-24,5497.0,3.563075304031372,149,9926.0
13570,0.3471219837665558,-2.188932418823242,-42,5497.0,4.711780071258545,-24,9926.0
13580,0.34680983424186707,0.5719384551048279,-92,5497.0,1.947911262512207,82,9926.0
13590,0.34618204832077026,2.486342430114746,142,5497.0,-1.267722487449646,83,9926.0
13600,0.34593281149864197,1.530134916305542,-47,5497.0,-2.6023693084716797,28,9926.0
13610,0.3457072675228119,-0.8956037163734436,118,5497.0,-0.8638885021209717,20,9926.0
13620,0.3454641103744507,-0.010884597897529602,-11,5497.0,-4.1109538078308105,-109,9926.0
13630,0.34542667865753174,-0.3474830090999603,43,5497.0,-2.2880797386169434,62,9926.0
13640,0.3451594412326813,0.022264841943979263,-2,5497.0,-2.525336503982544,-161,9926.0
13650,0.3449375033378601,3.2000925540924072,41,5497.0,-0.7800228595733643,80,9926.0
13660,0.3447681665420532,-0.24462954699993134,12,5497.0,0.561724066734314,-170,9926.0
13670,0.34476521611213684,-4.898937225341797,-110,5497.0,1.595059871673584,56,9926.0
13680,0.3445908725261688,-4.771353244781494,-20,5497.0,3.5487167835235596,-64,9926.0
13690,0.3444075882434845,-5.483769416809082,-224,5497.0,3.0306968688964844,-12,9926.0
13700,0.3442661762237549,-2.3161163330078125,8,5497.0,3.111887216567993,22,9926.0
13710,0.34417977929115295,-1.278145432472229,-61,5497.0,2.5332465171813965,84,9926.0
13720,0.3436630666255951,-1.1958082914352417,94,5497.0,4.919917583465576,125,9926.0
13730,0.34357091784477234,0.3703683912754059,-55,5497.0,2.939793586730957,-24,9926.0
13740,0.3434487581253052,-1.7210488319396973,40,5497.0,0.7294186949729919,85,9926.0
13750,0.3433774709701538,1.6356409788131714,-29,5497.0,3.2666008472442627,-22,9926.0
13760,0.34398022294044495,-2.1019742488861084,-30,5497.0,-2.3469011783599854,80,9926.0
13770,0.3439823091030121,-4.973288536071777,-15,5497.0,0.03865247592329979,48,9926.0
13780,0.34402021765708923,-5.894233703613281,-168,5497.0,-3.5192906856536865,-22,9926.0
13790,0.34408581256866455,-7.996239185333252,-57,5497.0,0.6411718130111694,68,9926.0
13800,0.3442367613315582,-6.756311416625977,-133,5497.0,1.750832438468933,-63,9926.0
13810,0.34390392899513245,-6.211862564086914,-81,5497.0,1.230925440788269,163,9926.0
13820,0.3440624177455902,-3.09480881690979,-40,5497.0,3.9903974533081055,77,9926.0
13830,0.344230055809021,-0.14209412038326263,-54,5497.0,0.38782626390457153,33,9926.0
13840,0.34441161155700684,1.3130922317504883,115,5497.0,-2.1865110397338867,-16,9926.0
13850,0.34648022055625916,3.1597349643707275,-3,5497.0,-2.4574337005615234,-137,9926.0
13860,0.3468175530433655,4.525968074798584,102,5497.0,-5.844604015350342,-4,9926.0
13870,0.34713467955589294,2.8926899433135986,32,5497.0,-4.363487720489502,-220,9926.0
13880,0.34744152426719666,2.4524967670440674,-18,5497.0,-6.069732189178467,63,9926.0
13890,0.34825873374938965,0.5684570670127869,36,5497.0,-6.911242961883545,-158,9926.0
13900,0.3486276865005493,-1.0896819829940796,-112,5497.0,-5.321943759918213,39,9926.0
13910,0.34898051619529724,-3.408633232116699,-24,5497.0,-4.308867931365967,10,9926.0
13920,0.34931135177612305,-3.1018059253692627,-130,5497.0,4.7416276931762695,81,9926.0
13930,0.3495962619781494,-1.5561583042144775,79,5497.0,2.3087172508239746,21,9926.0
13940,0.3496897518634796,-0.2738434374332428,-49,5497.0,6.492543697357178,40,9926.0
13950,0.3499893546104431,0.5325513482093811,89,5497.0,6.181525230407715,160,9926.0
13960,0.35031193494796753,2.5256543159484863,-6,5497.0,1.9503644704818726,24,9926.0
13970,0.3506160378456116,3.499765157699585,161,5497.0,-1.6843632459640503,96,9926.0
13980,0.3498401641845703,4.161258697509766,5,5497.0,-2.6295223236083984,-43,9926.0
13990,0.35001102089881897,2.408994197845459,68,5497.0,-4.359094619750977,69,9926.0
14000,0.35013362765312195,-0.7541671991348267,-12,5497.0,-4.458581447601318,-135,9926.0
14010,0.35023391246795654,-1.09880793094635,-17,5497.0,-1.750456690788269,44,9926.0
14020,0.35031676292419434,-1.40694260597229,-72,5497.0,-1.5764659643173218,-131,9926.0
14030,0.35069242119789124,-1.2086575031280518,-6,5497.0,1.598231315612793,151,9926.0
14040,0.3507417142391205,0.08493049442768097,-20,5497.0,-5.100895404815674,-111,9926.0
14050,0.35080716013908386,1.9550836086273193,57,5497.0,0.6638948917388916,169,9926.0
14060,0.35077887773513794,2.637932777404785,38,5497.0,-0.9177160263061523,-58,9926.0
14070,0.3515765964984894,3.393127202987671,32,5497.0,0.9251574873924255,183,9926.0
14080,0.3515027165412903,4.820244789123535,17,5497.0,-2.5393404960632324,-46,9926.0
14090,0.3514500558376312,3.0087568759918213,58,5497.0,-3.165186643600464,95,9926.0
14100,0.351407527923584,0.687039852142334,6,5497.0,-0.36750328540802,-65,9926.0
14110,0.35160788893699646,3.7312309741973877,67,5497.0,-2.735697031021118,122,9926.0
14120,0.35151800513267517,4.73795223236084,66,5497.0,3.155754566192627,-80,9926.0
14130,0.35140806436538696,3.852972984313965,136,5497.0,4.931389331817627,88,9926.0
14140,0.3512735366821289,5.0970048904418945,41,5497.0,2.998701333999634,-62,9926.0
14150,0.3511343002319336,1.8049108982086182,19,5497.0,1.895819902420044,195,9926.0
14160,0.35058680176734924,2.8889763355255127,-33,5497.0,4.014368057250977,6,9926.0
14170,0.35052552819252014,0.9406792521476746,66,5497.0,4.0080084800720215,205,9926.0
14180,0.3504318296909332,3.7172129154205322,28,5497.0,-4.394723892211914,-69,9926.0
14190,0.3503204882144928,0.991983950138092,42,5497.0,-0.44518178701400757,99,9926.0
14200,0.35124504566192627,0.11363852024078369,-21,5497.0,-0.17817077040672302,-42,9926.0
14210,0.3510981798171997,0.8181986212730408,84,5497.0,2.0988810062408447,90,9926.0
14220,0.35090598464012146,-0.462102472782135,-80,5497.0,2.605440139770508,30,9926.0
