timestamp,kalman.stateZ,gyro.x,gyro.xRaw,gyro.xVariance,gyro.y,gyro.yRaw,gyro.yVariance
0,0.3166050314903259,2.0673635005950928,30,6638.0,-12.537837028503418,-214,9983.0
10,0.3171123266220093,1.7511199712753296,33,6638.0,-13.541532516479492,-223,9983.0
20,0.31627988815307617,3.0959322452545166,59,6638.0,-13.096193313598633,-206,9983.0
30,0.31630656123161316,1.934120535850525,29,6638.0,-12.276323318481445,-201,9983.0
40,0.3164363503456116,0.42563173174858093,-1,6638.0,-12.29266357421875,-213,9983.0
50,0.31657564640045166,-1.1361912488937378,-21,6638.0,-14.318990707397461,-244,9983.0
60,0.3167494237422943,0.42823055386543274,25,6638.0,-17.572837829589844,-308,9983.0
70,0.3170415461063385,3.794463634490967,44,6638.0,-26.390785217285156,-456,9983.0
80,0.31710284948349,3.146610736846924,74,6638.0,-32.82697296142578,-602,9983.0
90,0.3173186182975769,10.035223960876465,164,6638.0,-47.445716857910156,-803,9983.0
100,0.31750184297561646,7.9488091468811035,101,6638.0,-57.50654983520508,-935,9983.0
110,0.31971895694732666,0.43818435072898865,-23,6638.0,-54.53757858276367,-874,9983.0
120,0.3200716972351074,-7.168887615203857,-68,6638.0,-43.89719009399414,-680,9983.0
130,0.3202945590019226,-8.615804672241211,-180,6638.0,-27.91196632385254,-271,9983.0
140,0.320574551820755,-6.555441379547119,-55,6638.0,-7.265998840332031,-121,9983.0
150,0.3212224841117859,0.5087035298347473,32,6638.0,9.409385681152344,246,9983.0
160,0.3215620517730713,9.064984321594238,177,6638.0,24.098316192626953,469,9983.0
170,0.32192298769950867,14.407926559448242,253,6638.0,29.815017700195312,492,9983.0
180,0.32208916544914246,9.614269256591797,141,6638.0,24.093286514282227,348,9983.0
190,0.32226309180259705,4.169416427612305,46,6638.0,18.157608032226562,257,9983.0
200,0.3219214379787445,1.078031301498413,-34,6638.0,4.212602138519287,47,9983.0
210,0.3221084773540497,-0.5151585340499878,10,6638.0,-18.211238861083984,-398,9983.0
220,0.32248765230178833,4.507275104522705,146,6638.0,-49.581878662109375,-928,9983.0
230,0.3229067921638489,8.309332847595215,176,6638.0,-76.06856536865234,-1327,9983.0
240,0.3230491578578949,9.418718338012695,174,6638.0,-92.21141052246094,-1547,9983.0
250,0.32351553440093994,8.984441757202148,52,6638.0,-95.51069641113281,-1658,9983.0
260,0.3250983953475952,-6.578872203826904,-217,6638.0,-90.9822769165039,-1410,9983.0
270,0.3253161311149597,-25.320892333984375,-530,6638.0,-79.58769989013672,-1085,9983.0
280,0.3256712257862091,-33.23976516723633,-511,6638.0,-51.977638244628906,-601,9983.0
290,0.3302653133869171,-25.753337860107422,-348,6638.0,-6.198759078979492,161,9983.0
300,0.3325103521347046,-7.622831344604492,22,6638.0,45.35954666137695,689,9983.0
310,0.33432736992836,19.75906753540039,480,6638.0,81.99872589111328,1388,9983.0
320,0.3360351026058197,42.31431198120117,815,6638.0,104.37184143066406,1657,9983.0
330,0.338847279548645,52.70331573486328,963,6638.0,116.48963165283203,1885,9983.0
340,0.3397277891635895,45.68684005737305,601,6638.0,114.33209228515625,1783,9983.0
350,0.34054407477378845,24.668970108032227,381,6638.0,101.27684783935547,1574,9983.0
360,0.3408423960208893,4.546557426452637,-73,6638.0,77.11338806152344,1183,9983.0
370,0.33789169788360596,-12.188830375671387,-404,6638.0,38.84306716918945,492,9983.0
380,0.3383989632129669,-22.88811683654785,-397,6638.0,-3.8840999603271484,-422,9983.0
390,0.33805233240127563,-25.737276077270508,-306,6638.0,-42.68256759643555,-1000,9983.0
400,0.33790794014930725,-15.066252708435059,-178,6638.0,-73.02206420898438,-1311,9983.0
410,0.3375193774700165,-0.7081632018089294,5,6638.0,-94.71161651611328,-1569,9983.0
420,0.333246648311615,3.5435855388641357,2,6638.0,-104.9512939453125,-1594,9983.0
430,0.3326471745967865,1.7359846830368042,0,6638.0,-101.61495971679688,-1521,9983.0
440,0.33192121982574463,-9.680569648742676,-337,6638.0,-92.26293182373047,-1369,9983.0
450,0.331559419631958,-22.573139190673828,-388,6638.0,-69.66895294189453,-795,9983.0
460,0.334152489900589,-20.728439331054688,-281,6638.0,-29.323646545410156,-79,9983.0
470,0.33431708812713623,-5.991980075836182,-64,6638.0,19.148977279663086,690,9983.0
480,0.3355775773525238,6.182937145233154,96,6638.0,72.78688049316406,1490,9983.0
490,0.3370654582977295,14.950477600097656,294,6638.0,119.33641815185547,2197,9983.0
500,0.3371739685535431,20.211820602416992,278,6638.0,150.32083129882812,2567,9983.0
510,0.33719345927238464,18.278038024902344,180,6638.0,166.41127014160156,2787,9983.0
520,0.3370395600795746,7.393077373504639,95,6638.0,154.16720581054688,2431,9983.0
530,0.33581289649009705,-1.1573981046676636,-77,6638.0,120.37641906738281,1755,9983.0
540,0.338604211807251,-8.852781295776367,-106,6638.0,71.96965026855469,939,9983.0
550,0.3344655930995941,-5.144162654876709,-38,6638.0,11.41407585144043,-2,9983.0
560,0.33414924144744873,1.2365645170211792,-26,6638.0,-46.93269348144531,-1017,9983.0
570,0.33445122838020325,6.395177364349365,213,6638.0,-104.11157989501953,-1942,9983.0
580,0.33386266231536865,6.824888229370117,64,6638.0,-146.2261962890625,-2469,9983.0
590,0.3332379162311554,5.563644886016846,33,6638.0,-168.80279541015625,-2834,9983.0
600,0.33260658383369446,-3.33270001411438,3,6638.0,-177.75497436523438,-2976,9983.0
610,0.33141958713531494,-12.279149055480957,-191,6638.0,-175.0800018310547,-2841,9983.0
620,0.32938727736473083,-14.630899429321289,-274,6638.0,-164.9742431640625,-2610,9983.0
630,0.33309346437454224,-5.289740562438965,-115,6638.0,-147.77613830566406,-2188,9983.0
640,0.3358777165412903,16.182283401489258,341,6638.0,-109.83090209960938,-1449,9983.0
650,0.3368108868598938,30.17844581604004,381,6638.0,-61.416839599609375,-663,9983.0
660,0.33809104561805725,23.696754455566406,225,6638.0,2.483912229537964,496,9983.0
670,0.34176090359687805,8.829523086547852,40,6638.0,79.5688247680664,1712,9983.0
680,0.3494628071784973,-9.37526798248291,-256,6638.0,148.09628295898438,2757,9983.0
690,0.35224422812461853,-26.3893985748291,-619,6638.0,194.17420959472656,3340,9983.0
700,0.353506863117218,-38.02719497680664,-786,6638.0,215.56051635742188,3609,9983.0
710,0.35501399636268616,-39.54005432128906,-644,6638.0,209.334228515625,3318,9983.0
720,0.35546085238456726,-24.422597885131836,-186,6638.0,175.88607788085938,2739,9983.0
730,0.34966158866882324,2.0248851776123047,37,6638.0,127.81964874267578,1819,9983.0
740,0.349457710981369,27.834360122680664,658,6638.0,62.16738510131836,737,9983.0
750,0.3524966537952423,42.054264068603516,579,6638.0,-8.046735763549805,-441,9983.0
760,0.3539442718029022,40.82695388793945,714,6638.0,-74.85869598388672,-1546,9983.0
770,0.34865301847457886,20.761587142944336,212,6638.0,-123.85212707519531,-2149,9983.0
780,0.3502582609653473,-8.056679725646973,-342,6638.0,-149.6149444580078,-2492,9983.0
790,0.3509584665298462,-34.017513275146484,-618,6638.0,-158.1477508544922,-2559,9983.0
800,0.3519894480705261,-53.745140075683594,-948,6638.0,-139.792236328125,-2285,9983.0
810,0.347770094871521,-62.240577697753906,-983,6638.0,-113.44329071044922,-1768,9983.0
820,0.34945887327194214,-54.37678909301758,-793,6638.0,-74.87146759033203,-1118,9983.0
830,0.3523502051830292,-33.39424133300781,-337,6638.0,-27.85208511352539,-189,9983.0
840,0.35321539640426636,-1.5278534889221191,154,6638.0,16.274293899536133,523,9983.0
850,0.3548297584056854,30.85442543029785,505,6638.0,51.898406982421875,991,9983.0
860,0.3550564646720886,42.01342010498047,628,6638.0,86.0217514038086,1549,9983.0
870,0.35567477345466614,38.44196701049805,551,6638.0,108.6419677734375,1881,9983.0
880,0.35634326934814453,23.769800186157227,431,6638.0,119.3584213256836,1780,9983.0
890,0.3567337393760681,13.937814712524414,218,6638.0,99.61439514160156,1479,9983.0
900,0.3499601483345032,11.217111587524414,137,6638.0,65.81035614013672,1047,9983.0
910,0.3509156107902527,18.333904266357422,444,6638.0,34.97368240356445,298,9983.0
920,0.3503985106945038,31.012956619262695,512,6638.0,3.101086378097534,36,9983.0
930,0.3505742847919464,26.94391632080078,323,6638.0,-28.798412322998047,-610,9983.0
940,0.35078713297843933,7.222708225250244,-30,6638.0,-60.4854621887207,-1279,9983.0
950,0.3440057039260864,-17.69533348083496,-322,6638.0,-92.29784393310547,-1542,9983.0
960,0.34388789534568787,-49.36109924316406,-959,6638.0,-105.9596939086914,-1757,9983.0
970,0.3438396751880646,-74.60929870605469,-1351,6638.0,-100.29252624511719,-1380,9983.0
980,0.3436877131462097,-74.745361328125,-1164,6638.0,-71.78050231933594,-862,9983.0
990,0.3431575894355774,-48.09980392456055,-497,6638.0,-30.95189666748047,-438,9983.0
1000,0.34288981556892395,0.6166555285453796,317,6638.0,3.0247433185577393,166,9983.0
1010,0.34453657269477844,41.873722076416016,875,6638.0,35.815391540527344,755,9983.0
1020,0.34530216455459595,61.73488235473633,1020,6638.0,57.77052307128906,1247,9983.0
1030,0.34509938955307007,64.5568618774414,1020,6638.0,79.90058135986328,1409,9983.0
1040,0.34538233280181885,52.566795349121094,761,6638.0,85.72344207763672,1142,9983.0
1050,0.3455023765563965,26.496074676513672,252,6638.0,73.86599731445312,1127,9983.0
1060,0.3454445004463196,-5.057678699493408,-262,6638.0,56.423282623291016,968,9983.0
1070,0.34566164016723633,-25.623125076293945,-521,6638.0,30.88396644592285,147,9983.0
1080,0.3432452082633972,-36.36494445800781,-576,6638.0,-16.930721282958984,-529,9983.0
1090,0.34353023767471313,-30.756633758544922,-465,6638.0,-56.88262939453125,-1043,9983.0
1100,0.3438020646572113,-13.884482383728027,20,6638.0,-70.62200927734375,-1312,9983.0
1110,0.34398093819618225,4.860208988189697,95,6638.0,-79.77120208740234,-1257,9983.0
1120,0.3420615494251251,11.084074020385742,96,6638.0,-72.93196105957031,-1008,9983.0
1130,0.342319518327713,8.96352481842041,217,6638.0,-56.24831008911133,-934,9983.0
1140,0.34267228841781616,8.019156455993652,145,6638.0,-44.82793426513672,-897,9983.0
1150,0.3430427014827728,5.395110130310059,83,6638.0,-34.93088912963867,-471,9983.0
1160,0.3446608781814575,-0.7813228964805603,-47,6638.0,-17.986400604248047,-238,9983.0
1170,0.34610676765441895,-7.592036724090576,-111,6638.0,4.998624801635742,214,9983.0
1180,0.34706705808639526,-1.401140570640564,-77,6638.0,26.5170841217041,653,9983.0
1190,0.34804949164390564,5.679465293884277,100,6638.0,41.56377029418945,858,9983.0
1200,0.34875425696372986,8.266324043273926,110,6638.0,60.40933609008789,1032,9983.0
1210,0.3481975495815277,-7.389862537384033,-179,6638.0,76.56513977050781,1195,9983.0
1220,0.34866344928741455,-22.040525436401367,-327,6638.0,84.95806121826172,1364,9983.0
1230,0.348854124546051,-15.144686698913574,-234,6638.0,83.87713623046875,1482,9983.0
1240,0.3494512140750885,-8.105661392211914,-67,6638.0,72.05545806884766,976,9983.0
1250,0.3463592827320099,3.4296865463256836,112,6638.0,41.69684600830078,518,9983.0
1260,0.34605470299720764,9.442435264587402,145,6638.0,7.136570930480957,-4,9983.0
1270,0.3455263376235962,9.914743423461914,263,6638.0,-17.949201583862305,-423,9983.0
1280,0.3452160656452179,14.300369262695312,206,6638.0,-33.22188186645508,-488,9983.0
1290,0.34503692388534546,22.193092346191406,364,6638.0,-43.01144790649414,-758,9983.0
1300,0.3409154415130615,19.891735076904297,344,6638.0,-52.01749038696289,-978,9983.0
1310,0.3402026295661926,5.138922691345215,-60,6638.0,-50.10009765625,-778,9983.0
1320,0.3398183584213257,-11.904068946838379,-314,6638.0,-43.42148971557617,-563,9983.0
1330,0.33948925137519836,-26.05348014831543,-482,6638.0,-36.392913818359375,-576,9983.0
1340,0.33912673592567444,-31.796167373657227,-427,6638.0,-24.264028549194336,-405,9983.0
1350,0.339131236076355,-24.090200424194336,-195,6638.0,-4.196603775024414,-73,9983.0
1360,0.33965009450912476,-8.377485275268555,-88,6638.0,12.129326820373535,289,9983.0
1370,0.3396032452583313,5.65207052230835,65,6638.0,25.174179077148438,455,9983.0
1380,0.33944401144981384,24.848318099975586,542,6638.0,30.668439865112305,547,9983.0
1390,0.34215468168258667,41.07929611206055,737,6638.0,33.14427185058594,582,9983.0
1400,0.3419715166091919,31.392581939697266,342,6638.0,24.139284133911133,416,9983.0
1410,0.34154126048088074,7.5780510902404785,56,6638.0,17.083925247192383,63,9983.0
1420,0.34134137630462646,-6.038804531097412,-156,6638.0,11.139528274536133,168,9983.0
1430,0.3398759961128235,-13.694401741027832,-290,6638.0,10.579444885253906,348,9983.0
1440,0.3394980728626251,-16.54430389404297,-249,6638.0,4.105161190032959,0,9983.0
1450,0.3389846086502075,-5.283458709716797,50,6638.0,0.2567872107028961,0,9983.0
1460,0.3384748101234436,8.17529296875,49,6638.0,0.5251049995422363,82,9983.0
1470,0.33836907148361206,14.615488052368164,220,6638.0,-5.844783782958984,-205,9983.0
1480,0.3380362391471863,11.395171165466309,221,6638.0,-29.0341796875,-544,9983.0
1490,0.3376178443431854,-6.734882831573486,-295,6638.0,-46.49014663696289,-773,9983.0
1500,0.3376762866973877,-36.60906219482422,-768,6638.0,-56.4936408996582,-1115,9983.0
1510,0.3375019431114197,-62.01951599121094,-1012,6638.0,-59.04939270019531,-1032,9983.0
1520,0.3382524251937866,-53.62086868286133,-733,6638.0,-59.79664993286133,-823,9983.0
1530,0.3387545049190521,-21.03969383239746,-150,6638.0,-44.241939544677734,-592,9983.0
1540,0.33829620480537415,18.921772003173828,534,6638.0,-5.614397048950195,-25,9983.0
1550,0.33879971504211426,52.570430755615234,1022,6638.0,29.14434242248535,556,9983.0
1560,0.3421720862388611,76.61418151855469,1232,6638.0,52.5040168762207,938,9983.0
1570,0.34205108880996704,68.80496978759766,975,6638.0,63.118553161621094,1118,9983.0
1580,0.3421017825603485,42.948707580566406,620,6638.0,67.52481079101562,1075,9983.0
1590,0.34165069460868835,14.680051803588867,203,6638.0,63.126075744628906,974,9983.0
1600,0.3411698341369629,-12.97775936126709,-310,6638.0,46.28425598144531,722,9983.0
1610,0.34136924147605896,-37.66718292236328,-672,6638.0,28.730703353881836,252,9983.0
1620,0.34100353717803955,-49.420650482177734,-785,6638.0,6.900058746337891,86,9983.0
1630,0.34082067012786865,-31.71110725402832,-424,6638.0,-11.020030975341797,-175,9983.0
1640,0.3410589396953583,-11.256864547729492,-14,6638.0,-28.478845596313477,-669,9983.0
1650,0.3372997045516968,-0.003867947496473789,-18,6638.0,-44.98552322387695,-779,9983.0
1660,0.33761265873908997,-0.42587587237358093,-56,6638.0,-53.705169677734375,-882,9983.0
1670,0.3380902111530304,-3.097702980041504,33,6638.0,-60.44443130493164,-1161,9983.0
1680,0.3387792706489563,-3.143838882446289,21,6638.0,-71.31632995605469,-1124,9983.0
1690,0.3399191200733185,-6.129281044006348,-162,6638.0,-67.82054901123047,-970,9983.0
1700,0.34079331159591675,-3.714583396911621,-109,6638.0,-46.01325988769531,-593,9983.0
1710,0.3419254422187805,2.27938175201416,29,6638.0,-19.759233474731445,-164,9983.0
1720,0.3427107632160187,9.886775970458984,242,6638.0,6.053730487823486,269,9983.0
1730,0.34400707483291626,12.826847076416016,217,6638.0,38.61803436279297,824,9983.0
1740,0.34747087955474854,11.621110916137695,257,6638.0,79.18855285644531,1481,9983.0
1750,0.3483794629573822,12.180449485778809,150,6638.0,104.17595672607422,2024,9983.0
1760,0.3486870229244232,4.427126407623291,-45,6638.0,116.64572143554688,1998,9983.0
1770,0.3497565984725952,-3.06889009475708,-153,6638.0,116.25868225097656,1677,9983.0
1780,0.3465924859046936,-10.539837837219238,-70,6638.0,96.19303131103516,1553,9983.0
1790,0.3462813198566437,-10.302416801452637,-248,6638.0,63.21067810058594,864,9983.0
1800,0.34637632966041565,-6.723299026489258,24,6638.0,18.543981552124023,67,9983.0
1810,0.346515417098999,0.6367034912109375,-31,6638.0,-30.480627059936523,-696,9983.0
1820,0.3470871150493622,6.072450637817383,159,6638.0,-67.45529174804688,-1217,9983.0
1830,0.34332501888275146,6.935840606689453,109,6638.0,-85.39971160888672,-1407,9983.0
1840,0.3435339331626892,0.3566407561302185,-95,6638.0,-92.89562225341797,-1555,9983.0
1850,0.343524307012558,-5.6532673835754395,-88,6638.0,-92.82032775878906,-1555,9983.0
1860,0.344881147146225,-15.97761058807373,-234,6638.0,-81.27909088134766,-1162,9983.0
1870,0.3428606390953064,-27.30989646911621,-491,6638.0,-56.61677169799805,-797,9983.0
1880,0.34348106384277344,-36.225975036621094,-667,6638.0,-24.686141967773438,-233,9983.0
1890,0.3441982865333557,-36.126155853271484,-597,6638.0,5.611288547515869,287,9983.0
1900,0.3450900912284851,-12.929251670837402,5,6638.0,35.12947463989258,716,9983.0
1910,0.3461439609527588,17.179004669189453,402,6638.0,64.86354064941406,1228,9983.0
1920,0.3466247320175171,33.50617218017578,576,6638.0,91.36711120605469,1633,9983.0
1930,0.3468080461025238,48.555152893066406,759,6638.0,100.85315704345703,1583,9983.0
1940,0.34718093276023865,47.616397857666016,833,6638.0,90.28876495361328,1388,9983.0
1950,0.3468345105648041,29.086124420166016,263,6638.0,65.34674072265625,1002,9983.0
1960,0.3422779440879822,10.335307121276855,163,6638.0,39.908390045166016,533,9983.0
1970,0.34137940406799316,-1.9103127717971802,-87,6638.0,0.6455356478691101,-187,9983.0
1980,0.34113070368766785,-11.40859317779541,-252,6638.0,-50.67026901245117,-1153,9983.0
1990,0.3420531451702118,-22.049436569213867,-366,6638.0,-88.94498443603516,-1393,9983.0
2000,0.33840876817703247,-27.45079803466797,-529,6638.0,-96.91204833984375,-1678,9983.0
2010,0.33811143040657043,-21.61349868774414,-290,6638.0,-101.73338317871094,-1673,9983.0
2020,0.3385985791683197,-15.390839576721191,-151,6638.0,-100.68389892578125,-1546,9983.0
2030,0.33876147866249084,-7.7698974609375,-158,6638.0,-95.04039764404297,-1460,9983.0
2040,0.33960801362991333,-10.079352378845215,-243,6638.0,-79.48890686035156,-1239,9983.0
2050,0.34016263484954834,-12.980792999267578,-187,6638.0,-53.64189910888672,-740,9983.0
2060,0.34242939949035645,-1.2269599437713623,126,6638.0,-18.462141036987305,-113,9983.0
2070,0.34397634863853455,17.428152084350586,381,6638.0,22.511646270751953,574,9983.0
2080,0.3454592227935791,25.100021362304688,547,6638.0,74.34426879882812,1381,9983.0
2090,0.3489988148212433,26.450218200683594,460,6638.0,102.76040649414062,1917,9983.0
2100,0.3500402271747589,14.199743270874023,94,6638.0,116.3582992553711,1885,9983.0
2110,0.3509930670261383,-1.418554663658142,-225,6638.0,113.26675415039062,1810,9983.0
2120,0.35158783197402954,-10.576197624206543,-112,6638.0,93.45148468017578,1374,9983.0
2130,0.3479348421096802,-7.244516372680664,-51,6638.0,67.21289825439453,897,9983.0
2140,0.3491142690181732,0.6537744998931885,-7,6638.0,28.49306297302246,374,9983.0
2150,0.3498576283454895,3.5448038578033447,115,6638.0,-14.478326797485352,-521,9983.0
2160,0.3503136932849884,9.587515830993652,199,6638.0,-46.325565338134766,-732,9983.0
2170,0.35079720616340637,12.44963550567627,162,6638.0,-66.80201721191406,-1167,9983.0
2180,0.34490668773651123,4.156982898712158,-40,6638.0,-76.93596649169922,-1352,9983.0
2190,0.3453122675418854,-11.11376953125,-192,6638.0,-79.48004150390625,-1368,9983.0
2200,0.34546995162963867,-23.50136947631836,-330,6638.0,-78.19322204589844,-1280,9983.0
2210,0.3456658720970154,-28.598840713500977,-481,6638.0,-68.64018249511719,-1003,9983.0
2220,0.3430951237678528,-26.920995712280273,-430,6638.0,-35.13874435424805,-354,9983.0
2230,0.3443310558795929,-14.560420989990234,-201,6638.0,2.3036131858825684,296,9983.0
2240,0.3451077938079834,1.9659128189086914,83,6638.0,37.488895416259766,799,9983.0
2250,0.34619876742362976,14.311784744262695,232,6638.0,69.61076354980469,1247,9983.0
2260,0.34580060839653015,21.150514602661133,243,6638.0,95.39031982421875,1687,9983.0
2270,0.34616416692733765,13.212533950805664,179,6638.0,109.70082092285156,1827,9983.0
2280,0.3463796079158783,3.153486728668213,79,6638.0,110.1307601928711,1616,9983.0
2290,0.3458709418773651,-3.4966886043548584,-98,6638.0,90.66262817382812,1406,9983.0
2300,0.3449477553367615,-7.102967262268066,-136,6638.0,53.025047302246094,453,9983.0
2310,0.34271353483200073,-12.435704231262207,-208,6638.0,6.57110071182251,-52,9983.0
2320,0.3425736725330353,-10.635071754455566,-159,6638.0,-38.872920989990234,-1017,9983.0
2330,0.34277915954589844,-0.14808644354343414,65,6638.0,-66.55850982666016,-1063,9983.0
2340,0.34303584694862366,11.856649398803711,254,6638.0,-71.04761505126953,-1165,9983.0
2350,0.3393992781639099,22.18357276916504,367,6638.0,-70.51022338867188,-1210,9983.0
2360,0.33894050121307373,21.261720657348633,371,6638.0,-75.2939682006836,-1138,9983.0
2370,0.33852511644363403,17.68064308166504,234,6638.0,-77.65901947021484,-1191,9983.0
2380,0.3379427492618561,9.934327125549316,26,6638.0,-68.46733856201172,-1022,9983.0
2390,0.33908265829086304,-3.795034646987915,-198,6638.0,-45.21192932128906,-682,9983.0
2400,0.34084832668304443,-15.492499351501465,-225,6638.0,-20.6986141204834,-251,9983.0
2410,0.34093424677848816,-18.880096435546875,-222,6638.0,8.983573913574219,292,9983.0
2420,0.3407749533653259,-3.633894443511963,67,6638.0,35.288814544677734,822,9983.0
2430,0.3402779698371887,10.79069709777832,211,6638.0,54.079551696777344,963,9983.0
2440,0.3426528573036194,20.179296493530273,226,6638.0,72.90201568603516,1267,9983.0
2450,0.34212327003479004,16.744384765625,244,6638.0,73.39859008789062,1139,9983.0
2460,0.34133732318878174,18.414579391479492,379,6638.0,62.02808380126953,1045,9983.0
2470,0.3417315185070038,16.294231414794922,215,6638.0,44.53474044799805,556,9983.0
2480,0.3409469723701477,13.855761528015137,155,6638.0,10.587421417236328,-23,9983.0
2490,0.33848148584365845,3.6375982761383057,90,6638.0,-24.074851989746094,-463,9983.0
2500,0.338060587644577,-3.161442756652832,-111,6638.0,-45.983802795410156,-760,9983.0
2510,0.3373769521713257,-7.487155437469482,-195,6638.0,-51.058929443359375,-938,9983.0
2520,0.3367655277252197,-11.557716369628906,-105,6638.0,-49.690650939941406,-862,9983.0
2530,0.3358542323112488,-14.286572456359863,-195,6638.0,-60.29119110107422,-951,9983.0
2540,0.3353162705898285,-21.798418045043945,-448,6638.0,-64.54837036132812,-1053,9983.0
2550,0.33556827902793884,-31.157068252563477,-653,6638.0,-71.0063247680664,-1147,9983.0
2560,0.3355107009410858,-36.77464294433594,-631,6638.0,-66.88359832763672,-1037,9983.0
2570,0.33731162548065186,-25.82270622253418,-305,6638.0,-53.302555084228516,-777,9983.0
2580,0.3377903997898102,-4.460634231567383,60,6638.0,-29.546527862548828,-404,9983.0
2590,0.33858251571655273,14.379857063293457,353,6638.0,10.733848571777344,233,9983.0
2600,0.3396507799625397,27.707538604736328,536,6638.0,56.775390625,898,9983.0
2610,0.3412226438522339,27.776073455810547,509,6638.0,91.40363311767578,1583,9983.0
2620,0.3449632227420807,26.513662338256836,412,6638.0,123.86283874511719,2113,9983.0
2630,0.3454887866973877,19.50404930114746,240,6638.0,140.24703979492188,2451,9983.0
2640,0.34654977917671204,7.379883289337158,-22,6638.0,136.56805419921875,2220,9983.0
2650,0.34645944833755493,-5.027482509613037,-8,6638.0,113.97313690185547,1553,9983.0
2660,0.3421192765235901,-13.612019538879395,-360,6638.0,74.70733642578125,1180,9983.0
2670,0.3431163728237152,-20.908674240112305,-290,6638.0,28.415571212768555,104,9983.0
2680,0.3437427878379822,-18.62156867980957,-326,6638.0,-26.975284576416016,-536,9983.0
2690,0.3442665934562683,-11.219624519348145,-75,6638.0,-69.91487884521484,-1428,9983.0
2700,0.3414156138896942,-2.6997127532958984,-40,6638.0,-95.36933898925781,-1532,9983.0
2710,0.3415709137916565,-0.8558865189552307,-30,6638.0,-100.26934814453125,-1654,9983.0
2720,0.34195926785469055,-0.39344796538352966,86,6638.0,-98.24420928955078,-1675,9983.0
2730,0.3418208360671997,-2.441926956176758,-46,6638.0,-95.46033477783203,-1542,9983.0
2740,0.34209707379341125,-5.885878562927246,-204,6638.0,-88.65066528320312,-1288,9983.0
2750,0.34231576323509216,-8.523200035095215,-196,6638.0,-67.41986083984375,-784,9983.0
2760,0.34297671914100647,-5.878652572631836,-1,6638.0,-34.13201141357422,-422,9983.0
2770,0.3443402647972107,4.5820794105529785,127,6638.0,-0.7995012998580933,50,9983.0
2780,0.34493395686149597,15.18349838256836,381,6638.0,37.59386444091797,597,9983.0
2790,0.34663665294647217,26.047170639038086,501,6638.0,71.26631164550781,1190,9983.0
2800,0.34700775146484375,22.810291290283203,343,6638.0,105.6405258178711,1874,9983.0
2810,0.347387433052063,9.344552040100098,85,6638.0,124.67501831054688,2183,9983.0
2820,0.3469698131084442,-1.7715542316436768,-100,6638.0,120.39798736572266,1912,9983.0
2830,0.34651151299476624,-10.531311988830566,-202,6638.0,97.79930114746094,1321,9983.0
2840,0.34606748819351196,-11.942408561706543,-154,6638.0,58.468936920166016,868,9983.0
2850,0.3455410599708557,-8.54452133178711,-136,6638.0,8.387999534606934,-228,9983.0
2860,0.34600362181663513,5.079232692718506,197,6638.0,-41.158958435058594,-756,9983.0
2870,0.3463202714920044,12.343589782714844,174,6638.0,-76.73155212402344,-1401,9983.0
2880,0.34223470091819763,6.2313313484191895,24,6638.0,-100.9191665649414,-1739,9983.0
2890,0.3424845337867737,-6.614202976226807,-57,6638.0,-116.1166763305664,-1933,9983.0
2900,0.34241724014282227,-14.722289085388184,-307,6638.0,-120.09151458740234,-2024,9983.0
2910,0.34205368161201477,-21.479284286499023,-462,6638.0,-122.92452239990234,-1861,9983.0
2920,0.34373635053634644,-29.95390510559082,-570,6638.0,-111.57299041748047,-1575,9983.0
2930,0.3441970646381378,-39.221797943115234,-603,6638.0,-80.09544372558594,-1078,9983.0
2940,0.34482765197753906,-32.87538146972656,-373,6638.0,-36.000030517578125,-273,9983.0
2950,0.34661075472831726,-8.431587219238281,-3,6638.0,12.4740629196167,436,9983.0
2960,0.3486611247062683,15.2487154006958,361,6638.0,52.4483757019043,1033,9983.0
2970,0.35035839676856995,34.44189453125,581,6638.0,90.89188385009766,1588,9983.0
2980,0.3516150116920471,42.39254379272461,728,6638.0,116.9853744506836,2011,9983.0
2990,0.3525802493095398,28.403324127197266,480,6638.0,129.54229736328125,2098,9983.0
3000,0.3527769446372986,9.453676223754883,-10,6638.0,124.13806915283203,1921,9983.0
3010,0.3510321378707886,-9.458023071289062,-279,6638.0,100.22711181640625,1489,9983.0
3020,0.3510065972805023,-15.867115020751953,-238,6638.0,63.911197662353516,705,9983.0
3030,0.3509702980518341,-22.302534103393555,-372,6638.0,26.41119384765625,321,9983.0
3040,0.35266607999801636,-24.26993179321289,-400,6638.0,-13.067480087280273,-585,9983.0
3050,0.3531470000743866,-16.42751121520996,-140,6638.0,-49.040863037109375,-950,9983.0
3060,0.3456195294857025,-7.059131145477295,-67,6638.0,-76.05652618408203,-1354,9983.0
3070,0.3455520272254944,9.798590660095215,206,6638.0,-91.21195983886719,-1539,9983.0
3080,0.34531959891319275,21.548986434936523,401,6638.0,-98.1681137084961,-1699,9983.0
3090,0.3456398546695709,33.3480110168457,630,6638.0,-101.01030731201172,-1661,9983.0
3100,0.3419039845466614,36.71398162841797,624,6638.0,-96.09671783447266,-1498,9983.0
3110,0.341661661863327,21.481342315673828,201,6638.0,-73.82398986816406,-1011,9983.0
3120,0.3420927822589874,-5.391608238220215,-244,6638.0,-44.41751480102539,-470,9983.0
3130,0.3429436683654785,-28.674604415893555,-584,6638.0,2.6499624252319336,260,9983.0
3140,0.346009761095047,-33.415592193603516,-609,6638.0,37.90923309326172,779,9983.0
3150,0.3468456268310547,-24.235231399536133,-336,6638.0,76.97238159179688,1380,9983.0
3160,0.3471115231513977,-2.301053047180176,13,6638.0,108.59209442138672,2023,9983.0
3170,0.3471968472003937,17.024438858032227,354,6638.0,134.7703857421875,2307,9983.0
3180,0.3470296859741211,23.28264045715332,371,6638.0,140.772705078125,2079,9983.0
3190,0.3460046052932739,20.066431045532227,335,6638.0,123.47398376464844,1953,9983.0
3200,0.34529390931129456,13.281566619873047,151,6638.0,87.0370864868164,1176,9983.0
3210,0.3464767634868622,6.081397533416748,77,6638.0,34.672874450683594,323,9983.0
3220,0.3462117314338684,1.7431355714797974,46,6638.0,-26.88295555114746,-793,9983.0
3230,0.340637743473053,2.015007257461548,48,6638.0,-74.60502624511719,-1301,9983.0
3240,0.3406010866165161,-0.747948408126831,-18,6638.0,-97.61931610107422,-1588,9983.0
3250,0.3400205969810486,-3.9127626419067383,-100,6638.0,-105.6241226196289,-1968,9983.0
3260,0.33977460861206055,-7.846283435821533,-84,6638.0,-109.28376007080078,-1680,9983.0
3270,0.33931446075439453,-9.289292335510254,-158,6638.0,-102.53951263427734,-1540,9983.0
3280,0.3386673331260681,-9.282241821289062,-220,6638.0,-86.3944320678711,-1321,9983.0
3290,0.33933690190315247,-11.234601974487305,-358,6638.0,-57.70100021362305,-749,9983.0
3300,0.3397592306137085,-22.139707565307617,-393,6638.0,-22.6919002532959,-323,9983.0
3310,0.3398995101451874,-20.65730857849121,-270,6638.0,-0.03269186243414879,156,9983.0
3320,0.34490472078323364,-5.682413578033447,96,6638.0,34.1544189453125,693,9983.0
3330,0.34564298391342163,4.901544570922852,247,6638.0,76.48667907714844,1346,9983.0
3340,0.3462739884853363,14.882847785949707,318,6638.0,106.93016815185547,1816,9983.0
3350,0.34651750326156616,26.988618850708008,304,6638.0,126.35286712646484,2257,9983.0
3360,0.3460821211338043,26.49228286743164,435,6638.0,129.86239624023438,2047,9983.0
3370,0.34504076838493347,19.99889373779297,355,6638.0,109.97866821289062,1580,9983.0
3380,0.34694769978523254,11.004718780517578,55,6638.0,64.05835723876953,811,9983.0
3390,0.3466416895389557,-4.608988285064697,-51,6638.0,2.4773917198181152,-248,9983.0
3400,0.3469541668891907,-13.635982513427734,-329,6638.0,-42.483375549316406,-727,9983.0
3410,0.3436603844165802,-18.61712074279785,-270,6638.0,-69.30424499511719,-1376,9983.0
3420,0.34342724084854126,-18.026432037353516,-262,6638.0,-98.76667022705078,-1614,9983.0
3430,0.34317144751548767,-10.03357982635498,-116,6638.0,-124.28604888916016,-2153,9983.0
3440,0.34265685081481934,3.1429519653320312,88,6638.0,-139.43153381347656,-2398,9983.0
3450,0.3406153917312622,21.969911575317383,456,6638.0,-133.13438415527344,-2061,9983.0
3460,0.34241926670074463,23.579320907592773,405,6638.0,-106.23515319824219,-1586,9983.0
3470,0.3419775366783142,12.93126392364502,182,6638.0,-66.14213562011719,-853,9983.0
3480,0.34205278754234314,0.10035867244005203,-72,6638.0,-15.449660301208496,-16,9983.0
3490,0.3442292809486389,-15.571794509887695,-272,6638.0,40.023963928222656,848,9983.0
3500,0.3452703058719635,-26.38991928100586,-390,6638.0,89.08463287353516,1572,9983.0
3510,0.347047358751297,-27.930017471313477,-460,6638.0,123.1083984375,2080,9983.0
3520,0.3474258780479431,-20.29595947265625,-388,6638.0,141.65872192382812,2476,9983.0
3530,0.3470662534236908,-7.722128868103027,-136,6638.0,149.4116668701172,2411,9983.0
3540,0.3453695476055145,4.622546195983887,227,6638.0,137.60923767089844,2129,9983.0
3550,0.344502329826355,14.145528793334961,158,6638.0,107.8332748413086,1585,9983.0
3560,0.34386390447616577,16.441856384277344,326,6638.0,56.399959564208984,642,9983.0
3570,0.34423965215682983,11.555975914001465,52,6638.0,1.0604902505874634,-237,9983.0
3580,0.34054329991340637,4.141209602355957,115,6638.0,-44.280765533447266,-981,9983.0
3590,0.3417016565799713,-1.1676833629608154,-118,6638.0,-85.29483795166016,-1610,9983.0
3600,0.34239116311073303,-2.5790698528289795,79,6638.0,-119.40326690673828,-2185,9983.0
3610,0.3429810702800751,4.9219746589660645,93,6638.0,-145.31712341308594,-2351,9983.0
3620,0.3438732326030731,17.000791549682617,267,6638.0,-144.31439208984375,-2174,9983.0
3630,0.34124356508255005,26.762969970703125,540,6638.0,-116.17899322509766,-1716,9983.0
3640,0.34160497784614563,26.57659149169922,388,6638.0,-74.58777618408203,-1068,9983.0
3650,0.34312278032302856,6.118736267089844,88,6638.0,-24.941747665405273,-209,9983.0
3660,0.3448942303657532,-10.090534210205078,-235,6638.0,24.19832992553711,537,9983.0
3670,0.34660446643829346,-22.257944107055664,-438,6638.0,63.22462463378906,1243,9983.0
3680,0.3476497530937195,-20.23265266418457,-225,6638.0,95.24445343017578,1677,9983.0
3690,0.34796014428138733,-0.3748907744884491,45,6638.0,103.42730712890625,2004,9983.0
3700,0.34821635484695435,15.954548835754395,247,6638.0,110.29090881347656,1724,9983.0
3710,0.34761178493499756,17.7248477935791,246,6638.0,103.67926025390625,1446,9983.0
3720,0.3444633185863495,11.113242149353027,176,6638.0,67.94170379638672,929,9983.0
3730,0.3448547124862671,-5.665410041809082,-193,6638.0,28.48276710510254,434,9983.0
3740,0.3447672426700592,-24.357025146484375,-500,6638.0,-9.722991943359375,-372,9983.0
3750,0.3450982868671417,-28.408056259155273,-379,6638.0,-43.510196685791016,-882,9983.0
3760,0.3409613370895386,-20.11279296875,-274,6638.0,-68.3623046875,-1145,9983.0
3770,0.3406084179878235,-7.2101898193359375,-104,6638.0,-89.333740234375,-1490,9983.0
3780,0.3401327133178711,-0.768677294254303,39,6638.0,-106.58394622802734,-2013,9983.0
3790,0.34059271216392517,-1.9711376428604126,-93,6638.0,-123.0064697265625,-2056,9983.0
3800,0.33822762966156006,-5.268033981323242,-45,6638.0,-121.82968139648438,-1935,9983.0
3810,0.33821097016334534,-9.222199440002441,-61,6638.0,-99.232177734375,-1529,9983.0
3820,0.33818507194519043,-6.045588493347168,-22,6638.0,-65.59857177734375,-974,9983.0
3830,0.34088313579559326,-3.331641435623169,-42,6638.0,-24.764802932739258,-313,9983.0
3840,0.34255117177963257,-0.22111999988555908,-57,6638.0,26.36103057861328,516,9983.0
3850,0.3468315601348877,4.71483039855957,30,6638.0,71.78104400634766,1286,9983.0
3860,0.34799304604530334,5.362292766571045,70,6638.0,110.738037109375,1983,9983.0
3870,0.3486308157444,8.734201431274414,268,6638.0,144.85476684570312,2508,9983.0
3880,0.3493451178073883,9.600756645202637,214,6638.0,168.82261657714844,2773,9983.0
3890,0.34773173928260803,10.776840209960938,38,6638.0,171.7561798095703,2890,9983.0
3900,0.3477121889591217,10.82308292388916,204,6638.0,156.07106018066406,2372,9983.0
3910,0.3494485318660736,17.01662254333496,313,6638.0,124.29662322998047,1830,9983.0
3920,0.34863197803497314,19.774433135986328,313,6638.0,69.6383056640625,811,9983.0
3930,0.3502783477306366,12.304482460021973,141,6638.0,-2.1024084091186523,-337,9983.0
3940,0.3441460132598877,-4.113491535186768,-175,6638.0,-67.4006576538086,-1327,9983.0
3950,0.34431061148643494,-18.19565773010254,-305,6638.0,-118.19070434570312,-2160,9983.0
3960,0.34536540508270264,-30.901784896850586,-495,6638.0,-147.50201416015625,-2546,9983.0
3970,0.34538012742996216,-29.233816146850586,-455,6638.0,-165.38172912597656,-2654,9983.0
3980,0.3405553996562958,-20.37354850769043,-303,6638.0,-172.66339111328125,-2845,9983.0
3990,0.34252047538757324,-4.406428813934326,-77,6638.0,-161.6162872314453,-2494,9983.0
4000,0.34217241406440735,9.82272720336914,247,6638.0,-136.0720672607422,-2063,9983.0
4010,0.34212180972099304,14.563908576965332,211,6638.0,-103.69759368896484,-1592,9983.0
4020,0.34600844979286194,8.830193519592285,148,6638.0,-58.201927185058594,-852,9983.0
4030,0.34933868050575256,4.761890888214111,11,6638.0,-0.742585301399231,314,9983.0
4040,0.3502686619758606,-4.521736145019531,-78,6638.0,67.5797119140625,1484,9983.0
4050,0.352125883102417,-2.8358829021453857,-62,6638.0,133.8525848388672,2483,9983.0
4060,0.35284659266471863,-1.4305965900421143,-25,6638.0,173.99766540527344,3072,9983.0
4070,0.35416415333747864,3.3466246128082275,133,6638.0,205.476806640625,3428,9983.0
4080,0.35422083735466003,0.6427017450332642,86,6638.0,212.28048706054688,3427,9983.0
4090,0.3533673882484436,0.6986810564994812,15,6638.0,195.43389892578125,3154,9983.0
4100,0.3527858853340149,-6.368985652923584,-144,6638.0,160.9571990966797,2202,9983.0
4110,0.3465719223022461,-12.284040451049805,-169,6638.0,88.06336975097656,1219,9983.0
4120,0.34587031602859497,-9.63343620300293,-147,6638.0,23.25494384765625,-71,9983.0
4130,0.3466798961162567,-2.1755850315093994,-16,6638.0,-49.67601013183594,-1075,9983.0
4140,0.3487289845943451,4.7234368324279785,176,6638.0,-101.74992370605469,-2071,9983.0
4150,0.3508281707763672,8.812232971191406,107,6638.0,-158.47457885742188,-2726,9983.0
4160,0.3439696133136749,10.150449752807617,173,6638.0,-196.98475646972656,-3391,9983.0
4170,0.34482237696647644,7.482548713684082,105,6638.0,-219.4906005859375,-3721,9983.0
4180,0.34473687410354614,8.804083824157715,190,6638.0,-211.32725524902344,-3386,9983.0
4190,0.34467974305152893,1.6690678596496582,78,6638.0,-188.52720642089844,-2904,9983.0
4200,0.34870919585227966,-7.755877494812012,-130,6638.0,-147.794921875,-2146,9983.0
4210,0.35015687346458435,-14.398513793945312,-317,6638.0,-97.12113189697266,-1252,9983.0
4220,0.3514242172241211,-18.966955184936523,-319,6638.0,-31.77655029296875,-166,9983.0
4230,0.3537840247154236,-19.62289047241211,-273,6638.0,31.395793914794922,844,9983.0
4240,0.35929858684539795,-12.213953971862793,-48,6638.0,90.4855728149414,1734,9983.0
4250,0.36111199855804443,-0.889901340007782,113,6638.0,135.34109497070312,2306,9983.0
4260,0.36231446266174316,7.177964210510254,158,6638.0,162.35545349121094,2679,9983.0
4270,0.36313337087631226,11.213563919067383,319,6638.0,174.51162719726562,2787,9983.0
4280,0.3653987944126129,10.406987190246582,74,6638.0,159.26156616210938,2461,9983.0
4290,0.3562606871128082,3.320387363433838,-22,6638.0,129.935546875,1958,9983.0
4300,0.3561096489429474,-9.592859268188477,-189,6638.0,92.36808013916016,1122,9983.0
4310,0.35659700632095337,-11.929012298583984,-193,6638.0,38.31666564941406,348,9983.0
4320,0.35861364006996155,-1.7781431674957275,131,6638.0,-25.237342834472656,-871,9983.0
4330,0.3486481308937073,15.703869819641113,277,6638.0,-88.66326904296875,-1783,9983.0
4340,0.3502868115901947,29.999013900756836,626,6638.0,-127.82489013671875,-2129,9983.0
4350,0.351682186126709,43.182926177978516,610,6638.0,-131.70242309570312,-1997,9983.0
4360,0.35381370782852173,36.53330612182617,392,6638.0,-118.8001937866211,-1831,9983.0
4370,0.3552361726760864,7.00006628036499,-70,6638.0,-92.42674255371094,-1313,9983.0
4380,0.35087355971336365,-17.328725814819336,-348,6638.0,-51.61239242553711,-696,9983.0
4390,0.3522256314754486,-36.58142852783203,-610,6638.0,-5.033718585968018,-93,9983.0
4400,0.35341009497642517,-41.565399169921875,-746,6638.0,39.156822204589844,736,9983.0
4410,0.35467562079429626,-37.75460433959961,-531,6638.0,76.50613403320312,1303,9983.0
4420,0.3532516360282898,-25.602340698242188,-297,6638.0,102.02934265136719,1587,9983.0
4430,0.3537169396877289,-1.8200801610946655,138,6638.0,109.16151428222656,1754,9983.0
4440,0.35451602935791016,20.874305725097656,378,6638.0,101.51197814941406,1646,9983.0
4450,0.35504281520843506,35.86559295654297,597,6638.0,82.89421081542969,1407,9983.0
4460,0.3475326597690582,38.584922790527344,534,6638.0,58.15627670288086,930,9983.0
4470,0.347520112991333,25.16980743408203,394,6638.0,31.1375675201416,197,9983.0
4480,0.3485199213027954,4.743422031402588,10,6638.0,-2.198953151702881,-257,9983.0
4490,0.34917348623275757,-15.64401912689209,-338,6638.0,-42.60041427612305,-827,9983.0
4500,0.35030075907707214,-22.749073028564453,-293,6638.0,-82.61880493164062,-1437,9983.0
4510,0.3414340317249298,-11.903389930725098,-227,6638.0,-102.20877075195312,-1544,9983.0
4520,0.3421609103679657,-4.196492671966553,-79,6638.0,-92.47575378417969,-1414,9983.0
4530,0.34270206093788147,-7.987857341766357,-241,6638.0,-75.53610229492188,-1038,9983.0
4540,0.3433842062950134,-7.315943241119385,-77,6638.0,-49.328426361083984,-524,9983.0
4550,0.3422345519065857,-9.524404525756836,-248,6638.0,-7.482272624969482,125,9983.0
4560,0.3426385819911957,-15.102934837341309,-265,6638.0,29.454526901245117,741,9983.0
4570,0.34301620721817017,-11.308624267578125,-129,6638.0,55.10991287231445,1077,9983.0
4580,0.34306132793426514,-0.17103464901447296,-53,6638.0,79.51702117919922,1457,9983.0
4590,0.3428025245666504,8.016247749328613,235,6638.0,91.85440826416016,1647,9983.0
4600,0.34133559465408325,17.263586044311523,230,6638.0,88.71878814697266,1474,9983.0
4610,0.34171462059020996,18.583969116210938,293,6638.0,65.4488754272461,774,9983.0
4620,0.3416060507297516,15.959589958190918,256,6638.0,26.589996337890625,224,9983.0
4630,0.34174084663391113,4.885547161102295,108,6638.0,-12.575783729553223,-466,9983.0
4640,0.3374398350715637,-1.4497214555740356,-37,6638.0,-40.703163146972656,-629,9983.0
4650,0.3371449410915375,-3.807105541229248,-149,6638.0,-56.1575927734375,-961,9983.0
4660,0.33676329255104065,-8.591755867004395,-178,6638.0,-71.5135498046875,-1142,9983.0
4670,0.3364277184009552,-18.85051727294922,-384,6638.0,-83.28783416748047,-1403,9983.0
4680,0.3352442979812622,-26.049707412719727,-433,6638.0,-87.38710021972656,-1361,9983.0
4690,0.3356809616088867,-27.85588836669922,-432,6638.0,-63.19951629638672,-969,9983.0
4700,0.3363138735294342,-14.814767837524414,-199,6638.0,-29.175342559814453,-207,9983.0
4710,0.33722972869873047,4.974316596984863,199,6638.0,10.419185638427734,417,9983.0
4720,0.3383268713951111,22.877683639526367,373,6638.0,48.99568176269531,983,9983.0
4730,0.34129801392555237,30.280298233032227,420,6638.0,81.05403900146484,1566,9983.0
4740,0.34216001629829407,29.736194610595703,415,6638.0,106.21041870117188,1860,9983.0
4750,0.3428274989128113,12.050712585449219,38,6638.0,118.9998550415039,1994,9983.0
4760,0.3430476784706116,-4.320101737976074,-92,6638.0,111.81471252441406,1680,9983.0
4770,0.3428381681442261,-12.334897994995117,-230,6638.0,85.99561309814453,1180,9983.0
4780,0.3432125747203827,-11.718764305114746,-174,6638.0,43.319950103759766,482,9983.0
4790,0.3436743915081024,-2.606282949447632,49,6638.0,-5.635493755340576,-236,9983.0
4800,0.34434354305267334,7.85721492767334,144,6638.0,-48.4663200378418,-1014,9983.0
4810,0.34500852227211,14.998189926147461,244,6638.0,-79.96366882324219,-1466,9983.0
4820,0.34315264225006104,8.008382797241211,199,6638.0,-98.6204833984375,-1580,9983.0
4830,0.34312334656715393,0.7037608027458191,-81,6638.0,-102.45304870605469,-1562,9983.0
4840,0.34274160861968994,-4.996865272521973,-131,6638.0,-89.45211791992188,-1263,9983.0
4850,0.3448091149330139,-8.171432495117188,-215,6638.0,-64.06368255615234,-922,9983.0
4860,0.3474287688732147,-10.152109146118164,-175,6638.0,-47.19126510620117,-592,9983.0
4870,0.34745505452156067,-7.7218098640441895,-90,6638.0,-21.1849308013916,-166,9983.0
4880,0.3476724922657013,-2.3196048736572266,-56,6638.0,11.505105972290039,311,9983.0
4890,0.3476434648036957,4.205646991729736,222,6638.0,38.490150451660156,738,9983.0
4900,0.35162219405174255,20.727638244628906,393,6638.0,61.34196853637695,1064,9983.0
4910,0.3510856628417969,27.46663475036621,316,6638.0,80.0657730102539,1407,9983.0
4920,0.3502538204193115,8.531698226928711,78,6638.0,91.90796661376953,1488,9983.0
4930,0.34964504837989807,-4.316725730895996,-232,6638.0,84.41099548339844,1468,9983.0
4940,0.34820303320884705,-12.212237358093262,-228,6638.0,64.51166534423828,748,9983.0
4950,0.34587791562080383,-15.20102596282959,-272,6638.0,34.70397186279297,330,9983.0
4960,0.3445480465888977,-12.728524208068848,-162,6638.0,-8.08137035369873,-260,9983.0
4970,0.3428385257720947,-5.100110054016113,-105,6638.0,-40.055694580078125,-790,9983.0
4980,0.34066569805145264,3.2501463890075684,121,6638.0,-61.55844497680664,-1227,9983.0
4990,0.337350070476532,4.9034743309021,68,6638.0,-78.97428894042969,-1191,9983.0
5000,0.3346443176269531,6.5290751457214355,111,6638.0,-93.53873443603516,-1550,9983.0
5010,0.33189305663108826,9.773085594177246,159,6638.0,-100.66777801513672,-1807,9983.0
5020,0.32946324348449707,17.467575073242188,381,6638.0,-101.40235900878906,-1668,9983.0
5030,0.3265249729156494,26.287492752075195,495,6638.0,-85.77090454101562,-1406,9983.0
5040,0.3282461166381836,19.75153923034668,320,6638.0,-54.85365295410156,-809,9983.0
5050,0.32708343863487244,2.378021478652954,42,6638.0,-4.897308349609375,103,9983.0
5060,0.32790157198905945,-15.865355491638184,-323,6638.0,39.390525817871094,821,9983.0
5070,0.32801133394241333,-33.23866271972656,-505,6638.0,78.61862182617188,1282,9983.0
5080,0.3320513367652893,-36.50211715698242,-607,6638.0,104.75596618652344,1774,9983.0
5090,0.331859290599823,-39.28022766113281,-557,6638.0,120.56352996826172,2046,9983.0
5100,0.3325051963329315,-22.742027282714844,-371,6638.0,127.41227722167969,2011,9983.0
5110,0.3327729403972626,0.49948617815971375,196,6638.0,117.77265930175781,1900,9983.0
5120,0.32825902104377747,24.72455406188965,449,6638.0,89.0587158203125,1241,9983.0
5130,0.32913461327552795,43.999305725097656,789,6638.0,47.33326721191406,657,9983.0
5140,0.3304848372936249,50.40583038330078,800,6638.0,0.4757246971130371,-218,9983.0
5150,0.33098462224006653,44.118690490722656,641,6638.0,-41.50933837890625,-868,9983.0
5160,0.3319774866104126,30.717391967773438,508,6638.0,-73.89117431640625,-1192,9983.0
5170,0.32758989930152893,11.142842292785645,29,6638.0,-89.90219116210938,-1524,9983.0
5180,0.3281525671482086,-4.714651107788086,-160,6638.0,-94.86056518554688,-1550,9983.0
5190,0.32839250564575195,-16.35907554626465,-246,6638.0,-90.3790512084961,-1501,9983.0
5200,0.328340083360672,-19.358396530151367,-188,6638.0,-79.27250671386719,-1399,9983.0
5210,0.32833945751190186,-7.345500946044922,1,6638.0,-68.09564971923828,-1215,9983.0
5220,0.32947269082069397,1.4056496620178223,1,6638.0,-47.229042053222656,-706,9983.0
5230,0.32958337664604187,-12.739113807678223,-285,6638.0,-14.274847984313965,-119,9983.0
5240,0.33049625158309937,-31.586896896362305,-575,6638.0,24.261125564575195,538,9983.0
5250,0.33126100897789,-44.47524642944336,-693,6638.0,66.27141571044922,1312,9983.0
5260,0.3318784534931183,-42.87166976928711,-528,6638.0,102.62613677978516,1751,9983.0
5270,0.33181312680244446,-31.509628295898438,-449,6638.0,123.38043975830078,2064,9983.0
5280,0.3314811885356903,-14.741875648498535,-230,6638.0,126.89644622802734,2122,9983.0
5290,0.3305416405200958,3.0358123779296875,212,6638.0,115.12963104248047,1749,9983.0
5300,0.32650700211524963,13.670493125915527,143,6638.0,78.84221649169922,1141,9983.0
5310,0.3258013129234314,20.168798446655273,475,6638.0,29.162553787231445,139,9983.0
5320,0.3246002197265625,31.967601776123047,438,6638.0,-20.47378921508789,-463,9983.0
5330,0.32373109459877014,33.79119110107422,682,6638.0,-56.94694900512695,-1139,9983.0
5340,0.3189912736415863,29.546215057373047,360,6638.0,-81.30963897705078,-1317,9983.0
5350,0.31762176752090454,14.096596717834473,133,6638.0,-92.98338317871094,-1504,9983.0
5360,0.31702595949172974,-2.795053005218506,-89,6638.0,-95.08815002441406,-1715,9983.0
5370,0.31597697734832764,-9.327753067016602,-108,6638.0,-92.37064361572266,-1546,9983.0
5380,0.3164016306400299,-5.255016326904297,-53,6638.0,-88.73521423339844,-1414,9983.0
5390,0.31298738718032837,1.1374300718307495,57,6638.0,-78.25900268554688,-1135,9983.0
5400,0.31223565340042114,1.8603473901748657,24,6638.0,-43.83509826660156,-559,9983.0
5410,0.31391391158103943,-5.839460849761963,-73,6638.0,-1.3751929998397827,110,9983.0
5420,0.31497031450271606,-10.356439590454102,-101,6638.0,47.652183532714844,902,9983.0
5430,0.3136143982410431,-13.843716621398926,-185,6638.0,97.95127868652344,1703,9983.0
5440,0.3139781057834625,-9.647964477539062,-145,6638.0,138.61289978027344,2371,9983.0
5450,0.3135189712047577,1.0669025182724,34,6638.0,156.44503784179688,2717,9983.0
5460,0.3114517033100128,11.17606258392334,202,6638.0,155.20838928222656,2473,9983.0
5470,0.30887240171432495,17.994998931884766,349,6638.0,139.7881622314453,2157,9983.0
5480,0.30777037143707275,29.999547958374023,562,6638.0,109.8220443725586,1660,9983.0
5490,0.30644524097442627,38.715171813964844,616,6638.0,56.4009895324707,572,9983.0
5500,0.3061661422252655,35.311241149902344,569,6638.0,-10.015244483947754,-386,9983.0
5510,0.3074008822441101,26.878707885742188,344,6638.0,-75.26071166992188,-1623,9983.0
5520,0.3033042252063751,9.309431076049805,44,6638.0,-131.01353454589844,-2192,9983.0
5530,0.3022790551185608,-13.859688758850098,-354,6638.0,-160.15957641601562,-2737,9983.0
5540,0.30021044611930847,-33.890838623046875,-690,6638.0,-172.78843688964844,-3043,9983.0
5550,0.3018035292625427,-50.114662170410156,-863,6638.0,-181.2004852294922,-3057,9983.0
5560,0.2951214909553528,-54.878326416015625,-906,6638.0,-191.48333740234375,-2997,9983.0
5570,0.2905712425708771,-58.35860061645508,-937,6638.0,-181.27330017089844,-2734,9983.0
5580,0.2881971597671509,-50.22795867919922,-713,6638.0,-153.7388916015625,-2231,9983.0
5590,0.29016757011413574,-28.827951431274414,-254,6638.0,-103.56283569335938,-1358,9983.0
5600,0.2894597053527832,-15.256489753723145,-212,6638.0,-37.50992202758789,-165,9983.0
5610,0.2899123430252075,-17.729639053344727,-166,6638.0,42.32867431640625,1051,9983.0
5620,0.2927132248878479,-12.676803588867188,-41,6638.0,110.83280181884766,2181,9983.0
5630,0.29066264629364014,-2.379120349884033,50,6638.0,163.77598571777344,2999,9983.0
5640,0.29321596026420593,0.13204596936702728,6,6638.0,196.4544219970703,3390,9983.0
5650,0.28720182180404663,3.2305564880371094,159,6638.0,211.01458740234375,3248,9983.0
5660,0.28693732619285583,11.970882415771484,245,6638.0,202.4283447265625,3257,9983.0
5670,0.28733792901039124,27.256322860717773,547,6638.0,170.5749969482422,2593,9983.0
5680,0.2867526710033417,38.04448318481445,628,6638.0,119.09031677246094,1610,9983.0
5690,0.28524309396743774,38.22452163696289,609,6638.0,54.948360443115234,479,9983.0
5700,0.2798074185848236,34.089969635009766,533,6638.0,-7.2515950202941895,-438,9983.0
5710,0.2801961600780487,28.889379501342773,359,6638.0,-63.90642547607422,-1223,9983.0
5720,0.2799283266067505,19.16758918762207,352,6638.0,-112.15491485595703,-2094,9983.0
5730,0.2802116572856903,8.836560249328613,109,6638.0,-145.5139923095703,-2506,9983.0
5740,0.2743803858757019,-1.2765192985534668,-177,6638.0,-160.51727294921875,-2554,9983.0
5750,0.27520862221717834,-10.232069969177246,-266,6638.0,-161.75502014160156,-2649,9983.0
5760,0.2747396230697632,-14.738637924194336,-243,6638.0,-146.99171447753906,-2421,9983.0
5770,0.2730298340320587,-13.559344291687012,-125,6638.0,-116.11255645751953,-1800,9983.0
5780,0.26700812578201294,-10.086509704589844,-75,6638.0,-64.86833953857422,-954,9983.0
5790,0.26876309514045715,-12.013304710388184,-153,6638.0,-9.354745864868164,-33,9983.0
5800,0.26972711086273193,-20.096216201782227,-277,6638.0,55.141170501708984,1102,9983.0
5810,0.27272844314575195,-23.770450592041016,-383,6638.0,116.57093048095703,2081,9983.0
5820,0.2754647731781006,-34.992347717285156,-568,6638.0,163.70050048828125,2802,9983.0
5830,0.2683728039264679,-44.08388900756836,-777,6638.0,187.0274200439453,3177,9983.0
5840,0.2699115574359894,-47.23033905029297,-877,6638.0,192.3647918701172,3065,9983.0
5850,0.27037620544433594,-43.353797912597656,-613,6638.0,177.64300537109375,2856,9983.0
5860,0.270582377910614,-27.886463165283203,-361,6638.0,145.7406768798828,2149,9983.0
5870,0.26495853066444397,-3.1694979667663574,58,6638.0,97.4660873413086,1456,9983.0
5880,0.2694892883300781,24.781259536743164,643,6638.0,42.050086975097656,354,9983.0
5890,0.2704166769981384,51.70537185668945,797,6638.0,-12.492899894714355,-499,9983.0
5900,0.27182650566101074,67.39485168457031,1290,6638.0,-58.46158218383789,-1020,9983.0
5910,0.2674431800842285,74.10004425048828,1124,6638.0,-93.029296875,-1695,9983.0
5920,0.2693348228931427,67.3343276977539,1060,6638.0,-113.65606689453125,-1994,9983.0
5930,0.27020105719566345,58.803627014160156,930,6638.0,-118.79161834716797,-1884,9983.0
5940,0.2712058424949646,50.050872802734375,722,6638.0,-113.90068817138672,-1678,9983.0
5950,0.27221372723579407,38.84026336669922,498,6638.0,-88.66873168945312,-1143,9983.0
5960,0.26989784836769104,15.829447746276855,38,6638.0,-43.09114074707031,-369,9983.0
5970,0.27071985602378845,-13.557579040527344,-359,6638.0,11.454072952270508,533,9983.0
5980,0.27211543917655945,-33.87785339355469,-651,6638.0,58.916866302490234,1261,9983.0
5990,0.27325984835624695,-44.79729080200195,-795,6638.0,90.06169891357422,1699,9983.0
6000,0.2689743638038635,-48.08074951171875,-861,6638.0,107.84947204589844,1792,9983.0
6010,0.2687576413154602,-46.050357818603516,-658,6638.0,108.5893783569336,1798,9983.0
6020,0.26804405450820923,-39.747047424316406,-565,6638.0,93.6670150756836,1476,9983.0
6030,0.267263799905777,-32.53769302368164,-589,6638.0,66.19635009765625,773,9983.0
6040,0.26838499307632446,-24.8177433013916,-340,6638.0,20.960189819335938,262,9983.0
6050,0.2634064853191376,-15.338589668273926,-235,6638.0,-17.68113136291504,-454,9983.0
6060,0.2624218165874481,-2.8210182189941406,49,6638.0,-52.248294830322266,-964,9983.0
6070,0.2612431049346924,9.948906898498535,153,6638.0,-77.1658706665039,-1315,9983.0
6080,0.2591819763183594,15.05373477935791,331,6638.0,-93.0239486694336,-1719,9983.0
6090,0.2537899613380432,12.799001693725586,195,6638.0,-98.85266876220703,-1599,9983.0
6100,0.2512522339820862,10.085996627807617,32,6638.0,-97.51055145263672,-1481,9983.0
6110,0.2494688481092453,9.655621528625488,102,6638.0,-84.49851989746094,-1294,9983.0
6120,0.24852852523326874,5.370965480804443,96,6638.0,-56.562374114990234,-832,9983.0
6130,0.24266169965267181,-5.271205902099609,-72,6638.0,-15.661664009094238,-70,9983.0
6140,0.2414492517709732,-17.273611068725586,-319,6638.0,34.13029861450195,870,9983.0
6150,0.24083124101161957,-21.225006103515625,-393,6638.0,84.98271179199219,1604,9983.0
6160,0.23965919017791748,-14.580462455749512,-214,6638.0,118.29442596435547,1939,9983.0
6170,0.23880311846733093,-4.116216659545898,51,6638.0,135.39480590820312,2262,9983.0
6180,0.23587217926979065,8.115605354309082,164,6638.0,133.8670196533203,1901,9983.0
6190,0.23430180549621582,15.21052074432373,311,6638.0,109.68208312988281,1723,9983.0
6200,0.2358100712299347,18.498180389404297,378,6638.0,72.88108825683594,927,9983.0
6210,0.23478560149669647,19.549728393554688,323,6638.0,27.30925750732422,123,9983.0
6220,0.23294664919376373,18.145992279052734,300,6638.0,-18.493288040161133,-546,9983.0
6230,0.23275429010391235,14.65278148651123,164,6638.0,-56.98661422729492,-1143,9983.0
6240,0.23210756480693817,7.659541606903076,25,6638.0,-83.89563751220703,-1420,9983.0
6250,0.23192456364631653,-0.009405253455042839,56,6638.0,-96.64753723144531,-1672,9983.0
6260,0.23173658549785614,-8.44284725189209,-165,6638.0,-97.1935043334961,-1465,9983.0
6270,0.22696775197982788,-13.458474159240723,-252,6638.0,-86.35203552246094,-1399,9983.0
6280,0.2261693775653839,-16.01947784423828,-153,6638.0,-68.49663543701172,-1077,9983.0
6290,0.22764617204666138,-11.672395706176758,-158,6638.0,-48.26576232910156,-586,9983.0
6300,0.22749848663806915,-6.319233417510986,-114,6638.0,-21.16190528869629,-81,9983.0
6310,0.22488170862197876,-4.7564697265625,-154,6638.0,14.64454174041748,446,9983.0
6320,0.2252451479434967,-17.43210792541504,-311,6638.0,50.42164993286133,865,9983.0
6330,0.2252432256937027,-27.08023452758789,-441,6638.0,66.46632385253906,1196,9983.0
6340,0.2253820151090622,-25.780811309814453,-368,6638.0,79.5263900756836,1138,9983.0
6350,0.22338354587554932,-15.3184175491333,-196,6638.0,81.79692077636719,1365,9983.0
6360,0.22350715100765228,-5.451573371887207,-67,6638.0,77.32331848144531,1243,9983.0
6370,0.22508978843688965,1.799818515777588,44,6638.0,61.330013275146484,1014,9983.0
6380,0.22488552331924438,5.815583229064941,179,6638.0,33.01548385620117,387,9983.0
6390,0.22488011419773102,9.523014068603516,134,6638.0,2.968740224838257,-202,9983.0
6400,0.22398962080478668,12.009573936462402,128,6638.0,-33.10115051269531,-557,9983.0
6410,0.22375546395778656,12.796616554260254,296,6638.0,-60.68488693237305,-1048,9983.0
6420,0.22319453954696655,11.075993537902832,129,6638.0,-79.13973236083984,-1516,9983.0
6430,0.2221108376979828,10.104682922363281,195,6638.0,-86.85315704345703,-1437,9983.0
6440,0.21881379187107086,6.953243732452393,12,6638.0,-81.7585220336914,-1295,9983.0
6450,0.21879105269908905,3.650143623352051,88,6638.0,-62.14889907836914,-989,9983.0
6460,0.21799081563949585,4.21850061416626,54,6638.0,-37.576847076416016,-432,9983.0
6470,0.21738341450691223,5.404940128326416,27,6638.0,-8.752882957458496,-96,9983.0
6480,0.21654848754405975,3.541966199874878,97,6638.0,13.785526275634766,269,9983.0
6490,0.21247361600399017,3.046114683151245,66,6638.0,30.3223876953125,662,9983.0
6500,0.21169665455818176,2.777531385421753,33,6638.0,44.08842468261719,748,9983.0
6510,0.21094805002212524,3.617769718170166,146,6638.0,56.04486846923828,1019,9983.0
6520,0.210150346159935,9.396344184875488,40,6638.0,65.84856414794922,1137,9983.0
6530,0.2058650702238083,9.332754135131836,241,6638.0,63.739009857177734,888,9983.0
6540,0.20531263947486877,9.90595531463623,75,6638.0,54.948486328125,864,9983.0
6550,0.20424044132232666,1.9104806184768677,63,6638.0,40.561344146728516,555,9983.0
6560,0.20319892466068268,-3.078023672103882,-201,6638.0,23.944944381713867,316,9983.0
6570,0.2020481526851654,-8.803242683410645,-173,6638.0,7.3586249351501465,39,9983.0
6580,0.20138566195964813,-18.57605743408203,-389,6638.0,-2.557486057281494,-59,9983.0
6590,0.20049944519996643,-24.78426170349121,-328,6638.0,-7.181915283203125,6,9983.0
6600,0.1995469629764557,-19.807456970214844,-295,6638.0,-12.736391067504883,-327,9983.0
6610,0.1986364871263504,-7.690319061279297,-61,6638.0,-19.248111724853516,-247,9983.0
6620,0.1965412050485611,3.324357271194458,104,6638.0,-21.302160263061523,-415,9983.0
6630,0.1972820907831192,16.710838317871094,338,6638.0,-18.424541473388672,-194,9983.0
6640,0.1967596858739853,27.61246681213379,476,6638.0,-10.019052505493164,-263,9983.0
6650,0.196201890707016,31.313814163208008,570,6638.0,-3.962763786315918,7,9983.0
6660,0.19764308631420135,32.75916290283203,483,6638.0,6.470404624938965,-25,9983.0
6670,0.19763600826263428,28.0970516204834,455,6638.0,11.26716423034668,288,9983.0
6680,0.19800914824008942,19.647947311401367,183,6638.0,16.873489379882812,312,9983.0
6690,0.19859294593334198,10.656153678894043,204,6638.0,21.776050567626953,246,9983.0
6700,0.1974213719367981,7.064905166625977,170,6638.0,22.456024169921875,388,9983.0
6710,0.19782470166683197,5.306694984436035,68,6638.0,25.25252914428711,330,9983.0
6720,0.19822220504283905,3.6677305698394775,120,6638.0,24.31104850769043,423,9983.0
6730,0.19837293028831482,5.043684959411621,19,6638.0,21.135379791259766,334,9983.0
6740,0.19891579449176788,6.707639694213867,115,6638.0,16.926015853881836,159,9983.0
6750,0.2015313059091568,9.93377685546875,149,6638.0,9.603226661682129,170,9983.0
6760,0.20209361612796783,7.617303371429443,47,6638.0,-0.608269214630127,-154,9983.0
6770,0.2021089643239975,-3.0819313526153564,-81,6638.0,-14.142766952514648,-278,9983.0
6780,0.20206309854984283,-11.253776550292969,-251,6638.0,-29.72950553894043,-481,9983.0
6790,0.20171816647052765,-17.673601150512695,-259,6638.0,-38.49367141723633,-719,9983.0
6800,0.20126424729824066,-20.329866409301758,-291,6638.0,-38.410037994384766,-538,9983.0
6810,0.20056408643722534,-20.955245971679688,-438,6638.0,-32.71150207519531,-409,9983.0
6820,0.20032456517219543,-22.858734130859375,-319,6638.0,-23.998830795288086,-369,9983.0
6830,0.19982270896434784,-23.254085540771484,-354,6638.0,-12.35925006866455,-75,9983.0
6840,0.19989177584648132,-20.626712799072266,-355,6638.0,-2.8068244457244873,-83,9983.0
6850,0.19938188791275024,-14.825912475585938,-130,6638.0,4.704261302947998,15,9983.0
6860,0.1993432641029358,-6.613661766052246,-64,6638.0,7.285076141357422,183,9983.0
6870,0.19871017336845398,2.661560297012329,165,6638.0,14.203700065612793,218,9983.0
6880,0.19853007793426514,4.431135177612305,44,6638.0,19.821104049682617,479,9983.0
6890,0.19827520847320557,0.743217408657074,-10,6638.0,23.000736236572266,345,9983.0
6900,0.19763773679733276,-3.6377077102661133,-63,6638.0,20.371675491333008,373,9983.0
6910,0.19703900814056396,-2.426659345626831,-53,6638.0,14.303269386291504,109,9983.0
6920,0.19746685028076172,0.48822513222694397,7,6638.0,5.26466178894043,102,9983.0
6930,0.19686421751976013,3.4726898670196533,-9,6638.0,-4.031948566436768,-219,9983.0
6940,0.19599206745624542,3.284179210662842,148,6638.0,-14.1235990524292,-208,9983.0
6950,0.19541488587856293,3.3644044399261475,23,6638.0,-17.951879501342773,-443,9983.0
6960,0.19473280012607574,6.218255043029785,204,6638.0,-18.946550369262695,-304,9983.0
6970,0.19466710090637207,9.449511528015137,105,6638.0,-14.894035339355469,-139,9983.0
6980,0.19424308836460114,10.186739921569824,176,6638.0,-6.679860591888428,-136,9983.0
6990,0.1938314139842987,7.468594074249268,110,6638.0,2.4324562549591064,180,9983.0
7000,0.19295671582221985,4.924261569976807,39,6638.0,11.498113632202148,127,9983.0
7010,0.1953698843717575,3.817760944366455,121,6638.0,14.41091537475586,326,9983.0
7020,0.19484396278858185,6.731930732727051,16,6638.0,14.464122772216797,211,9983.0
7030,0.1946435570716858,7.164780139923096,193,6638.0,12.371525764465332,191,9983.0
7040,0.1951502114534378,7.674224376678467,55,6638.0,11.708931922912598,227,9983.0
7050,0.19713933765888214,2.5962727069854736,116,6638.0,13.09765911102295,226,9983.0
7060,0.19706985354423523,0.8106871843338013,-39,6638.0,14.738802909851074,313,9983.0
7070,0.19714495539665222,0.6290099620819092,59,6638.0,17.07498550415039,177,9983.0
7080,0.19688598811626434,3.4029603004455566,52,6638.0,16.774974822998047,297,9983.0
7090,0.19706112146377563,4.066860198974609,73,6638.0,15.94500732421875,161,9983.0
7100,0.19458121061325073,-2.6354076862335205,-108,6638.0,13.059245109558105,265,9983.0
7110,0.19430023431777954,-12.59530258178711,-226,6638.0,10.997437477111816,-25,9983.0
7120,0.19373609125614166,-24.124074935913086,-475,6638.0,1.6071792840957642,119,9983.0
7130,0.19353018701076508,-29.55913734436035,-436,6638.0,-2.3191089630126953,-34,9983.0
7140,0.19413217902183533,-28.10845184326172,-527,6638.0,-4.825540065765381,-24,9983.0
7150,0.1933017522096634,-30.017024993896484,-435,6638.0,-12.247633934020996,-181,9983.0
7160,0.19228319823741913,-26.766878128051758,-481,6638.0,-24.332170486450195,-543,9983.0
7170,0.1931549608707428,-14.760958671569824,-225,6638.0,-32.79561996459961,-507,9983.0
7180,0.19223064184188843,-4.770031452178955,55,6638.0,-26.77981948852539,-465,9983.0
7190,0.19397231936454773,12.114130973815918,168,6638.0,-16.424633026123047,-257,9983.0
7200,0.19373565912246704,23.61249542236328,442,6638.0,-1.0742242336273193,102,9983.0
7210,0.1932581067085266,29.135854721069336,416,6638.0,11.798809051513672,210,9983.0
7220,0.1941988170146942,26.33017921447754,408,6638.0,19.109947204589844,420,9983.0
7230,0.1940421164035797,21.73191261291504,358,6638.0,24.823467254638672,412,9983.0
7240,0.19411902129650116,15.446982383728027,213,6638.0,26.120750427246094,439,9983.0
7250,0.1942894160747528,9.266048431396484,181,6638.0,23.840219497680664,403,9983.0
7260,0.19567640125751495,3.2552988529205322,-19,6638.0,25.396181106567383,313,9983.0
7270,0.19393764436244965,-2.470627784729004,-25,6638.0,20.91449737548828,388,9983.0
7280,0.19466161727905273,-4.804957866668701,-153,6638.0,14.00089168548584,158,9983.0
7290,0.1951025277376175,-5.790609836578369,-101,6638.0,7.741859436035156,215,9983.0
7300,0.19534651935100555,-5.692782402038574,-43,6638.0,0.00043639889918267727,-57,9983.0
7310,0.19534841179847717,-5.52034330368042,-181,6638.0,-8.39771556854248,-116,9983.0
7320,0.19425377249717712,-7.298386096954346,-25,6638.0,-11.872570991516113,-219,9983.0
7330,0.19424501061439514,-5.902511119842529,-136,6638.0,-8.192278861999512,-190,9983.0
7340,0.19421511888504028,-4.673841953277588,9,6638.0,-7.02120304107666,-106,9983.0
7350,0.1938149333000183,-2.1515321731567383,-116,6638.0,1.063678503036499,39,9983.0
7360,0.19195058941841125,-0.020762523636221886,80,6638.0,6.281410217285156,187,9983.0
7370,0.19160357117652893,3.058574914932251,-4,6638.0,13.514888763427734,255,9983.0
7380,0.19140271842479706,4.647947788238525,123,6638.0,15.813358306884766,367,9983.0
7390,0.19092866778373718,6.82932186126709,100,6638.0,17.285457611083984,207,9983.0
7400,0.19000163674354553,8.023674964904785,154,6638.0,13.377654075622559,229,9983.0
7410,0.1897510290145874,10.138165473937988,150,6638.0,4.866456985473633,-83,9983.0
7420,0.18947704136371613,8.636256217956543,108,6638.0,-3.343698740005493,-26,9983.0
7430,0.19109579920768738,9.228670120239258,179,6638.0,-8.001543045043945,-201,9983.0
7440,0.19098465144634247,14.0487642288208,203,6638.0,-10.592494010925293,-85,9983.0
7450,0.18956409394741058,15.257339477539062,311,6638.0,-3.8231728076934814,-80,9983.0
7460,0.1895856112241745,9.86897087097168,95,6638.0,-0.7039093375205994,48,9983.0
7470,0.1897665113210678,-1.516008973121643,-55,6638.0,4.225800514221191,-13,9983.0
7480,0.189509779214859,-16.67611312866211,-425,6638.0,9.834701538085938,259,9983.0
7490,0.18813923001289368,-28.57042694091797,-446,6638.0,14.153036117553711,228,9983.0
7500,0.18813137710094452,-36.90668869018555,-707,6638.0,17.007375717163086,280,9983.0
7510,0.18789991736412048,-39.455387115478516,-559,6638.0,14.905983924865723,301,9983.0
7520,0.18743300437927246,-26.598981857299805,-323,6638.0,15.889845848083496,88,9983.0
7530,0.18689590692520142,-7.820163249969482,-52,6638.0,4.183226585388184,-17,9983.0
7540,0.18808142840862274,11.545294761657715,348,6638.0,-11.6748685836792,-190,9983.0
7550,0.18785403668880463,21.72707176208496,492,6638.0,-27.629226684570312,-517,9983.0
7560,0.18738242983818054,27.081905364990234,402,6638.0,-31.392528533935547,-546,9983.0
7570,0.1871214509010315,25.616029739379883,479,6638.0,-26.66436767578125,-460,9983.0
7580,0.18714673817157745,22.380441665649414,270,6638.0,-17.867942810058594,-197,9983.0
7590,0.18727433681488037,14.315519332885742,216,6638.0,-5.1344685554504395,-140,9983.0
7600,0.18735778331756592,3.9518215656280518,-15,6638.0,6.686756134033203,223,9983.0
7610,0.1876400113105774,-3.976935386657715,-55,6638.0,18.096040725708008,350,9983.0
7620,0.18789993226528168,-13.099811553955078,-260,6638.0,25.70363998413086,463,9983.0
7630,0.19113871455192566,-20.063493728637695,-305,6638.0,26.70110511779785,383,9983.0
7640,0.19163863360881805,-23.00690460205078,-409,6638.0,21.4091854095459,209,9983.0
7650,0.192512646317482,-19.475284576416016,-259,6638.0,10.060274124145508,253,9983.0
7660,0.19301609694957733,-17.23487663269043,-155,6638.0,-1.5470997095108032,-108,9983.0
7670,0.19331854581832886,-10.261937141418457,-152,6638.0,-12.271393775939941,-280,9983.0
7680,0.1940932273864746,2.06095290184021,131,6638.0,-18.494840621948242,-217,9983.0
7690,0.1947079747915268,16.648313522338867,330,6638.0,-19.685840606689453,-477,9983.0
7700,0.19518189132213593,27.743240356445312,468,6638.0,-21.574613571166992,-246,9983.0
7710,0.19541209936141968,31.55071258544922,587,6638.0,-16.43998908996582,-265,9983.0
7720,0.19569756090641022,30.212501525878906,416,6638.0,-5.085677146911621,83,9983.0
7730,0.1960812658071518,23.260221481323242,366,6638.0,8.453093528747559,117,9983.0
7740,0.1967030018568039,12.477461814880371,126,6638.0,17.099288940429688,336,9983.0
7750,0.19749653339385986,-1.7846726179122925,-75,6638.0,20.740615844726562,189,9983.0
7760,0.19849736988544464,-13.286275863647461,-254,6638.0,17.536428451538086,368,9983.0
7770,0.19990436732769012,-19.41960906982422,-309,6638.0,11.911018371582031,94,9983.0
7780,0.20078709721565247,-19.99546241760254,-366,6638.0,5.832278251647949,152,9983.0
7790,0.20161506533622742,-20.998380661010742,-277,6638.0,3.0878183841705322,-47,9983.0
7800,0.20340105891227722,-16.109172821044922,-343,6638.0,-0.7237014174461365,-48,9983.0
7810,0.2045629322528839,-18.06564712524414,-284,6638.0,-0.5901474952697754,53,9983.0
7820,0.20585618913173676,-16.99458885192871,-307,6638.0,4.357504367828369,68,9983.0
7830,0.2065863162279129,-9.215469360351562,-83,6638.0,5.098038673400879,212,9983.0
7840,0.20817600190639496,3.5440638065338135,130,6638.0,4.307621479034424,48,9983.0
7850,0.20894938707351685,15.488126754760742,174,6638.0,5.380310535430908,153,9983.0
7860,0.20964106917381287,24.468366622924805,492,6638.0,9.181573867797852,108,9983.0
7870,0.2101113349199295,28.875709533691406,454,6638.0,11.420841217041016,61,9983.0
7880,0.21066132187843323,30.55078125,569,6638.0,8.73212718963623,152,9983.0
7890,0.20983576774597168,27.66075325012207,391,6638.0,2.3460800647735596,-74,9983.0
7900,0.2097780406475067,19.271272659301758,259,6638.0,-9.598015785217285,-68,9983.0
7910,0.21049199998378754,7.288438320159912,75,6638.0,-20.605655670166016,-472,9983.0
7920,0.21052317321300507,-2.620192289352417,-69,6638.0,-24.58854103088379,-309,9983.0
7930,0.21068137884140015,-11.032492637634277,-216,6638.0,-21.456275939941406,-427,9983.0
7940,0.2106878012418747,-19.149808883666992,-347,6638.0,-17.509634017944336,-230,9983.0
7950,0.21088500320911407,-25.15155792236328,-447,6638.0,-9.134313583374023,-105,9983.0
7960,0.21110856533050537,-25.758115768432617,-369,6638.0,6.894765377044678,189,9983.0
7970,0.21165867149829865,-23.450761795043945,-389,6638.0,19.12655258178711,280,9983.0
7980,0.21055443584918976,-12.929868698120117,-112,6638.0,26.781417846679688,491,9983.0
7990,0.21085171401500702,3.7742865085601807,93,6638.0,22.94746208190918,224,9983.0
8000,0.21129216253757477,7.790693759918213,66,6638.0,21.19759178161621,288,9983.0
8010,0.2114061415195465,1.8559377193450928,40,6638.0,15.247875213623047,228,9983.0
8020,0.21289929747581482,-8.7688627243042,-208,6638.0,6.322793006896973,-10,9983.0
8030,0.21285049617290497,-14.430718421936035,-222,6638.0,-1.682377576828003,51,9983.0
8040,0.21397045254707336,-17.7017822265625,-232,6638.0,-8.560676574707031,-317,9983.0
8050,0.21425743401050568,-18.684850692749023,-339,6638.0,-13.523953437805176,-188,9983.0
8060,0.2138241082429886,-15.30938720703125,-147,6638.0,-13.096766471862793,-196,9983.0
8070,0.21384502947330475,-7.917135238647461,-130,6638.0,-14.418676376342773,-324,9983.0
8080,0.21392902731895447,-0.36184510588645935,39,6638.0,-14.803939819335938,-210,9983.0
8090,0.21475860476493835,6.649488925933838,163,6638.0,-15.926214218139648,-331,9983.0
8100,0.21512126922607422,13.060837745666504,194,6638.0,-13.928824424743652,-167,9983.0
8110,0.21344617009162903,19.542293548583984,387,6638.0,-10.361527442932129,-84,9983.0
8120,0.2139935940504074,21.546974182128906,312,6638.0,-10.65224552154541,-123,9983.0
8130,0.214445561170578,18.604503631591797,290,6638.0,-1.5637669563293457,173,9983.0
8140,0.2149793803691864,5.600188255310059,-9,6638.0,13.380070686340332,167,9983.0
8150,0.21427392959594727,-9.988429069519043,-220,6638.0,22.930442810058594,438,9983.0
8160,0.2149810940027237,-16.190114974975586,-310,6638.0,24.138702392578125,333,9983.0
8170,0.21576890349388123,-19.570241928100586,-366,6638.0,21.445064544677734,370,9983.0
8180,0.21637219190597534,-11.956321716308594,-67,6638.0,20.213926315307617,348,9983.0
8190,0.21725891530513763,1.024566650390625,139,6638.0,19.905433654785156,286,9983.0
8200,0.21702328324317932,18.41283416748047,369,6638.0,12.885680198669434,50,9983.0
8210,0.21752119064331055,34.70916748046875,644,6638.0,-1.8349483013153076,-98,9983.0
8220,0.21789662539958954,38.469661712646484,707,6638.0,-12.279441833496094,-304,9983.0
8230,0.21832339465618134,35.27983856201172,445,6638.0,-19.397615432739258,-387,9983.0
8240,0.2179890275001526,19.623329162597656,207,6638.0,-21.95332908630371,-209,9983.0
8250,0.21830934286117554,-1.128403902053833,-124,6638.0,-18.260547637939453,-378,9983.0
8260,0.22001159191131592,-6.772464752197266,-39,6638.0,-19.221155166625977,-317,9983.0
8270,0.22098182141780853,-6.5612945556640625,-93,6638.0,-23.33901596069336,-562,9983.0
8280,0.22140219807624817,-3.667977809906006,-105,6638.0,-20.367944717407227,-229,9983.0
8290,0.21921545267105103,-4.588742733001709,2,6638.0,-12.679229736328125,-169,9983.0
8300,0.21951636672019958,-4.496171951293945,-155,6638.0,-5.432378768920898,-68,9983.0
8310,0.21991167962551117,-5.224030494689941,-50,6638.0,-3.146122932434082,78,9983.0
8320,0.2202940732240677,-7.841634273529053,-135,6638.0,2.298537492752075,-34,9983.0
8330,0.21946416795253754,-12.249512672424316,-254,6638.0,20.062265396118164,466,9983.0
8340,0.22008199989795685,-18.423795700073242,-280,6638.0,29.569110870361328,499,9983.0
8350,0.22047895193099976,-13.282063484191895,-232,6638.0,34.251930236816406,474,9983.0
8360,0.22075901925563812,-5.881386756896973,-83,6638.0,35.916412353515625,623,9983.0
8370,0.22197668254375458,5.171489715576172,198,6638.0,24.448074340820312,413,9983.0
8380,0.22236549854278564,18.803287506103516,327,6638.0,7.961136341094971,19,9983.0
8390,0.22278542816638947,31.395780563354492,501,6638.0,-3.7726330757141113,-115,9983.0
8400,0.22326327860355377,31.565837860107422,504,6638.0,-10.459390640258789,-111,9983.0
8410,0.22429241240024567,21.073040008544922,348,6638.0,-13.877962112426758,-304,9983.0
8420,0.22177429497241974,9.984161376953125,4,6638.0,-17.24370765686035,-282,9983.0
8430,0.2221607267856598,-1.674770712852478,-7,6638.0,-22.245317459106445,-394,9983.0
8440,0.22253096103668213,-12.44592571258545,-296,6638.0,-25.83177947998047,-552,9983.0
8450,0.22290100157260895,-16.934152603149414,-276,6638.0,-26.74399757385254,-316,9983.0
8460,0.2244011014699936,-16.306562423706055,-242,6638.0,-24.956283569335938,-384,9983.0
8470,0.2250976860523224,-11.31369686126709,-206,6638.0,-21.219600677490234,-415,9983.0
8480,0.22543108463287354,-7.649339199066162,-55,6638.0,-22.10330581665039,-279,9983.0
8490,0.22657079994678497,-0.872575581073761,56,6638.0,-20.617137908935547,-356,9983.0
8500,0.2242262214422226,2.9383976459503174,-51,6638.0,-13.752111434936523,-145,9983.0
8510,0.22492632269859314,2.55767560005188,105,6638.0,8.774646759033203,367,9983.0
8520,0.2257496565580368,4.193342208862305,94,6638.0,30.923059463500977,538,9983.0
8530,0.2265951931476593,9.138045310974121,126,6638.0,46.4681510925293,784,9983.0
8540,0.22766506671905518,12.264349937438965,287,6638.0,45.94457244873047,786,9983.0
8550,0.2307012379169464,15.970544815063477,264,6638.0,49.95778274536133,765,9983.0
8560,0.23120874166488647,13.196617126464844,181,6638.0,49.33225631713867,843,9983.0
8570,0.23229379951953888,5.267374515533447,93,6638.0,41.313297271728516,683,9983.0
8580,0.23414252698421478,-0.9627184867858887,-25,6638.0,20.175539016723633,215,9983.0
8590,0.23370099067687988,-2.5660958290100098,-60,6638.0,-4.9948954582214355,-285,9983.0
8600,0.2347714602947235,-1.5298999547958374,-48,6638.0,-25.470705032348633,-369,9983.0
8610,0.23573851585388184,-5.249174118041992,-48,6638.0,-42.49204635620117,-779,9983.0
8620,0.2362542301416397,-6.344253063201904,-223,6638.0,-53.90464782714844,-987,9983.0
8630,0.23682846128940582,-3.935537815093994,7,6638.0,-63.320674896240234,-971,9983.0
8640,0.23740696907043457,0.8921096920967102,-19,6638.0,-68.91642761230469,-1276,9983.0
8650,0.23787595331668854,2.538835287094116,33,6638.0,-68.48848724365234,-958,9983.0
8660,0.2389204353094101,2.3697266578674316,21,6638.0,-50.14299774169922,-801,9983.0
8670,0.23955903947353363,2.660261392593384,31,6638.0,-26.788257598876953,-222,9983.0
8680,0.24075786769390106,3.252769708633423,7,6638.0,-2.0093047618865967,18,9983.0
8690,0.24152502417564392,3.641533136367798,109,6638.0,25.403362274169922,498,9983.0
8700,0.24261432886123657,4.911934852600098,-27,6638.0,50.925724029541016,992,9983.0
8710,0.24361076951026917,5.851043701171875,172,6638.0,72.01702880859375,1275,9983.0
8720,0.24370618164539337,2.8738515377044678,-80,6638.0,78.83275604248047,1157,9983.0
8730,0.24472764134407043,-10.839223861694336,-248,6638.0,63.222496032714844,1082,9983.0
8740,0.24604861438274384,-26.087554931640625,-359,6638.0,46.04969024658203,662,9983.0
8750,0.2474859356880188,-28.75655174255371,-525,6638.0,23.54065704345703,229,9983.0
8760,0.24840465188026428,-26.545547485351562,-473,6638.0,0.9339396953582764,-166,9983.0
8770,0.25079673528671265,-19.754606246948242,-297,6638.0,-23.937458038330078,-438,9983.0
8780,0.2515847682952881,-12.41651725769043,-116,6638.0,-45.921634674072266,-918,9983.0
8790,0.2525734603404999,-4.29501485824585,-53,6638.0,-60.59803009033203,-1124,9983.0
8800,0.2535238265991211,3.776125431060791,180,6638.0,-61.0945930480957,-861,9983.0
8810,0.2542264759540558,13.084367752075195,272,6638.0,-53.18299102783203,-904,9983.0
8820,0.25574979186058044,18.576099395751953,322,6638.0,-41.99419403076172,-483,9983.0
8830,0.2565987706184387,16.86536979675293,253,6638.0,-22.55799674987793,-315,9983.0
8840,0.2580222189426422,11.70438003540039,202,6638.0,-6.273350715637207,121,9983.0
8850,0.25945845246315,9.047962188720703,44,6638.0,12.976019859313965,305,9983.0
8860,0.259854793548584,-2.6235132217407227,-111,6638.0,36.51789855957031,830,9983.0
8870,0.2613125443458557,-10.105658531188965,-160,6638.0,62.65389633178711,1095,9983.0
8880,0.2627958059310913,-3.1006553173065186,-57,6638.0,78.42096710205078,1431,9983.0
8890,0.26444584131240845,7.272795677185059,138,6638.0,84.39146423339844,1309,9983.0
8900,0.2667800784111023,17.191652297973633,191,6638.0,68.45980834960938,1000,9983.0
8910,0.2692927122116089,25.673864364624023,508,6638.0,36.59914016723633,525,9983.0
8920,0.2705298662185669,29.687177658081055,509,6638.0,0.5919577479362488,-174,9983.0
8930,0.27243998646736145,26.54431915283203,350,6638.0,-30.63251304626465,-772,9983.0
8940,0.27560102939605713,14.007902145385742,171,6638.0,-51.33706283569336,-820,9983.0
8950,0.2767747938632965,0.6409870386123657,-17,6638.0,-56.40005874633789,-903,9983.0
8960,0.2779555320739746,-11.603267669677734,-405,6638.0,-49.124969482421875,-787,9983.0
8970,0.2791840732097626,-29.948280334472656,-520,6638.0,-45.7135009765625,-620,9983.0
8980,0.2803155183792114,-40.34748458862305,-686,6638.0,-36.016510009765625,-590,9983.0
8990,0.28059056401252747,-38.68351364135742,-545,6638.0,-24.177366256713867,-212,9983.0
9000,0.2816269099712372,-24.679241180419922,-324,6638.0,-17.356904983520508,-427,9983.0
9010,0.28296902775764465,-15.6265869140625,-232,6638.0,-20.27415657043457,-421,9983.0
9020,0.28412115573883057,-6.44356632232666,4,6638.0,-20.084056854248047,-281,9983.0
9030,0.2828545570373535,0.9648754000663757,36,6638.0,-9.082919120788574,-92,9983.0
9040,0.2839210331439972,5.993010997772217,196,6638.0,13.103466987609863,397,9983.0
9050,0.28502628207206726,7.142834663391113,9,6638.0,35.017311096191406,593,9983.0
9060,0.2860618531703949,11.013996124267578,247,6638.0,48.93388748168945,868,9983.0
9070,0.28687992691993713,21.855037689208984,472,6638.0,45.73836135864258,633,9983.0
9080,0.2877015471458435,25.606969833374023,328,6638.0,37.55266189575195,429,9983.0
9090,0.28836944699287415,19.97013282775879,335,6638.0,21.00896453857422,418,9983.0
9100,0.28969085216522217,12.842498779296875,242,6638.0,11.694372177124023,105,9983.0
9110,0.2902022898197174,1.9029145240783691,-101,6638.0,5.042067050933838,41,9983.0
9120,0.2894115447998047,-13.921510696411133,-269,6638.0,0.853721559047699,124,9983.0
9130,0.2899024188518524,-33.37844467163086,-621,6638.0,-3.997295379638672,-203,9983.0
9140,0.29007330536842346,-48.19597244262695,-815,6638.0,-14.68765926361084,-351,9983.0
9150,0.2904385030269623,-43.92076873779297,-663,6638.0,-28.54639434814453,-484,9983.0
9160,0.29025301337242126,-27.683897018432617,-327,6638.0,-42.441307067871094,-754,9983.0
9170,0.29070043563842773,-7.101258277893066,-80,6638.0,-53.894378662109375,-1026,9983.0
9180,0.29092898964881897,9.36311149597168,145,6638.0,-59.677921295166016,-832,9983.0
9190,0.2920466959476471,19.01308822631836,375,6638.0,-45.576263427734375,-514,9983.0
9200,0.29214826226234436,20.32558250427246,295,6638.0,-17.066490173339844,-279,9983.0
9210,0.29348233342170715,18.908695220947266,256,6638.0,20.665538787841797,605,9983.0
9220,0.29353654384613037,14.918622970581055,290,6638.0,54.830631256103516,958,9983.0
9230,0.2941283881664276,20.60738754272461,331,6638.0,63.0903205871582,998,9983.0
9240,0.29451432824134827,29.04854965209961,465,6638.0,50.70903396606445,888,9983.0
9250,0.2954486310482025,20.622554779052734,340,6638.0,41.69715118408203,564,9983.0
9260,0.2966642677783966,13.001821517944336,102,6638.0,24.147735595703125,247,9983.0
9270,0.2969793975353241,5.8581671714782715,47,6638.0,11.223973274230957,112,9983.0
9280,0.2978477478027344,-1.6962347030639648,45,6638.0,-12.034656524658203,-343,9983.0
9290,0.2986246943473816,11.096174240112305,181,6638.0,-43.01545333862305,-871,9983.0
9300,0.2994755506515503,17.161800384521484,170,6638.0,-61.98169708251953,-1023,9983.0
9310,0.299500972032547,6.105355739593506,135,6638.0,-55.81755447387695,-825,9983.0
9320,0.30036765336990356,-9.990350723266602,-237,6638.0,-44.43301773071289,-796,9983.0
9330,0.3004528284072876,-27.11804962158203,-463,6638.0,-32.562744140625,-370,9983.0
9340,0.30134835839271545,-27.440237045288086,-397,6638.0,-24.324859619140625,-478,9983.0
9350,0.30137425661087036,-16.279151916503906,-174,6638.0,-15.132237434387207,-42,9983.0
9360,0.30294790863990784,-5.401222229003906,-31,6638.0,10.590543746948242,221,9983.0
9370,0.3029654026031494,2.013962984085083,19,6638.0,38.08889389038086,831,9983.0
9380,0.30299821496009827,4.366784572601318,192,6638.0,64.7074966430664,1079,9983.0
9390,0.3033275902271271,12.704922676086426,168,6638.0,69.0094223022461,1065,9983.0
9400,0.3044356107711792,12.585359573364258,243,6638.0,58.20323181152344,866,9983.0
9410,0.3048699200153351,5.6358232498168945,77,6638.0,35.737831115722656,468,9983.0
9420,0.30542612075805664,-6.070980072021484,-148,6638.0,12.751585006713867,-59,9983.0
9430,0.30568820238113403,-3.8950209617614746,-32,6638.0,-19.257720947265625,-385,9983.0
9440,0.3062807023525238,-6.640653610229492,-127,6638.0,-42.86955642700195,-619,9983.0
9450,0.30659130215644836,-16.531314849853516,-403,6638.0,-45.671546936035156,-778,9983.0
9460,0.3067714273929596,-25.9282283782959,-494,6638.0,-38.35426330566406,-613,9983.0
9470,0.3073585331439972,-27.08673095703125,-357,6638.0,-30.206804275512695,-438,9983.0
9480,0.30782750248908997,-19.79950714111328,-335,6638.0,-28.667098999023438,-479,9983.0
9490,0.30814477801322937,-13.287957191467285,-225,6638.0,-20.963626861572266,-137,9983.0
9500,0.3085065484046936,-4.880463600158691,31,6638.0,-6.037644386291504,58,9983.0
9510,0.30933722853660583,-1.8224204778671265,22,6638.0,3.9736649990081787,-35,9983.0
9520,0.3098834455013275,-1.0253092050552368,-60,6638.0,1.633919596672058,78,9983.0
9530,0.31055760383605957,-3.609070301055908,43,6638.0,2.5189099311828613,102,9983.0
9540,0.311252236366272,8.863001823425293,189,6638.0,6.138314723968506,128,9983.0
9550,0.3120618462562561,27.06159210205078,529,6638.0,10.316861152648926,258,9983.0
9560,0.31282246112823486,35.569664001464844,668,6638.0,19.884502410888672,325,9983.0
9570,0.31377866864204407,35.22389602661133,516,6638.0,22.03504180908203,307,9983.0
9580,0.31464454531669617,28.824979782104492,509,6638.0,20.97063636779785,412,9983.0
9590,0.31528863310813904,19.966590881347656,275,6638.0,18.67037582397461,271,9983.0
9600,0.3177337944507599,2.1532530784606934,-171,6638.0,12.187756538391113,195,9983.0
9610,0.31843116879463196,-14.52444839477539,-200,6638.0,2.167715549468994,97,9983.0
9620,0.3191666007041931,-18.978904724121094,-333,6638.0,-12.46202278137207,-448,9983.0
9630,0.3197888731956482,-19.25227165222168,-331,6638.0,-32.39139175415039,-520,9983.0
9640,0.32115891575813293,-17.089481353759766,-242,6638.0,-46.17753982543945,-728,9983.0
9650,0.3219718337059021,-20.36692237854004,-430,6638.0,-35.354637145996094,-539,9983.0
9660,0.32256942987442017,-31.000215530395508,-487,6638.0,-30.055809020996094,-308,9983.0
9670,0.32319626212120056,-37.556400299072266,-638,6638.0,-27.113452911376953,-526,9983.0
9680,0.32394230365753174,-33.786869049072266,-526,6638.0,-21.101613998413086,-212,9983.0
9690,0.3282719552516937,-24.99339485168457,-334,6638.0,-8.606456756591797,-106,9983.0
9700,0.3292217552661896,-16.452884674072266,-282,6638.0,5.359255313873291,113,9983.0
9710,0.33030959963798523,3.8037612438201904,224,6638.0,17.795562744140625,446,9983.0
9720,0.3314109146595001,27.500837326049805,515,6638.0,29.512889862060547,342,9983.0
9730,0.33494675159454346,47.53156280517578,821,6638.0,35.04949188232422,664,9983.0
9740,0.33603355288505554,54.86040115356445,954,6638.0,30.56886100769043,475,9983.0
9750,0.33712005615234375,49.311119079589844,697,6638.0,29.238628387451172,541,9983.0
9760,0.33806976675987244,29.410625457763672,385,6638.0,23.47194480895996,332,9983.0
9770,0.33930718898773193,4.187496662139893,-110,6638.0,18.296735763549805,194,9983.0
9780,0.34076347947120667,-16.811466217041016,-318,6638.0,3.7887179851531982,170,9983.0
9790,0.3416402339935303,-22.651256561279297,-353,6638.0,-10.677665710449219,-370,9983.0
9800,0.34245675802230835,-18.439794540405273,-285,6638.0,-30.0958309173584,-478,9983.0
9810,0.342905730009079,-14.022945404052734,-148,6638.0,-40.60322570800781,-741,9983.0
9820,0.34566500782966614,-16.930789947509766,-368,6638.0,-42.941871643066406,-669,9983.0
9830,0.34634411334991455,-19.691713333129883,-288,6638.0,-35.7066764831543,-479,9983.0
9840,0.34700268507003784,-19.804523468017578,-341,6638.0,-33.77515411376953,-612,9983.0
9850,0.3480257987976074,-13.829327583312988,-163,6638.0,-22.854400634765625,-228,9983.0
9860,0.34998100996017456,-2.8507444858551025,-41,6638.0,-5.507582664489746,-147,9983.0
9870,0.3510991632938385,4.419361114501953,173,6638.0,5.540952205657959,257,9983.0
9880,0.35214763879776,17.21251678466797,288,6638.0,21.070226669311523,281,9983.0
9890,0.3533024787902832,29.326852798461914,555,6638.0,22.701324462890625,475,9983.0
9900,0.35449546575546265,33.35651397705078,557,6638.0,27.20367431640625,410,9983.0
9910,0.355363667011261,31.49180030822754,426,6638.0,32.96275329589844,663,9983.0
9920,0.3564181625843048,13.786683082580566,131,6638.0,34.685935974121094,495,9983.0
9930,0.35762304067611694,-4.8883466720581055,-230,6638.0,39.73672103881836,751,9983.0
9940,0.358370304107666,-23.848796844482422,-370,6638.0,42.39308166503906,587,9983.0
9950,0.3586607575416565,-31.75837516784668,-559,6638.0,31.82485008239746,445,9983.0
9960,0.3594684302806854,-27.743633270263672,-390,6638.0,7.17913818359375,49,9983.0
9970,0.3599466383457184,-22.17751693725586,-282,6638.0,-23.070785522460938,-556,9983.0
9980,0.36084675788879395,-11.969107627868652,-217,6638.0,-47.79702377319336,-918,9983.0
9990,0.3614239990711212,-9.891661643981934,-96,6638.0,-52.79590606689453,-685,9983.0
10000,0.36264005303382874,-0.4908673167228699,72,6638.0,-43.690853118896484,-755,9983.0
10010,0.3633934259414673,7.074044704437256,102,6638.0,-31.231197357177734,-352,9983.0
10020,0.3641369640827179,9.444732666015625,227,6638.0,-15.733417510986328,-288,9983.0
10030,0.3650945723056793,11.70314884185791,204,6638.0,-8.76169204711914,-189,9983.0
10040,0.36471784114837646,20.63192367553711,399,6638.0,-9.143452644348145,-101,9983.0
10050,0.3658325970172882,26.485595703125,422,6638.0,-1.7134621143341064,125,9983.0
10060,0.366854190826416,31.309463500976562,587,6638.0,12.922176361083984,177,9983.0
10070,0.3678865134716034,38.008018493652344,561,6638.0,17.90896224975586,461,9983.0
10080,0.36707863211631775,29.41851234436035,359,6638.0,26.689960479736328,421,9983.0
10090,0.36804160475730896,5.310974597930908,-105,6638.0,36.29934310913086,778,9983.0
10100,0.3689431846141815,-21.43937110900879,-473,6638.0,42.37993621826172,628,9983.0
10110,0.36963844299316406,-35.51219940185547,-600,6638.0,45.30019760131836,778,9983.0
10120,0.3699808120727539,-33.094669342041016,-441,6638.0,39.85930633544922,503,9983.0
10130,0.36838099360466003,-23.39375877380371,-306,6638.0,22.154054641723633,116,9983.0
10140,0.36842450499534607,-6.287351131439209,25,6638.0,-6.952341556549072,-278,9983.0
10150,0.3686000406742096,12.428112030029297,348,6638.0,-36.719932556152344,-673,9983.0
10160,0.36904779076576233,25.542863845825195,354,6638.0,-52.664791107177734,-1053,9983.0
10170,0.3683536946773529,27.749202728271484,494,6638.0,-56.180458068847656,-834,9983.0
10180,0.36847907304763794,20.478952407836914,236,6638.0,-50.79182052612305,-829,9983.0
10190,0.3685871958732605,6.518325328826904,110,6638.0,-39.74345016479492,-592,9983.0
10200,0.36877134442329407,-4.8846306800842285,-202,6638.0,-36.298500061035156,-542,9983.0
10210,0.36900386214256287,-12.413104057312012,-206,6638.0,-31.583087921142578,-482,9983.0
10220,0.36515137553215027,-21.407333374023438,-390,6638.0,-5.250758171081543,116,9983.0
10230,0.36522600054740906,-33.1108512878418,-623,6638.0,21.31127166748047,396,9983.0
10240,0.3652135729789734,-33.96173858642578,-453,6638.0,38.575313568115234,807,9983.0
10250,0.3650508224964142,-24.853588104248047,-387,6638.0,53.57939147949219,793,9983.0
10260,0.3636004328727722,-6.725874423980713,-5,6638.0,56.8669319152832,995,9983.0
10270,0.363254576921463,19.80124282836914,420,6638.0,53.3405876159668,879,9983.0
10280,0.3627820909023285,33.31492614746094,594,6638.0,39.48927688598633,548,9983.0
10290,0.36241385340690613,36.01750946044922,582,6638.0,23.115999221801758,259,9983.0
10300,0.3614083230495453,33.335391998291016,480,6638.0,6.949672698974609,48,9983.0
10310,0.3608912527561188,23.386520385742188,415,6638.0,-19.21507453918457,-428,9983.0
10320,0.3605831563472748,8.898448944091797,57,6638.0,-38.866432189941406,-759,9983.0
10330,0.3601320683956146,-2.0541887283325195,-154,6638.0,-39.598968505859375,-593,9983.0
10340,0.35968562960624695,-12.055451393127441,-129,6638.0,-22.911104202270508,-328,9983.0
10350,0.3588446378707886,-19.361719131469727,-396,6638.0,0.2712782025337219,52,9983.0
10360,0.3586532175540924,-22.94182586669922,-367,6638.0,13.66299819946289,357,9983.0
10370,0.358611136674881,-28.054372787475586,-441,6638.0,15.656301498413086,166,9983.0
10380,0.3588275611400604,-33.902557373046875,-612,6638.0,5.115921974182129,-44,9983.0
10390,0.35866662859916687,-40.766117095947266,-721,6638.0,-1.318642497062683,1,9983.0
10400,0.3588665723800659,-52.60468673706055,-848,6638.0,-13.323553085327148,-188,9983.0
10410,0.3592580258846283,-48.875484466552734,-757,6638.0,-19.711278915405273,-410,9983.0
10420,0.3599168360233307,-25.555402755737305,-339,6638.0,-18.270702362060547,-364,9983.0
10430,0.36053940653800964,1.4321807622909546,103,6638.0,-17.38258171081543,-222,9983.0
10440,0.36079657077789307,25.322328567504883,570,6638.0,-1.1315966844558716,145,9983.0
10450,0.361416757106781,57.11973571777344,1089,6638.0,14.69875431060791,377,9983.0
10460,0.36182937026023865,74.51721954345703,1259,6638.0,26.089847564697266,440,9983.0
10470,0.36211344599723816,67.9998550415039,967,6638.0,33.47477722167969,436,9983.0
10480,0.36288440227508545,47.02216720581055,671,6638.0,29.95818519592285,561,9983.0
10490,0.36319756507873535,22.19428253173828,298,6638.0,20.002864837646484,283,9983.0
10500,0.3637257218360901,-1.13722562789917,-90,6638.0,11.144155502319336,-55,9983.0
10510,0.36408019065856934,-14.555871963500977,-294,6638.0,0.05997973307967186,42,9983.0
10520,0.3670002818107605,-28.085302352905273,-496,6638.0,-3.8828282356262207,22,9983.0
10530,0.36773404479026794,-38.00364685058594,-646,6638.0,-12.033917427062988,-365,9983.0
10540,0.3684786558151245,-38.0329475402832,-614,6638.0,-36.25102233886719,-824,9983.0
10550,0.3693556785583496,-23.64681053161621,-343,6638.0,-61.303871154785156,-1089,9983.0
10560,0.3704761862754822,-3.9457807540893555,124,6638.0,-73.10054779052734,-1074,9983.0
10570,0.3718547224998474,14.029046058654785,252,6638.0,-73.10729217529297,-1191,9983.0
10580,0.3729645013809204,25.809106826782227,404,6638.0,-45.75367736816406,-554,9983.0
10590,0.37490513920783997,26.009130477905273,469,6638.0,-17.858625411987305,-143,9983.0
10600,0.3762368857860565,12.952523231506348,53,6638.0,19.840513229370117,591,9983.0
10610,0.37534448504447937,-1.285402774810791,43,6638.0,55.38460922241211,1049,9983.0
10620,0.37641727924346924,1.7059332132339478,-67,6638.0,71.93106079101562,1197,9983.0
10630,0.37746232748031616,9.869943618774414,265,6638.0,69.836181640625,1148,9983.0
10640,0.3782336115837097,18.19036865234375,331,6638.0,53.008243560791016,662,9983.0
10650,0.3788294494152069,21.46746253967285,278,6638.0,27.32484245300293,319,9983.0
10660,0.38092806935310364,18.504716873168945,292,6638.0,-10.724876403808594,-309,9983.0
10670,0.38176092505455017,9.528380393981934,107,6638.0,-45.698516845703125,-984,9983.0
10680,0.38245850801467896,-9.860357284545898,-357,6638.0,-60.23661422729492,-876,9983.0
10690,0.38307690620422363,-29.760643005371094,-531,6638.0,-54.01810836791992,-775,9983.0
10700,0.3841933310031891,-42.05244064331055,-806,6638.0,-31.468671798706055,-327,9983.0
10710,0.385299414396286,-43.70089340209961,-610,6638.0,-12.653711318969727,-117,9983.0
10720,0.3861052393913269,-40.02354049682617,-695,6638.0,1.6729267835617065,116,9983.0
10730,0.3869780898094177,-33.93057632446289,-430,6638.0,18.236013412475586,449,9983.0
10740,0.3877137005329132,-16.75562858581543,-192,6638.0,26.985496520996094,367,9983.0
10750,0.38902008533477783,-0.3035822808742523,60,6638.0,25.47731590270996,452,9983.0
10760,0.39019399881362915,12.215827941894531,305,6638.0,24.225543975830078,356,9983.0
10770,0.3911845088005066,13.711735725402832,143,6638.0,23.772178649902344,392,9983.0
10780,0.3920542895793915,14.439769744873047,323,6638.0,34.60599899291992,728,9983.0
10790,0.39370617270469666,22.901926040649414,373,6638.0,36.4839973449707,426,9983.0
10800,0.3944489657878876,32.82107162475586,603,6638.0,21.952960968017578,306,9983.0
10810,0.3949432373046875,40.03263473510742,750,6638.0,-1.883379340171814,-236,9983.0
10820,0.39569345116615295,43.303443908691406,672,6638.0,-25.02208137512207,-297,9983.0
10830,0.3968663811683655,39.11870574951172,672,6638.0,-23.83701515197754,-507,9983.0
10840,0.39723363518714905,22.048751831054688,132,6638.0,-18.764585494995117,-140,9983.0
10850,0.3977776765823364,-15.854588508605957,-487,6638.0,-10.18545913696289,-217,9983.0
10860,0.39835989475250244,-50.867652893066406,-898,6638.0,-5.147490978240967,-26,9983.0
10870,0.3990054130554199,-72.04656982421875,-1314,6638.0,4.593780517578125,51,9983.0
10880,0.39997297525405884,-77.31123352050781,-1152,6638.0,8.696512222290039,202,9983.0
10890,0.40054085850715637,-60.2031135559082,-907,6638.0,16.002544403076172,164,9983.0
10900,0.40100163221359253,-37.26762771606445,-414,6638.0,14.101300239562988,292,9983.0
10910,0.40244951844215393,3.4110982418060303,280,6638.0,7.617005348205566,91,9983.0
10920,0.4022448658943176,43.51842498779297,809,6638.0,4.886983394622803,40,9983.0
10930,0.40270790457725525,58.57250213623047,894,6638.0,8.97838020324707,211,9983.0
10940,0.40296679735183716,46.15132522583008,693,6638.0,14.624338150024414,309,9983.0
10950,0.40296727418899536,28.052732467651367,374,6638.0,20.648738861083984,231,9983.0
10960,0.4023430645465851,21.964956283569336,343,6638.0,10.916520118713379,242,9983.0
10970,0.40229374170303345,20.35262680053711,358,6638.0,-9.86455249786377,-330,9983.0
10980,0.4021156430244446,23.986251831054688,386,6638.0,-31.493349075317383,-452,9983.0
10990,0.4018407464027405,31.719087600708008,625,6638.0,-36.994319915771484,-624,9983.0
11000,0.4015800356864929,30.394824981689453,326,6638.0,-25.30539321899414,-263,9983.0
11010,0.39916184544563293,5.539927959442139,-1,6638.0,-11.4301118850708,-115,9983.0
11020,0.3987767994403839,-31.996891021728516,-767,6638.0,0.4128688871860504,141,9983.0
11030,0.3986600339412689,-62.77736282348633,-1074,6638.0,15.52380084991455,243,9983.0
11040,0.3984082043170929,-79.9393310546875,-1368,6638.0,17.7746639251709,234,9983.0
11050,0.3974381685256958,-70.31425476074219,-1015,6638.0,16.976398468017578,394,9983.0
11060,0.39711782336235046,-45.53590393066406,-526,6638.0,14.338560104370117,192,9983.0
11070,0.39703112840652466,-9.533947944641113,-85,6638.0,7.287391662597656,39,9983.0
11080,0.39735856652259827,18.691200256347656,360,6638.0,3.1642911434173584,0,9983.0
11090,0.3974366784095764,36.30619812011719,679,6638.0,4.658994674682617,88,9983.0
11100,0.39602532982826233,52.83287048339844,940,6638.0,5.3041768074035645,220,9983.0
11110,0.3958469033241272,52.94805908203125,885,6638.0,6.760014057159424,32,9983.0
11120,0.3957972228527069,47.66039276123047,672,6638.0,6.772573947906494,-16,9983.0
11130,0.39554134011268616,42.78584671020508,672,6638.0,-3.3289787769317627,-96,9983.0
11140,0.3950316905975342,42.14901351928711,756,6638.0,-21.002410888671875,-446,9983.0
11150,0.3946833610534668,44.408634185791016,702,6638.0,-30.990596771240234,-566,9983.0
11160,0.39433377981185913,48.34084701538086,742,6638.0,-24.624704360961914,-254,9983.0
11170,0.39381226897239685,30.22008514404297,362,6638.0,-2.3987319469451904,-38,9983.0
11180,0.39180076122283936,-5.643550872802734,-243,6638.0,16.1494140625,441,9983.0
11190,0.39169445633888245,-50.021018981933594,-1050,6638.0,34.53645324707031,512,9983.0
11200,0.3916272222995758,-81.79830932617188,-1447,6638.0,32.155818939208984,492,9983.0
11210,0.3914545476436615,-97.43538665771484,-1531,6638.0,12.45632266998291,117,9983.0
11220,0.39125770330429077,-87.36209106445312,-1391,6638.0,-13.607275009155273,-425,9983.0
11230,0.39135804772377014,-59.529396057128906,-824,6638.0,-40.42719650268555,-827,9983.0
11240,0.3918003737926483,-23.742015838623047,-260,6638.0,-48.258644104003906,-713,9983.0
11250,0.39229050278663635,11.088193893432617,387,6638.0,-31.761735916137695,-383,9983.0
11260,0.39274701476097107,38.4310188293457,687,6638.0,-25.375459671020508,-366,9983.0
11270,0.39145123958587646,51.608463287353516,932,6638.0,-12.511443138122559,-220,9983.0
11280,0.3916466534137726,58.25897216796875,897,6638.0,3.6502983570098877,162,9983.0
11290,0.3918144106864929,47.760860443115234,763,6638.0,26.332862854003906,617,9983.0
11300,0.39194023609161377,36.81951904296875,502,6638.0,39.499698638916016,597,9983.0
11310,0.3921690285205841,19.80849266052246,176,6638.0,39.48272705078125,660,9983.0
11320,0.39249587059020996,9.78041934967041,147,6638.0,23.392993927001953,360,9983.0
11330,0.39319950342178345,4.76099967956543,52,6638.0,1.2051030397415161,-141,9983.0
11340,0.3934957981109619,-2.6274993419647217,-207,6638.0,-9.228029251098633,-191,9983.0
11350,0.3938641846179962,-19.741540908813477,-409,6638.0,-11.573345184326172,-65,9983.0
11360,0.3930324912071228,-39.939353942871094,-689,6638.0,-12.399308204650879,-236,9983.0
11370,0.3934776484966278,-52.776554107666016,-930,6638.0,-19.766164779663086,-424,9983.0
11380,0.3938387930393219,-50.86276626586914,-710,6638.0,-23.48128890991211,-340,9983.0
11390,0.3947005569934845,-37.319061279296875,-448,6638.0,-24.353797912597656,-389,9983.0
11400,0.39467740058898926,-15.686944007873535,-73,6638.0,-18.42439842224121,-358,9983.0
11410,0.39543163776397705,20.447555541992188,589,6638.0,-15.215235710144043,-163,9983.0
11420,0.3962259292602539,50.397727966308594,953,6638.0,-5.800480842590332,-56,9983.0
11430,0.3968046307563782,54.893184661865234,841,6638.0,-0.33254143595695496,61,9983.0
11440,0.3971857726573944,44.24699020385742,632,6638.0,22.352903366088867,595,9983.0
11450,0.3971422016620636,30.960973739624023,334,6638.0,39.39236831665039,693,9983.0
11460,0.397399365901947,11.735569953918457,66,6638.0,50.035919189453125,895,9983.0
11470,0.39750373363494873,-4.698659420013428,-98,6638.0,43.64179992675781,592,9983.0
11480,0.397531658411026,-16.20139503479004,-302,6638.0,25.31330108642578,341,9983.0
11490,0.3978755474090576,-15.08736515045166,-152,6638.0,-0.43614453077316284,19,9983.0
11500,0.3978841006755829,-0.8644387125968933,33,6638.0,-19.286989212036133,-448,9983.0
11510,0.3978751599788666,2.6255383491516113,2,6638.0,-25.377304077148438,-445,9983.0
11520,0.39784303307533264,-4.85168981552124,-131,6638.0,-21.084463119506836,-273,9983.0
11530,0.3979461193084717,-17.552467346191406,-301,6638.0,-16.027925491333008,-287,9983.0
11540,0.3992311358451843,-30.771589279174805,-592,6638.0,-8.347211837768555,-215,9983.0
11550,0.3994549512863159,-30.797260284423828,-395,6638.0,-7.8280744552612305,-38,9983.0
11560,0.399740070104599,-21.48236656188965,-271,6638.0,-9.585087776184082,-253,9983.0
11570,0.4004216492176056,-7.064709663391113,-134,6638.0,-8.909811019897461,-82,9983.0
11580,0.399825781583786,4.08481502532959,198,6638.0,-2.9703164100646973,85,9983.0
11590,0.4003341495990753,16.077640533447266,235,6638.0,8.77955150604248,127,9983.0
11600,0.40084531903266907,20.4846248626709,310,6638.0,22.35590171813965,518,9983.0
11610,0.4013838768005371,17.913389205932617,337,6638.0,36.44835662841797,580,9983.0
11620,0.4015604555606842,13.893987655639648,194,6638.0,45.68889617919922,713,9983.0
11630,0.4019344747066498,4.784559726715088,96,6638.0,47.44465255737305,818,9983.0
11640,0.402201384305954,-5.837052822113037,-46,6638.0,40.13966369628906,594,9983.0
11650,0.40263885259628296,-7.836730480194092,-153,6638.0,21.855215072631836,99,9983.0
11660,0.40258723497390747,5.474026203155518,177,6638.0,-17.67281150817871,-419,9983.0
11670,0.4038054049015045,22.465425491333008,419,6638.0,-50.78917694091797,-827,9983.0
11680,0.4035925269126892,23.972379684448242,346,6638.0,-56.26352310180664,-975,9983.0
11690,0.403628408908844,14.343443870544434,183,6638.0,-36.28451919555664,-295,9983.0
11700,0.4034133851528168,-8.686789512634277,-333,6638.0,-1.0969910621643066,20,9983.0
11710,0.4040088951587677,-35.19582748413086,-664,6638.0,18.69069480895996,474,9983.0
11720,0.4038906991481781,-60.1672248840332,-1005,6638.0,27.03274154663086,378,9983.0
11730,0.40366655588150024,-70.27658081054688,-1182,6638.0,19.874492645263672,224,9983.0
11740,0.4036845266819,-55.464447021484375,-750,6638.0,1.3741267919540405,30,9983.0
11750,0.4035956561565399,-31.315608978271484,-400,6638.0,-10.866536140441895,-181,9983.0
11760,0.40398579835891724,-12.366607666015625,-215,6638.0,-14.840559959411621,-311,9983.0
11770,0.4040796458721161,4.236462116241455,71,6638.0,-11.85560131072998,-193,9983.0
11780,0.40415680408477783,11.406758308410645,232,6638.0,-2.741999864578247,114,9983.0
11790,0.40428435802459717,19.669384002685547,420,6638.0,6.911122798919678,205,9983.0
11800,0.403776615858078,26.805580139160156,381,6638.0,16.295578002929688,167,9983.0
11810,0.40364885330200195,29.397266387939453,452,6638.0,20.347267150878906,398,9983.0
11820,0.4034115672111511,31.029651641845703,554,6638.0,21.457521438598633,403,9983.0
11830,0.40305137634277344,26.355146408081055,365,6638.0,20.41632080078125,282,9983.0
11840,0.40317606925964355,15.04218864440918,100,6638.0,7.691900730133057,26,9983.0
11850,0.4027901589870453,0.7974196076393127,-11,6638.0,-12.77925968170166,-177,9983.0
11860,0.4023604094982147,-5.378289222717285,-65,6638.0,-30.13916778564453,-577,9983.0
11870,0.4019300639629364,-10.799686431884766,-269,6638.0,-44.0619010925293,-833,9983.0
11880,0.40136441588401794,-9.226816177368164,-114,6638.0,-40.94037628173828,-552,9983.0
11890,0.4030836522579193,-0.7839804887771606,70,6638.0,-30.282833099365234,-503,9983.0
11900,0.4029289186000824,3.515953779220581,-16,6638.0,-14.052898406982422,-186,9983.0
11910,0.40289071202278137,1.2147550582885742,43,6638.0,-3.7573647499084473,125,9983.0
11920,0.4030298590660095,4.290231704711914,63,6638.0,3.2175137996673584,57,9983.0
11930,0.4027508795261383,4.595470905303955,49,6638.0,14.332761764526367,197,9983.0
11940,0.40292593836784363,9.775979042053223,220,6638.0,16.51968765258789,374,9983.0
11950,0.4031243324279785,18.8446044921875,390,6638.0,21.359039306640625,365,9983.0
11960,0.4033769965171814,24.892913818359375,315,6638.0,29.29010772705078,532,9983.0
11970,0.4035717248916626,15.820968627929688,295,6638.0,20.209814071655273,291,9983.0
11980,0.40524840354919434,11.593056678771973,204,6638.0,3.2622580528259277,-26,9983.0
11990,0.40542498230934143,3.177119016647339,-38,6638.0,-8.464693069458008,-287,9983.0
12000,0.40553489327430725,-3.939117193222046,-94,6638.0,-10.75433349609375,-63,9983.0
12010,0.40549421310424805,-6.813629627227783,-95,6638.0,-9.152338027954102,-39,9983.0
12020,0.40767231583595276,-10.593428611755371,-202,6638.0,-13.062644958496094,-342,9983.0
12030,0.4075334072113037,-11.544316291809082,-210,6638.0,-25.62468719482422,-610,9983.0
12040,0.40726789832115173,-5.391141891479492,-34,6638.0,-45.6650276184082,-669,9983.0
12050,0.4069197475910187,-0.6949477195739746,93,6638.0,-43.24649429321289,-629,9983.0
12060,0.4060002565383911,7.895046710968018,101,6638.0,-15.535833358764648,57,9983.0
12070,0.4057854115962982,3.792236566543579,74,6638.0,18.460147857666016,427,9983.0
12080,0.4057193398475647,-4.511487007141113,-112,6638.0,27.620824813842773,344,9983.0
12090,0.40572258830070496,-12.135316848754883,-304,6638.0,20.669267654418945,325,9983.0
12100,0.40579336881637573,-13.068778991699219,-184,6638.0,12.043621063232422,252,9983.0
12110,0.40641534328460693,-15.171671867370605,-282,6638.0,3.002490282058716,-159,9983.0
12120,0.40660062432289124,-23.27163314819336,-451,6638.0,-15.677757263183594,-437,9983.0
12130,0.4068029224872589,-29.698301315307617,-391,6638.0,-26.548227310180664,-424,9983.0
12140,0.40703848004341125,-33.77188491821289,-654,6638.0,-16.987815856933594,-329,9983.0
12150,0.40703728795051575,-31.450769424438477,-523,6638.0,1.161764144897461,188,9983.0
12160,0.40733790397644043,-15.64372730255127,-104,6638.0,20.63436508178711,506,9983.0
12170,0.4073672890663147,11.427591323852539,328,6638.0,31.48713493347168,488,9983.0
12180,0.40744346380233765,34.697818756103516,633,6638.0,34.64811325073242,451,9983.0
12190,0.4073448181152344,52.550331115722656,882,6638.0,20.562055587768555,201,9983.0
12200,0.4066087603569031,59.95580291748047,1066,6638.0,-1.5527150630950928,20,9983.0
12210,0.4063146114349365,63.80122756958008,1126,6638.0,-14.690537452697754,-288,9983.0
12220,0.40604788064956665,66.58605194091797,1029,6638.0,-16.33305549621582,-265,9983.0
12230,0.4060148000717163,56.375640869140625,795,6638.0,-2.7454893589019775,151,9983.0
12240,0.40574729442596436,28.23935890197754,329,6638.0,19.812856674194336,308,9983.0
12250,0.4056001305580139,-6.679647445678711,-252,6638.0,33.43396759033203,653,9983.0
12260,0.40558528900146484,-27.59198570251465,-468,6638.0,20.90620994567871,165,9983.0
12270,0.4056200087070465,-30.220365524291992,-572,6638.0,-8.496440887451172,-304,9983.0
12280,0.40571221709251404,-33.32725524902344,-573,6638.0,-31.91705894470215,-488,9983.0
12290,0.40582677721977234,-39.697357177734375,-628,6638.0,-40.503196716308594,-785,9983.0
12300,0.4058340787887573,-40.57655334472656,-674,6638.0,-37.519996643066406,-533,9983.0
12310,0.40583816170692444,-33.93905258178711,-451,6638.0,-25.115116119384766,-251,9983.0
12320,0.40583282709121704,-14.752660751342773,-189,6638.0,-19.12613868713379,-392,9983.0
12330,0.4063779413700104,2.2856650352478027,49,6638.0,-15.272872924804688,-157,9983.0
12340,0.4064878821372986,4.23980712890625,118,6638.0,6.155279636383057,262,9983.0
12350,0.40655484795570374,2.4882428646087646,21,6638.0,36.17435836791992,643,9983.0
12360,0.4065049886703491,4.1779937744140625,129,6638.0,54.39535140991211,1070,9983.0
12370,0.40744465589523315,10.866846084594727,243,6638.0,55.21928024291992,745,9983.0
12380,0.40733376145362854,12.047731399536133,118,6638.0,32.55561065673828,275,9983.0
12390,0.40753358602523804,10.438673973083496,94,6638.0,2.541308641433716,-26,9983.0
12400,0.4074467718601227,1.79202139377594,40,6638.0,-14.918891906738281,-200,9983.0
12410,0.4074406623840332,-10.4856538772583,-249,6638.0,-14.998287200927734,-317,9983.0
12420,0.4076195955276489,-11.577655792236328,-287,6638.0,-13.249715805053711,-186,9983.0
12430,0.40761905908584595,-7.478800296783447,-54,6638.0,-6.708224773406982,-5,9983.0
12440,0.4077598750591278,-0.4847205579280853,26,6638.0,-6.037454605102539,-256,9983.0
12450,0.40795496106147766,-3.0551302433013916,-68,6638.0,-14.578808784484863,-178,9983.0
12460,0.4085044264793396,-4.544448375701904,-53,6638.0,-14.11485481262207,-180,9983.0
12470,0.4087674915790558,-8.599371910095215,-207,6638.0,-9.493855476379395,-209,9983.0
12480,0.40910783410072327,-9.861749649047852,-140,6638.0,-4.391533374786377,-15,9983.0
12490,0.4094495475292206,-1.699817180633545,83,6638.0,3.9580061435699463,58,9983.0
12500,0.40874168276786804,8.478171348571777,154,6638.0,5.34092903137207,33,9983.0
12510,0.40899768471717834,16.166658401489258,292,6638.0,4.164248943328857,166,9983.0
12520,0.4091918468475342,8.493900299072266,113,6638.0,0.6801334023475647,-60,9983.0
12530,0.40939003229141235,-2.9168670177459717,-169,6638.0,7.326092720031738,180,9983.0
12540,0.40946605801582336,-13.573921203613281,-169,6638.0,14.392912864685059,351,9983.0
12550,0.4096357226371765,-18.980030059814453,-403,6638.0,13.756632804870605,71,9983.0
12560,0.4095117449760437,-21.577075958251953,-406,6638.0,2.8301198482513428,19,9983.0
12570,0.4093274772167206,-26.354610443115234,-414,6638.0,-8.657832145690918,-96,9983.0
12580,0.40905964374542236,-39.451019287109375,-660,6638.0,-11.360977172851562,-181,9983.0
12590,0.4088079631328583,-45.80926513671875,-780,6638.0,-6.259909152984619,-182,9983.0
12600,0.4085308015346527,-40.48435974121094,-637,6638.0,2.808321475982666,109,9983.0
12610,0.40845155715942383,-18.809764862060547,-167,6638.0,5.7383527755737305,218,9983.0
12620,0.40846046805381775,9.102006912231445,320,6638.0,1.607072114944458,-22,9983.0
12630,0.40868330001831055,36.90468978881836,737,6638.0,-7.065375328063965,-243,9983.0
12640,0.40853074193000793,57.33958435058594,1041,6638.0,-17.906644821166992,-429,9983.0
12650,0.408994197845459,74.9823226928711,1317,6638.0,-22.793235778808594,-307,9983.0
12660,0.40940555930137634,81.31207275390625,1354,6638.0,-20.182722091674805,-243,9983.0
12670,0.4097744822502136,64.0695571899414,820,6638.0,-10.453930854797363,-183,9983.0
12680,0.40969419479370117,36.414363861083984,454,6638.0,-0.8144074082374573,12,9983.0
12690,0.40999341011047363,3.495887041091919,-168,6638.0,6.568778991699219,233,9983.0
12700,0.4104869067668915,-21.05316734313965,-459,6638.0,30.516830444335938,659,9983.0
12710,0.4108453392982483,-34.52450942993164,-697,6638.0,45.03377151489258,765,9983.0
12720,0.41050922870635986,-44.663692474365234,-754,6638.0,47.88556671142578,789,9983.0
12730,0.41041216254234314,-46.01865005493164,-712,6638.0,29.816850662231445,356,9983.0
12740,0.4103088676929474,-44.02882766723633,-773,6638.0,4.978829383850098,-188,9983.0
12750,0.4099814295768738,-48.72719192504883,-866,6638.0,-10.300761222839355,-214,9983.0
12760,0.40974026918411255,-51.59508514404297,-832,6638.0,-17.35700035095215,-385,9983.0
12770,0.40875715017318726,-36.792518615722656,-450,6638.0,-24.65334129333496,-457,9983.0
12780,0.4085640609264374,-0.4266931116580963,141,6638.0,-24.910581588745117,-413,9983.0
12790,0.40849411487579346,35.14081573486328,725,6638.0,-21.68754768371582,-443,9983.0
12800,0.4087315797805786,65.54316711425781,1160,6638.0,-17.82925033569336,-197,9983.0
12810,0.4072728753089905,76.99940490722656,1401,6638.0,-16.95441436767578,-239,9983.0
12820,0.4072814881801605,78.38908386230469,1154,6638.0,-18.71993637084961,-425,9983.0
12830,0.4074437618255615,50.7303466796875,666,6638.0,-11.07359790802002,-12,9983.0
12840,0.4078129529953003,-0.7828304767608643,-321,6638.0,4.322138786315918,22,9983.0
12850,0.40796375274658203,-48.73611068725586,-884,6638.0,11.817163467407227,324,9983.0
12860,0.40555739402770996,-63.433082580566406,-1076,6638.0,23.85350227355957,264,9983.0
12870,0.40517449378967285,-50.302703857421875,-757,6638.0,29.680124282836914,604,9983.0
12880,0.404745489358902,-35.411277770996094,-476,6638.0,38.8459587097168,705,9983.0
12890,0.4042818248271942,-17.680910110473633,-233,6638.0,38.874961853027344,584,9983.0
12900,0.40343615412712097,-1.535839319229126,-25,6638.0,28.788131713867188,338,9983.0
12910,0.40280941128730774,11.07575798034668,175,6638.0,4.680621147155762,-29,9983.0
12920,0.4022587239742279,15.174226760864258,275,6638.0,-23.52341079711914,-408,9983.0
12930,0.4017529785633087,11.708966255187988,253,6638.0,-37.78499984741211,-693,9983.0
12940,0.3999663293361664,14.164916038513184,168,6638.0,-38.970619201660156,-564,9983.0
12950,0.3994376063346863,12.27084732055664,236,6638.0,-9.912437438964844,45,9983.0
12960,0.3990316689014435,14.810587882995605,270,6638.0,15.311835289001465,250,9983.0
12970,0.39873582124710083,9.620471000671387,47,6638.0,18.06964111328125,197,9983.0
12980,0.3986181318759918,2.109971284866333,36,6638.0,-0.6553605794906616,6,9983.0
12990,0.3979463279247284,-9.717473983764648,-243,6638.0,-13.588857650756836,-335,9983.0
13000,0.397990882396698,-25.067487716674805,-457,6638.0,-15.730802536010742,-282,9983.0
13010,0.39803817868232727,-31.969966888427734,-501,6638.0,-17.791948318481445,-339,9983.0
13020,0.39815887808799744,-44.87948989868164,-852,6638.0,-18.216920852661133,-295,9983.0
13030,0.39809098839759827,-46.08369827270508,-621,6638.0,-11.711614608764648,-16,9983.0
13040,0.39809030294418335,-26.667724609375,-299,6638.0,0.47120237350463867,-17,9983.0
13050,0.39858800172805786,2.8948724269866943,94,6638.0,14.757418632507324,297,9983.0
13060,0.3986407518386841,26.442092895507812,546,6638.0,27.354618072509766,623,9983.0
13070,0.398722380399704,38.694053649902344,633,6638.0,39.185306549072266,653,9983.0
13080,0.3972257375717163,38.68471145629883,536,6638.0,42.15031814575195,602,9983.0
13090,0.39727675914764404,28.68010902404785,511,6638.0,25.896724700927734,375,9983.0
13100,0.3974366784095764,24.133846282958984,342,6638.0,-0.965480625629425,-146,9983.0
13110,0.39734596014022827,23.072498321533203,359,6638.0,-17.082826614379883,-207,9983.0
13120,0.39828115701675415,14.447002410888672,266,6638.0,-17.658227920532227,-306,9983.0
13130,0.39840489625930786,-2.7304680347442627,-181,6638.0,-9.953045845031738,-120,9983.0
13140,0.39863070845603943,-22.878999710083008,-428,6638.0,-7.198356628417969,-187,9983.0
13150,0.39886197447776794,-35.97880172729492,-602,6638.0,-10.999845504760742,-143,9983.0
13160,0.39944976568222046,-37.162193298339844,-577,6638.0,-16.028045654296875,-278,9983.0
13170,0.39977842569351196,-33.804115295410156,-619,6638.0,-15.945307731628418,-211,9983.0
13180,0.4001581072807312,-28.737585067749023,-332,6638.0,-7.153151512145996,5,9983.0
13190,0.4007282853126526,-11.694717407226562,-103,6638.0,12.554889678955078,181,9983.0
13200,0.40139827132225037,10.195542335510254,242,6638.0,31.71693992614746,632,9983.0
13210,0.400865375995636,22.94191551208496,427,6638.0,38.099143981933594,593,9983.0
13220,0.40121057629585266,18.873891830444336,145,6638.0,31.573070526123047,532,9983.0
13230,0.4014943540096283,10.817059516906738,179,6638.0,24.445018768310547,448,9983.0
13240,0.40164658427238464,0.5147367119789124,-87,6638.0,30.47124671936035,425,9983.0
13250,0.40189170837402344,-7.443089485168457,-146,6638.0,32.84690475463867,598,9983.0
13260,0.4018799960613251,-7.395236968994141,-16,6638.0,25.218425750732422,357,9983.0
13270,0.4017656743526459,-2.154334306716919,-88,6638.0,10.551529884338379,-135,9983.0
13280,0.4015820622444153,4.555839538574219,96,6638.0,-19.262393951416016,-439,9983.0
13290,0.4013335704803467,11.951488494873047,294,6638.0,-40.2628059387207,-727,9983.0
13300,0.40331029891967773,19.588790893554688,269,6638.0,-51.160621643066406,-847,9983.0
13310,0.4031740725040436,20.8208065032959,358,6638.0,-32.03515625,-197,9983.0
13320,0.40309062600135803,17.49711036682129,212,6638.0,-8.064095497131348,-154,9983.0
13330,0.40309298038482666,8.377265930175781,98,6638.0,4.357645034790039,218,9983.0
13340,0.40308138728141785,5.292706489562988,86,6638.0,6.904290676116943,-4,9983.0
13350,0.40305837988853455,4.325809478759766,72,6638.0,4.315032958984375,156,9983.0
13360,0.4031563103199005,2.329774856567383,-39,6638.0,3.898066759109497,-66,9983.0
13370,0.4032832682132721,-5.624833583831787,-137,6638.0,-1.1793028116226196,46,9983.0
13380,0.4020657539367676,-10.182076454162598,-254,6638.0,-2.3510642051696777,-101,9983.0
13390,0.40213993191719055,-15.354116439819336,-327,6638.0,1.2339606285095215,41,9983.0
13400,0.40216293931007385,-24.626537322998047,-399,6638.0,11.200682640075684,303,9983.0
13410,0.4020807445049286,-31.850645065307617,-605,6638.0,16.201759338378906,236,9983.0
13420,0.4019736051559448,-28.68071937561035,-350,6638.0,15.697066307067871,359,9983.0
13430,0.4021091163158417,-15.676990509033203,-146,6638.0,12.70361328125,89,9983.0
13440,0.4019272029399872,-0.36677706241607666,47,6638.0,0.43621352314949036,-183,9983.0
13450,0.4016311466693878,11.408601760864258,197,6638.0,-15.135859489440918,-257,9983.0
13460,0.4011673927307129,19.626541137695312,327,6638.0,-23.663026809692383,-322,9983.0
13470,0.40041011571884155,21.038049697875977,379,6638.0,-30.98528289794922,-689,9983.0
13480,0.39988189935684204,24.8247127532959,345,6638.0,-30.79170799255371,-367,9983.0
13490,0.3994103968143463,28.706876754760742,525,6638.0,-17.79703140258789,-120,9983.0
13500,0.39916184544563293,29.02010726928711,394,6638.0,0.7051709890365601,-58,9983.0
13510,0.3988872468471527,25.560081481933594,411,6638.0,11.765357971191406,300,9983.0
13520,0.3987216353416443,13.30444049835205,202,6638.0,8.286304473876953,78,9983.0
13530,0.398575097322464,-3.6697475910186768,-123,6638.0,-1.8203479051589966,-103,9983.0
13540,0.3984445035457611,-14.179141998291016,-297,6638.0,-12.913738250732422,-131,9983.0
13550,0.3983345329761505,-22.210323333740234,-350,6638.0,-15.895559310913086,-266,9983.0
13560,0.3976774513721466,-25.935333251953125,-465,6638.0,-10.19863510131836,-216,9983.0
13570,0.3975732624530792,-23.139272689819336,-321,6638.0,-2.4568541049957275,118,9983.0
13580,0.3974309265613556,-17.46307945251465,-226,6638.0,15.0476655960083,404,9983.0
13590,0.3973274827003479,-3.3944926261901855,-5,6638.0,25.01498031616211,401,9983.0
13600,0.39642059803009033,15.72048282623291,349,6638.0,37.13308334350586,626,9983.0
13610,0.3962039649486542,34.91650390625,645,6638.0,41.78983688354492,563,9983.0
13620,0.3959932327270508,41.66352081298828,678,6638.0,32.085670471191406,437,9983.0
13630,0.39585620164871216,41.7799072265625,729,6638.0,-0.34081679582595825,-56,9983.0
13640,0.39552173018455505,33.66606521606445,510,6638.0,-24.43993377685547,-506,9983.0
13650,0.39730972051620483,21.786582946777344,291,6638.0,-45.63054656982422,-778,9983.0
13660,0.397105872631073,10.921667098999023,27,6638.0,-43.04782485961914,-678,9983.0
13670,0.39695268869400024,-5.36261510848999,-114,6638.0,-35.31696701049805,-369,9983.0
13680,0.3967956602573395,-15.160734176635742,-235,6638.0,-26.69110107421875,-507,9983.0
13690,0.395542174577713,-13.537089347839355,-246,6638.0,-25.9942626953125,-415,9983.0
13700,0.3954913318157196,-12.529163360595703,-166,6638.0,-23.022804260253906,-264,9983.0
13710,0.39543458819389343,-16.99770736694336,-318,6638.0,-15.245443344116211,-225,9983.0
13720,0.39554280042648315,-22.380504608154297,-454,6638.0,-1.5142502784729004,19,9983.0
13730,0.39460489153862,-21.062721252441406,-218,6638.0,12.17409610748291,366,9983.0
13740,0.3948317766189575,-3.5823988914489746,86,6638.0,30.99367904663086,567,9983.0
13750,0.3949282169342041,13.398131370544434,224,6638.0,41.68056106567383,594,9983.0
13760,0.39502179622650146,25.110315322875977,483,6638.0,36.79380798339844,532,9983.0
13770,0.3950333297252655,38.1606330871582,639,6638.0,38.33486557006836,705,9983.0
13780,0.3944700062274933,39.14244079589844,704,6638.0,42.14638137817383,756,9983.0
13790,0.39484065771102905,39.98068618774414,645,6638.0,39.844512939453125,609,9983.0
13800,0.39455753564834595,33.599430084228516,530,6638.0,27.45435905456543,248,9983.0
13810,0.3942399024963379,17.269121170043945,155,6638.0,-2.99412202835083,-189,9983.0
13820,0.3953152298927307,3.3810477256774902,-12,6638.0,-41.252506256103516,-754,9983.0
13830,0.3951131999492645,-11.092683792114258,-125,6638.0,-65.03477478027344,-1149,9983.0
13840,0.3949262201786041,-17.768770217895508,-388,6638.0,-62.679710388183594,-1064,9983.0
13850,0.3946797847747803,-30.881227493286133,-513,6638.0,-37.52071762084961,-399,9983.0
13860,0.3948204219341278,-40.08964920043945,-661,6638.0,-10.651942253112793,-186,9983.0
13870,0.3933205306529999,-42.96723556518555,-783,6638.0,7.625932693481445,212,9983.0
13880,0.39328229427337646,-42.43059158325195,-603,6638.0,16.796398162841797,344,9983.0
13890,0.3933674097061157,-28.17885398864746,-422,6638.0,13.765416145324707,85,9983.0
13900,0.3934606611728668,-11.838622093200684,-138,6638.0,5.094758033752441,13,9983.0
13910,0.3946729600429535,-0.042927052825689316,50,6638.0,2.7485806941986084,132,9983.0
13920,0.394834965467453,3.568510055541992,131,6638.0,12.674948692321777,297,9983.0
13930,0.3949979245662689,5.787702560424805,76,6638.0,17.736568450927734,163,9983.0
13940,0.39508718252182007,12.716513633728027,214,6638.0,14.246234893798828,227,9983.0
13950,0.39669036865234375,15.448395729064941,283,6638.0,13.434274673461914,420,9983.0
13960,0.3967306613922119,12.150115966796875,252,6638.0,24.250411987304688,370,9983.0
13970,0.39676234126091003,19.165691375732422,304,6638.0,21.309144973754883,217,9983.0
13980,0.3965345621109009,23.428319931030273,382,6638.0,5.525986194610596,24,9983.0
13990,0.39651405811309814,15.873339653015137,285,6638.0,-12.822877883911133,-335,9983.0
14000,0.3971983790397644,7.368095397949219,-1,6638.0,-22.37857437133789,-421,9983.0
14010,0.3969050347805023,0.5380088686943054,18,6638.0,-17.909650802612305,-24,9983.0
14020,0.3966694474220276,-10.33138370513916,-295,6638.0,5.243724822998047,71,9983.0
