timestamp,kalman.stateZ,gyro.x,gyro.xRaw,gyro.xVariance,gyro.y,gyro.yRaw,gyro.yVariance
0,0.31387415528297424,3.689987897872925,47,8158.0,24.495952606201172,392,9997.0
10,0.31395769119262695,1.3191673755645752,3,8158.0,21.350242614746094,335,9997.0
20,0.31410980224609375,-2.326453685760498,-53,8158.0,16.595542907714844,251,9997.0
30,0.31421464681625366,-4.195334434509277,-63,8158.0,11.711919784545898,170,9997.0
40,0.3143865168094635,-3.955444097518921,-59,8158.0,6.00302267074585,79,9997.0
50,0.31389757990837097,-1.1766775846481323,0,8158.0,0.8066753149032593,-9,9997.0
60,0.31404760479927063,2.1560213565826416,52,8158.0,-4.840854167938232,-110,9997.0
70,0.31422853469848633,3.3686275482177734,59,8158.0,-11.135942459106445,-202,9997.0
80,0.3143494725227356,3.184676170349121,47,8158.0,-14.53406810760498,-234,9997.0
90,0.3139599859714508,2.527299404144287,34,8158.0,-12.208959579467773,-173,9997.0
100,0.31400054693222046,1.3694682121276855,15,8158.0,-6.493762016296387,-75,9997.0
110,0.31396225094795227,-0.09710782021284103,-4,8158.0,-1.0782256126403809,8,9997.0
120,0.31386643648147583,-0.6133158802986145,-14,8158.0,3.6913933753967285,81,9997.0
130,0.31355562806129456,-1.6501319408416748,-30,8158.0,6.8570404052734375,122,9997.0
140,0.3134353458881378,-2.0165774822235107,-31,8158.0,7.836916446685791,120,9997.0
150,0.3133273124694824,-2.524585723876953,-40,8158.0,5.1798577308654785,73,9997.0
160,0.3132881224155426,-1.709519386291504,-20,8158.0,1.7725261449813843,19,9997.0
170,0.3133292496204376,-0.21285311877727509,-1,8158.0,-1.9289813041687012,-52,9997.0
180,0.3141941428184509,1.3170236349105835,37,8158.0,-6.750869274139404,-134,9997.0
190,0.31446561217308044,2.5660488605499268,34,8158.0,-14.59430980682373,-293,9997.0
200,0.31479594111442566,1.6216434240341187,39,8158.0,-26.54048728942871,-497,9997.0
210,0.31516945362091064,2.081800937652588,27,8158.0,-42.349281311035156,-771,9997.0
220,0.31631752848625183,2.8149404525756836,61,8158.0,-60.37533950805664,-1096,9997.0
230,0.3166435658931732,-0.07840964198112488,77,8158.0,-76.91517639160156,-1360,9997.0
240,0.3167961835861206,7.12372350692749,79,8158.0,-95.35358428955078,-1589,9997.0
250,0.31693530082702637,2.28063702583313,23,8158.0,-97.4437255859375,-1592,9997.0
260,0.3163883686065674,-0.17208340764045715,-14,8158.0,-88.10316467285156,-1358,9997.0
270,0.31736308336257935,-4.516709804534912,-100,8158.0,-68.87471771240234,-1036,9997.0
280,0.3167913258075714,-3.3627192974090576,-131,8158.0,-51.248573303222656,-632,9997.0
290,0.31674936413764954,-1.7735626697540283,-94,8158.0,-28.522668838500977,-269,9997.0
300,0.31705787777900696,0.7442182898521423,66,8158.0,-8.493234634399414,-28,9997.0
310,0.3162146210670471,6.449968338012695,159,8158.0,8.870977401733398,254,9997.0
320,0.31608670949935913,10.143914222717285,164,8158.0,21.43172264099121,333,9997.0
330,0.3161642551422119,5.285025596618652,52,8158.0,23.00371551513672,392,9997.0
340,0.31630000472068787,1.2379249334335327,-13,8158.0,22.164262771606445,303,9997.0
350,0.31668564677238464,-5.34710168838501,-78,8158.0,11.93720531463623,119,9997.0
360,0.3178548514842987,-10.099910736083984,-234,8158.0,-6.609809398651123,-287,9997.0
370,0.31831464171409607,-9.769535064697266,-62,8158.0,-29.88070297241211,-631,9997.0
380,0.3188064396381378,-4.6829681396484375,-84,8158.0,-53.864524841308594,-962,9997.0
390,0.3195488154888153,1.6457701921463013,99,8158.0,-73.98211669921875,-1370,9997.0
400,0.3179568648338318,9.499228477478027,222,8158.0,-95.5467758178711,-1583,9997.0
410,0.318179190158844,18.71066665649414,295,8158.0,-111.66246795654297,-1893,9997.0
420,0.3173941671848297,22.30736541748047,300,8158.0,-117.66302490234375,-1734,9997.0
430,0.31990307569503784,18.05446434020996,153,8158.0,-100.74967956542969,-1454,9997.0
440,0.32338374853134155,9.588011741638184,48,8158.0,-67.6070327758789,-748,9997.0
450,0.3239314556121826,-4.77128267288208,-65,8158.0,-12.53184700012207,-79,9997.0
460,0.3249766528606415,-2.9114949703216553,-159,8158.0,42.88142776489258,920,9997.0
470,0.32514044642448425,-10.548392295837402,13,8158.0,90.87508392333984,1625,9997.0
480,0.3265795111656189,-5.485415935516357,-138,8158.0,119.48328399658203,2110,9997.0
490,0.3307896852493286,4.431480407714844,23,8158.0,132.59432983398438,2217,9997.0
500,0.3309197723865509,2.4599533081054688,-2,8158.0,124.4390869140625,2063,9997.0
510,0.33090275526046753,3.881589412689209,-42,8158.0,106.02186584472656,1713,9997.0
520,0.3333105742931366,0.48232489824295044,-83,8158.0,76.28558349609375,1125,9997.0
530,0.32746580243110657,-3.506967544555664,-120,8158.0,34.38119125366211,392,9997.0
540,0.3278079330921173,-6.846126556396484,-157,8158.0,-9.157670974731445,-380,9997.0
550,0.3288396894931793,-10.928214073181152,-212,8158.0,-51.9879264831543,-1110,9997.0
560,0.33013036847114563,-13.043030738830566,-177,8158.0,-83.35716247558594,-1540,9997.0
570,0.32603439688682556,-6.714430809020996,-50,8158.0,-100.60053253173828,-1787,9997.0
580,0.32666370272636414,1.3225443363189697,86,8158.0,-117.16641998291016,-2017,9997.0
590,0.3271949887275696,10.362592697143555,161,8158.0,-136.68161010742188,-2247,9997.0
600,0.32950714230537415,14.372091293334961,209,8158.0,-134.26751708984375,-2106,9997.0
610,0.3292663097381592,11.636123657226562,207,8158.0,-106.43682861328125,-1663,9997.0
620,0.3312152326107025,7.676957130432129,53,8158.0,-61.7069091796875,-647,9997.0
630,0.33356231451034546,0.16246607899665833,66,8158.0,-6.660559177398682,19,9997.0
640,0.3353757858276367,-0.20100587606430054,-78,8158.0,45.880855560302734,1079,9997.0
650,0.33729177713394165,-2.4460952281951904,29,8158.0,101.26583862304688,1819,9997.0
660,0.3390960991382599,0.5943586230278015,-26,8158.0,135.09152221679688,2314,9997.0
670,0.339899480342865,-3.528151035308838,-58,8158.0,159.28341674804688,2607,9997.0
680,0.3410707414150238,-3.3302736282348633,36,8158.0,164.38601684570312,2612,9997.0
690,0.34101179242134094,-4.3459086418151855,-89,8158.0,158.92868041992188,2519,9997.0
700,0.3404856026172638,-7.683475971221924,-186,8158.0,130.668701171875,1954,9997.0
710,0.3318385183811188,-14.65318775177002,-312,8158.0,91.71178436279297,1412,9997.0
720,0.3344959616661072,-22.588407516479492,-481,8158.0,48.4466667175293,551,9997.0
730,0.3352113366127014,-22.44037437438965,-379,8158.0,-6.490660667419434,-177,9997.0
740,0.3372539281845093,-9.327484130859375,-167,8158.0,-60.560585021972656,-1131,9997.0
750,0.330872118473053,4.789913654327393,80,8158.0,-105.03157043457031,-1728,9997.0
760,0.3321681320667267,11.298768997192383,231,8158.0,-141.5277557373047,-2367,9997.0
770,0.33334845304489136,12.922070503234863,299,8158.0,-171.2529296875,-2919,9997.0
780,0.33401963114738464,10.677541732788086,170,8158.0,-194.05130004882812,-3272,9997.0
790,0.330882728099823,8.243106842041016,92,8158.0,-194.466796875,-2954,9997.0
800,0.33476853370666504,14.782767295837402,267,8158.0,-166.2931365966797,-2539,9997.0
810,0.3349190652370453,13.529962539672852,222,8158.0,-113.70386505126953,-1676,9997.0
820,0.33789291977882385,14.456844329833984,250,8158.0,-51.784549713134766,-533,9997.0
830,0.3389712870121002,9.844751358032227,81,8158.0,14.229218482971191,646,9997.0
840,0.3437698483467102,2.359342098236084,62,8158.0,76.37376403808594,1391,9997.0
850,0.3450077176094055,-5.319926738739014,-138,8158.0,118.68412780761719,2136,9997.0
860,0.34639114141464233,-11.886296272277832,-204,8158.0,145.614501953125,2525,9997.0
870,0.347057580947876,-24.390979766845703,-498,8158.0,156.71609497070312,2764,9997.0
880,0.34337663650512695,-28.22828483581543,-476,8158.0,157.18580627441406,2637,9997.0
890,0.343205988407135,-24.092453002929688,-249,8158.0,149.908935546875,2332,9997.0
900,0.34204620122909546,-5.670779705047607,47,8158.0,128.7431640625,1892,9997.0
910,0.3426278233528137,8.16805362701416,243,8158.0,84.0259780883789,968,9997.0
920,0.3437917232513428,22.82247543334961,353,8158.0,25.072235107421875,66,9997.0
930,0.336065411567688,18.860462188720703,173,8158.0,-46.82133102416992,-934,9997.0
940,0.3377458155155182,10.399039268493652,-1,8158.0,-102.44188690185547,-1868,9997.0
950,0.3398149907588959,-0.8931851387023926,-226,8158.0,-150.38314819335938,-2527,9997.0
960,0.3409528434276581,-15.005655288696289,-374,8158.0,-181.67288208007812,-2955,9997.0
970,0.3338995575904846,-28.560461044311523,-498,8158.0,-197.12786865234375,-3187,9997.0
980,0.3347676992416382,-32.76347351074219,-560,8158.0,-191.69004821777344,-2955,9997.0
990,0.3346813917160034,-15.860549926757812,-70,8158.0,-163.5908660888672,-2533,9997.0
1000,0.33565229177474976,7.192249774932861,244,8158.0,-122.61006927490234,-1825,9997.0
1010,0.342353880405426,24.15437126159668,415,8158.0,-68.34577178955078,-607,9997.0
1020,0.3435802757740021,32.2791862487793,568,8158.0,-8.991040229797363,208,9997.0
1030,0.3458419740200043,27.435762405395508,397,8158.0,40.75364685058594,859,9997.0
1040,0.34792086482048035,16.9739933013916,176,8158.0,85.49787139892578,1625,9997.0
1050,0.3481547236442566,-0.001540645258501172,-17,8158.0,123.36473083496094,2118,9997.0
1060,0.351816862821579,-13.80617618560791,-335,8158.0,151.0972900390625,2544,9997.0
1070,0.35319438576698303,-24.7200927734375,-355,8158.0,170.4282684326172,2798,9997.0
1080,0.3540424108505249,-21.25415802001953,-331,8158.0,173.46412658691406,2856,9997.0
1090,0.3552260100841522,-11.304048538208008,-197,8158.0,154.6841278076172,2528,9997.0
1100,0.34557709097862244,0.22560544312000275,73,8158.0,119.12117004394531,1721,9997.0
1110,0.34534960985183716,1.6904387474060059,129,8158.0,78.79084777832031,1004,9997.0
1120,0.34730640053749084,-0.5296955108642578,55,8158.0,35.63689422607422,284,9997.0
1130,0.3487223982810974,-6.080199241638184,-114,8158.0,-8.080803871154785,-376,9997.0
1140,0.33971211314201355,-12.752943992614746,-292,8158.0,-46.0107421875,-992,9997.0
1150,0.3406318724155426,-16.77194595336914,-351,8158.0,-76.64679718017578,-1374,9997.0
1160,0.3413565456867218,-16.727758407592773,-266,8158.0,-86.35047149658203,-1448,9997.0
1170,0.3418770134449005,-7.925904273986816,86,8158.0,-70.92269134521484,-1249,9997.0
1180,0.3422590494155884,10.216523170471191,339,8158.0,-56.65552520751953,-887,9997.0
1190,0.3365057706832886,28.460472106933594,485,8158.0,-37.60833740234375,-372,9997.0
1200,0.33632177114486694,39.6942024230957,659,8158.0,-10.467097282409668,-25,9997.0
1210,0.33621999621391296,33.46770477294922,455,8158.0,25.99258041381836,513,9997.0
1220,0.335976779460907,22.843727111816406,366,8158.0,55.17186737060547,841,9997.0
1230,0.3332185745239258,15.9038724899292,216,8158.0,71.29754638671875,1219,9997.0
1240,0.3321264684200287,7.371430397033691,65,8158.0,77.27336883544922,1454,9997.0
1250,0.33189865946769714,3.664562940597534,45,8158.0,77.24105072021484,1208,9997.0
1260,0.33028531074523926,-5.6812615394592285,-217,8158.0,57.913448333740234,918,9997.0
1270,0.3291913568973541,-13.523764610290527,-349,8158.0,23.886608123779297,438,9997.0
1280,0.32609254121780396,-23.223918914794922,-443,8158.0,-8.326998710632324,-187,9997.0
1290,0.3262033462524414,-29.80784034729004,-466,8158.0,-42.65487289428711,-900,9997.0
1300,0.3262764513492584,-28.88422203063965,-423,8158.0,-79.05546569824219,-1471,9997.0
1310,0.3263167440891266,-25.776384353637695,-366,8158.0,-101.28020477294922,-1665,9997.0
1320,0.3260422348976135,-18.370084762573242,-149,8158.0,-107.32949829101562,-1832,9997.0
1330,0.32657235860824585,-5.450987339019775,-1,8158.0,-90.90406799316406,-1397,9997.0
1340,0.3269027769565582,12.130833625793457,359,8158.0,-55.827423095703125,-694,9997.0
1350,0.3282166123390198,36.19049835205078,647,8158.0,-17.461759567260742,-41,9997.0
1360,0.3294135630130768,45.262386322021484,776,8158.0,23.240413665771484,612,9997.0
1370,0.3302227854728699,51.43138122558594,773,8158.0,54.01131820678711,1129,9997.0
1380,0.33080753684043884,40.8750114440918,620,8158.0,66.52507781982422,1146,9997.0
1390,0.33077558875083923,24.479873657226562,290,8158.0,64.92684936523438,1129,9997.0
1400,0.3309915065765381,11.558043479919434,122,8158.0,53.14344024658203,711,9997.0
1410,0.3314519226551056,0.8801672458648682,-23,8158.0,32.39933395385742,476,9997.0
1420,0.33120372891426086,-2.4001107215881348,-87,8158.0,12.37913990020752,152,9997.0
1430,0.3311634659767151,-5.885124683380127,-140,8158.0,-7.093797206878662,-191,9997.0
1440,0.3315909206867218,-8.031159400939941,-230,8158.0,-24.90917205810547,-334,9997.0
1450,0.3299131393432617,-14.424600601196289,-282,8158.0,-36.515045166015625,-686,9997.0
1460,0.32991376519203186,-25.588417053222656,-529,8158.0,-50.754085540771484,-910,9997.0
1470,0.3302549421787262,-41.14894485473633,-755,8158.0,-68.05550384521484,-1221,9997.0
1480,0.33021533489227295,-58.465415954589844,-1033,8158.0,-84.02890014648438,-1624,9997.0
1490,0.32970699667930603,-69.24620819091797,-1109,8158.0,-81.40888214111328,-1244,9997.0
1500,0.33129170536994934,-58.74539566040039,-801,8158.0,-56.106361389160156,-753,9997.0
1510,0.33207967877388,-37.26639175415039,-435,8158.0,-20.757415771484375,-87,9997.0
1520,0.33302903175354004,-4.730874538421631,77,8158.0,4.316431999206543,358,9997.0
1530,0.33525973558425903,20.03085708618164,447,8158.0,31.826778411865234,792,9997.0
1540,0.3366107940673828,36.533355712890625,613,8158.0,57.282535552978516,1119,9997.0
1550,0.3380168378353119,39.88715362548828,654,8158.0,75.13157653808594,1216,9997.0
1560,0.33932313323020935,34.02200698852539,527,8158.0,86.09014892578125,1442,9997.0
1570,0.3402683734893799,23.99764633178711,367,8158.0,87.4134292602539,1216,9997.0
1580,0.3362117409706116,11.600262641906738,81,8158.0,71.1666030883789,969,9997.0
1590,0.3367445468902588,-2.1179721355438232,-63,8158.0,47.82142639160156,621,9997.0
1600,0.337026983499527,-7.743143081665039,-100,8158.0,25.10672950744629,102,9997.0
1610,0.3377770781517029,-2.2291109561920166,30,8158.0,4.264736175537109,-57,9997.0
1620,0.338463693857193,2.1060335636138916,74,8158.0,-11.467292785644531,-153,9997.0
1630,0.3327586352825165,7.862070560455322,114,8158.0,-26.74555206298828,-381,9997.0
1640,0.3335137665271759,19.43403434753418,361,8158.0,-34.97768783569336,-472,9997.0
1650,0.3343963027000427,28.910245895385742,510,8158.0,-31.593074798583984,-419,9997.0
1660,0.3358961343765259,21.380693435668945,213,8158.0,-25.84674644470215,-382,9997.0
1670,0.3339501619338989,4.0125508308410645,23,8158.0,-14.836336135864258,-125,9997.0
1680,0.3349139094352722,-9.386849403381348,-171,8158.0,-0.39125704765319824,116,9997.0
1690,0.3358786702156067,-15.606222152709961,-349,8158.0,20.06795883178711,434,9997.0
1700,0.33667662739753723,-28.43675994873047,-433,8158.0,43.53243637084961,723,9997.0
1710,0.3372432589530945,-33.18647384643555,-496,8158.0,60.032073974609375,1019,9997.0
1720,0.3341890573501587,-24.67407989501953,-431,8158.0,65.26213073730469,1247,9997.0
1730,0.33421188592910767,-10.696377754211426,-154,8158.0,58.113853454589844,1054,9997.0
1740,0.33465030789375305,8.238083839416504,181,8158.0,35.3847770690918,629,9997.0
1750,0.3341774046421051,25.62284278869629,506,8158.0,10.571990013122559,39,9997.0
1760,0.33045074343681335,35.55717086791992,653,8158.0,-18.672273635864258,-525,9997.0
1770,0.33022722601890564,36.37877655029297,577,8158.0,-41.59928894042969,-812,9997.0
1780,0.3294287919998169,27.05433464050293,412,8158.0,-59.37800216674805,-968,9997.0
1790,0.32873257994651794,17.188989639282227,304,8158.0,-78.80139923095703,-1364,9997.0
1800,0.3263246715068817,3.2650561332702637,-87,8158.0,-95.6556625366211,-1471,9997.0
1810,0.32576268911361694,-15.429698944091797,-340,8158.0,-103.53170776367188,-1623,9997.0
1820,0.32634809613227844,-37.220096588134766,-673,8158.0,-90.98860931396484,-1342,9997.0
1830,0.32614853978157043,-43.394649505615234,-674,8158.0,-62.33042526245117,-987,9997.0
1840,0.3260582685470581,-32.68352508544922,-479,8158.0,-23.45125961303711,-189,9997.0
1850,0.3285531997680664,-15.718523979187012,-172,8158.0,24.10715103149414,696,9997.0
1860,0.3291153311729431,-3.0199012756347656,-43,8158.0,66.26240539550781,1262,9997.0
1870,0.3297959566116333,4.1327805519104,43,8158.0,97.94397735595703,1733,9997.0
1880,0.33021309971809387,2.090142250061035,29,8158.0,117.2906723022461,1829,9997.0
1890,0.33175721764564514,0.5041517615318298,-51,8158.0,119.6283187866211,1792,9997.0
1900,0.3319341242313385,-3.0363612174987793,-145,8158.0,104.92681884765625,1699,9997.0
1910,0.33379432559013367,-6.449928283691406,-184,8158.0,76.62723541259766,1297,9997.0
1920,0.3339761197566986,1.0323514938354492,22,8158.0,34.56843185424805,387,9997.0
1930,0.33137959241867065,11.04324722290039,290,8158.0,-19.597637176513672,-647,9997.0
1940,0.3320015072822571,16.859853744506836,338,8158.0,-68.87618255615234,-1343,9997.0
1950,0.33183252811431885,23.782976150512695,445,8158.0,-107.45575714111328,-1935,9997.0
1960,0.33181434869766235,33.92679977416992,477,8158.0,-141.33335876464844,-2320,9997.0
1970,0.3309701681137085,38.15206527709961,634,8158.0,-150.77203369140625,-2346,9997.0
1980,0.3289395570755005,36.502227783203125,514,8158.0,-140.8389434814453,-2073,9997.0
1990,0.3305189907550812,18.477352142333984,170,8158.0,-111.83709716796875,-1631,9997.0
2000,0.33019712567329407,-15.08508014678955,-354,8158.0,-70.50374603271484,-986,9997.0
2010,0.3297646641731262,-41.158668518066406,-777,8158.0,-35.610267639160156,-472,9997.0
2020,0.33234554529190063,-62.792686462402344,-1053,8158.0,12.103466987609863,462,9997.0
2030,0.33484765887260437,-64.45744323730469,-1069,8158.0,62.28807067871094,1414,9997.0
2040,0.3361397385597229,-50.66230010986328,-686,8158.0,103.05101776123047,1841,9997.0
2050,0.3371904790401459,-25.0385799407959,-413,8158.0,127.72462463378906,2266,9997.0
2060,0.3371852934360504,-5.250267028808594,8,8158.0,133.93902587890625,2313,9997.0
2070,0.3388247489929199,22.259422302246094,563,8158.0,126.31288146972656,1981,9997.0
2080,0.3394875228404999,50.14520263671875,905,8158.0,110.66588592529297,1670,9997.0
2090,0.34069347381591797,68.70117950439453,1076,8158.0,78.16500091552734,1191,9997.0
2100,0.34112295508384705,67.42061614990234,980,8158.0,32.680030822753906,267,9997.0
2110,0.33530691266059875,52.033226013183594,764,8158.0,-16.45222282409668,-513,9997.0
2120,0.33645886182785034,26.692615509033203,204,8158.0,-59.72943115234375,-965,9997.0
2130,0.3377223610877991,-3.9922759532928467,-261,8158.0,-86.91859436035156,-1390,9997.0
2140,0.33814337849617004,-34.75175857543945,-673,8158.0,-107.15544128417969,-1828,9997.0
2150,0.33396121859550476,-42.06800079345703,-721,8158.0,-124.22565460205078,-1951,9997.0
2160,0.334238201379776,-36.27229690551758,-573,8158.0,-124.09400939941406,-1979,9997.0
2170,0.3338485062122345,-30.69506072998047,-381,8158.0,-105.0788345336914,-1691,9997.0
2180,0.3349085748195648,-18.31807518005371,-285,8158.0,-67.87999725341797,-851,9997.0
2190,0.3369821310043335,-8.783267974853516,-32,8158.0,-18.177846908569336,37,9997.0
2200,0.33628562092781067,3.895280361175537,127,8158.0,35.023868560791016,877,9997.0
2210,0.33805325627326965,16.970703125,391,8158.0,85.51065063476562,1552,9997.0
2220,0.339261531829834,24.3837833404541,358,8158.0,134.3845672607422,2578,9997.0
2230,0.33985984325408936,30.819116592407227,476,8158.0,165.72869873046875,2822,9997.0
2240,0.3374285101890564,24.43195343017578,359,8158.0,174.61849975585938,2840,9997.0
2250,0.33688366413116455,15.435870170593262,96,8158.0,162.09396362304688,2658,9997.0
2260,0.33453473448753357,-1.9549798965454102,-262,8158.0,133.88946533203125,2066,9997.0
2270,0.33396926522254944,-20.620441436767578,-412,8158.0,88.7520751953125,1189,9997.0
2280,0.3366207778453827,-27.851810455322266,-372,8158.0,33.122276306152344,138,9997.0
2290,0.33025816082954407,-26.574581146240234,-343,8158.0,-21.971609115600586,-787,9997.0
2300,0.33131512999534607,-18.338953018188477,-217,8158.0,-73.22802734375,-1529,9997.0
2310,0.3318898677825928,-4.23887825012207,-13,8158.0,-120.85938262939453,-2299,9997.0
2320,0.33079442381858826,6.483534812927246,232,8158.0,-158.6470489501953,-2926,9997.0
2330,0.3287784457206726,12.232063293457031,252,8158.0,-171.907470703125,-2779,9997.0
2340,0.328460156917572,15.54382038116455,289,8158.0,-153.85731506347656,-2331,9997.0
2350,0.3276200294494629,14.818867683410645,367,8158.0,-133.0652313232422,-2197,9997.0
2360,0.3279511332511902,10.324836730957031,85,8158.0,-108.69908905029297,-1416,9997.0
2370,0.3300408720970154,3.4887351989746094,46,8158.0,-64.15951538085938,-691,9997.0
2380,0.3297337293624878,2.4990978240966797,44,8158.0,-12.01524543762207,60,9997.0
2390,0.33005109429359436,2.562032461166382,14,8158.0,39.308006286621094,831,9997.0
2400,0.3296082615852356,1.5499155521392822,123,8158.0,80.5338134765625,1294,9997.0
2410,0.3291076123714447,-1.6881486177444458,-76,8158.0,112.17584228515625,1875,9997.0
2420,0.33251628279685974,-1.8545596599578857,50,8158.0,126.75115203857422,1871,9997.0
2430,0.3316769301891327,0.6083017587661743,-96,8158.0,110.05020141601562,1678,9997.0
2440,0.3331977128982544,-6.868007659912109,-146,8158.0,74.25691223144531,1125,9997.0
2450,0.3336036205291748,-13.59331226348877,-282,8158.0,37.51736068725586,401,9997.0
2460,0.3303922116756439,-24.76969337463379,-483,8158.0,-5.4597487449646,-285,9997.0
2470,0.33114543557167053,-32.48684310913086,-543,8158.0,-52.746368408203125,-1050,9997.0
2480,0.3319070637226105,-22.01235008239746,-371,8158.0,-95.42872619628906,-1789,9997.0
2490,0.3327328562736511,-4.114209175109863,-38,8158.0,-125.06373596191406,-2145,9997.0
2500,0.3299645781517029,-1.143478512763977,-150,8158.0,-128.8292999267578,-1966,9997.0
2510,0.33011192083358765,-3.431035280227661,-79,8158.0,-117.01588439941406,-1793,9997.0
2520,0.3325851261615753,-5.81598424911499,-88,8158.0,-94.11502838134766,-1453,9997.0
2530,0.3323955535888672,3.851090908050537,76,8158.0,-58.25080108642578,-829,9997.0
2540,0.3340561091899872,17.10080337524414,415,8158.0,-17.202726364135742,-328,9997.0
2550,0.3368927240371704,35.01913833618164,601,8158.0,21.130741119384766,546,9997.0
2560,0.33724552392959595,37.857421875,579,8158.0,63.786224365234375,1238,9997.0
2570,0.3381080627441406,25.3592472076416,328,8158.0,100.7748031616211,1870,9997.0
2580,0.33812111616134644,9.931099891662598,48,8158.0,121.96317291259766,2032,9997.0
2590,0.3389369547367096,-6.724870681762695,-228,8158.0,128.11849975585938,2095,9997.0
2600,0.3396828770637512,-20.01511001586914,-312,8158.0,123.01313018798828,1800,9997.0
2610,0.33952707052230835,-25.42331886291504,-502,8158.0,103.28202819824219,1612,9997.0
2620,0.3391927182674408,-31.085834503173828,-615,8158.0,76.04840087890625,1227,9997.0
2630,0.3393091559410095,-27.788949966430664,-490,8158.0,36.82538986206055,534,9997.0
2640,0.33322662115097046,-19.846803665161133,-273,8158.0,-1.7736756801605225,-168,9997.0
2650,0.33379608392715454,-14.47767162322998,-100,8158.0,-34.311824798583984,-768,9997.0
2660,0.33479630947113037,-7.976544380187988,-25,8158.0,-62.289791107177734,-1313,9997.0
2670,0.33588913083076477,-0.2049901783466339,106,8158.0,-86.66588592529297,-1661,9997.0
2680,0.3317320644855499,9.458340644836426,156,8158.0,-104.648193359375,-1738,9997.0
2690,0.3333006501197815,19.85085105895996,336,8158.0,-105.24588775634766,-1774,9997.0
2700,0.33397507667541504,23.156368255615234,425,8158.0,-85.82784271240234,-1378,9997.0
2710,0.33463504910469055,19.200531005859375,238,8158.0,-57.75019836425781,-635,9997.0
2720,0.33529552817344666,19.697721481323242,380,8158.0,-25.85206413269043,-271,9997.0
2730,0.336415559053421,22.3890438079834,340,8158.0,9.162623405456543,335,9997.0
2740,0.3368065357208252,18.70891761779785,285,8158.0,51.076908111572266,993,9997.0
2750,0.33709609508514404,7.532159805297852,54,8158.0,87.65240478515625,1705,9997.0
2760,0.33665233850479126,-2.13889741897583,-65,8158.0,118.74633026123047,2121,9997.0
2770,0.33735182881355286,-10.021441459655762,-251,8158.0,133.7431182861328,2326,9997.0
2780,0.3362751305103302,-16.356748580932617,-230,8158.0,133.022705078125,2191,9997.0
2790,0.3349541425704956,-19.075763702392578,-293,8158.0,112.96945190429688,1832,9997.0
2800,0.3331948518753052,-22.96148681640625,-426,8158.0,79.00970458984375,1180,9997.0
2810,0.32970061898231506,-13.125103950500488,-167,8158.0,30.56932830810547,249,9997.0
2820,0.3290485143661499,-9.35189437866211,-131,8158.0,-14.096713066101074,-505,9997.0
2830,0.32958847284317017,-5.737286567687988,-62,8158.0,-61.36744689941406,-1196,9997.0
2840,0.33113017678260803,0.6677699089050293,63,8158.0,-102.48037719726562,-1924,9997.0
2850,0.3311217427253723,6.705205917358398,191,8158.0,-138.734619140625,-2440,9997.0
2860,0.3276958167552948,19.02260398864746,433,8158.0,-168.45654296875,-2715,9997.0
2870,0.327809602022171,34.69782257080078,656,8158.0,-172.79551696777344,-2725,9997.0
2880,0.32846176624298096,33.693199157714844,434,8158.0,-144.14227294921875,-1961,9997.0
2890,0.332687646150589,24.414804458618164,289,8158.0,-103.14166259765625,-1467,9997.0
2900,0.3328540325164795,2.420997381210327,-124,8158.0,-54.46498489379883,-604,9997.0
2910,0.3343072235584259,-20.10177230834961,-474,8158.0,5.260859489440918,505,9997.0
2920,0.335570365190506,-34.749324798583984,-524,8158.0,55.619197845458984,1169,9997.0
2930,0.33598560094833374,-28.664857864379883,-390,8158.0,93.94776153564453,1802,9997.0
2940,0.3391849398612976,-14.482964515686035,-126,8158.0,123.3884048461914,2023,9997.0
2950,0.33929651975631714,-1.8426477909088135,1,8158.0,140.31680297851562,2324,9997.0
2960,0.3387257754802704,4.541179180145264,178,8158.0,137.99307250976562,2112,9997.0
2970,0.34122899174690247,11.555225372314453,194,8158.0,113.31938934326172,1779,9997.0
2980,0.34184181690216064,15.663000106811523,179,8158.0,81.92874145507812,1279,9997.0
2990,0.33461853861808777,5.810041904449463,-7,8158.0,42.80348587036133,662,9997.0
3000,0.3348093032836914,-2.288210153579712,-80,8158.0,-1.2875369787216187,-116,9997.0
3010,0.3356824517250061,-11.269033432006836,-152,8158.0,-48.71471405029297,-1018,9997.0
3020,0.337163507938385,-19.810768127441406,-285,8158.0,-89.24650573730469,-1821,9997.0
3030,0.33198389410972595,-23.329402923583984,-390,8158.0,-126.74295043945312,-2302,9997.0
3040,0.3324037492275238,-21.628129959106445,-285,8158.0,-144.40771484375,-2342,9997.0
3050,0.33396753668785095,-15.64923095703125,-209,8158.0,-135.85223388671875,-2183,9997.0
3060,0.33485206961631775,-10.635003089904785,-155,8158.0,-110.64474487304688,-1573,9997.0
3070,0.33548814058303833,0.7386131286621094,89,8158.0,-71.39591979980469,-830,9997.0
3080,0.33577239513397217,19.912551879882812,401,8158.0,-25.9779109954834,-220,9997.0
3090,0.3372911512851715,32.481056213378906,554,8158.0,28.052902221679688,666,9997.0
3100,0.33854538202285767,34.188995361328125,551,8158.0,77.59378051757812,1424,9997.0
3110,0.3396655023097992,26.150856018066406,342,8158.0,114.20267486572266,2123,9997.0
3120,0.34048426151275635,10.823617935180664,111,8158.0,144.05279541015625,2372,9997.0
3130,0.34036386013031006,3.909125328063965,-22,8158.0,150.73275756835938,2487,9997.0
3140,0.34227436780929565,-5.97011137008667,-96,8158.0,141.52407836914062,2087,9997.0
3150,0.34238603711128235,-13.030760765075684,-197,8158.0,112.39704895019531,1477,9997.0
3160,0.3344702422618866,-18.18158531188965,-404,8158.0,73.46624755859375,979,9997.0
3170,0.33572933077812195,-31.022632598876953,-616,8158.0,28.686677932739258,389,9997.0
3180,0.3368971049785614,-34.83810043334961,-603,8158.0,-16.997028350830078,-287,9997.0
3190,0.33786824345588684,-24.534832000732422,-380,8158.0,-49.20416259765625,-813,9997.0
3200,0.33895570039749146,-8.059396743774414,-6,8158.0,-72.22008514404297,-1265,9997.0
3210,0.33248719573020935,9.331162452697754,283,8158.0,-94.55620574951172,-1620,9997.0
3220,0.3338470757007599,16.962718963623047,249,8158.0,-115.03338623046875,-1786,9997.0
3230,0.33464133739471436,19.638553619384766,270,8158.0,-127.39348602294922,-1941,9997.0
3240,0.3354147672653198,14.060452461242676,268,8158.0,-117.54401397705078,-1941,9997.0
3250,0.3329547047615051,22.543397903442383,371,8158.0,-95.18821716308594,-1383,9997.0
3260,0.335776150226593,24.93602180480957,463,8158.0,-58.806968688964844,-768,9997.0
3270,0.33694988489151,24.389400482177734,388,8158.0,-9.175088882446289,120,9997.0
3280,0.33850887417793274,13.73080825805664,130,8158.0,48.05707550048828,958,9997.0
3290,0.339601069688797,-3.02933931350708,-145,8158.0,97.00502014160156,1836,9997.0
3300,0.3399541974067688,-21.302515029907227,-446,8158.0,137.4832305908203,2422,9997.0
3310,0.33974310755729675,-29.061527252197266,-465,8158.0,160.5242462158203,2567,9997.0
3320,0.3387678861618042,-32.861488342285156,-591,8158.0,169.61648559570312,2636,9997.0
3330,0.3367443382740021,-35.0650634765625,-630,8158.0,160.64999389648438,2503,9997.0
3340,0.33276572823524475,-31.947378158569336,-513,8158.0,130.33509826660156,2148,9997.0
3350,0.3312520384788513,-19.209678649902344,-147,8158.0,88.14252471923828,1362,9997.0
3360,0.33060330152511597,3.551361322402954,304,8158.0,29.64949607849121,1,9997.0
3370,0.33174562454223633,20.302297592163086,390,8158.0,-31.580171585083008,-835,9997.0
3380,0.3276767134666443,26.325162887573242,473,8158.0,-88.96131134033203,-1776,9997.0
3390,0.3288108706474304,20.54155731201172,331,8158.0,-144.9647979736328,-2765,9997.0
3400,0.3296138644218445,7.5909647941589355,117,8158.0,-193.51559448242188,-3254,9997.0
3410,0.33007240295410156,0.20064909756183624,57,8158.0,-221.49217224121094,-3864,9997.0
3420,0.33400866389274597,-0.05173666030168533,29,8158.0,-232.13462829589844,-3879,9997.0
3430,0.32874131202697754,3.7209033966064453,100,8158.0,-225.4463653564453,-3710,9997.0
3440,0.3281666338443756,15.614419937133789,288,8158.0,-199.3277130126953,-3138,9997.0
3450,0.32831043004989624,16.154523849487305,305,8158.0,-149.13851928710938,-2230,9997.0
3460,0.33420854806900024,12.11229133605957,112,8158.0,-78.19957733154297,-792,9997.0
3470,0.34187254309654236,6.612995624542236,47,8158.0,-0.6283382177352905,355,9997.0
3480,0.34476280212402344,1.095352053642273,77,8158.0,75.98884582519531,1377,9997.0
3490,0.34827810525894165,-0.14579911530017853,17,8158.0,128.71617126464844,2506,9997.0
3500,0.350702702999115,-0.3008125424385071,-44,8158.0,177.46926879882812,3196,9997.0
3510,0.35204172134399414,0.20727884769439697,-9,8158.0,197.3584747314453,3386,9997.0
3520,0.35391971468925476,-3.9557042121887207,-169,8158.0,208.0799560546875,3476,9997.0
3530,0.3541872203350067,-10.970941543579102,-308,8158.0,196.463623046875,3078,9997.0
3540,0.3542576730251312,-18.79314422607422,-308,8158.0,158.98646545410156,2327,9997.0
3550,0.35611727833747864,-23.714479446411133,-303,8158.0,115.74559783935547,1429,9997.0
3560,0.3436625301837921,-22.70834732055664,-358,8158.0,62.76962661743164,553,9997.0
3570,0.3433102071285248,-19.84230613708496,-381,8158.0,-6.089398384094238,-427,9997.0
3580,0.3444083333015442,-16.96832275390625,-413,8158.0,-75.78231048583984,-1419,9997.0
3590,0.34527960419654846,-14.322370529174805,-266,8158.0,-132.45838928222656,-2236,9997.0
3600,0.33670854568481445,-6.045718193054199,-34,8158.0,-159.7212371826172,-2588,9997.0
3610,0.3366718590259552,6.391859531402588,164,8158.0,-161.85728454589844,-2628,9997.0
3620,0.336027592420578,19.345022201538086,402,8158.0,-147.5137481689453,-2141,9997.0
3630,0.3384181559085846,24.16686248779297,328,8158.0,-114.51532745361328,-1594,9997.0
3640,0.3387496769428253,17.670270919799805,329,8158.0,-69.26397705078125,-812,9997.0
3650,0.3383345603942871,15.003121376037598,154,8158.0,-13.29509162902832,25,9997.0
3660,0.3393416702747345,8.991381645202637,172,8158.0,38.00775146484375,851,9997.0
3670,0.3400396406650543,6.973764896392822,72,8158.0,88.86380767822266,1680,9997.0
3680,0.3407394587993622,5.209939002990723,113,8158.0,131.2589111328125,2114,9997.0
3690,0.33937281370162964,0.9469652771949768,-78,8158.0,153.9398956298828,2496,9997.0
3700,0.33846426010131836,-7.6401567459106445,-70,8158.0,156.0335693359375,2384,9997.0
3710,0.3405742347240448,-10.811419486999512,-100,8158.0,139.15530395507812,2091,9997.0
3720,0.33992454409599304,-12.113457679748535,-176,8158.0,113.1085205078125,1679,9997.0
3730,0.33974942564964294,-3.361438512802124,-59,8158.0,77.48225402832031,1102,9997.0
3740,0.33437323570251465,9.454519271850586,120,8158.0,24.504608154296875,247,9997.0
3750,0.3349873125553131,14.846501350402832,197,8158.0,-41.923458099365234,-768,9997.0
3760,0.336282879114151,8.061498641967773,105,8158.0,-99.21968078613281,-1773,9997.0
3770,0.3374379575252533,-5.518438339233398,-75,8158.0,-130.52268981933594,-2305,9997.0
3780,0.3322170078754425,-10.937875747680664,-143,8158.0,-130.2467803955078,-2191,9997.0
3790,0.3326777219772339,-9.429502487182617,-124,8158.0,-120.77386474609375,-1779,9997.0
3800,0.3321876525878906,-3.3523480892181396,109,8158.0,-79.99757385253906,-1178,9997.0
3810,0.331859290599823,2.504117012023926,-49,8158.0,-37.069698333740234,-236,9997.0
3820,0.3312714099884033,4.771643161773682,92,8158.0,8.488842010498047,245,9997.0
3830,0.3305818736553192,7.6126532554626465,118,8158.0,41.53281021118164,793,9997.0
3840,0.330167680978775,9.251132011413574,193,8158.0,68.17738342285156,1032,9997.0
3850,0.328992635011673,10.70548152923584,179,8158.0,82.33818054199219,1279,9997.0
3860,0.3274400234222412,4.325621604919434,57,8158.0,84.7026138305664,1339,9997.0
3870,0.3269989788532257,-0.2876422703266144,70,8158.0,72.04261779785156,915,9997.0
3880,0.3258798122406006,-4.669438362121582,-7,8158.0,46.939693450927734,484,9997.0
3890,0.3252677917480469,-11.563799858093262,-289,8158.0,12.618671417236328,-35,9997.0
3900,0.3252488672733307,-18.048709869384766,-356,8158.0,-31.31079864501953,-691,9997.0
3910,0.325204998254776,-25.09792137145996,-443,8158.0,-69.36620330810547,-1269,9997.0
3920,0.3252047598361969,-24.940961837768555,-423,8158.0,-86.07022857666016,-1490,9997.0
3930,0.32533764839172363,-13.181251525878906,-215,8158.0,-88.1951904296875,-1435,9997.0
3940,0.3255382180213928,4.915986061096191,129,8158.0,-75.23815155029297,-1144,9997.0
3950,0.32567569613456726,18.108592987060547,454,8158.0,-48.334716796875,-693,9997.0
3960,0.3290517330169678,22.431310653686523,349,8158.0,-11.126472473144531,3,9997.0
3970,0.32933926582336426,24.77821922302246,488,8158.0,27.764589309692383,585,9997.0
3980,0.3295045495033264,21.505369186401367,269,8158.0,52.36175537109375,1090,9997.0
3990,0.3292461633682251,12.659012794494629,195,8158.0,62.139007568359375,1154,9997.0
4000,0.33138975501060486,3.008302927017212,-50,8158.0,58.68581771850586,961,9997.0
4010,0.3311617076396942,-6.068131923675537,-249,8158.0,53.13629913330078,878,9997.0
4020,0.3304542601108551,-16.365070343017578,-303,8158.0,47.118499755859375,690,9997.0
4030,0.3298271894454956,-22.530786514282227,-395,8158.0,29.8101749420166,345,9997.0
4040,0.32801133394241333,-22.593196868896484,-471,8158.0,-3.8446569442749023,-147,9997.0
4050,0.32780390977859497,-16.944368362426758,-330,8158.0,-35.67081069946289,-569,9997.0
4060,0.32761090993881226,-8.322892189025879,-109,8158.0,-53.812923431396484,-896,9997.0
4070,0.3274803161621094,-5.196709156036377,-91,8158.0,-62.71810531616211,-1082,9997.0
4080,0.3282008171081543,-7.426797866821289,-175,8158.0,-68.83312225341797,-1032,9997.0
4090,0.32641592621803284,-7.514066696166992,-143,8158.0,-60.94175720214844,-917,9997.0
4100,0.3266453742980957,-7.7040300369262695,-41,8158.0,-39.26366424560547,-717,9997.0
4110,0.3276040554046631,-5.746232509613037,-96,8158.0,-19.40374755859375,-268,9997.0
4120,0.3280528783798218,-0.24873006343841553,65,8158.0,2.1079413890838623,281,9997.0
4130,0.33089780807495117,9.302475929260254,261,8158.0,35.9403076171875,673,9997.0
4140,0.3316027522087097,21.76250457763672,388,8158.0,56.83122634887695,1147,9997.0
4150,0.33176714181900024,28.754892349243164,362,8158.0,76.6951904296875,1293,9997.0
4160,0.33199867606163025,17.62212562561035,266,8158.0,87.665283203125,1228,9997.0
4170,0.331716388463974,6.617810249328613,36,8158.0,84.02517700195312,1228,9997.0
4180,0.3295518159866333,-4.0701189041137695,-128,8158.0,71.80825805664062,1043,9997.0
4190,0.3285644054412842,-13.736087799072266,-178,8158.0,52.7545166015625,637,9997.0
4200,0.329834520816803,-22.083728790283203,-257,8158.0,27.133617401123047,97,9997.0
4210,0.3295171558856964,-25.280227661132812,-335,8158.0,-0.4271374046802521,-364,9997.0
4220,0.3251723647117615,-15.724921226501465,-222,8158.0,-26.403732299804688,-625,9997.0
4230,0.3250565528869629,5.257832050323486,185,8158.0,-44.0828971862793,-732,9997.0
4240,0.32503601908683777,28.50316619873047,449,8158.0,-56.79425048828125,-912,9997.0
4250,0.32519036531448364,34.13022232055664,444,8158.0,-69.73381042480469,-1201,9997.0
4260,0.3256654441356659,23.171594619750977,407,8158.0,-81.65221405029297,-1439,9997.0
4270,0.32638928294181824,9.924808502197266,37,8158.0,-89.36007690429688,-1407,9997.0
4280,0.3273966908454895,-9.946255683898926,-201,8158.0,-73.45333099365234,-1209,9997.0
4290,0.32781335711479187,-22.044517517089844,-413,8158.0,-45.184295654296875,-552,9997.0
4300,0.3280603587627411,-27.608060836791992,-466,8158.0,-5.823982238769531,265,9997.0
4310,0.32911232113838196,-22.638778686523438,-271,8158.0,46.745975494384766,860,9997.0
4320,0.32976481318473816,3.30682373046875,141,8158.0,91.29204559326172,1677,9997.0
4330,0.3295474946498871,25.68523406982422,495,8158.0,120.81022644042969,1934,9997.0
4340,0.3288392722606659,38.78406524658203,754,8158.0,123.23818969726562,1779,9997.0
4350,0.32800328731536865,37.832366943359375,567,8158.0,97.17477416992188,1426,9997.0
4360,0.32750895619392395,21.19268226623535,156,8158.0,69.77941131591797,900,9997.0
4370,0.3280825614929199,-7.736340522766113,-253,8158.0,26.99308967590332,274,9997.0
4380,0.3278575539588928,-29.197711944580078,-512,8158.0,-16.178497314453125,-473,9997.0
4390,0.32758158445358276,-34.72916030883789,-609,8158.0,-55.8458251953125,-1004,9997.0
4400,0.3263648450374603,-15.637856483459473,-159,8158.0,-81.01864624023438,-1318,9997.0
4410,0.32619473338127136,16.295392990112305,337,8158.0,-93.73963165283203,-1416,9997.0
4420,0.32610952854156494,33.042598724365234,581,8158.0,-109.02040100097656,-1811,9997.0
4430,0.32660385966300964,26.00840187072754,372,8158.0,-112.46368408203125,-1780,9997.0
4440,0.325717568397522,2.102396249771118,-149,8158.0,-102.5344467163086,-1514,9997.0
4450,0.3276396691799164,-24.716299057006836,-455,8158.0,-80.50308990478516,-1180,9997.0
4460,0.32806214690208435,-36.88252258300781,-618,8158.0,-44.06550216674805,-586,9997.0
4470,0.3281879127025604,-31.118057250976562,-438,8158.0,-4.60699987411499,-5,9997.0
4480,0.33161357045173645,-23.382436752319336,-310,8158.0,42.56256866455078,1074,9997.0
4490,0.33211058378219604,2.8870468139648438,221,8158.0,90.06880950927734,1586,9997.0
4500,0.33244848251342773,27.541278839111328,454,8158.0,104.8715591430664,1844,9997.0
4510,0.3323107063770294,39.53673553466797,595,8158.0,108.13948822021484,1876,9997.0
4520,0.33121609687805176,36.135658264160156,546,8158.0,108.58592987060547,1802,9997.0
4530,0.3318171203136444,28.05144500732422,316,8158.0,90.40082550048828,1467,9997.0
4540,0.3304543197154999,4.2182183265686035,-156,8158.0,56.254554748535156,891,9997.0
4550,0.3308579623699188,-18.151552200317383,-360,8158.0,19.379060745239258,286,9997.0
4560,0.33033719658851624,-29.407808303833008,-461,8158.0,-19.43782615661621,-522,9997.0
4570,0.32684195041656494,-28.573348999023438,-374,8158.0,-56.90411376953125,-1226,9997.0
4580,0.3263859450817108,-14.70018196105957,-180,8158.0,-90.9801254272461,-1636,9997.0
4590,0.32575833797454834,-1.9897239208221436,-62,8158.0,-115.83960723876953,-1865,9997.0
4600,0.3254688084125519,1.6681129932403564,127,8158.0,-117.08328247070312,-2059,9997.0
4610,0.3266638517379761,3.184227228164673,-33,8158.0,-107.82798767089844,-1637,9997.0
4620,0.32664743065834045,-9.280482292175293,-120,8158.0,-71.71521759033203,-1053,9997.0
4630,0.3269720673561096,-16.228740692138672,-317,8158.0,-39.938419342041016,-285,9997.0
4640,0.32892554998397827,-16.537490844726562,-271,8158.0,7.450347900390625,370,9997.0
4650,0.32994434237480164,-14.614974975585938,-112,8158.0,45.21105194091797,800,9997.0
4660,0.3318760395050049,0.7928431630134583,26,8158.0,74.60050964355469,1294,9997.0
4670,0.33236032724380493,8.595619201660156,157,8158.0,89.32976531982422,1434,9997.0
4680,0.33238303661346436,16.977102279663086,394,8158.0,102.42742156982422,1582,9997.0
4690,0.33179232478141785,20.67416000366211,287,8158.0,104.9464111328125,1562,9997.0
4700,0.333421528339386,17.267724990844727,322,8158.0,84.57369232177734,1208,9997.0
4710,0.33292558789253235,13.136359214782715,234,8158.0,49.73796463012695,625,9997.0
4720,0.3326621353626251,12.971114158630371,293,8158.0,11.750991821289062,-58,9997.0
4730,0.33239251375198364,15.485466957092285,209,8158.0,-22.182363510131836,-628,9997.0
4740,0.3323475420475006,19.32357406616211,209,8158.0,-51.037437438964844,-856,9997.0
4750,0.32948341965675354,14.451536178588867,148,8158.0,-65.06073760986328,-1094,9997.0
4760,0.32861390709877014,-0.00649724155664444,-88,8158.0,-74.99656677246094,-1286,9997.0
4770,0.32753056287765503,-10.820310592651367,-281,8158.0,-82.2594223022461,-1402,9997.0
4780,0.32821378111839294,-16.65706443786621,-233,8158.0,-77.51350402832031,-1293,9997.0
4790,0.32695502042770386,-19.134355545043945,-332,8158.0,-59.42482376098633,-917,9997.0
4800,0.32651594281196594,-18.689167022705078,-315,8158.0,-36.65824508666992,-350,9997.0
4810,0.3267226219177246,-12.089690208435059,-176,8158.0,-7.26455545425415,78,9997.0
4820,0.32794347405433655,-9.6379976272583,-251,8158.0,33.03826904296875,713,9997.0
4830,0.3301064968109131,-10.122682571411133,-160,8158.0,63.15327453613281,1064,9997.0
4840,0.330721914768219,-16.061420440673828,-290,8158.0,83.89649200439453,1449,9997.0
4850,0.331163227558136,-18.54100227355957,-297,8158.0,95.80097961425781,1770,9997.0
4860,0.332672655582428,-3.2091598510742188,49,8158.0,98.63204956054688,1685,9997.0
4870,0.3328457772731781,14.166102409362793,246,8158.0,82.427978515625,1194,9997.0
4880,0.3312038481235504,23.406925201416016,420,8158.0,49.201168060302734,423,9997.0
4890,0.3317229151725769,30.47831916809082,624,8158.0,14.904580116271973,-173,9997.0
4900,0.33213233947753906,37.52542495727539,695,8158.0,-20.88336753845215,-615,9997.0
4910,0.33207613229751587,38.392967224121094,604,8158.0,-48.10069274902344,-893,9997.0
4920,0.3295985162258148,38.92426681518555,604,8158.0,-58.76137924194336,-887,9997.0
4930,0.3293516933917999,39.149600982666016,578,8158.0,-58.908287048339844,-1177,9997.0
4940,0.3293679356575012,23.364145278930664,218,8158.0,-58.12611770629883,-1074,9997.0
4950,0.3290915787220001,-7.702428340911865,-182,8158.0,-53.880374908447266,-838,9997.0
4960,0.32858526706695557,-30.863237380981445,-585,8158.0,-49.07932662963867,-772,9997.0
4970,0.32847049832344055,-53.072391510009766,-1048,8158.0,-50.02747344970703,-732,9997.0
4980,0.32809382677078247,-73.02025604248047,-1214,8158.0,-51.32492446899414,-908,9997.0
4990,0.3275054693222046,-76.8651351928711,-1238,8158.0,-40.49959182739258,-645,9997.0
5000,0.32685065269470215,-64.25131225585938,-995,8158.0,-17.254606246948242,-134,9997.0
5010,0.3292123079299927,-45.01985549926758,-583,8158.0,18.71978187561035,467,9997.0
5020,0.32919108867645264,-11.16799259185791,18,8158.0,50.157752990722656,966,9997.0
5030,0.32980120182037354,31.047266006469727,629,8158.0,67.18767547607422,1228,9997.0
5040,0.3308432698249817,65.7281494140625,1319,8158.0,69.00094604492188,1100,9997.0
5050,0.33080774545669556,83.64070892333984,1395,8158.0,63.9633674621582,900,9997.0
5060,0.33097392320632935,70.1027603149414,1061,8158.0,58.63414764404297,964,9997.0
5070,0.3308413624763489,40.56937026977539,530,8158.0,40.16842269897461,612,9997.0
5080,0.33098462224006653,-0.7016071677207947,-137,8158.0,13.009145736694336,36,9997.0
5090,0.33095431327819824,-32.38207244873047,-609,8158.0,-18.42984390258789,-476,9997.0
5100,0.3276563286781311,-41.43966293334961,-714,8158.0,-45.26022720336914,-659,9997.0
5110,0.3271403908729553,-31.90500831604004,-380,8158.0,-58.490257263183594,-999,9997.0
5120,0.3265514671802521,-8.637444496154785,-2,8158.0,-72.44230651855469,-1078,9997.0
5130,0.325885534286499,23.615434646606445,385,8158.0,-69.18534851074219,-875,9997.0
5140,0.32509928941726685,40.368736267089844,696,8158.0,-58.28371047973633,-771,9997.0
5150,0.3258295953273773,30.765413284301758,382,8158.0,-34.113338470458984,-483,9997.0
5160,0.32566097378730774,4.122429847717285,-38,8158.0,-8.57236385345459,-163,9997.0
5170,0.32599887251853943,-29.758989334106445,-668,8158.0,14.365693092346191,431,9997.0
5180,0.32671183347702026,-58.91038131713867,-1016,8158.0,38.585269927978516,807,9997.0
5190,0.3266737759113312,-76.21316528320312,-1255,8158.0,73.4579086303711,1309,9997.0
5200,0.32695722579956055,-74.32303619384766,-1217,8158.0,92.78257751464844,1541,9997.0
5210,0.32747501134872437,-50.207618713378906,-663,8158.0,93.10355377197266,1483,9997.0
5220,0.32770591974258423,-12.16323184967041,68,8158.0,77.6478271484375,1083,9997.0
5230,0.3291657865047455,37.84168243408203,899,8158.0,47.095420837402344,562,9997.0
5240,0.3299235701560974,73.34640502929688,1330,8158.0,13.96878719329834,-97,9997.0
5250,0.33097562193870544,82.06764221191406,1275,8158.0,-21.045793533325195,-493,9997.0
5260,0.3321620225906372,68.4269027709961,934,8158.0,-56.66719055175781,-944,9997.0
5270,0.3327653706073761,45.1624870300293,603,8158.0,-67.10747528076172,-1052,9997.0
5280,0.33366864919662476,34.10662078857422,439,8158.0,-65.36998748779297,-1113,9997.0
5290,0.3346005082130432,16.80573844909668,259,8158.0,-64.13861083984375,-1162,9997.0
5300,0.3355908691883087,-2.9408931732177734,-223,8158.0,-50.03474426269531,-727,9997.0
5310,0.33749884366989136,-33.965335845947266,-659,8158.0,-27.923952102661133,-313,9997.0
5320,0.3378679156303406,-50.146602630615234,-882,8158.0,-4.037499904632568,132,9997.0
5330,0.3389596939086914,-50.31059265136719,-841,8158.0,30.42588996887207,620,9997.0
5340,0.3399397134780884,-39.02358627319336,-479,8158.0,63.341060638427734,961,9997.0
5350,0.34092777967453003,-17.65711212158203,-228,8158.0,83.79866027832031,1350,9997.0
5360,0.3396323621273041,2.176642417907715,146,8158.0,95.32422637939453,1533,9997.0
5370,0.33969661593437195,22.373918533325195,408,8158.0,93.48187255859375,1402,9997.0
5380,0.3396430015563965,19.55912971496582,306,8158.0,83.14791107177734,1035,9997.0
5390,0.3407139182090759,10.037927627563477,77,8158.0,47.1531982421875,443,9997.0
5400,0.3407455086708069,-1.687287449836731,-38,8158.0,-2.6238386631011963,-263,9997.0
5410,0.3398492932319641,-0.08713241666555405,-3,8158.0,-48.501155853271484,-974,9997.0
5420,0.3403172791004181,2.751757860183716,35,8158.0,-86.92533874511719,-1541,9997.0
5430,0.3394155502319336,10.495770454406738,187,8158.0,-118.71876525878906,-2029,9997.0
5440,0.3390733003616333,22.8392333984375,485,8158.0,-143.97682189941406,-2317,9997.0
5450,0.33801427483558655,38.51581573486328,668,8158.0,-148.37452697753906,-2327,9997.0
5460,0.33638453483581543,37.848228454589844,437,8158.0,-129.12429809570312,-1935,9997.0
5470,0.334545761346817,6.8381266593933105,-72,8158.0,-95.0490951538086,-1331,9997.0
5480,0.3367003798484802,-30.70332145690918,-647,8158.0,-40.11895751953125,-225,9997.0
5490,0.3386250436306,-41.952728271484375,-691,8158.0,8.006673812866211,471,9997.0
5500,0.3384369909763336,-39.44130325317383,-634,8158.0,56.39630126953125,1057,9997.0
5510,0.338525652885437,-38.006107330322266,-571,8158.0,97.29158020019531,1809,9997.0
5520,0.33835309743881226,-25.526172637939453,-232,8158.0,125.59307098388672,2060,9997.0
5530,0.33822566270828247,-9.263400077819824,-25,8158.0,139.472412109375,2284,9997.0
5540,0.33582255244255066,3.7811760902404785,98,8158.0,131.09426879882812,2033,9997.0
5550,0.335353821516037,16.336585998535156,202,8158.0,98.64811706542969,1398,9997.0
5560,0.3372780978679657,10.49976634979248,77,8158.0,56.82398986816406,693,9997.0
5570,0.3377625644207001,-3.5403859615325928,-20,8158.0,15.361721992492676,58,9997.0
5580,0.33204925060272217,-15.870735168457031,-185,8158.0,-20.92507553100586,-732,9997.0
5590,0.333318829536438,-11.423291206359863,-121,8158.0,-65.89035034179688,-1372,9997.0
5600,0.3340018391609192,3.1882240772247314,62,8158.0,-101.85665893554688,-1736,9997.0
5610,0.33507582545280457,21.567615509033203,380,8158.0,-133.32142639160156,-2276,9997.0
5620,0.3355361521244049,43.80175018310547,828,8158.0,-155.0635223388672,-2579,9997.0
5630,0.32948777079582214,63.27766036987305,949,8158.0,-152.12753295898438,-2202,9997.0
5640,0.33160239458084106,65.18474578857422,981,8158.0,-114.84434509277344,-1754,9997.0
5650,0.3302208185195923,36.39113998413086,449,8158.0,-76.31517791748047,-1078,9997.0
5660,0.3300234377384186,5.421067714691162,-28,8158.0,-25.83527374267578,-212,9997.0
5670,0.3335350453853607,-16.58661651611328,-321,8158.0,25.323986053466797,657,9997.0
5680,0.3329414427280426,-28.50034523010254,-484,8158.0,75.1915054321289,1514,9997.0
5690,0.33331021666526794,-32.337135314941406,-541,8158.0,115.90897369384766,2003,9997.0
5700,0.33274519443511963,-30.510183334350586,-444,8158.0,142.51107788085938,2229,9997.0
5710,0.32998988032341003,-29.538951873779297,-517,8158.0,151.5203399658203,2432,9997.0
5720,0.3285690248012543,-30.872957229614258,-539,8158.0,144.969482421875,2256,9997.0
5730,0.32608574628829956,-30.90903663635254,-624,8158.0,119.42882537841797,1870,9997.0
5740,0.3238506317138672,-32.406097412109375,-480,8158.0,72.75785827636719,940,9997.0
5750,0.3215094804763794,-20.613683700561523,-232,8158.0,20.035938262939453,79,9997.0
5760,0.3129817545413971,-3.772124767303467,-6,8158.0,-27.756267547607422,-671,9997.0
5770,0.3108895421028137,7.2272186279296875,123,8158.0,-63.83438491821289,-1167,9997.0
5780,0.3084745705127716,11.350114822387695,218,8158.0,-89.96588134765625,-1575,9997.0
5790,0.3062668442726135,14.24946117401123,150,8158.0,-115.13748168945312,-1895,9997.0
5800,0.30121365189552307,16.171581268310547,337,8158.0,-136.0745391845703,-2266,9997.0
5810,0.29889196157455444,13.145979881286621,245,8158.0,-124.1044692993164,-1949,9997.0
5820,0.296689510345459,-0.08570055663585663,-4,8158.0,-84.57942199707031,-1238,9997.0
5830,0.29583150148391724,-8.600244522094727,-188,8158.0,-42.49185562133789,-536,9997.0
5840,0.29613304138183594,-11.643328666687012,-234,8158.0,11.711840629577637,496,9997.0
5850,0.2954220771789551,-10.947029113769531,-160,8158.0,68.65370178222656,1433,9997.0
5860,0.29533714056015015,-2.602041482925415,75,8158.0,116.87403869628906,2075,9997.0
5870,0.29435786604881287,20.655719757080078,523,8158.0,143.65167236328125,2259,9997.0
5880,0.2929588258266449,27.788095474243164,479,8158.0,154.8665008544922,2539,9997.0
5890,0.28911125659942627,18.975482940673828,160,8158.0,152.97950744628906,2567,9997.0
5900,0.28710249066352844,-1.2380170822143555,-91,8158.0,130.612060546875,1967,9997.0
5910,0.28546851873397827,-14.514850616455078,-262,8158.0,87.07051086425781,1125,9997.0
5920,0.2840961515903473,-22.3553409576416,-440,8158.0,26.75887680053711,167,9997.0
5930,0.2826337516307831,-19.79288101196289,-277,8158.0,-33.006370544433594,-787,9997.0
5940,0.2821037173271179,-22.194278717041016,-423,8158.0,-76.37307739257812,-1312,9997.0
5950,0.2815742790699005,-21.980937957763672,-255,8158.0,-102.2694091796875,-1898,9997.0
5960,0.28062599897384644,-15.663957595825195,-299,8158.0,-112.74601745605469,-1746,9997.0
5970,0.2806006669998169,-9.74272346496582,-170,8158.0,-108.86729431152344,-1702,9997.0
5980,0.27482280135154724,-4.766890525817871,-5,8158.0,-99.58372497558594,-1671,9997.0
5990,0.27368104457855225,-2.9756877422332764,-42,8158.0,-85.03845977783203,-1315,9997.0
6000,0.27379339933395386,-1.4721314907073975,-84,8158.0,-60.426971435546875,-860,9997.0
6010,0.27534765005111694,-2.18652606010437,-113,8158.0,-22.789562225341797,-122,9997.0
6020,0.27276721596717834,-5.024682521820068,-158,8158.0,26.023574829101562,756,9997.0
6030,0.2740858197212219,-15.27234935760498,-352,8158.0,76.3465347290039,1483,9997.0
6040,0.2751387059688568,-13.24285888671875,-204,8158.0,108.25506591796875,1848,9997.0
6050,0.27491745352745056,-8.369047164916992,62,8158.0,133.35769653320312,2139,9997.0
6060,0.2761898934841156,4.746857166290283,159,8158.0,147.52899169921875,2416,9997.0
6070,0.274357408285141,11.195413589477539,69,8158.0,155.1215057373047,2693,9997.0
6080,0.27476200461387634,9.970970153808594,198,8158.0,144.1744384765625,2132,9997.0
6090,0.27995169162750244,10.103774070739746,83,8158.0,103.81517791748047,1566,9997.0
6100,0.28163161873817444,3.138763904571533,10,8158.0,56.97159194946289,549,9997.0
6110,0.28176236152648926,-5.107761383056641,-110,8158.0,5.125178337097168,-236,9997.0
6120,0.2847142219543457,-9.528406143188477,-168,8158.0,-48.491947174072266,-1076,9997.0
6130,0.28724732995033264,-10.125953674316406,-122,8158.0,-90.9370346069336,-1764,9997.0
6140,0.29023638367652893,-3.3190388679504395,-19,8158.0,-126.08464813232422,-2177,9997.0
6150,0.2887003421783447,11.06787395477295,230,8158.0,-151.20059204101562,-2476,9997.0
6160,0.29074007272720337,22.038976669311523,418,8158.0,-162.90296936035156,-2620,9997.0
6170,0.29371026158332825,24.38536834716797,426,8158.0,-156.1783447265625,-2493,9997.0
6180,0.2951573431491852,17.79557228088379,280,8158.0,-125.8282470703125,-1767,9997.0
6190,0.2968233525753021,11.067596435546875,141,8158.0,-74.2624740600586,-800,9997.0
6200,0.2936479449272156,13.436318397521973,252,8158.0,-21.36798858642578,124,9997.0
6210,0.29526573419570923,15.319684982299805,255,8158.0,31.849843978881836,933,9997.0
6220,0.2973644435405731,14.168678283691406,169,8158.0,78.28947448730469,1379,9997.0
6230,0.29873526096343994,6.885417938232422,27,8158.0,114.78519439697266,2046,9997.0
6240,0.2940206527709961,-6.484035491943359,-117,8158.0,137.07073974609375,2230,9997.0
6250,0.2944881021976471,-20.03951644897461,-319,8158.0,136.36752319335938,2033,9997.0
6260,0.2940809428691864,-27.799869537353516,-462,8158.0,113.04386901855469,1741,9997.0
6270,0.29304441809654236,-36.3907470703125,-637,8158.0,84.87008666992188,1262,9997.0
6280,0.291958212852478,-40.476985931396484,-701,8158.0,46.11811447143555,590,9997.0
6290,0.2881973683834076,-46.12467575073242,-778,8158.0,-0.6495261192321777,-264,9997.0
6300,0.28672266006469727,-45.21597671508789,-694,8158.0,-48.01880645751953,-986,9997.0
6310,0.2853403389453888,-30.820659637451172,-432,8158.0,-81.68045806884766,-1343,9997.0
6320,0.2830909490585327,-9.552886009216309,10,8158.0,-101.28865814208984,-1879,9997.0
6330,0.2766840159893036,14.070096015930176,261,8158.0,-116.69639587402344,-1980,9997.0
6340,0.2756805121898651,42.641754150390625,837,8158.0,-116.97452545166016,-1828,9997.0
6350,0.27333763241767883,73.78667449951172,1227,8158.0,-91.5350341796875,-1194,9997.0
6360,0.27314135432243347,77.89501190185547,1214,8158.0,-52.60353469848633,-537,9997.0
6370,0.26816698908805847,72.02911376953125,1138,8158.0,-2.4504096508026123,361,9997.0
6380,0.268471360206604,50.490116119384766,719,8158.0,59.19108200073242,1324,9997.0
6390,0.2695288062095642,17.96894645690918,81,8158.0,108.0825424194336,1950,9997.0
6400,0.2698551416397095,-19.837661743164062,-579,8158.0,133.3564910888672,2327,9997.0
6410,0.2698902189731598,-51.67236328125,-954,8158.0,144.30459594726562,2409,9997.0
6420,0.2638232707977295,-71.39141845703125,-1088,8158.0,131.91514587402344,1923,9997.0
6430,0.2634870111942291,-69.32463836669922,-1213,8158.0,99.9781265258789,1609,9997.0
6440,0.2628795802593231,-56.67676544189453,-735,8158.0,54.60520553588867,559,9997.0
6450,0.26362717151641846,-34.86906814575195,-511,8158.0,2.541602373123169,-118,9997.0
6460,0.2582658529281616,-9.108241081237793,-103,8158.0,-48.24618148803711,-1001,9997.0
6470,0.25909262895584106,14.065489768981934,401,8158.0,-92.61385345458984,-1785,9997.0
6480,0.2596827447414398,32.06032180786133,481,8158.0,-119.72727966308594,-1926,9997.0
6490,0.2596835792064667,44.902252197265625,899,8158.0,-121.59001922607422,-2118,9997.0
6500,0.2611618936061859,54.128631591796875,842,8158.0,-113.6860580444336,-1819,9997.0
6510,0.25547587871551514,55.50172424316406,888,8158.0,-95.30682373046875,-1376,9997.0
6520,0.25596883893013,49.61183547973633,787,8158.0,-71.35297393798828,-1111,9997.0
6530,0.25641193985939026,25.629404067993164,357,8158.0,-38.54106903076172,-548,9997.0
6540,0.25793999433517456,1.8872095346450806,-75,8158.0,1.6567693948745728,187,9997.0
6550,0.25272810459136963,-19.89936065673828,-457,8158.0,41.103885650634766,765,9997.0
6560,0.2530626058578491,-28.487274169921875,-518,8158.0,72.52298736572266,1418,9997.0
6570,0.25347527861595154,-21.767850875854492,-312,8158.0,101.48158264160156,1830,9997.0
6580,0.2540166974067688,-3.137547016143799,74,8158.0,115.1120834350586,1872,9997.0
6590,0.2488040328025818,12.606621742248535,216,8158.0,108.7011489868164,1786,9997.0
6600,0.2483876794576645,22.44190216064453,481,8158.0,88.38609313964844,1271,9997.0
6610,0.2477492243051529,29.71794891357422,437,8158.0,52.96808624267578,700,9997.0
6620,0.24994543194770813,22.293121337890625,276,8158.0,8.941306114196777,-179,9997.0
6630,0.24955834448337555,1.7338787317276,-107,8158.0,-36.95964813232422,-732,9997.0
6640,0.24560606479644775,-14.001832962036133,-260,8158.0,-72.43984985351562,-1266,9997.0
6650,0.24479512870311737,-25.1712646484375,-542,8158.0,-89.72209930419922,-1394,9997.0
6660,0.24440288543701172,-35.81060028076172,-550,8158.0,-88.41866302490234,-1519,9997.0
6670,0.24277746677398682,-34.734893798828125,-557,8158.0,-76.24674224853516,-1094,9997.0
6680,0.2395542562007904,-25.106952667236328,-438,8158.0,-53.1252326965332,-666,9997.0
6690,0.24032165110111237,-10.750819206237793,7,8158.0,-26.90739631652832,-384,9997.0
6700,0.2402818650007248,4.49510383605957,135,8158.0,0.7024014592170715,126,9997.0
6710,0.24029968678951263,16.800230026245117,254,8158.0,28.88258934020996,691,9997.0
6720,0.24097181856632233,17.676494598388672,271,8158.0,57.852378845214844,956,9997.0
6730,0.23843060433864594,9.11760139465332,103,8158.0,78.61172485351562,1349,9997.0
6740,0.2381548285484314,-1.6790409088134766,-191,8158.0,93.20087432861328,1655,9997.0
6750,0.2389615774154663,-14.375054359436035,-213,8158.0,101.06241607666016,1502,9997.0
6760,0.2392311841249466,-21.472312927246094,-459,8158.0,85.74860382080078,1353,9997.0
6770,0.23654775321483612,-29.584232330322266,-453,8158.0,62.28173065185547,799,9997.0
6780,0.2368352711200714,-30.136188507080078,-442,8158.0,34.9097900390625,211,9997.0
6790,0.23753665387630463,-27.228599548339844,-475,8158.0,-4.135365009307861,-330,9997.0
6800,0.23750489950180054,-24.20276641845703,-340,8158.0,-42.89252853393555,-841,9997.0
6810,0.23507872223854065,-20.709667205810547,-328,8158.0,-66.58612823486328,-1198,9997.0
6820,0.23427514731884003,-13.989850997924805,-195,8158.0,-72.72821044921875,-1025,9997.0
6830,0.23365604877471924,-1.6533541679382324,68,8158.0,-61.65715026855469,-882,9997.0
6840,0.23402276635169983,12.929312705993652,258,8158.0,-37.32606506347656,-344,9997.0
6850,0.23512639105319977,28.854415893554688,491,8158.0,-9.053717613220215,0,9997.0
6860,0.23424096405506134,41.355377197265625,778,8158.0,21.48031234741211,503,9997.0
6870,0.23416152596473694,47.66325378417969,704,8158.0,46.28861999511719,900,9997.0
6880,0.23517698049545288,41.02495574951172,672,8158.0,62.698482513427734,1028,9997.0
6890,0.23609592020511627,29.21870994567871,408,8158.0,69.44832611083984,1128,9997.0
6900,0.23647677898406982,15.95098876953125,220,8158.0,68.96043395996094,1116,9997.0
6910,0.23738974332809448,-2.0459535121917725,-46,8158.0,57.92556381225586,877,9997.0
6920,0.23835819959640503,-21.74472427368164,-455,8158.0,41.34698486328125,693,9997.0
6930,0.2392137050628662,-33.3427848815918,-592,8158.0,20.16200828552246,188,9997.0
6940,0.23914296925067902,-45.562984466552734,-799,8158.0,-3.389209270477295,-116,9997.0
6950,0.2397794872522354,-51.865936279296875,-819,8158.0,-10.228992462158203,-149,9997.0
6960,0.24051855504512787,-41.83732986450195,-571,8158.0,-17.71380043029785,-411,9997.0
6970,0.24081997573375702,-20.308429718017578,-279,8158.0,-24.414932250976562,-293,9997.0
6980,0.2410477250814438,-2.102386951446533,111,8158.0,-16.11717987060547,-269,9997.0
6990,0.24383887648582458,16.291549682617188,290,8158.0,-0.8920891880989075,134,9997.0
7000,0.24417980015277863,25.835752487182617,478,8158.0,16.920883178710938,360,9997.0
7010,0.2450043112039566,30.638492584228516,520,8158.0,30.780427932739258,497,9997.0
7020,0.2458713799715042,29.748035430908203,432,8158.0,33.536094665527344,592,9997.0
7030,0.24753610789775848,25.447572708129883,449,8158.0,33.26675796508789,488,9997.0
7040,0.24870429933071136,24.706926345825195,293,8158.0,31.434267044067383,571,9997.0
7050,0.24954330921173096,17.430959701538086,301,8158.0,22.675779342651367,268,9997.0
7060,0.25041356682777405,8.54220962524414,106,8158.0,7.866182804107666,104,9997.0
7070,0.2553638219833374,3.53715181350708,-10,8158.0,-2.781026601791382,-43,9997.0
7080,0.25667887926101685,0.21071995794773102,61,8158.0,-8.524985313415527,-261,9997.0
7090,0.2583194971084595,0.806705892086029,19,8158.0,-10.193730354309082,-165,9997.0
7100,0.259489506483078,-0.5963649153709412,-117,8158.0,-6.223036289215088,73,9997.0
7110,0.26089268922805786,-12.224872589111328,-164,8158.0,14.401403427124023,240,9997.0
7120,0.26354438066482544,-22.82559585571289,-463,8158.0,23.931089401245117,339,9997.0
7130,0.2646627426147461,-38.366416931152344,-774,8158.0,21.047746658325195,459,9997.0
7140,0.2657986581325531,-44.47124481201172,-651,8158.0,28.720308303833008,490,9997.0
7150,0.2666877210140228,-41.24283218383789,-695,8158.0,31.801834106445312,478,9997.0
7160,0.2674980163574219,-32.277469635009766,-473,8158.0,26.522459030151367,359,9997.0
7170,0.2681104838848114,-16.82656478881836,-163,8158.0,14.708394050598145,60,9997.0
7180,0.26847225427627563,1.309566855430603,15,8158.0,-3.613661050796509,-95,9997.0
7190,0.2687554955482483,14.340826988220215,323,8158.0,-18.980234146118164,-383,9997.0
7200,0.2681080400943756,18.974262237548828,248,8158.0,-31.228347778320312,-501,9997.0
7210,0.2679426372051239,25.355422973632812,516,8158.0,-40.061832427978516,-670,9997.0
7220,0.26773586869239807,30.72412872314453,487,8158.0,-37.266151428222656,-564,9997.0
7230,0.26736557483673096,31.772594451904297,473,8158.0,-34.81414794921875,-473,9997.0
7240,0.2669294476509094,25.84273910522461,443,8158.0,-31.862178802490234,-593,9997.0
7250,0.26663267612457275,15.807778358459473,234,8158.0,-35.54905700683594,-613,9997.0
7260,0.2659366726875305,3.5521399974823,-24,8158.0,-35.55276870727539,-419,9997.0
7270,0.26549991965293884,-12.6681547164917,-282,8158.0,-23.159650802612305,-248,9997.0
7280,0.26483696699142456,-29.57296371459961,-436,8158.0,-10.428478240966797,-215,9997.0
7290,0.2653822600841522,-33.44820022583008,-494,8158.0,-3.714968681335449,-68,9997.0
7300,0.26538267731666565,-26.725982666015625,-466,8158.0,3.100928783416748,163,9997.0
7310,0.2648562490940094,-23.91166114807129,-345,8158.0,12.54079532623291,201,9997.0
7320,0.26454856991767883,-22.736446380615234,-348,8158.0,17.430456161499023,260,9997.0
7330,0.2641158401966095,-14.148935317993164,-206,8158.0,21.491344451904297,414,9997.0
7340,0.26330533623695374,-6.663790702819824,-83,8158.0,19.052927017211914,317,9997.0
7350,0.2625960409641266,0.586991012096405,32,8158.0,18.903554916381836,317,9997.0
7360,0.2618529498577118,10.457029342651367,220,8158.0,9.215200424194336,35,9997.0
7370,0.26095646619796753,15.135591506958008,184,8158.0,-9.637955665588379,-214,9997.0
7380,0.2591736912727356,10.997660636901855,210,8158.0,-30.40492820739746,-679,9997.0
7390,0.2582003176212311,9.35645866394043,82,8158.0,-42.743614196777344,-657,9997.0
7400,0.2575826942920685,4.004620552062988,115,8158.0,-40.731109619140625,-710,9997.0
7410,0.2567269206047058,6.353411674499512,68,8158.0,-37.777530670166016,-522,9997.0
7420,0.25587207078933716,9.280980110168457,174,8158.0,-29.0122127532959,-383,9997.0
7430,0.25527867674827576,8.017127990722656,174,8158.0,-12.8255033493042,-132,9997.0
7440,0.2553696632385254,7.963297367095947,48,8158.0,2.2607686519622803,218,9997.0
7450,0.25560542941093445,4.412736892700195,126,8158.0,17.40441131591797,285,9997.0
7460,0.2554785907268524,1.2798489332199097,-13,8158.0,28.73424530029297,539,9997.0
7470,0.25476107001304626,-1.523112416267395,-5,8158.0,37.53582763671875,608,9997.0
7480,0.25522249937057495,-2.9770424365997314,-5,8158.0,44.27885437011719,770,9997.0
7490,0.2558850049972534,0.6101728677749634,63,8158.0,35.54561996459961,411,9997.0
7500,0.2567828893661499,-2.181694746017456,-22,8158.0,15.953031539916992,144,9997.0
7510,0.25624880194664,-7.001596450805664,-119,8158.0,-0.9026396870613098,-203,9997.0
7520,0.25710272789001465,0.5547491908073425,15,8158.0,-8.840108871459961,-147,9997.0
7530,0.2579757273197174,10.408285140991211,191,8158.0,-12.321172714233398,-204,9997.0
7540,0.25888946652412415,16.40813446044922,276,8158.0,-10.986773490905762,-122,9997.0
7550,0.2600012719631195,15.133092880249023,248,8158.0,-4.390785217285156,-55,9997.0
7560,0.26066628098487854,9.3931303024292,116,8158.0,-0.9410538673400879,-21,9997.0
7570,0.2617664039134979,-3.573151111602783,-160,8158.0,1.204914927482605,109,9997.0
7580,0.26299813389778137,-15.914121627807617,-258,8158.0,4.6428046226501465,-25,9997.0
7590,0.2643004357814789,-19.32083511352539,-350,8158.0,7.005503177642822,211,9997.0
7600,0.26566627621650696,-14.231330871582031,-144,8158.0,8.768461227416992,75,9997.0
7610,0.267009437084198,-3.669631004333496,-10,8158.0,2.7493319511413574,-39,9997.0
7620,0.2682879865169525,11.665085792541504,186,8158.0,-5.893056392669678,-30,9997.0
7630,0.26971757411956787,19.994281768798828,432,8158.0,-13.512710571289062,-363,9997.0
7640,0.2702772319316864,30.58646583557129,495,8158.0,-21.90034294128418,-310,9997.0
7650,0.27160799503326416,32.41032791137695,492,8158.0,-23.558639526367188,-316,9997.0
7660,0.2729611396789551,27.995223999023438,523,8158.0,-18.839963912963867,-286,9997.0
7670,0.2745893895626068,22.916540145874023,347,8158.0,-8.171106338500977,-113,9997.0
7680,0.2764289975166321,15.152361869812012,192,8158.0,12.311389923095703,351,9997.0
7690,0.27676859498023987,8.114690780639648,-15,8158.0,29.571935653686523,632,9997.0
7700,0.2784343659877777,-9.664422035217285,-286,8158.0,39.47857666015625,788,9997.0
7710,0.2797917127609253,-27.23285484313965,-428,8158.0,39.24979782104492,672,9997.0
7720,0.2815695106983185,-36.25345230102539,-501,8158.0,27.60420036315918,274,9997.0
7730,0.28344541788101196,-32.11540603637695,-496,8158.0,14.680133819580078,261,9997.0
7740,0.28494778275489807,-25.362489700317383,-437,8158.0,14.270225524902344,298,9997.0
7750,0.2862522006034851,-16.930133819580078,-208,8158.0,4.30001163482666,-15,9997.0
7760,0.28734713792800903,-3.9503445625305176,77,8158.0,-12.784775733947754,-395,9997.0
7770,0.2856847047805786,9.06723403930664,170,8158.0,-30.844955444335938,-531,9997.0
7780,0.28635987639427185,23.738399505615234,456,8158.0,-41.8049430847168,-613,9997.0
7790,0.28675034642219543,38.98967361450195,709,8158.0,-39.675086975097656,-634,9997.0
7800,0.28725841641426086,46.251747131347656,863,8158.0,-29.101158142089844,-498,9997.0
7810,0.28811702132225037,43.364253997802734,718,8158.0,-18.31414794921875,-352,9997.0
7820,0.28742271661758423,30.764646530151367,459,8158.0,-5.750565528869629,-104,9997.0
7830,0.2878313958644867,12.305131912231445,73,8158.0,3.294661045074463,-53,9997.0
7840,0.288325697183609,-9.712056159973145,-235,8158.0,14.652200698852539,208,9997.0
7850,0.28862109780311584,-24.940671920776367,-408,8158.0,26.107358932495117,431,9997.0
7860,0.2874169647693634,-28.83562469482422,-539,8158.0,33.73308563232422,515,9997.0
7870,0.28743836283683777,-31.78594398498535,-568,8158.0,32.353729248046875,542,9997.0
7880,0.28736796975135803,-28.94037437438965,-504,8158.0,29.592641830444336,550,9997.0
7890,0.2877030670642853,-19.229095458984375,-228,8158.0,26.648193359375,406,9997.0
7900,0.2877142131328583,-4.200266361236572,90,8158.0,22.63136100769043,254,9997.0
7910,0.28608471155166626,10.671309471130371,237,8158.0,13.201815605163574,143,9997.0
7920,0.2859731912612915,22.372678756713867,302,8158.0,-0.9490777254104614,-8,9997.0
7930,0.2855514883995056,22.85157012939453,432,8158.0,-18.7106876373291,-352,9997.0
7940,0.28515684604644775,25.08099365234375,468,8158.0,-30.170621871948242,-581,9997.0
7950,0.2827621102333069,23.782445907592773,330,8158.0,-29.174028396606445,-538,9997.0
7960,0.2822175920009613,17.747379302978516,177,8158.0,-23.667646408081055,-308,9997.0
7970,0.2819606065750122,9.500678062438965,58,8158.0,-14.704963684082031,-87,9997.0
7980,0.28156188130378723,-0.7063466310501099,-169,8158.0,-4.525714874267578,73,9997.0
7990,0.2814391553401947,-14.569724082946777,-333,8158.0,4.734067440032959,184,9997.0
8000,0.2803328335285187,-28.99825096130371,-470,8158.0,12.676905632019043,179,9997.0
8010,0.28012609481811523,-34.27558898925781,-492,8158.0,13.59257698059082,83,9997.0
8020,0.28000128269195557,-31.798721313476562,-484,8158.0,8.881481170654297,73,9997.0
8030,0.2800532281398773,-25.082504272460938,-451,8158.0,0.6241161227226257,25,9997.0
8040,0.2792937755584717,-15.78843879699707,-216,8158.0,-4.002868175506592,12,9997.0
8050,0.27968287467956543,-6.291336536407471,-27,8158.0,5.125942707061768,64,9997.0
8060,0.28009042143821716,-10.673327445983887,-187,8158.0,16.00595474243164,258,9997.0
8070,0.2804911434650421,-21.368518829345703,-438,8158.0,20.33584976196289,379,9997.0
8080,0.2808212637901306,-26.743654251098633,-439,8158.0,18.240447998046875,347,9997.0
8090,0.2813623249530792,-17.95804214477539,-180,8158.0,16.800329208374023,124,9997.0
8100,0.28167369961738586,-9.12047290802002,-177,8158.0,8.483707427978516,107,9997.0
8110,0.2820485234260559,-3.8942065238952637,-87,8158.0,-3.1061835289001465,-23,9997.0
8120,0.28237879276275635,4.101536750793457,136,8158.0,-5.348544120788574,-182,9997.0
8130,0.2844099998474121,9.036259651184082,107,8158.0,-12.036901473999023,-216,9997.0
8140,0.2848207950592041,2.8907063007354736,-43,8158.0,-15.464324951171875,-112,9997.0
8150,0.28520283102989197,-3.531564950942993,11,8158.0,-11.667314529418945,-240,9997.0
8160,0.28551360964775085,0.4218719005584717,52,8158.0,-12.025659561157227,-269,9997.0
8170,0.28582099080085754,8.411312103271484,119,8158.0,-15.17307186126709,-180,9997.0
8180,0.28614896535873413,18.481624603271484,368,8158.0,-12.848145484924316,-256,9997.0
8190,0.2863592803478241,28.662147521972656,589,8158.0,-11.185324668884277,-279,9997.0
8200,0.28660848736763,32.12505340576172,494,8158.0,-11.866928100585938,-232,9997.0
8210,0.28689441084861755,25.848079681396484,331,8158.0,-6.753006935119629,-30,9997.0
8220,0.288844496011734,17.75478172302246,264,8158.0,1.9105929136276245,171,9997.0
8230,0.2895118296146393,11.318629264831543,152,8158.0,8.60562801361084,250,9997.0
8240,0.29017260670661926,-2.5335075855255127,-39,8158.0,21.770946502685547,324,9997.0
8250,0.29079562425613403,-10.096938133239746,-187,8158.0,32.57130813598633,467,9997.0
8260,0.29134008288383484,-25.87999725341797,-558,8158.0,33.02946472167969,576,9997.0
8270,0.2919207513332367,-40.33348846435547,-683,8158.0,26.456497192382812,434,9997.0
8280,0.2927265167236328,-35.259246826171875,-463,8158.0,5.63588809967041,-50,9997.0
8290,0.2933131456375122,-26.741165161132812,-445,8158.0,-17.740633010864258,-332,9997.0
8300,0.29597941040992737,-15.528830528259277,-218,8158.0,-33.446102142333984,-576,9997.0
8310,0.29650869965553284,2.8112735748291016,209,8158.0,-43.7282600402832,-813,9997.0
8320,0.29696109890937805,23.84827423095703,432,8158.0,-48.06307601928711,-694,9997.0
8330,0.2974283695220947,39.83531951904297,658,8158.0,-38.09351348876953,-493,9997.0
8340,0.2981215715408325,47.75666046142578,827,8158.0,-19.657684326171875,-266,9997.0
8350,0.2987508177757263,45.93609619140625,800,8158.0,-2.8931853771209717,-67,9997.0
8360,0.2993123531341553,36.30070114135742,545,8158.0,4.028395175933838,68,9997.0
8370,0.29983070492744446,22.803918838500977,259,8158.0,4.050360202789307,42,9997.0
8380,0.3004600703716278,13.091496467590332,124,8158.0,-1.5099678039550781,-7,9997.0
8390,0.3009229898452759,6.422363758087158,43,8158.0,-5.805032730102539,26,9997.0
8400,0.3014684021472931,3.848816156387329,58,8158.0,4.913172721862793,239,9997.0
8410,0.30202293395996094,6.210387706756592,198,8158.0,31.49740219116211,727,9997.0
8420,0.30247458815574646,8.426165580749512,194,8158.0,65.60964965820312,1053,9997.0
8430,0.3042582869529724,-0.13827043771743774,-103,8158.0,69.11228942871094,948,9997.0
8440,0.30463314056396484,-20.522857666015625,-507,8158.0,46.43408966064453,614,9997.0
8450,0.3058415949344635,-41.6157112121582,-745,8158.0,13.447668075561523,80,9997.0
8460,0.3066437542438507,-42.83535385131836,-559,8158.0,-11.979656219482422,-370,9997.0
8470,0.30680593848228455,-27.813772201538086,-427,8158.0,-33.060543060302734,-491,9997.0
8480,0.30770623683929443,-7.858578681945801,-9,8158.0,-42.08049392700195,-683,9997.0
8490,0.3081984519958496,12.376287460327148,334,8158.0,-42.970985412597656,-768,9997.0
8500,0.3082159757614136,24.926660537719727,309,8158.0,-42.02803039550781,-575,9997.0
8510,0.30825698375701904,23.732925415039062,408,8158.0,-31.515806198120117,-413,9997.0
8520,0.30889761447906494,29.047183990478516,565,8158.0,-12.673991203308105,-182,9997.0
8530,0.3090440630912781,28.448638916015625,423,8158.0,1.5700854063034058,13,9997.0
8540,0.30926039814949036,22.776294708251953,249,8158.0,1.8263534307479858,50,9997.0
8550,0.3096768260002136,13.65786075592041,178,8158.0,-7.510941505432129,-141,9997.0
8560,0.3104152977466583,6.66646671295166,159,8158.0,-14.721366882324219,-306,9997.0
8570,0.3108937740325928,-6.8723320960998535,-126,8158.0,-14.928506851196289,-232,9997.0
8580,0.31130513548851013,-11.520904541015625,-236,8158.0,0.31260812282562256,64,9997.0
8590,0.31171971559524536,-9.94869613647461,-183,8158.0,18.036165237426758,472,9997.0
8600,0.3121328055858612,-1.6674689054489136,2,8158.0,33.89413833618164,676,9997.0
8610,0.3129027485847473,5.643413543701172,142,8158.0,45.14591598510742,688,9997.0
8620,0.3134094476699829,8.578070640563965,78,8158.0,41.915321350097656,667,9997.0
8630,0.31414204835891724,7.396151065826416,109,8158.0,24.78933334350586,287,9997.0
8640,0.31443601846694946,-0.6945316195487976,-6,8158.0,1.84368896484375,-129,9997.0
8650,0.31565940380096436,-6.641940593719482,-155,8158.0,-17.1075496673584,-241,9997.0
8660,0.316080242395401,-6.282635688781738,-36,8158.0,-29.94073486328125,-586,9997.0
8670,0.31603363156318665,-4.479567527770996,-72,8158.0,-42.103946685791016,-800,9997.0
8680,0.316081702709198,-7.298361301422119,-136,8158.0,-52.01172637939453,-825,9997.0
8690,0.31604042649269104,-5.918808460235596,-122,8158.0,-56.19770431518555,-815,9997.0
8700,0.3171796202659607,-7.950075149536133,-45,8158.0,-50.37744140625,-893,9997.0
8710,0.31734174489974976,0.618790864944458,91,8158.0,-42.854854583740234,-646,9997.0
8720,0.31765902042388916,9.85590648651123,118,8158.0,-26.245389938354492,-235,9997.0
8730,0.31811392307281494,6.419549942016602,-3,8158.0,-2.0358099937438965,165,9997.0
8740,0.31825709342956543,0.24113909900188446,54,8158.0,20.129825592041016,479,9997.0
8750,0.31853556632995605,0.47608497738838196,0,8158.0,44.37842559814453,733,9997.0
8760,0.31884118914604187,-7.690873622894287,-149,8158.0,56.4865608215332,959,9997.0
8770,0.31907302141189575,-9.35348892211914,-126,8158.0,61.67744445800781,1054,9997.0
8780,0.31885507702827454,-3.4672927856445312,-34,8158.0,53.71648406982422,739,9997.0
8790,0.319097101688385,-0.27515456080436707,-83,8158.0,32.394290924072266,475,9997.0
8800,0.31930971145629883,-8.325894355773926,-165,8158.0,5.453704357147217,-134,9997.0
8810,0.31940922141075134,-8.317795753479004,-118,8158.0,-13.24669075012207,-340,9997.0
8820,0.3194163143634796,-8.319133758544922,-113,8158.0,-31.364961624145508,-500,9997.0
8830,0.3207291066646576,3.9572956562042236,185,8158.0,-45.25654220581055,-822,9997.0
8840,0.32081708312034607,15.352518081665039,204,8158.0,-54.417640686035156,-861,9997.0
8850,0.3207921087741852,22.56270408630371,411,8158.0,-55.48176956176758,-923,9997.0
8860,0.32072630524635315,27.017253875732422,472,8158.0,-45.93031311035156,-713,9997.0
8870,0.3209663927555084,19.840208053588867,238,8158.0,-24.30023193359375,-256,9997.0
8880,0.3211469352245331,3.7555441856384277,-55,8158.0,-14.495580673217773,-195,9997.0
8890,0.3214290738105774,-7.842243194580078,-203,8158.0,-12.461164474487305,-141,9997.0
8900,0.3217368423938751,-16.930438995361328,-221,8158.0,-3.8605902194976807,-69,9997.0
8910,0.3220365047454834,-23.232954025268555,-398,8158.0,9.998137474060059,171,9997.0
8920,0.321328729391098,-29.982643127441406,-502,8158.0,28.21664047241211,615,9997.0
8930,0.3216220438480377,-18.471044540405273,-276,8158.0,55.2997932434082,1084,9997.0
8940,0.3219604194164276,0.37695905566215515,120,8158.0,61.3697624206543,904,9997.0
8950,0.32246890664100647,14.445270538330078,209,8158.0,54.18349075317383,887,9997.0
8960,0.3229147493839264,17.318727493286133,306,8158.0,42.1858024597168,568,9997.0
8970,0.32316842675209045,13.02141284942627,201,8158.0,22.75543975830078,280,9997.0
8980,0.3233054280281067,4.5491743087768555,-33,8158.0,3.373689889907837,107,9997.0
8990,0.32352414727211,-6.674354076385498,-69,8158.0,-13.737327575683594,-400,9997.0
9000,0.3237079977989197,-18.184648513793945,-388,8158.0,-34.48398971557617,-605,9997.0
9010,0.32361486554145813,-27.31687355041504,-497,8158.0,-48.37847900390625,-792,9997.0
9020,0.32345494627952576,-31.848026275634766,-413,8158.0,-49.58935546875,-818,9997.0
9030,0.32308077812194824,-22.75404930114746,-356,8158.0,-44.45161437988281,-626,9997.0
9040,0.3233879506587982,-5.05349588394165,37,8158.0,-33.024532318115234,-460,9997.0
9050,0.3224157392978668,12.104083061218262,316,8158.0,-15.272982597351074,-274,9997.0
9060,0.3223010003566742,20.420581817626953,338,8158.0,-2.2166130542755127,46,9997.0
9070,0.32213112711906433,17.994691848754883,143,8158.0,8.913155555725098,253,9997.0
9080,0.3220137357711792,-1.7315791845321655,-31,8158.0,17.554182052612305,249,9997.0
9090,0.32172924280166626,-11.92625904083252,-232,8158.0,26.712051391601562,529,9997.0
9100,0.32169240713119507,-16.612590789794922,-318,8158.0,35.46098327636719,548,9997.0
9110,0.321928471326828,-18.93711280822754,-270,8158.0,40.2171630859375,678,9997.0
9120,0.32197120785713196,-9.226663589477539,-144,8158.0,45.66573715209961,805,9997.0
9130,0.32204410433769226,6.6212873458862305,172,8158.0,31.099756240844727,378,9997.0
9140,0.32159677147865295,15.595165252685547,276,8158.0,16.600543975830078,157,9997.0
9150,0.3215273916721344,15.949573516845703,160,8158.0,-2.447847843170166,-67,9997.0
9160,0.3211681544780731,4.099018096923828,85,8158.0,-26.63454818725586,-601,9997.0
9170,0.32104700803756714,-8.601177215576172,-267,8158.0,-47.373348236083984,-766,9997.0
9180,0.3227042257785797,-24.72919464111328,-456,8158.0,-51.24534225463867,-855,9997.0
9190,0.3221999704837799,-25.812984466552734,-338,8158.0,-43.45771026611328,-734,9997.0
9200,0.32248586416244507,-18.1263427734375,-320,8158.0,-33.534881591796875,-392,9997.0
9210,0.3223404586315155,-5.034440040588379,29,8158.0,-15.841595649719238,-301,9997.0
9220,0.3198295831680298,13.484195709228516,216,8158.0,3.573005199432373,246,9997.0
9230,0.31992027163505554,26.931177139282227,508,8158.0,26.944652557373047,470,9997.0
9240,0.32017382979393005,28.10443115234375,403,8158.0,43.39945602416992,760,9997.0
9250,0.3205401301383972,14.507408142089844,160,8158.0,53.28685760498047,944,9997.0
9260,0.3210817575454712,-1.0765032768249512,-57,8158.0,43.32063674926758,563,9997.0
9270,0.32022762298583984,-18.758516311645508,-433,8158.0,16.535900115966797,223,9997.0
9280,0.3213352560997009,-34.128170013427734,-533,8158.0,-2.868771553039551,-227,9997.0
9290,0.3221559524536133,-25.41324806213379,-348,8158.0,-7.719749450683594,-26,9997.0
9300,0.3229541480541229,3.8971590995788574,303,8158.0,0.8569497466087341,-23,9997.0
9310,0.32658231258392334,33.6044807434082,662,8158.0,10.45376968383789,279,9997.0
9320,0.3273383378982544,55.19487762451172,988,8158.0,16.479324340820312,235,9997.0
9330,0.3280469477176666,52.485172271728516,648,8158.0,14.730690956115723,239,9997.0
9340,0.3284362554550171,29.336780548095703,341,8158.0,0.4502333700656891,-22,9997.0
9350,0.329009473323822,7.606138229370117,62,8158.0,-8.613686561584473,-247,9997.0
9360,0.3284168839454651,-7.419763088226318,-224,8158.0,-12.522961616516113,-206,9997.0
9370,0.32850903272628784,-15.045478820800781,-310,8158.0,-16.000837326049805,-252,9997.0
9380,0.3285055458545685,-20.054718017578125,-316,8158.0,-13.440677642822266,-281,9997.0
9390,0.328363299369812,-23.175661087036133,-414,8158.0,-9.801481246948242,-144,9997.0
9400,0.32770445942878723,-22.317543029785156,-332,8158.0,-7.0653181076049805,-72,9997.0
9410,0.327583372592926,-13.26205825805664,-93,8158.0,-0.8558358550071716,-78,9997.0
9420,0.32757696509361267,-7.611217498779297,-138,8158.0,3.5681498050689697,120,9997.0
9430,0.327690452337265,-7.638991355895996,-217,8158.0,6.71082067489624,234,9997.0
9440,0.3278582692146301,-14.147624015808105,-199,8158.0,14.918679237365723,189,9997.0
9450,0.32854020595550537,-19.927263259887695,-347,8158.0,17.471878051757812,360,9997.0
9460,0.32897913455963135,-15.193280220031738,-202,8158.0,13.134577751159668,152,9997.0
9470,0.32939958572387695,-1.4717814922332764,122,8158.0,-0.4813920855522156,-42,9997.0
9480,0.33016276359558105,19.224443435668945,349,8158.0,-8.881006240844727,-147,9997.0
9490,0.33245113492012024,29.905759811401367,525,8158.0,-12.137266159057617,-224,9997.0
9500,0.3331424295902252,28.036540985107422,375,8158.0,-9.065999984741211,-46,9997.0
9510,0.3337220549583435,15.286779403686523,184,8158.0,0.13172970712184906,-106,9997.0
9520,0.33433473110198975,-1.0991873741149902,-48,8158.0,-2.6277530193328857,-12,9997.0
9530,0.3356386721134186,-7.393568515777588,-118,8158.0,-11.721794128417969,-213,9997.0
9540,0.3360106945037842,-5.904767990112305,-39,8158.0,-14.375004768371582,-323,9997.0
9550,0.33633166551589966,-0.7371674180030823,-33,8158.0,-10.508252143859863,-35,9997.0
9560,0.3367651700973511,9.669297218322754,189,8158.0,-2.669719696044922,-67,9997.0
9570,0.33721932768821716,18.268310546875,377,8158.0,2.677412271499634,-22,9997.0
9580,0.3372868597507477,17.400266647338867,180,8158.0,2.753298282623291,121,9997.0
9590,0.3379320800304413,-3.3305623531341553,-271,8158.0,10.899214744567871,213,9997.0
9600,0.33877187967300415,-38.42170333862305,-698,8158.0,16.586145401000977,161,9997.0
9610,0.33956170082092285,-60.95309066772461,-1129,8158.0,14.196640014648438,202,9997.0
9620,0.33892813324928284,-70.06513977050781,-1156,8158.0,16.744478225708008,357,9997.0
9630,0.33940330147743225,-60.40559387207031,-811,8158.0,27.21493148803711,405,9997.0
9640,0.34014299511909485,-29.966283798217773,-376,8158.0,34.907718658447266,686,9997.0
9650,0.3408953845500946,16.41299819946289,547,8158.0,40.460567474365234,536,9997.0
9660,0.34177282452583313,56.23550796508789,954,8158.0,39.22312545776367,618,9997.0
9670,0.34217149019241333,72.61005401611328,1278,8158.0,26.591079711914062,333,9997.0
9680,0.34216904640197754,71.6023178100586,1076,8158.0,15.188136100769043,216,9997.0
9690,0.34266284108161926,55.29613494873047,762,8158.0,-3.2022624015808105,-124,9997.0
9700,0.3431534469127655,30.38774871826172,417,8158.0,-26.302837371826172,-632,9997.0
9710,0.3459487855434418,4.597799301147461,-38,8158.0,-45.337650299072266,-827,9997.0
9720,0.3461526930332184,-13.538579940795898,-267,8158.0,-49.2926025390625,-721,9997.0
9730,0.34633833169937134,-15.276384353637695,-247,8158.0,-42.5960807800293,-584,9997.0
9740,0.34652382135391235,-10.903414726257324,-88,8158.0,-26.77414894104004,-442,9997.0
9750,0.34524938464164734,0.15172377228736877,120,8158.0,-12.486886024475098,-247,9997.0
9760,0.3453771471977234,9.355469703674316,128,8158.0,-7.248776912689209,-21,9997.0
9770,0.34560444951057434,15.152212142944336,199,8158.0,0.40176209807395935,202,9997.0
9780,0.34603944420814514,26.439088821411133,379,8158.0,27.58938980102539,614,9997.0
9790,0.34640246629714966,24.19853973388672,364,8158.0,35.70474624633789,620,9997.0
9800,0.34676700830459595,8.956191062927246,95,8158.0,33.06120300292969,530,9997.0
9810,0.34696489572525024,-14.701438903808594,-278,8158.0,31.133087158203125,392,9997.0
9820,0.34770527482032776,-27.986251831054688,-474,8158.0,21.24019432067871,193,9997.0
9830,0.3477640450000763,-24.651304244995117,-554,8158.0,3.471280574798584,26,9997.0
9840,0.34774258732795715,-37.251548767089844,-663,8158.0,-0.0677984282374382,4,9997.0
9850,0.34755581617355347,-35.56033706665039,-506,8158.0,0.3185316026210785,-101,9997.0
9860,0.3475593626499176,-25.413251876831055,-303,8158.0,-4.3294477462768555,-184,9997.0
9870,0.3471928536891937,-13.651607513427734,-219,8158.0,-13.97570514678955,-185,9997.0
9880,0.34705716371536255,-2.649376392364502,4,8158.0,-21.884212493896484,-438,9997.0
9890,0.3457450866699219,-1.7762902975082397,2,8158.0,-34.89576721191406,-717,9997.0
9900,0.3451370596885681,1.9665354490280151,-13,8158.0,-34.88114547729492,-468,9997.0
9910,0.34451887011528015,7.315764904022217,134,8158.0,-23.813051223754883,-266,9997.0
9920,0.3438655436038971,16.50503921508789,338,8158.0,-18.605566024780273,-310,9997.0
9930,0.3402561545372009,22.613998413085938,427,8158.0,-18.373842239379883,-429,9997.0
9940,0.3395014703273773,26.468975067138672,414,8158.0,-20.434865951538086,-364,9997.0
9950,0.3388863503932953,27.066486358642578,362,8158.0,-14.30271053314209,-137,9997.0
9960,0.3384321630001068,23.275531768798828,390,8158.0,-1.1863198280334473,217,9997.0
9970,0.3364200294017792,18.44830894470215,226,8158.0,20.56265640258789,502,9997.0
9980,0.3359121084213257,-5.0672712326049805,-242,8158.0,30.826034545898438,393,9997.0
9990,0.33553484082221985,-41.572540283203125,-789,8158.0,23.92242431640625,261,9997.0
10000,0.3349432945251465,-54.08652877807617,-911,8158.0,18.08345603942871,339,9997.0
10010,0.3342379629611969,-42.42722702026367,-558,8158.0,14.267324447631836,124,9997.0
10020,0.333586186170578,-20.582958221435547,-177,8158.0,1.0983120203018188,-151,9997.0
10030,0.3328404426574707,-1.6156507730484009,-1,8158.0,-12.896890640258789,-235,9997.0
10040,0.3321070075035095,8.515061378479004,257,8158.0,-24.56287956237793,-476,9997.0
10050,0.3316286504268646,13.556241035461426,155,8158.0,-24.738155364990234,-328,9997.0
10060,0.33210334181785583,8.64797592163086,115,8158.0,-21.28872299194336,-373,9997.0
10070,0.3314054012298584,1.2919034957885742,52,8158.0,-26.70576286315918,-533,9997.0
10080,0.3307967185974121,0.4570951461791992,78,8158.0,-27.744462966918945,-373,9997.0
10090,0.33027946949005127,11.508859634399414,165,8158.0,-29.338327407836914,-460,9997.0
10100,0.3314710259437561,19.695032119750977,344,8158.0,-30.114521026611328,-501,9997.0
10110,0.3314700424671173,14.306070327758789,101,8158.0,-24.11757469177246,-404,9997.0
10120,0.33160316944122314,1.0161702632904053,-34,8158.0,-16.314762115478516,-215,9997.0
10130,0.3318443298339844,-11.595438957214355,-280,8158.0,2.1526942253112793,225,9997.0
10140,0.33208441734313965,-19.8284969329834,-317,8158.0,25.040206909179688,493,9997.0
10150,0.3337414264678955,-25.446176528930664,-434,8158.0,37.27626037597656,732,9997.0
10160,0.3339647352695465,-31.398330688476562,-571,8158.0,41.83195495605469,769,9997.0
10170,0.33400240540504456,-25.363893508911133,-337,8158.0,42.030879974365234,571,9997.0
10180,0.3338591456413269,-9.701178550720215,-121,8158.0,35.87537384033203,643,9997.0
10190,0.3356786072254181,9.699069023132324,276,8158.0,22.743541717529297,285,9997.0
10200,0.3358005881309509,21.600942611694336,368,8158.0,6.388072490692139,83,9997.0
10210,0.33593299984931946,24.0966854095459,413,8158.0,-12.468770980834961,-266,9997.0
10220,0.33602336049079895,25.512319564819336,431,8158.0,-30.05541229248047,-573,9997.0
10230,0.3362700641155243,23.533906936645508,384,8158.0,-46.46332550048828,-828,9997.0
10240,0.3367636203765869,22.64887809753418,277,8158.0,-57.91366958618164,-911,9997.0
10250,0.33703184127807617,17.656471252441406,323,8158.0,-63.478675842285156,-1194,9997.0
10260,0.3371228873729706,8.201218605041504,44,8158.0,-64.66788482666016,-1051,9997.0
10270,0.33821848034858704,-6.36460018157959,-175,8158.0,-50.88356399536133,-600,9997.0
10280,0.33712682127952576,-8.760285377502441,-93,8158.0,-12.957465171813965,13,9997.0
10290,0.33786046504974365,-4.200558185577393,-10,8158.0,31.151132583618164,535,9997.0
10300,0.3385583758354187,-2.7359137535095215,-54,8158.0,57.9189567565918,1002,9997.0
10310,0.3391704559326172,-11.658987045288086,-284,8158.0,71.09325408935547,1303,9997.0
10320,0.3393285274505615,-17.412317276000977,-231,8158.0,77.70889282226562,1170,9997.0
10330,0.33947062492370605,-16.300622940063477,-291,8158.0,73.85497283935547,1264,9997.0
10340,0.3396376967430115,-12.006634712219238,-121,8158.0,64.7336654663086,974,9997.0
10350,0.340386301279068,-4.3026347160339355,-34,8158.0,47.63652801513672,690,9997.0
10360,0.3403991460800171,8.965291976928711,99,8158.0,18.100746154785156,274,9997.0
10370,0.3427305817604065,13.230062484741211,240,8158.0,-15.496708869934082,-525,9997.0
10380,0.3429066240787506,8.10723876953125,89,8158.0,-51.936100006103516,-985,9997.0
10390,0.34275132417678833,1.03373122215271,56,8158.0,-72.07425689697266,-1220,9997.0
10400,0.3429659903049469,-0.07903344184160233,-40,8158.0,-70.30912780761719,-1016,9997.0
10410,0.3423402011394501,10.164690971374512,267,8158.0,-53.485260009765625,-927,9997.0
10420,0.34262964129447937,16.12261199951172,209,8158.0,-32.64573669433594,-350,9997.0
10430,0.34295105934143066,16.21672248840332,255,8158.0,-15.017046928405762,-149,9997.0
10440,0.3435125946998596,10.391632080078125,201,8158.0,3.9420695304870605,95,9997.0
10450,0.34426581859588623,6.848905086517334,71,8158.0,29.100170135498047,619,9997.0
10460,0.3453013300895691,9.15198040008545,141,8158.0,43.78362274169922,843,9997.0
10470,0.3461383283138275,2.865687370300293,58,8158.0,54.29153060913086,857,9997.0
10480,0.34728264808654785,-2.704648971557617,-93,8158.0,58.6037483215332,960,9997.0
10490,0.3478681445121765,-6.7507710456848145,-107,8158.0,54.65568542480469,856,9997.0
10500,0.34808412194252014,-4.518076419830322,-85,8158.0,44.23411560058594,608,9997.0
10510,0.3486705422401428,-14.107431411743164,-265,8158.0,17.268705368041992,138,9997.0
10520,0.34952208399772644,-27.08182716369629,-477,8158.0,-15.69753360748291,-381,9997.0
10530,0.3496114909648895,-43.37437438964844,-771,8158.0,-34.94170379638672,-500,9997.0
10540,0.349906861782074,-47.37735366821289,-701,8158.0,-44.02753448486328,-778,9997.0
10550,0.3512430489063263,-36.14418411254883,-598,8158.0,-52.22754669189453,-794,9997.0
10560,0.3517936170101166,-18.37130355834961,-196,8158.0,-51.750282287597656,-838,9997.0
10570,0.3518654704093933,-1.1114866733551025,97,8158.0,-39.01639175415039,-543,9997.0
10580,0.3522513508796692,15.280129432678223,240,8158.0,-20.028818130493164,-190,9997.0
10590,0.3520919382572174,21.68522071838379,419,8158.0,-3.5803372859954834,-33,9997.0
10600,0.35250324010849,16.976409912109375,257,8158.0,2.907628297805786,30,9997.0
10610,0.3528119623661041,5.208062171936035,-60,8158.0,7.509263515472412,210,9997.0
10620,0.3531022369861603,-12.942678451538086,-345,8158.0,17.48469352722168,438,9997.0
10630,0.3519594371318817,-26.36469841003418,-347,8158.0,26.989408493041992,415,9997.0
10640,0.35203269124031067,-24.124099731445312,-383,8158.0,32.05982208251953,574,9997.0
10650,0.3519865870475769,-13.391935348510742,-191,8158.0,29.227558135986328,454,9997.0
10660,0.35204067826271057,-2.1031007766723633,101,8158.0,21.25457763671875,248,9997.0
10670,0.35204029083251953,4.868962287902832,58,8158.0,11.351099014282227,193,9997.0
10680,0.3508416712284088,6.14415168762207,161,8158.0,3.063356399536133,-9,9997.0
10690,0.350603848695755,9.919407844543457,153,8158.0,5.505383491516113,100,9997.0
10700,0.3502751588821411,12.022905349731445,160,8158.0,-0.20365577936172485,-41,9997.0
10710,0.34985634684562683,9.121417045593262,152,8158.0,-11.125283241271973,-307,9997.0
10720,0.35046347975730896,-0.26628565788269043,-48,8158.0,-20.822269439697266,-380,9997.0
10730,0.35003358125686646,-0.35911092162132263,-34,8158.0,-25.39276123046875,-478,9997.0
10740,0.3496319651603699,3.187556743621826,141,8158.0,-27.50857925415039,-538,9997.0
10750,0.3492310047149658,11.223435401916504,219,8158.0,-25.451698303222656,-347,9997.0
10760,0.3490666449069977,16.841922760009766,206,8158.0,-18.57831573486328,-227,9997.0
10770,0.3460412919521332,18.518463134765625,303,8158.0,-14.633212089538574,-223,9997.0
10780,0.34580978751182556,19.681127548217773,441,8158.0,-6.667908668518066,-165,9997.0
10790,0.3455493450164795,27.234132766723633,473,8158.0,-0.24852626025676727,89,9997.0
10800,0.34526148438453674,24.900243759155273,294,8158.0,8.661768913269043,229,9997.0
10810,0.34284669160842896,12.600549697875977,167,8158.0,7.482394695281982,150,9997.0
10820,0.3423643410205841,-4.501336097717285,-144,8158.0,11.890911102294922,116,9997.0
10830,0.3417939245700836,-26.820701599121094,-542,8158.0,12.851903915405273,165,9997.0
10840,0.34116131067276,-37.25551986694336,-674,8158.0,14.405162811279297,350,9997.0
10850,0.33992159366607666,-31.167179107666016,-387,8158.0,17.995691299438477,266,9997.0
10860,0.33927014470100403,-9.57693862915039,-154,8158.0,13.480511665344238,297,9997.0
10870,0.33868440985679626,5.2902445793151855,178,8158.0,2.581784725189209,-40,9997.0
10880,0.3381821811199188,17.057323455810547,250,8158.0,-14.609870910644531,-264,9997.0
10890,0.3376428484916687,19.301864624023438,342,8158.0,-26.33829116821289,-394,9997.0
10900,0.33565661311149597,15.204297065734863,209,8158.0,-19.472177505493164,-282,9997.0
10910,0.3351415991783142,12.383931159973145,122,8158.0,-4.974588394165039,20,9997.0
10920,0.3347857594490051,10.249070167541504,187,8158.0,0.7865728735923767,-72,9997.0
10930,0.33472996950149536,4.584339141845703,54,8158.0,-2.9179024696350098,-168,9997.0
10940,0.3328123390674591,-4.7428507804870605,-193,8158.0,-12.490657806396484,-112,9997.0
10950,0.33273813128471375,-4.685354709625244,48,8158.0,-8.920051574707031,-201,9997.0
10960,0.3326953053474426,10.837635040283203,254,8158.0,-4.773063659667969,-49,9997.0
10970,0.33266931772232056,29.177114486694336,545,8158.0,7.887416839599609,300,9997.0
10980,0.33176296949386597,42.59468460083008,774,8158.0,20.07240104675293,294,9997.0
10990,0.3320190906524658,29.697406768798828,370,8158.0,24.02347183227539,338,9997.0
11000,0.33207497000694275,-4.720867156982422,-292,8158.0,20.621583938598633,430,9997.0
11010,0.332436203956604,-32.965965270996094,-556,8158.0,22.912052154541016,318,9997.0
11020,0.33246752619743347,-43.258914947509766,-720,8158.0,20.11945915222168,283,9997.0
11030,0.3306422233581543,-40.03668212890625,-580,8158.0,13.873432159423828,208,9997.0
11040,0.33047717809677124,-28.761682510375977,-426,8158.0,18.550107955932617,341,9997.0
11050,0.3306681215763092,-18.15892219543457,-209,8158.0,19.5639705657959,236,9997.0
11060,0.3304789662361145,-0.20228061079978943,52,8158.0,5.8996052742004395,114,9997.0
11070,0.3309299945831299,18.023475646972656,410,8158.0,-14.871712684631348,-403,9997.0
11080,0.33079224824905396,24.670255661010742,359,8158.0,-30.50428009033203,-417,9997.0
11090,0.33074212074279785,23.648231506347656,371,8158.0,-34.127681732177734,-591,9997.0
11100,0.33065566420555115,4.048839092254639,-94,8158.0,-39.540252685546875,-627,9997.0
11110,0.3308294415473938,-20.38152503967285,-478,8158.0,-45.1174201965332,-638,9997.0
11120,0.33235812187194824,-25.960060119628906,-324,8158.0,-45.94763946533203,-769,9997.0
11130,0.3330724835395813,-14.754829406738281,-191,8158.0,-37.72395706176758,-564,9997.0
11140,0.3338739573955536,0.7409103512763977,32,8158.0,-21.970813751220703,-172,9997.0
11150,0.33471864461898804,18.011741638183594,314,8158.0,6.9944634437561035,238,9997.0
11160,0.3343198597431183,20.835281372070312,460,8158.0,27.969884872436523,587,9997.0
11170,0.3354713022708893,21.247867584228516,316,8158.0,60.03054428100586,1065,9997.0
11180,0.3364731967449188,19.03011131286621,217,8158.0,69.34825897216797,1228,9997.0
11190,0.3373960554599762,7.150667190551758,100,8158.0,70.23063659667969,1079,9997.0
11200,0.33983784914016724,-9.401714324951172,-268,8158.0,70.79006958007812,1149,9997.0
11210,0.3411323130130768,-23.030315399169922,-477,8158.0,56.155914306640625,879,9997.0
11220,0.34300848841667175,-24.797779083251953,-352,8158.0,26.075664520263672,235,9997.0
11230,0.344228595495224,-19.033855438232422,-311,8158.0,-3.4161038398742676,-110,9997.0
11240,0.345501571893692,-8.26618480682373,-4,8158.0,-27.797557830810547,-683,9997.0
11250,0.3483983278274536,8.220276832580566,126,8158.0,-58.91557312011719,-980,9997.0
11260,0.34953296184539795,14.064300537109375,307,8158.0,-67.92575073242188,-1167,9997.0
11270,0.35052603483200073,14.510608673095703,194,8158.0,-59.59408187866211,-951,9997.0
11280,0.35156601667404175,9.88049030303955,97,8158.0,-42.93430709838867,-514,9997.0
11290,0.3519928753376007,7.029226779937744,75,8158.0,-25.524097442626953,-248,9997.0
11300,0.35329484939575195,3.350053310394287,32,8158.0,-13.373143196105957,-138,9997.0
11310,0.35455217957496643,-6.067154407501221,-143,8158.0,-2.983384132385254,-86,9997.0
11320,0.3560158312320709,-11.849761962890625,-122,8158.0,2.4729788303375244,29,9997.0
11330,0.3574751615524292,-7.7299041748046875,-56,8158.0,9.169529914855957,246,9997.0
11340,0.3568488657474518,-7.064542770385742,-57,8158.0,21.353601455688477,452,9997.0
11350,0.3580535054206848,-9.139939308166504,-198,8158.0,31.7554931640625,606,9997.0
11360,0.3591648042201996,-11.864065170288086,-297,8158.0,32.56153106689453,706,9997.0
11370,0.36009836196899414,-15.818719863891602,-270,8158.0,37.04392623901367,688,9997.0
11380,0.3609127998352051,-16.894723892211914,-187,8158.0,41.30596923828125,692,9997.0
11390,0.36168891191482544,-10.831136703491211,-43,8158.0,40.15913772583008,542,9997.0
11400,0.3622001111507416,-1.904151201248169,0,8158.0,32.52808380126953,448,9997.0
11410,0.36256468296051025,2.3589346408843994,95,8158.0,23.811426162719727,410,9997.0
11420,0.36293235421180725,3.9013662338256836,131,8158.0,10.474958419799805,29,9997.0
11430,0.36407923698425293,6.283348560333252,87,8158.0,-8.275094032287598,-244,9997.0
11440,0.36390358209609985,16.849912643432617,320,8158.0,-23.56865882873535,-320,9997.0
11450,0.36355483531951904,28.014108657836914,498,8158.0,-32.411319732666016,-515,9997.0
11460,0.36331871151924133,34.72103500366211,610,8158.0,-36.740962982177734,-660,9997.0
11470,0.3643099069595337,33.704742431640625,508,8158.0,-26.435131072998047,-396,9997.0
11480,0.3640318214893341,21.13453483581543,268,8158.0,-11.955238342285156,-148,9997.0
11490,0.36375486850738525,9.104510307312012,-2,8158.0,-3.5011744499206543,17,9997.0
11500,0.36363524198532104,-10.961543083190918,-340,8158.0,3.687635898590088,56,9997.0
11510,0.36568784713745117,-24.694480895996094,-484,8158.0,0.9401789903640747,-7,9997.0
11520,0.3655262291431427,-26.723806381225586,-399,8158.0,0.9957581162452698,152,9997.0
11530,0.3652345836162567,-15.062237739562988,-242,8158.0,11.768309593200684,336,9997.0
11540,0.3647959232330322,-8.936683654785156,-66,8158.0,32.83449935913086,633,9997.0
11550,0.3642783761024475,1.1094709634780884,113,8158.0,46.610111236572266,707,9997.0
11560,0.3641712963581085,4.276701927185059,101,8158.0,53.64628982543945,836,9997.0
11570,0.3631911277770996,4.076643466949463,39,8158.0,53.87970733642578,889,9997.0
11580,0.36234554648399353,0.2578011155128479,-54,8158.0,43.611263275146484,768,9997.0
11590,0.36121925711631775,-2.0515429973602295,73,8158.0,14.860496520996094,-4,9997.0
11600,0.36130833625793457,1.8503836393356323,111,8158.0,-18.628421783447266,-361,9997.0
11610,0.3603927791118622,7.217581272125244,80,8158.0,-37.99643325805664,-560,9997.0
11620,0.35927820205688477,1.480615258216858,90,8158.0,-48.77614974975586,-863,9997.0
11630,0.3580053746700287,5.78394079208374,153,8158.0,-47.317447662353516,-736,9997.0
11640,0.35837528109550476,5.163278579711914,25,8158.0,-39.13610076904297,-567,9997.0
11650,0.3572200834751129,3.411733627319336,-15,8158.0,-34.61152267456055,-463,9997.0
11660,0.35619398951530457,-0.5466111898422241,-45,8158.0,-29.211885452270508,-404,9997.0
11670,0.3553970456123352,-4.942241668701172,-81,8158.0,-17.86150360107422,-300,9997.0
11680,0.3546379506587982,-13.435236930847168,-224,8158.0,4.156656265258789,80,9997.0
11690,0.35522833466529846,-24.728551864624023,-463,8158.0,17.12835693359375,314,9997.0
11700,0.3545507788658142,-25.443532943725586,-437,8158.0,17.33826446533203,412,9997.0
11710,0.3540131151676178,-18.12448501586914,-164,8158.0,20.056015014648438,278,9997.0
11720,0.3533862233161926,-0.7956563234329224,16,8158.0,18.20525550842285,324,9997.0
11730,0.3525683581829071,12.530927658081055,302,8158.0,10.217154502868652,85,9997.0
11740,0.3520451784133911,21.102310180664062,357,8158.0,6.539933681488037,63,9997.0
11750,0.351400226354599,24.11739158630371,334,8158.0,2.543269157409668,25,9997.0
11760,0.3508110046386719,15.946496963500977,218,8158.0,-9.963122367858887,-300,9997.0
11770,0.350312203168869,5.654770374298096,9,8158.0,-23.074203491210938,-359,9997.0
11780,0.3496769964694977,-2.4404923915863037,-9,8158.0,-30.368667602539062,-504,9997.0
11790,0.34924885630607605,0.5196370482444763,107,8158.0,-27.389997482299805,-459,9997.0
11800,0.348847359418869,9.296697616577148,203,8158.0,-20.112489700317383,-194,9997.0
11810,0.3485473096370697,16.460161209106445,300,8158.0,-8.188529014587402,-24,9997.0
11820,0.34823718667030334,14.299175262451172,226,8158.0,6.241169452667236,109,9997.0
11830,0.3484761714935303,-0.24358749389648438,-134,8158.0,13.41634750366211,249,9997.0
11840,0.34868913888931274,-18.824697494506836,-451,8158.0,11.660456657409668,262,9997.0
11850,0.3489944338798523,-34.713417053222656,-572,8158.0,10.211979866027832,11,9997.0
11860,0.34843772649765015,-39.448272705078125,-650,8158.0,-8.916523933410645,-274,9997.0
11870,0.34883570671081543,-38.03573226928711,-668,8158.0,-20.29938507080078,-245,9997.0
11880,0.3489844501018524,-30.314178466796875,-337,8158.0,-11.017133712768555,-248,9997.0
11890,0.3492589294910431,-15.702603340148926,-213,8158.0,-2.771467447280884,128,9997.0
11900,0.3494005799293518,2.5017576217651367,154,8158.0,6.900689601898193,217,9997.0
11910,0.3482910394668579,20.825639724731445,463,8158.0,16.314838409423828,243,9997.0
11920,0.34839481115341187,31.29718589782715,454,8158.0,20.298246383666992,369,9997.0
11930,0.3483855426311493,29.648588180541992,506,8158.0,19.630098342895508,212,9997.0
11940,0.34824877977371216,23.524600982666016,260,8158.0,8.138489723205566,46,9997.0
11950,0.3490229845046997,9.611347198486328,90,8158.0,-11.653064727783203,-278,9997.0
11960,0.3489365577697754,-3.6657485961914062,-53,8158.0,-28.012615203857422,-535,9997.0
11970,0.34883591532707214,-11.600021362304688,-210,8158.0,-34.047218322753906,-515,9997.0
11980,0.3488180637359619,-12.635231971740723,-270,8158.0,-27.96198844909668,-288,9997.0
11990,0.3488643169403076,-14.469575881958008,-144,8158.0,-15.807903289794922,-347,9997.0
12000,0.347860723733902,-7.25050687789917,-126,8158.0,-17.703876495361328,-307,9997.0
12010,0.34819650650024414,0.4000892639160156,-38,8158.0,-24.42011833190918,-330,9997.0
12020,0.34854015707969666,-0.5916646718978882,4,8158.0,-13.809106826782227,-163,9997.0
12030,0.3492512106895447,6.005441188812256,196,8158.0,6.559505939483643,142,9997.0
12040,0.3484017550945282,8.704550743103027,132,8158.0,20.565454483032227,512,9997.0
12050,0.34871381521224976,5.836127281188965,18,8158.0,34.95640563964844,680,9997.0
12060,0.3488909602165222,4.59099817276001,111,8158.0,47.56221008300781,772,9997.0
12070,0.34886014461517334,4.082133769989014,109,8158.0,54.184688568115234,853,9997.0
12080,0.3478182554244995,5.386464595794678,97,8158.0,50.48013687133789,868,9997.0
12090,0.3474659323692322,12.070660591125488,260,8158.0,39.073326110839844,510,9997.0
12100,0.3471934497356415,10.726069450378418,47,8158.0,15.370810508728027,206,9997.0
12110,0.34688159823417664,-0.7579522728919983,9,8158.0,-9.902735710144043,-412,9997.0
12120,0.34660017490386963,-8.153204917907715,-182,8158.0,-40.63228225708008,-769,9997.0
12130,0.3480771780014038,-15.717924118041992,-263,8158.0,-63.824745178222656,-1188,9997.0
12140,0.34762513637542725,-22.59169578552246,-384,8158.0,-79.26507568359375,-1375,9997.0
12150,0.3471784293651581,-22.64493751525879,-434,8158.0,-80.36084747314453,-1192,9997.0
12160,0.3474504053592682,-25.370349884033203,-353,8158.0,-66.12410736083984,-989,9997.0
12170,0.34745126962661743,-21.05345344543457,-281,8158.0,-36.584537506103516,-553,9997.0
12180,0.3471800684928894,-13.537361145019531,-230,8158.0,-10.211244583129883,30,9997.0
12190,0.34718650579452515,-5.090882778167725,-69,8158.0,13.763097763061523,417,9997.0
12200,0.34777364134788513,3.5704731941223145,166,8158.0,41.1666145324707,672,9997.0
12210,0.3480207026004791,14.064971923828125,259,8158.0,55.98030090332031,1105,9997.0
12220,0.34880661964416504,28.008100509643555,581,8158.0,72.26162719726562,1100,9997.0
12230,0.3491875231266022,38.564727783203125,597,8158.0,77.06177520751953,1300,9997.0
12240,0.3502883315086365,33.74953842163086,482,8158.0,66.72935485839844,971,9997.0
12250,0.35069188475608826,11.98129653930664,69,8158.0,44.226497650146484,728,9997.0
12260,0.3514253795146942,-8.925756454467773,-166,8158.0,24.095611572265625,231,9997.0
12270,0.3519890010356903,-19.603328704833984,-363,8158.0,-5.193075656890869,-34,9997.0
12280,0.35233473777770996,-13.14519214630127,-73,8158.0,-22.17070960998535,-549,9997.0
12290,0.3526763916015625,2.306565284729004,47,8158.0,-37.6368522644043,-605,9997.0
12300,0.352940171957016,13.821660995483398,348,8158.0,-39.039981842041016,-780,9997.0
12310,0.3531363308429718,21.595441818237305,346,8158.0,-30.19801139831543,-403,9997.0
12320,0.35347577929496765,19.46477508544922,237,8158.0,-12.948871612548828,-72,9997.0
12330,0.35379916429519653,6.870469093322754,180,8158.0,-5.2416090965271,-114,9997.0
12340,0.3544060289859772,2.8416292667388916,2,8158.0,-0.08598542213439941,56,9997.0
12350,0.35562458634376526,-0.2738093435764313,-65,8158.0,-1.341962456703186,-42,9997.0
12360,0.35632169246673584,-0.6892128586769104,34,8158.0,-8.311141967773438,-189,9997.0
12370,0.3570244610309601,8.266481399536133,269,8158.0,-8.417391777038574,-171,9997.0
12380,0.3576950430870056,27.830446243286133,514,8158.0,1.6010549068450928,117,9997.0
12390,0.35808658599853516,36.143310546875,505,8158.0,14.18690013885498,385,9997.0
12400,0.35867077112197876,19.987590789794922,161,8158.0,26.038820266723633,463,9997.0
12410,0.3594186305999756,-10.215951919555664,-229,8158.0,36.638797760009766,561,9997.0
12420,0.3599208891391754,-28.521623611450195,-466,8158.0,41.56633377075195,589,9997.0
12430,0.3602139353752136,-31.773775100708008,-581,8158.0,34.52839279174805,604,9997.0
12440,0.36070626974105835,-24.409271240234375,-334,8158.0,25.396007537841797,303,9997.0
12450,0.3610217571258545,-8.783098220825195,-85,8158.0,7.892790794372559,27,9997.0
12460,0.3610069155693054,8.225774765014648,146,8158.0,-5.7800445556640625,-98,9997.0
12470,0.3608415126800537,20.38542366027832,411,8158.0,-20.78211784362793,-479,9997.0
12480,0.361407995223999,22.528669357299805,367,8158.0,-31.461931228637695,-534,9997.0
12490,0.3611047565937042,14.140840530395508,108,8158.0,-33.335784912109375,-416,9997.0
12500,0.3611297905445099,-8.07717514038086,-191,8158.0,-25.32209587097168,-369,9997.0
12510,0.3610738515853882,-18.231731414794922,-260,8158.0,-19.96510124206543,-427,9997.0
12520,0.36224365234375,-22.301820755004883,-334,8158.0,-22.22840690612793,-442,9997.0
12530,0.36248064041137695,-17.596689224243164,-295,8158.0,-26.295103073120117,-361,9997.0
12540,0.36254164576530457,-7.3715105056762695,-24,8158.0,-12.675347328186035,-54,9997.0
12550,0.3626905083656311,3.1912734508514404,120,8158.0,13.382207870483398,247,9997.0
12560,0.362723708152771,7.878783702850342,159,8158.0,28.953475952148438,378,9997.0
12570,0.3611671030521393,-1.0151760578155518,-99,8158.0,33.09172439575195,501,9997.0
12580,0.3610262870788574,-10.327254295349121,-234,8158.0,29.549762725830078,464,9997.0
12590,0.36064791679382324,-17.73524284362793,-317,8158.0,20.836835861206055,274,9997.0
12600,0.36011210083961487,-31.521835327148438,-520,8158.0,14.455144882202148,127,9997.0
12610,0.3589518964290619,-34.02392578125,-513,8158.0,2.70812726020813,1,9997.0
12620,0.35812830924987793,-12.848453521728516,-23,8158.0,-17.36585807800293,-505,9997.0
12630,0.35720744729042053,9.252058029174805,201,8158.0,-35.30794906616211,-579,9997.0
12640,0.35621899366378784,26.413015365600586,515,8158.0,-44.2175178527832,-619,9997.0
12650,0.3552199602127075,38.12614440917969,643,8158.0,-36.723209381103516,-554,9997.0
12660,0.35526224970817566,29.7708797454834,352,8158.0,-19.158977508544922,-170,9997.0
12670,0.3542274534702301,12.892204284667969,52,8158.0,-6.574707984924316,-10,9997.0
12680,0.35328546166419983,-12.353994369506836,-287,8158.0,-4.480626106262207,-177,9997.0
12690,0.35248103737831116,-22.407325744628906,-319,8158.0,-7.209995746612549,-202,9997.0
12700,0.3511527180671692,-27.669063568115234,-562,8158.0,-12.562235832214355,-94,9997.0
12710,0.3505318760871887,-37.48902893066406,-617,8158.0,-11.706876754760742,-236,9997.0
12720,0.349952757358551,-37.77371597290039,-505,8158.0,-16.141645431518555,-285,9997.0
12730,0.34945976734161377,-10.948784828186035,-82,8158.0,-9.038060188293457,-77,9997.0
12740,0.3508392572402954,17.47509765625,453,8158.0,6.416865825653076,110,9997.0
12750,0.35087233781814575,41.90742111206055,712,8158.0,17.90308380126953,395,9997.0
12760,0.3507593274116516,49.78656768798828,831,8158.0,24.432104110717773,396,9997.0
12770,0.3504200875759125,38.075408935546875,458,8158.0,26.184749603271484,514,9997.0
12780,0.35065221786499023,12.458513259887695,163,8158.0,20.47919273376465,210,9997.0
12790,0.35123953223228455,-8.550871849060059,-272,8158.0,7.795629978179932,198,9997.0
12800,0.35094326734542847,-16.112224578857422,-235,8158.0,-6.3877272605896,-268,9997.0
12810,0.3507298529148102,-17.142601013183594,-285,8158.0,-29.945842742919922,-556,9997.0
12820,0.3503730595111847,-13.020572662353516,-157,8158.0,-43.3653564453125,-741,9997.0
12830,0.3510666489601135,-6.171877861022949,-111,8158.0,-41.1263542175293,-645,9997.0
12840,0.35082122683525085,-2.793381929397583,-96,8158.0,-29.884952545166016,-342,9997.0
12850,0.3506985902786255,0.846525251865387,101,8158.0,-12.310687065124512,-239,9997.0
12860,0.35082846879959106,1.2539869546890259,-43,8158.0,-0.8099884390830994,164,9997.0
12870,0.35133203864097595,-5.179314136505127,-113,8158.0,13.378406524658203,250,9997.0
12880,0.3515385687351227,-18.64024543762207,-359,8158.0,18.966026306152344,287,9997.0
12890,0.35169652104377747,-28.109968185424805,-546,8158.0,21.54991912841797,421,9997.0
12900,0.35205456614494324,-26.910686492919922,-421,8158.0,20.30581283569336,311,9997.0
12910,0.3522104024887085,-13.291152954101562,-136,8158.0,24.34953498840332,451,9997.0
12920,0.35276126861572266,15.957634925842285,372,8158.0,21.45176124572754,406,9997.0
12930,0.3530152440071106,36.46598815917969,703,8158.0,21.206323623657227,221,9997.0
12940,0.35315123200416565,38.900203704833984,562,8158.0,19.68098258972168,400,9997.0
12950,0.3532906174659729,31.627960205078125,551,8158.0,15.589101791381836,156,9997.0
12960,0.35507115721702576,26.025466918945312,332,8158.0,2.0609562397003174,78,9997.0
12970,0.3550906181335449,20.395423889160156,390,8158.0,-14.433019638061523,-363,9997.0
12980,0.3552612066268921,13.308889389038086,109,8158.0,-29.959413528442383,-482,9997.0
12990,0.35543665289878845,0.2219638079404831,-3,8158.0,-43.37277603149414,-860,9997.0
13000,0.35553380846977234,-8.385467529296875,-201,8158.0,-41.11133575439453,-599,9997.0
13010,0.3579472601413727,-14.752267837524414,-271,8158.0,-24.494495391845703,-289,9997.0
13020,0.3585914075374603,-9.794694900512695,-75,8158.0,-15.590106964111328,-295,9997.0
13030,0.35906699299812317,-2.116135358810425,-67,8158.0,-4.314179420471191,18,9997.0
13040,0.3598187267780304,4.1021504402160645,112,8158.0,7.764437198638916,175,9997.0
13050,0.3597831130027771,7.3028998374938965,190,8158.0,19.902034759521484,345,9997.0
13060,0.3606100380420685,10.274401664733887,76,8158.0,37.967899322509766,742,9997.0
13070,0.36132124066352844,12.878308296203613,302,8158.0,43.60240936279297,618,9997.0
13080,0.36189600825309753,21.168241500854492,353,8158.0,42.52509307861328,652,9997.0
13090,0.3610248565673828,21.996549606323242,260,8158.0,30.735225677490234,553,9997.0
13100,0.3613976538181305,11.342177391052246,154,8158.0,21.84760284423828,201,9997.0
13110,0.36179405450820923,-0.7778974771499634,-100,8158.0,7.431430339813232,87,9997.0
13120,0.3620193302631378,-4.811093330383301,-62,8158.0,-6.654803276062012,-229,9997.0
13130,0.36225152015686035,-5.645413875579834,-99,8158.0,-18.19015121459961,-358,9997.0
13140,0.36259397864341736,-6.198389530181885,-112,8158.0,-30.945844650268555,-475,9997.0
13150,0.36252620816230774,-7.530864715576172,-69,8158.0,-37.07977294921875,-634,9997.0
13160,0.3625010848045349,-10.750725746154785,-189,8158.0,-32.07057571411133,-537,9997.0
13170,0.36245352029800415,-6.441024303436279,-128,8158.0,-24.57037925720215,-273,9997.0
13180,0.36021360754966736,-0.07165387272834778,28,8158.0,-11.436195373535156,-137,9997.0
13190,0.3600102365016937,2.9307875633239746,85,8158.0,-10.880422592163086,-225,9997.0
13200,0.35973116755485535,0.3330043852329254,-70,8158.0,-15.79312515258789,-312,9997.0
13210,0.3595369756221771,-2.4572315216064453,-75,8158.0,-25.45870590209961,-476,9997.0
13220,0.3592638373374939,-6.294229030609131,-44,8158.0,-38.36892318725586,-612,9997.0
13230,0.35728034377098083,3.1981101036071777,187,8158.0,-28.06098175048828,-391,9997.0
13240,0.35729876160621643,14.547684669494629,215,8158.0,-8.007308006286621,60,9997.0
13250,0.35732460021972656,16.84723663330078,229,8158.0,23.767728805541992,650,9997.0
13260,0.35713231563568115,12.805211067199707,177,8158.0,53.772674560546875,1065,9997.0
13270,0.3550716042518616,5.83454704284668,67,8158.0,71.90001678466797,1144,9997.0
13280,0.3545791506767273,-9.553897857666016,-243,8158.0,77.31851959228516,1128,9997.0
13290,0.3541739583015442,-20.210535049438477,-446,8158.0,59.97667694091797,846,9997.0
13300,0.35369670391082764,-29.73920440673828,-479,8158.0,31.94833755493164,220,9997.0
13310,0.35382726788520813,-33.883460998535156,-623,8158.0,-7.376899719238281,-368,9997.0
13320,0.3547102212905884,-33.38295364379883,-481,8158.0,-43.661964416503906,-911,9997.0
13330,0.3543469309806824,-28.343738555908203,-513,8158.0,-62.69163513183594,-975,9997.0
13340,0.3539479970932007,-19.65976333618164,-225,8158.0,-67.88525390625,-1211,9997.0
13350,0.35430648922920227,-8.95801830291748,-84,8158.0,-64.17169952392578,-1029,9997.0
13360,0.3525336682796478,6.961545467376709,166,8158.0,-52.0655403137207,-786,9997.0
13370,0.35227352380752563,17.298233032226562,356,8158.0,-35.0288200378418,-606,9997.0
13380,0.35249340534210205,20.76416015625,296,8158.0,-12.212372779846191,-122,9997.0
13390,0.3528011739253998,15.033340454101562,237,8158.0,15.64028549194336,502,9997.0
13400,0.3501408100128174,27.999841690063477,563,8158.0,43.42787551879883,691,9997.0
13410,0.3501266539096832,33.455078125,573,8158.0,64.4051513671875,1068,9997.0
13420,0.35011446475982666,27.180025100708008,284,8158.0,78.00547790527344,1359,9997.0
13430,0.3506152331829071,1.2359066009521484,-51,8158.0,71.68315887451172,1075,9997.0
13440,0.35059061646461487,-24.00343894958496,-448,8158.0,58.267879486083984,996,9997.0
13450,0.3490371108055115,-30.426443099975586,-426,8158.0,43.79393768310547,615,9997.0
13460,0.34884175658226013,-27.916852951049805,-454,8158.0,20.010770797729492,334,9997.0
13470,0.3486664593219757,-18.48650550842285,-137,8158.0,-1.7306020259857178,-187,9997.0
13480,0.3485059440135956,2.716907501220703,61,8158.0,-26.6439208984375,-422,9997.0
13490,0.34887805581092834,22.792829513549805,492,8158.0,-41.6456184387207,-750,9997.0
13500,0.34861743450164795,27.305431365966797,308,8158.0,-39.91259002685547,-581,9997.0
13510,0.34849393367767334,4.669467449188232,-46,8158.0,-40.64844512939453,-664,9997.0
13520,0.34846973419189453,-11.310163497924805,-189,8158.0,-37.247314453125,-680,9997.0
13530,0.348470002412796,-21.902589797973633,-398,8158.0,-33.77108383178711,-524,9997.0
13540,0.348844975233078,-26.18526840209961,-472,8158.0,-30.139909744262695,-389,9997.0
13550,0.3489568829536438,-28.505964279174805,-405,8158.0,-17.365753173828125,-207,9997.0
13560,0.3494538366794586,-28.122163772583008,-390,8158.0,9.881454467773438,264,9997.0
13570,0.3501671254634857,-18.795026779174805,-310,8158.0,42.35094451904297,838,9997.0
13580,0.350019633769989,-8.234427452087402,-98,8158.0,63.77629089355469,1165,9997.0
13590,0.3505336046218872,-1.0669106245040894,63,8158.0,71.54460906982422,1115,9997.0
13600,0.35120922327041626,4.5910186767578125,32,8158.0,61.881988525390625,1027,9997.0
13610,0.3516037166118622,4.457330703735352,154,8158.0,48.0239372253418,635,9997.0
13620,0.35286808013916016,5.017897605895996,-12,8158.0,28.711454391479492,456,9997.0
13630,0.3533504605293274,3.093634605407715,100,8158.0,8.548284530639648,-67,9997.0
13640,0.35387158393859863,3.3575260639190674,-18,8158.0,-13.109707832336426,-253,9997.0
13650,0.35429635643959045,8.778797149658203,215,8158.0,-31.158967971801758,-649,9997.0
13660,0.3546070158481598,11.87279987335205,188,8158.0,-40.8833122253418,-692,9997.0
13670,0.35597145557403564,14.799229621887207,241,8158.0,-38.0090446472168,-510,9997.0
13680,0.3565460741519928,13.868027687072754,276,8158.0,-26.617874145507812,-388,9997.0
13690,0.35715019702911377,2.7164134979248047,9,8158.0,-7.5100321769714355,-60,9997.0
13700,0.35795721411705017,-8.670930862426758,-183,8158.0,4.63992977142334,109,9997.0
13710,0.35648494958877563,-11.9271821975708,-265,8158.0,2.989593029022217,96,9997.0
13720,0.35713323950767517,-17.991756439208984,-339,8158.0,0.6092256307601929,-6,9997.0
13730,0.35792213678359985,-28.73455238342285,-457,8158.0,2.4688355922698975,-11,9997.0
13740,0.358630508184433,-30.693178176879883,-492,8158.0,9.305939674377441,178,9997.0
13750,0.35948896408081055,-35.09123229980469,-638,8158.0,18.128368377685547,374,9997.0
13760,0.3578956127166748,-35.185447692871094,-577,8158.0,21.29607391357422,425,9997.0
13770,0.35825565457344055,-22.032978057861328,-243,8158.0,29.565162658691406,469,9997.0
13780,0.3588016927242279,5.358094692230225,141,8158.0,26.39972496032715,504,9997.0
13790,0.3591916263103485,22.849409103393555,358,8158.0,21.8751163482666,435,9997.0
13800,0.3573753237724304,31.551755905151367,680,8158.0,16.793760299682617,134,9997.0
13810,0.3573726713657379,36.92671203613281,529,8158.0,5.469405174255371,56,9997.0
13820,0.3572290241718292,27.08111000061035,338,8158.0,-8.74089241027832,-209,9997.0
13830,0.3566637635231018,5.595047950744629,59,8158.0,-20.087488174438477,-460,9997.0
13840,0.3560848832130432,-4.750096797943115,-85,8158.0,-26.1160831451416,-435,9997.0
13850,0.35551950335502625,-3.039409637451172,-28,8158.0,-26.65513801574707,-301,9997.0
13860,0.35498374700546265,-1.8438584804534912,73,8158.0,-21.316518783569336,-411,9997.0
13870,0.3545811176300049,3.2638447284698486,163,8158.0,-24.95755386352539,-525,9997.0
13880,0.35431674122810364,13.453804969787598,187,8158.0,-38.50277328491211,-592,9997.0
13890,0.35253414511680603,23.87346839904785,466,8158.0,-34.15943145751953,-397,9997.0
13900,0.35231778025627136,26.76503562927246,418,8158.0,-9.905086517333984,-120,9997.0
13910,0.3522406816482544,10.700604438781738,52,8158.0,2.8471386432647705,91,9997.0
13920,0.35197606682777405,-14.806113243103027,-473,8158.0,7.158535957336426,178,9997.0
13930,0.3498706817626953,-43.033164978027344,-828,8158.0,13.183237075805664,330,9997.0
13940,0.3492933511734009,-48.0612907409668,-672,8158.0,23.24697494506836,328,9997.0
13950,0.3487815856933594,-25.7642879486084,-223,8158.0,31.877408981323242,581,9997.0
13960,0.34810227155685425,7.797933101654053,359,8158.0,34.47602844238281,470,9997.0
13970,0.34775492548942566,27.867107391357422,541,8158.0,27.3231143951416,414,9997.0
13980,0.34580492973327637,34.08930587768555,492,8158.0,4.771548748016357,-169,9997.0
13990,0.34511467814445496,25.54608917236328,408,8158.0,-17.687509536743164,-475,9997.0
14000,0.3443567454814911,11.430241584777832,87,8158.0,-39.816959381103516,-692,9997.0
14010,0.34372735023498535,-0.658963680267334,13,8158.0,-44.11431884765625,-779,9997.0
14020,0.3426436483860016,-1.874658226966858,-65,8158.0,-35.44852066040039,-433,9997.0
14030,0.3420675992965698,6.36991548538208,241,8158.0,-27.222509384155273,-515,9997.0
