timestamp,kalman.stateZ,gyro.x,gyro.xRaw,gyro.xVariance,gyro.y,gyro.yRaw,gyro.yVariance
0,0.3094927668571472,-2.3764755725860596,-44,6369.0,-6.919341087341309,-105,9930.0
10,0.3095661699771881,-3.9431514739990234,-69,6369.0,-6.049509048461914,-84,9930.0
20,0.3096447288990021,-5.128401279449463,-78,6369.0,-3.370570659637451,-43,9930.0
30,0.30977046489715576,-4.882670879364014,-75,6369.0,-0.243128702044487,25,9930.0
40,0.3098587095737457,-4.500595569610596,-67,6369.0,3.874101161956787,85,9930.0
50,0.3098941445350647,-3.767235517501831,-48,6369.0,7.670046806335449,158,9930.0
60,0.3099002242088318,-1.5267512798309326,-3,6369.0,11.667867660522461,217,9930.0
70,0.3098283112049103,2.078856945037842,53,6369.0,15.48303508758545,272,9930.0
80,0.3092461824417114,5.009259223937988,98,6369.0,17.617586135864258,285,9930.0
90,0.3091401755809784,6.317965507507324,105,6369.0,17.186996459960938,271,9930.0
100,0.3090571165084839,6.190357685089111,93,6369.0,14.99035358428955,223,9930.0
110,0.3089057505130768,3.330101251602173,43,6369.0,11.759026527404785,175,9930.0
120,0.3088358938694,-0.2889801263809204,-20,6369.0,7.736490249633789,107,9930.0
130,0.30887389183044434,-3.2910759449005127,-59,6369.0,4.289743423461914,48,9930.0
140,0.3089250922203064,-4.542204856872559,-77,6369.0,0.869106113910675,-3,9930.0
150,0.30901220440864563,-4.434399604797363,-70,6369.0,-1.9681622982025146,-50,9930.0
160,0.3096853196620941,-2.604560613632202,-30,6369.0,-4.412799835205078,-85,9930.0
170,0.30980899930000305,0.007558544632047415,20,6369.0,-6.951460838317871,-130,9930.0
180,0.3099057674407959,3.6741063594818115,76,6369.0,-10.4766206741333,-195,9930.0
190,0.309918075799942,5.518416881561279,97,6369.0,-18.320331573486328,-334,9930.0
200,0.30987992882728577,6.750055313110352,120,6369.0,-27.1616153717041,-502,9930.0
210,0.31082454323768616,5.40899658203125,60,6369.0,-41.0894660949707,-716,9930.0
220,0.3108695447444916,3.9256162643432617,56,6369.0,-53.266029357910156,-933,9930.0
230,0.31103941798210144,2.789898633956909,62,6369.0,-67.04097747802734,-1169,9930.0
240,0.31102481484413147,-2.5436227321624756,-22,6369.0,-78.29850769042969,-1344,9930.0
250,0.3104264438152313,-1.3342612981796265,-26,6369.0,-90.59825134277344,-1504,9930.0
260,0.3103753328323364,0.028859572485089302,17,6369.0,-98.03248596191406,-1644,9930.0
270,0.30994051694869995,0.9136157035827637,46,6369.0,-100.1181869506836,-1611,9930.0
280,0.30934542417526245,2.454258680343628,39,6369.0,-94.36001586914062,-1524,9930.0
290,0.3095255196094513,2.759073495864868,27,6369.0,-82.59508514404297,-1274,9930.0
300,0.31023991107940674,3.053544044494629,111,6369.0,-65.0665054321289,-1045,9930.0
310,0.30989140272140503,0.4259180724620819,-43,6369.0,-36.01927947998047,-365,9930.0
320,0.30918699502944946,0.782464325428009,50,6369.0,-4.136561870574951,130,9930.0
330,0.3099668323993683,1.5757068395614624,20,6369.0,31.612091064453125,566,9930.0
340,0.3125010132789612,1.5243693590164185,10,6369.0,54.916099548339844,1020,9930.0
350,0.3125678300857544,3.0857574939727783,67,6369.0,68.22977447509766,1167,9930.0
360,0.3127451241016388,5.035465717315674,106,6369.0,67.53659057617188,1052,9930.0
370,0.3131040334701538,8.480754852294922,139,6369.0,57.88202667236328,883,9930.0
380,0.3126583993434906,11.087032318115234,171,6369.0,38.72779846191406,511,9930.0
390,0.3127252459526062,11.075927734375,144,6369.0,10.707733154296875,165,9930.0
400,0.313137024641037,6.365627288818359,132,6369.0,-17.110027313232422,-342,9930.0
410,0.3134976625442505,3.307488441467285,26,6369.0,-43.65078353881836,-913,9930.0
420,0.3139277696609497,1.9627290964126587,14,6369.0,-65.90097045898438,-1231,9930.0
430,0.3120902180671692,1.3727507591247559,55,6369.0,-81.2159652709961,-1395,9930.0
440,0.3120245933532715,2.2950079441070557,88,6369.0,-87.79557037353516,-1421,9930.0
450,0.3131941258907318,3.5027496814727783,101,6369.0,-83.90850830078125,-1422,9930.0
460,0.31305477023124695,3.692384719848633,103,6369.0,-70.85857391357422,-1248,9930.0
470,0.315804123878479,0.15150485932826996,26,6369.0,-50.55092239379883,-750,9930.0
480,0.3163461685180664,-3.9359145164489746,-80,6369.0,-25.530296325683594,-306,9930.0
490,0.31675416231155396,-8.181066513061523,-162,6369.0,-1.0604974031448364,123,9930.0
500,0.31746822595596313,-13.08189868927002,-271,6369.0,16.785781860351562,532,9930.0
510,0.3185139298439026,-17.058427810668945,-369,6369.0,28.99066162109375,613,9930.0
520,0.319180965423584,-22.713563919067383,-483,6369.0,36.99890899658203,532,9930.0
530,0.3197762668132782,-28.700597763061523,-420,6369.0,45.64755630493164,579,9930.0
540,0.3202928304672241,-24.771854400634766,-322,6369.0,47.651405334472656,818,9930.0
550,0.32062670588493347,-4.0706868171691895,-30,6369.0,47.406246185302734,832,9930.0
560,0.32008498907089233,14.8344144821167,397,6369.0,47.44932556152344,787,9930.0
570,0.320546954870224,30.874271392822266,574,6369.0,40.12271499633789,610,9930.0
580,0.3209601938724518,36.7315559387207,691,6369.0,28.083112716674805,416,9930.0
590,0.3212539553642273,28.690343856811523,458,6369.0,22.554691314697266,168,9930.0
600,0.3180427551269531,20.076473236083984,427,6369.0,12.54531192779541,-28,9930.0
610,0.3185078501701355,8.272092819213867,132,6369.0,5.320872783660889,-153,9930.0
620,0.31887581944465637,-3.8548777103424072,6,6369.0,-0.29752635955810547,-347,9930.0
630,0.3192192614078522,-17.190881729125977,-207,6369.0,-8.35173511505127,-425,9930.0
640,0.31952887773513794,-22.8847599029541,-291,6369.0,-16.401508331298828,-529,9930.0
650,0.3158944249153137,-20.298912048339844,-233,6369.0,-23.340063095092773,-576,9930.0
660,0.3162091076374054,-16.712453842163086,-150,6369.0,-29.702838897705078,-521,9930.0
670,0.3165533244609833,-6.496381759643555,-26,6369.0,-32.996925354003906,-394,9930.0
680,0.3169388175010681,2.611999034881592,41,6369.0,-30.48093605041504,-299,9930.0
690,0.31586092710494995,10.897233963012695,116,6369.0,-25.286975860595703,-169,9930.0
700,0.3170466721057892,12.700570106506348,150,6369.0,-17.24649429321289,-140,9930.0
710,0.3176894187927246,9.348776817321777,189,6369.0,-8.069846153259277,-199,9930.0
720,0.3182239532470703,7.534647464752197,86,6369.0,-1.9296269416809082,-205,9930.0
730,0.31861671805381775,4.822782516479492,94,6369.0,-1.5631484985351562,-126,9930.0
740,0.3182915449142456,5.085434913635254,66,6369.0,-6.710658550262451,-114,9930.0
750,0.31857797503471375,3.5838210582733154,-7,6369.0,-16.4925594329834,-254,9930.0
760,0.3188926875591278,-3.821162462234497,-127,6369.0,-26.595186233520508,-341,9930.0
770,0.3192545175552368,-7.201817512512207,-167,6369.0,-25.03451156616211,-510,9930.0
780,0.31935134530067444,-13.547664642333984,-90,6369.0,-18.260211944580078,-485,9930.0
790,0.3194867670536041,-12.462103843688965,-159,6369.0,-10.019237518310547,-104,9930.0
800,0.31959840655326843,-12.237820625305176,-93,6369.0,5.2991437911987305,228,9930.0
810,0.3199125826358795,-2.8066565990448,-89,6369.0,21.254776000976562,511,9930.0
820,0.3205365836620331,-1.5891759395599365,51,6369.0,42.764793395996094,947,9930.0
830,0.3205755949020386,5.265117168426514,32,6369.0,52.921852111816406,1039,9930.0
840,0.32050156593322754,5.888044357299805,89,6369.0,59.169700622558594,1027,9930.0
850,0.3203085958957672,10.082551956176758,207,6369.0,56.631317138671875,874,9930.0
860,0.3201087713241577,12.00393295288086,286,6369.0,43.64566421508789,606,9930.0
870,0.3189120292663574,12.524563789367676,154,6369.0,25.704309463500977,444,9930.0
880,0.319192111492157,6.640054225921631,-57,6369.0,6.264736175537109,229,9930.0
890,0.31952404975891113,-3.184931755065918,-256,6369.0,-15.289942741394043,-185,9930.0
900,0.3199111223220825,-16.96334457397461,-371,6369.0,-39.42127227783203,-701,9930.0
910,0.3178369402885437,-19.766109466552734,-320,6369.0,-58.26288604736328,-1048,9930.0
920,0.3181954324245453,-14.39553165435791,-123,6369.0,-68.78797149658203,-1139,9930.0
930,0.31859567761421204,-7.577985763549805,-67,6369.0,-60.23590850830078,-893,9930.0
940,0.31879130005836487,0.5202183723449707,78,6369.0,-43.889739990234375,-774,9930.0
950,0.3189077377319336,11.433661460876465,262,6369.0,-26.530397415161133,-334,9930.0
960,0.31880900263786316,15.673398971557617,168,6369.0,-5.0256829261779785,15,9930.0
970,0.31911876797676086,14.44960880279541,224,6369.0,6.146822452545166,181,9930.0
980,0.31911972165107727,10.094943046569824,102,6369.0,8.378748893737793,302,9930.0
990,0.31914448738098145,6.141778469085693,82,6369.0,8.852418899536133,220,9930.0
1000,0.32015934586524963,6.112072944641113,106,6369.0,11.305026054382324,418,9930.0
1010,0.32005950808525085,4.884456634521484,-11,6369.0,17.714860916137695,414,9930.0
1020,0.3199281394481659,2.311250686645508,54,6369.0,25.583797454833984,603,9930.0
1030,0.31971174478530884,5.34183931350708,11,6369.0,30.13571548461914,511,9930.0
1040,0.3188425302505493,2.25359845161438,12,6369.0,29.041912078857422,534,9930.0
1050,0.31824496388435364,0.45127442479133606,-80,6369.0,30.936315536499023,607,9930.0
1060,0.3176056444644928,-0.15685226023197174,-45,6369.0,27.560277938842773,341,9930.0
1070,0.31701716780662537,-4.865474700927734,-89,6369.0,22.409494400024414,315,9930.0
1080,0.3163023889064789,-9.278786659240723,-142,6369.0,14.293352127075195,46,9930.0
1090,0.31647124886512756,-7.174774169921875,-13,6369.0,5.598891735076904,90,9930.0
1100,0.31612077355384827,-2.5482449531555176,-88,6369.0,2.758185625076294,91,9930.0
1110,0.31584063172340393,1.1024253368377686,80,6369.0,-0.5992342233657837,-24,9930.0
1120,0.3157387971878052,4.379987716674805,30,6369.0,-10.732832908630371,-353,9930.0
1130,0.3159608840942383,8.8975248336792,196,6369.0,-27.2526912689209,-602,9930.0
1140,0.3163642883300781,6.991401672363281,128,6369.0,-34.5197639465332,-557,9930.0
1150,0.3169625699520111,5.793609619140625,82,6369.0,-35.53668975830078,-565,9930.0
1160,0.31787925958633423,3.9808404445648193,21,6369.0,-27.198219299316406,-275,9930.0
1170,0.31877702474594116,4.880911350250244,63,6369.0,-14.33082103729248,-116,9930.0
1180,0.3195587396621704,3.315260648727417,-67,6369.0,-2.7859582901000977,79,9930.0
1190,0.3204706907272339,-4.479406833648682,-113,6369.0,5.87165641784668,284,9930.0
1200,0.3211689591407776,-13.48773193359375,-307,6369.0,15.453946113586426,311,9930.0
1210,0.3218265771865845,-21.179569244384766,-437,6369.0,23.202857971191406,531,9930.0
1220,0.3218262195587158,-23.768415451049805,-404,6369.0,25.153358459472656,303,9930.0
1230,0.3225462734699249,-22.3956241607666,-315,6369.0,16.58107566833496,166,9930.0
1240,0.32315829396247864,-16.069746017456055,-183,6369.0,1.5173848867416382,-10,9930.0
1250,0.3236110210418701,-10.724739074707031,-97,6369.0,-7.372369766235352,-23,9930.0
1260,0.3238692581653595,-1.3990370035171509,-53,6369.0,-11.544278144836426,-129,9930.0
1270,0.3238646686077118,6.748022556304932,204,6369.0,-11.010479927062988,-219,9930.0
1280,0.3238855004310608,20.175233840942383,450,6369.0,-6.4486613273620605,-190,9930.0
1290,0.32386380434036255,40.062374114990234,828,6369.0,-1.402045726776123,56,9930.0
1300,0.3236258625984192,48.439903259277344,746,6369.0,7.366536617279053,126,9930.0
1310,0.32316988706588745,44.25509262084961,582,6369.0,7.591808319091797,219,9930.0
1320,0.32318586111068726,25.2246036529541,298,6369.0,8.951225280761719,99,9930.0
1330,0.32286661863327026,0.39874017238616943,-52,6369.0,7.936023712158203,-13,9930.0
1340,0.3227757215499878,-21.93058204650879,-485,6369.0,7.400904655456543,74,9930.0
1350,0.3225303590297699,-35.872432708740234,-588,6369.0,6.976188659667969,263,9930.0
1360,0.32243338227272034,-36.599361419677734,-632,6369.0,5.215693473815918,20,9930.0
1370,0.32242172956466675,-30.34992218017578,-446,6369.0,0.6893022656440735,-62,9930.0
1380,0.32245007157325745,-21.961822509765625,-239,6369.0,-5.007131099700928,16,9930.0
1390,0.32170090079307556,-7.165725231170654,-100,6369.0,-10.464802742004395,-240,9930.0
1400,0.32218137383461,3.3915443420410156,91,6369.0,-16.159738540649414,-284,9930.0
1410,0.322776734828949,9.719183921813965,224,6369.0,-20.42715072631836,-444,9930.0
1420,0.3235498070716858,11.184663772583008,176,6369.0,-17.796796798706055,-196,9930.0
1430,0.32441359758377075,8.986620903015137,118,6369.0,-10.426224708557129,-58,9930.0
1440,0.3248063623905182,2.2385413646698,-29,6369.0,-1.1074788570404053,-147,9930.0
1450,0.325778603553772,-4.344809532165527,-28,6369.0,3.716073513031006,98,9930.0
1460,0.3266258239746094,-4.891504764556885,-31,6369.0,2.853212594985962,40,9930.0
1470,0.327468603849411,-2.464684009552002,-105,6369.0,-4.5569281578063965,-68,9930.0
1480,0.3289865553379059,-1.1144365072250366,1,6369.0,-8.108460426330566,-22,9930.0
1490,0.3298506736755371,-3.146780252456665,-25,6369.0,2.955991744995117,-72,9930.0
1500,0.3306375741958618,-1.620209813117981,18,6369.0,17.674423217773438,407,9930.0
1510,0.33125194907188416,-1.9642276763916016,43,6369.0,27.548709869384766,522,9930.0
1520,0.33167698979377747,-3.6095943450927734,-165,6369.0,29.00609588623047,479,9930.0
1530,0.33041414618492126,-2.999396800994873,37,6369.0,22.20991325378418,301,9930.0
1540,0.33081039786338806,5.713606834411621,217,6369.0,10.098189353942871,76,9930.0
1550,0.3307897746562958,17.515615463256836,231,6369.0,-0.569199800491333,84,9930.0
1560,0.3305596113204956,22.486507415771484,389,6369.0,-4.808127403259277,-202,9930.0
1570,0.32898440957069397,20.123332977294922,284,6369.0,-10.813396453857422,-256,9930.0
1580,0.3284706473350525,10.942313194274902,93,6369.0,-17.231735229492188,-159,9930.0
1590,0.3279276192188263,-4.556918144226074,-162,6369.0,-16.755313873291016,-271,9930.0
1600,0.3274312913417816,-21.347166061401367,-468,6369.0,-10.304021835327148,-246,9930.0
1610,0.32391971349716187,-29.484027862548828,-397,6369.0,-5.646583557128906,-69,9930.0
1620,0.3233141601085663,-29.854429244995117,-427,6369.0,-0.34614989161491394,19,9930.0
1630,0.3228835463523865,-19.45375633239746,-338,6369.0,3.055330514907837,95,9930.0
1640,0.32271507382392883,-4.175306797027588,40,6369.0,3.099813222885132,-97,9930.0
1650,0.32271501421928406,7.2915873527526855,221,6369.0,-3.705902338027954,-89,9930.0
1660,0.3218174874782562,19.0100040435791,231,6369.0,-10.5376615524292,-104,9930.0
1670,0.32196691632270813,18.62932777404785,306,6369.0,-16.716962814331055,-359,9930.0
1680,0.3221139907836914,15.70199966430664,302,6369.0,-18.826204299926758,-376,9930.0
1690,0.32298001646995544,11.958843231201172,137,6369.0,-16.0429744720459,-139,9930.0
1700,0.32441598176956177,5.173949241638184,66,6369.0,-4.566983699798584,103,9930.0
1710,0.3250056505203247,-4.006299018859863,-142,6369.0,12.24726390838623,161,9930.0
1720,0.325695663690567,-15.128052711486816,-351,6369.0,24.70681381225586,392,9930.0
1730,0.32632702589035034,-27.816421508789062,-441,6369.0,29.71861457824707,499,9930.0
1740,0.32564905285835266,-36.58031463623047,-610,6369.0,29.28636360168457,446,9930.0
1750,0.3257434666156769,-33.4476203918457,-516,6369.0,21.82596206665039,276,9930.0
1760,0.3258920907974243,-19.383684158325195,-188,6369.0,6.13438606262207,66,9930.0
1770,0.3264397084712982,-0.7428747415542603,-13,6369.0,-9.024057388305664,-256,9930.0
1780,0.32683250308036804,15.077838897705078,382,6369.0,-20.158811569213867,-263,9930.0
1790,0.32729268074035645,32.66348648071289,529,6369.0,-28.275293350219727,-586,9930.0
1800,0.3270028233528137,40.431358337402344,728,6369.0,-38.19735336303711,-651,9930.0
1810,0.3263658583164215,41.99414825439453,670,6369.0,-46.47911071777344,-657,9930.0
1820,0.3260027766227722,40.59507751464844,625,6369.0,-43.951820373535156,-809,9930.0
1830,0.3272256553173065,29.799701690673828,464,6369.0,-30.451780319213867,-528,9930.0
1840,0.32605791091918945,15.225796699523926,160,6369.0,-9.478556632995605,17,9930.0
1850,0.32527658343315125,-0.516920804977417,-118,6369.0,9.311573028564453,279,9930.0
1860,0.32482579350471497,-16.445043563842773,-378,6369.0,22.02840232849121,441,9930.0
1870,0.3243539333343506,-25.64581298828125,-359,6369.0,34.491302490234375,618,9930.0
1880,0.32391220331192017,-22.896116256713867,-263,6369.0,40.87742614746094,655,9930.0
1890,0.323260635137558,-11.03805923461914,-111,6369.0,41.62486267089844,718,9930.0
1900,0.3228707015514374,5.433088779449463,92,6369.0,33.77043914794922,357,9930.0
1910,0.3223840296268463,8.710186958312988,212,6369.0,21.252485275268555,357,9930.0
1920,0.3216448426246643,3.7198941707611084,-10,6369.0,8.122641563415527,109,9930.0
1930,0.32156723737716675,-7.889679908752441,-147,6369.0,-1.8327984809875488,-236,9930.0
1940,0.3217512369155884,-15.809967041015625,-293,6369.0,-15.077178001403809,-309,9930.0
1950,0.3223818242549896,-19.13720703125,-292,6369.0,-28.5445613861084,-460,9930.0
1960,0.3229745924472809,-16.72185516357422,-298,6369.0,-33.915977478027344,-620,9930.0
1970,0.32535773515701294,-11.002666473388672,-120,6369.0,-30.83582878112793,-463,9930.0
1980,0.3264232277870178,-7.817162036895752,-99,6369.0,-22.079418182373047,-244,9930.0
1990,0.32743799686431885,-11.063807487487793,-285,6369.0,-8.558676719665527,61,9930.0
2000,0.3283471465110779,-18.13812255859375,-372,6369.0,12.162717819213867,302,9930.0
2010,0.3295277953147888,-27.565156936645508,-407,6369.0,28.80999183654785,419,9930.0
2020,0.33026719093322754,-28.718952178955078,-430,6369.0,37.66981887817383,703,9930.0
2030,0.33073654770851135,-11.989659309387207,-70,6369.0,42.21046447753906,737,9930.0
2040,0.3312547206878662,8.390392303466797,243,6369.0,43.64654541015625,559,9930.0
2050,0.3310127854347229,22.97705841064453,455,6369.0,33.660186767578125,621,9930.0
2060,0.3312974274158478,42.401851654052734,844,6369.0,24.059659957885742,224,9930.0
2070,0.3313277065753937,56.3942756652832,1036,6369.0,7.980236053466797,117,9930.0
2080,0.331024169921875,63.023658752441406,974,6369.0,-6.366480827331543,-137,9930.0
2090,0.33103427290916443,58.890525817871094,921,6369.0,-20.132780075073242,-446,9930.0
2100,0.3297380805015564,40.16864776611328,630,6369.0,-31.374109268188477,-450,9930.0
2110,0.3291661739349365,11.338187217712402,17,6369.0,-33.8740234375,-471,9930.0
2120,0.3289330303668976,-18.625282287597656,-496,6369.0,-24.980127334594727,-348,9930.0
2130,0.3285728693008423,-39.42110824584961,-732,6369.0,-11.865478515625,-220,9930.0
2140,0.32712239027023315,-48.24856948852539,-725,6369.0,5.025070667266846,137,9930.0
2150,0.326617956161499,-43.70285415649414,-594,6369.0,19.213712692260742,379,9930.0
2160,0.3262123465538025,-34.60425567626953,-615,6369.0,22.45040512084961,453,9930.0
2170,0.32581251859664917,-23.62752342224121,-367,6369.0,18.001619338989258,203,9930.0
2180,0.32563456892967224,-11.702919006347656,-76,6369.0,6.264974594116211,91,9930.0
2190,0.32537248730659485,-0.16737230122089386,-40,6369.0,-2.254894971847534,-25,9930.0
2200,0.32573527097702026,6.614222049713135,165,6369.0,-10.459553718566895,-294,9930.0
2210,0.3263804614543915,6.575009822845459,71,6369.0,-21.54207420349121,-384,9930.0
2220,0.32713744044303894,2.1929445266723633,-25,6369.0,-32.30177688598633,-496,9930.0
2230,0.3263794779777527,-0.37896284461021423,47,6369.0,-42.11224365234375,-869,9930.0
2240,0.3271375894546509,0.29914987087249756,3,6369.0,-49.09650421142578,-854,9930.0
2250,0.32787126302719116,1.528922200202942,15,6369.0,-45.66260528564453,-547,9930.0
2260,0.3285660743713379,-3.9963271617889404,-107,6369.0,-32.925819396972656,-494,9930.0
2270,0.32949861884117126,-4.111387252807617,-80,6369.0,-25.251420974731445,-459,9930.0
2280,0.3300402760505676,0.9357922077178955,177,6369.0,-13.914158821105957,-194,9930.0
2290,0.33058473467826843,11.143082618713379,296,6369.0,0.3849673271179199,111,9930.0
2300,0.33093759417533875,22.10643196105957,255,6369.0,9.18802547454834,315,9930.0
2310,0.3311108648777008,22.695838928222656,322,6369.0,23.861421585083008,432,9930.0
2320,0.3320523202419281,23.476909637451172,462,6369.0,34.51689910888672,544,9930.0
2330,0.3316091299057007,22.98894691467285,427,6369.0,40.660926818847656,628,9930.0
2340,0.3310246169567108,17.88905906677246,240,6369.0,38.321136474609375,721,9930.0
2350,0.3306117057800293,3.907622814178467,-49,6369.0,30.36336326599121,496,9930.0
2360,0.3295154273509979,-15.56904125213623,-266,6369.0,17.36420249938965,42,9930.0
2370,0.3292311728000641,-26.462871551513672,-448,6369.0,-1.9962595701217651,-71,9930.0
2380,0.3287731111049652,-24.238521575927734,-313,6369.0,-26.496692657470703,-506,9930.0
2390,0.3283980190753937,-11.960601806640625,-188,6369.0,-49.05340576171875,-1009,9930.0
2400,0.32585152983665466,-0.024311572313308716,128,6369.0,-61.06553649902344,-993,9930.0
2410,0.3257216215133667,11.092419624328613,215,6369.0,-58.12388610839844,-876,9930.0
2420,0.3256699740886688,8.333255767822266,17,6369.0,-43.34809112548828,-557,9930.0
2430,0.325681209564209,-2.9824600219726562,-167,6369.0,-23.548974990844727,-253,9930.0
2440,0.3280225396156311,-17.222736358642578,-299,6369.0,0.5654069185256958,108,9930.0
2450,0.32924884557724,-28.30206871032715,-389,6369.0,27.578096389770508,392,9930.0
2460,0.3303462862968445,-28.179445266723633,-399,6369.0,37.608375549316406,573,9930.0
2470,0.33142244815826416,-20.29039192199707,-234,6369.0,38.90864944458008,694,9930.0
2480,0.33258238434791565,-7.671123504638672,-136,6369.0,34.549251556396484,602,9930.0
2490,0.33187630772590637,-2.3112192153930664,-60,6369.0,30.11880111694336,457,9930.0
2500,0.33305981755256653,-0.08878430724143982,110,6369.0,19.639320373535156,120,9930.0
2510,0.33424094319343567,5.386007308959961,47,6369.0,6.327049255371094,163,9930.0
2520,0.3352861702442169,11.2456636428833,216,6369.0,-3.967761278152466,-105,9930.0
2530,0.33634674549102783,19.555570602416992,335,6369.0,-9.35285472869873,-176,9930.0
2540,0.3336926996707916,27.696195602416992,546,6369.0,-7.479536533355713,-137,9930.0
2550,0.3339470326900482,33.3222770690918,544,6369.0,3.1840081214904785,138,9930.0
2560,0.33383652567863464,40.28492736816406,615,6369.0,19.912752151489258,517,9930.0
2570,0.3338090479373932,41.503944396972656,658,6369.0,33.52471160888672,598,9930.0
2580,0.33180034160614014,31.519878387451172,432,6369.0,45.62155532836914,634,9930.0
2590,0.3313540518283844,14.333404541015625,165,6369.0,49.369014739990234,843,9930.0
2600,0.3309692144393921,-6.717447280883789,-220,6369.0,43.842098236083984,591,9930.0
2610,0.3303948640823364,-32.863285064697266,-788,6369.0,20.134620666503906,163,9930.0
2620,0.3295665681362152,-57.1717414855957,-976,6369.0,1.4651246070861816,-101,9930.0
2630,0.326429545879364,-64.6922836303711,-978,6369.0,-10.883468627929688,-260,9930.0
2640,0.3260977864265442,-48.52687072753906,-676,6369.0,-20.773590087890625,-334,9930.0
2650,0.3255026936531067,-17.207914352416992,17,6369.0,-25.577442169189453,-520,9930.0
2660,0.3252347409725189,16.332468032836914,369,6369.0,-33.553287506103516,-505,9930.0
2670,0.32355210185050964,36.61246871948242,684,6369.0,-33.19620132446289,-568,9930.0
2680,0.32360777258872986,42.216896057128906,655,6369.0,-23.236223220825195,-313,9930.0
2690,0.32384350895881653,32.99718475341797,421,6369.0,-9.060160636901855,23,9930.0
2700,0.32445579767227173,19.0465087890625,229,6369.0,3.490279197692871,137,9930.0
2710,0.3245903551578522,7.683291912078857,-20,6369.0,9.018441200256348,222,9930.0
2720,0.32515227794647217,0.9645634889602661,-10,6369.0,6.965266227722168,53,9930.0
2730,0.32565805315971375,-5.331674575805664,-31,6369.0,6.179804801940918,100,9930.0
2740,0.3261917531490326,-13.069727897644043,-221,6369.0,19.295072555541992,341,9930.0
2750,0.32654905319213867,-11.141767501831055,-191,6369.0,24.03289031982422,508,9930.0
2760,0.327386736869812,-8.506580352783203,-132,6369.0,20.85261344909668,339,9930.0
2770,0.32758668065071106,-1.737131118774414,35,6369.0,20.134458541870117,166,9930.0
2780,0.3274229168891907,8.69451904296875,186,6369.0,9.141353607177734,242,9930.0
2790,0.32711875438690186,14.59811019897461,222,6369.0,4.282609462738037,40,9930.0
2800,0.3258473575115204,14.426548957824707,217,6369.0,2.829559326171875,-60,9930.0
2810,0.32518941164016724,11.617431640625,150,6369.0,-3.8807568550109863,30,9930.0
2820,0.3242219090461731,2.5804038047790527,-16,6369.0,-12.535604476928711,-265,9930.0
2830,0.32319125533103943,-3.489420175552368,-142,6369.0,-22.62206268310547,-521,9930.0
2840,0.32210150361061096,-10.008344650268555,-93,6369.0,-29.40283966064453,-422,9930.0
2850,0.32294923067092896,-14.275604248046875,-236,6369.0,-33.911376953125,-520,9930.0
2860,0.32193872332572937,-10.31231689453125,-239,6369.0,-33.65798568725586,-598,9930.0
2870,0.32120221853256226,-6.968148231506348,-25,6369.0,-29.48263931274414,-498,9930.0
2880,0.32028281688690186,-1.4153599739074707,33,6369.0,-24.807300567626953,-287,9930.0
2890,0.3209787607192993,-5.656552314758301,-158,6369.0,-13.801630020141602,-86,9930.0
2900,0.3202272653579712,-6.260141849517822,-163,6369.0,-1.6847033500671387,-80,9930.0
2910,0.31972286105155945,-3.9502384662628174,-11,6369.0,7.985397815704346,172,9930.0
2920,0.3194446861743927,-3.39802885055542,31,6369.0,21.17287254333496,437,9930.0
2930,0.32237428426742554,-3.757744789123535,-122,6369.0,27.60833740234375,474,9930.0
2940,0.32262754440307617,-6.787962913513184,-175,6369.0,23.359548568725586,231,9930.0
2950,0.3230617046356201,-10.666138648986816,-106,6369.0,11.716900825500488,134,9930.0
2960,0.32352811098098755,-10.412285804748535,-147,6369.0,-2.407655715942383,-14,9930.0
2970,0.32409796118736267,-8.059847831726074,-222,6369.0,-9.975238800048828,-307,9930.0
2980,0.32451167702674866,-10.690228462219238,-112,6369.0,-16.03369903564453,-298,9930.0
2990,0.3249250054359436,-16.704505920410156,-315,6369.0,-22.333532333374023,-308,9930.0
3000,0.32524460554122925,-20.4738826751709,-397,6369.0,-19.55507469177246,-339,9930.0
3010,0.3253825008869171,-16.864816665649414,-130,6369.0,-17.64507293701172,-353,9930.0
3020,0.32675865292549133,-3.9892897605895996,-13,6369.0,-10.631820678710938,-45,9930.0
3030,0.32690104842185974,11.086816787719727,178,6369.0,0.7556540369987488,64,9930.0
3040,0.3270953297615051,25.948976516723633,551,6369.0,9.218564987182617,-17,9930.0
3050,0.32713213562965393,35.66000747680664,565,6369.0,11.790166854858398,293,9930.0
3060,0.3276999890804291,42.436859130859375,726,6369.0,15.451542854309082,335,9930.0
3070,0.3273468613624573,44.9013671875,773,6369.0,12.384546279907227,46,9930.0
3080,0.3269181251525879,35.507198333740234,499,6369.0,3.7881557941436768,4,9930.0
3090,0.3262564241886139,15.906146049499512,56,6369.0,-6.3230061531066895,-59,9930.0
3100,0.3255061209201813,-6.923120975494385,-249,6369.0,-7.083091735839844,-146,9930.0
3110,0.3269484043121338,-25.373687744140625,-390,6369.0,-3.159170627593994,-81,9930.0
3120,0.3264920711517334,-30.765392303466797,-453,6369.0,-1.087326169013977,55,9930.0
3130,0.3260321319103241,-30.020538330078125,-550,6369.0,2.6198368072509766,92,9930.0
3140,0.3259007930755615,-27.11864471435547,-450,6369.0,6.429749488830566,87,9930.0
3150,0.325844943523407,-17.677440643310547,-114,6369.0,8.916311264038086,90,9930.0
3160,0.3258446753025055,-6.584347248077393,-30,6369.0,10.114811897277832,203,9930.0
3170,0.32607823610305786,6.5280327796936035,67,6369.0,10.034852981567383,288,9930.0
3180,0.3264485001564026,14.623889923095703,324,6369.0,7.73479700088501,7,9930.0
3190,0.3269268572330475,17.79764747619629,327,6369.0,4.1079020500183105,45,9930.0
3200,0.32555443048477173,13.753924369812012,147,6369.0,-3.7379846572875977,58,9930.0
3210,0.32628539204597473,7.606516361236572,49,6369.0,-13.855320930480957,-330,9930.0
3220,0.32755687832832336,-6.7052459716796875,-283,6369.0,-22.971431732177734,-510,9930.0
3230,0.32838118076324463,-25.049806594848633,-452,6369.0,-27.90519905090332,-484,9930.0
3240,0.32814571261405945,-30.007076263427734,-409,6369.0,-24.394329071044922,-364,9930.0
3250,0.32874125242233276,-28.995573043823242,-520,6369.0,-14.809028625488281,-99,9930.0
3260,0.3294166028499603,-22.259672164916992,-325,6369.0,-0.8390244245529175,208,9930.0
3270,0.32999512553215027,-5.496657371520996,60,6369.0,9.934967041015625,165,9930.0
3280,0.3307042419910431,16.71592903137207,474,6369.0,24.518259048461914,434,9930.0
3290,0.33208975195884705,37.39402770996094,662,6369.0,36.05217742919922,706,9930.0
3300,0.33218738436698914,42.28160858154297,670,6369.0,33.952552795410156,566,9930.0
3310,0.33222126960754395,35.915714263916016,476,6369.0,28.74333953857422,340,9930.0
3320,0.33215850591659546,14.715822219848633,146,6369.0,21.139055252075195,230,9930.0
3330,0.3291892409324646,-4.7558512687683105,-187,6369.0,9.15069580078125,229,9930.0
3340,0.32891419529914856,-20.358741760253906,-446,6369.0,1.3841561079025269,7,9930.0
3350,0.3285936117172241,-27.1154842376709,-505,6369.0,-0.6103439927101135,-31,9930.0
3360,0.3282194435596466,-26.117191314697266,-259,6369.0,0.04494977369904518,-76,9930.0
3370,0.3247244954109192,-15.492392539978027,-220,6369.0,-2.0659914016723633,-5,9930.0
3380,0.3242053985595703,-0.3238206207752228,59,6369.0,-3.183830738067627,-57,9930.0
3390,0.32375043630599976,14.610173225402832,391,6369.0,-5.548315525054932,-195,9930.0
3400,0.32341238856315613,23.956195831298828,348,6369.0,-8.042073249816895,-77,9930.0
3410,0.32323557138442993,22.954795837402344,331,6369.0,-8.140556335449219,-39,9930.0
3420,0.3223066031932831,17.640417098999023,267,6369.0,-2.9111015796661377,-156,9930.0
3430,0.32263144850730896,6.6594038009643555,52,6369.0,-1.2038846015930176,-58,9930.0
3440,0.32305261492729187,-4.286856174468994,-70,6369.0,-4.584373474121094,15,9930.0
3450,0.3233436346054077,-14.52846622467041,-271,6369.0,-9.820544242858887,-201,9930.0
3460,0.3245580494403839,-17.723649978637695,-369,6369.0,-18.25963020324707,-314,9930.0
3470,0.32489871978759766,-13.584213256835938,-121,6369.0,-21.07623863220215,-430,9930.0
3480,0.32528501749038696,-7.35419225692749,-20,6369.0,-24.453115463256836,-509,9930.0
3490,0.3256462514400482,1.2060402631759644,18,6369.0,-25.773021697998047,-272,9930.0
3500,0.3274467885494232,5.798973560333252,141,6369.0,-19.119604110717773,-162,9930.0
3510,0.3277484178543091,12.546147346496582,174,6369.0,-2.758924722671509,-53,9930.0
3520,0.32787951827049255,14.199775695800781,191,6369.0,15.423718452453613,275,9930.0
3530,0.32789134979248047,7.226661682128906,160,6369.0,30.710880279541016,543,9930.0
3540,0.32772380113601685,-4.818012714385986,-115,6369.0,36.571407318115234,696,9930.0
3550,0.3262595236301422,-9.454556465148926,-258,6369.0,37.32728576660156,624,9930.0
3560,0.3257690370082855,-5.600788593292236,-70,6369.0,31.100143432617188,497,9930.0
3570,0.32499033212661743,-2.693061590194702,52,6369.0,23.40508460998535,327,9930.0
3580,0.3241327702999115,5.000054836273193,10,6369.0,12.84815788269043,244,9930.0
3590,0.32316693663597107,6.1478352546691895,128,6369.0,2.032102108001709,-38,9930.0
3600,0.32215243577957153,9.458674430847168,232,6369.0,-7.549625396728516,-203,9930.0
3610,0.3212364912033081,11.694340705871582,110,6369.0,-14.79836654663086,-142,9930.0
3620,0.3203440308570862,7.363410949707031,143,6369.0,-20.23227310180664,-429,9930.0
3630,0.3196232318878174,1.1538606882095337,68,6369.0,-24.274723052978516,-406,9930.0
3640,0.32046836614608765,-2.8547232151031494,-199,6369.0,-30.62652587890625,-438,9930.0
3650,0.32031750679016113,-17.86794090270996,-335,6369.0,-32.23788070678711,-485,9930.0
3660,0.320224404335022,-21.873958587646484,-291,6369.0,-29.40419578552246,-609,9930.0
3670,0.32004866003990173,-19.21693992614746,-319,6369.0,-26.218746185302734,-371,9930.0
3680,0.32232263684272766,-11.406024932861328,-189,6369.0,-21.949350357055664,-175,9930.0
3690,0.3226498067378998,-2.8488869667053223,-27,6369.0,-13.075127601623535,-189,9930.0
3700,0.323117733001709,-2.240208387374878,-51,6369.0,-0.8628281950950623,-93,9930.0
3710,0.3237479329109192,-7.937748908996582,-133,6369.0,10.06778621673584,201,9930.0
3720,0.3256833255290985,-13.848891258239746,-226,6369.0,18.44866180419922,397,9930.0
3730,0.326394259929657,-15.459053039550781,-270,6369.0,26.400747299194336,493,9930.0
3740,0.3268631398677826,-8.160715103149414,-96,6369.0,31.3831729888916,423,9930.0
3750,0.32736554741859436,3.691070795059204,213,6369.0,27.988874435424805,472,9930.0
3760,0.32785212993621826,16.182992935180664,265,6369.0,29.60806655883789,461,9930.0
3770,0.32764074206352234,30.47794532775879,532,6369.0,27.4483642578125,456,9930.0
3780,0.3278796076774597,37.662109375,702,6369.0,25.05278205871582,427,9930.0
3790,0.3278278112411499,40.68375778198242,557,6369.0,19.74282455444336,323,9930.0
3800,0.328254759311676,31.386730194091797,471,6369.0,15.534120559692383,175,9930.0
3810,0.32676178216934204,18.28678321838379,309,6369.0,3.8895130157470703,27,9930.0
3820,0.32636144757270813,4.3195719718933105,-89,6369.0,-6.906893730163574,-114,9930.0
3830,0.326297402381897,-10.542868614196777,-268,6369.0,-18.567928314208984,-394,9930.0
3840,0.32571378350257874,-23.0845890045166,-327,6369.0,-33.863067626953125,-716,9930.0
3850,0.3250686228275299,-28.464799880981445,-443,6369.0,-46.04613494873047,-698,9930.0
3860,0.32447513937950134,-28.752685546875,-530,6369.0,-45.12884521484375,-544,9930.0
3870,0.3238677382469177,-21.87590980529785,-290,6369.0,-24.531465530395508,-287,9930.0
3880,0.3239707052707672,-11.146208763122559,-77,6369.0,-4.396993160247803,-67,9930.0
3890,0.32393601536750793,-4.569655895233154,-36,6369.0,16.551687240600586,381,9930.0
3900,0.32582902908325195,-1.7757645845413208,-50,6369.0,37.34306716918945,778,9930.0
3910,0.32612210512161255,-1.7238962650299072,2,6369.0,44.73030090332031,770,9930.0
3920,0.32655662298202515,1.4117565155029297,-7,6369.0,38.40019226074219,415,9930.0
3930,0.32722508907318115,2.984795331954956,144,6369.0,20.538209915161133,219,9930.0
3940,0.3267543315887451,4.379763603210449,44,6369.0,-1.324055552482605,-79,9930.0
3950,0.32761526107788086,-1.7306441068649292,-125,6369.0,-12.767058372497559,-178,9930.0
3960,0.3284463584423065,-8.999921798706055,-137,6369.0,-21.940778732299805,-514,9930.0
3970,0.32910484075546265,-6.534258842468262,-38,6369.0,-27.276960372924805,-447,9930.0
3980,0.3296419680118561,1.9968783855438232,126,6369.0,-24.0068416595459,-280,9930.0
3990,0.32978010177612305,12.138318061828613,186,6369.0,-17.646413803100586,-165,9930.0
4000,0.3298656642436981,18.186784744262695,288,6369.0,-3.596036434173584,123,9930.0
4010,0.3298371434211731,14.161332130432129,319,6369.0,11.42451000213623,102,9930.0
4020,0.32972511649131775,11.525918006896973,184,6369.0,22.192352294921875,296,9930.0
4030,0.3285980224609375,10.199248313903809,134,6369.0,27.716337203979492,588,9930.0
4040,0.3279006779193878,4.914201259613037,77,6369.0,31.527408599853516,551,9930.0
4050,0.3269740343093872,1.6992231607437134,-68,6369.0,29.34769630432129,293,9930.0
4060,0.32618314027786255,-4.247771739959717,13,6369.0,19.171424865722656,290,9930.0
4070,0.32558318972587585,-8.031750679016113,-189,6369.0,3.0987024307250977,2,9930.0
4080,0.32516589760780334,-16.203718185424805,-375,6369.0,-14.772561073303223,-393,9930.0
4090,0.3249097764492035,-20.85720443725586,-222,6369.0,-30.81422233581543,-572,9930.0
4100,0.32476791739463806,-15.9391508102417,-252,6369.0,-42.200523376464844,-732,9930.0
4110,0.3246936798095703,-7.5049662590026855,-136,6369.0,-43.84004592895508,-669,9930.0
4120,0.32625043392181396,-1.1219375133514404,95,6369.0,-33.87085723876953,-583,9930.0
4130,0.32649916410446167,5.289917945861816,60,6369.0,-17.052349090576172,-202,9930.0
4140,0.3272664546966553,6.570232391357422,85,6369.0,0.0695526972413063,220,9930.0
4150,0.32797589898109436,4.840219497680664,83,6369.0,12.89570140838623,227,9930.0
4160,0.3281445801258087,3.11260724067688,-31,6369.0,15.656558990478516,119,9930.0
4170,0.32918861508369446,-0.2567748427391052,42,6369.0,10.60811996459961,131,9930.0
4180,0.330241322517395,-6.512314796447754,-81,6369.0,3.9634697437286377,21,9930.0
4190,0.3312342166900635,-12.142498970031738,-312,6369.0,0.5688470602035522,164,9930.0
4200,0.33217644691467285,-12.648602485656738,-190,6369.0,3.828886032104492,57,9930.0
4210,0.3317811191082001,-5.8649773597717285,-31,6369.0,5.218001842498779,12,9930.0
4220,0.3325066566467285,10.811909675598145,324,6369.0,-0.28125137090682983,-45,9930.0
4230,0.33297181129455566,24.448949813842773,413,6369.0,-0.49760252237319946,14,9930.0
4240,0.33322954177856445,32.0755500793457,490,6369.0,-3.5923032760620117,17,9930.0
4250,0.3320206105709076,31.59366226196289,543,6369.0,-2.2954909801483154,-158,9930.0
4260,0.33168888092041016,22.477163314819336,340,6369.0,0.2738834023475647,-55,9930.0
4270,0.33132192492485046,14.293851852416992,186,6369.0,5.677163124084473,224,9930.0
4280,0.3311968743801117,2.006258010864258,-49,6369.0,9.367335319519043,249,9930.0
4290,0.32970643043518066,-15.633635520935059,-395,6369.0,14.218286514282227,156,9930.0
4300,0.3290947675704956,-27.55565071105957,-476,6369.0,8.59118366241455,138,9930.0
4310,0.32846373319625854,-29.836233139038086,-403,6369.0,4.3277363777160645,19,9930.0
4320,0.3280174136161804,-31.813526153564453,-531,6369.0,0.44784486293792725,61,9930.0
4330,0.3278408646583557,-24.52372932434082,-403,6369.0,-5.356947422027588,-69,9930.0
4340,0.3256029486656189,-12.828442573547363,-124,6369.0,-12.185861587524414,-349,9930.0
4350,0.3258611261844635,0.4888940453529358,120,6369.0,-18.78225326538086,-271,9930.0
4360,0.3261844217777252,8.563525199890137,134,6369.0,-22.366962432861328,-369,9930.0
4370,0.32693934440612793,11.020516395568848,141,6369.0,-20.423749923706055,-281,9930.0
4380,0.32625219225883484,10.649408340454102,226,6369.0,-16.387161254882812,-393,9930.0
4390,0.3272751569747925,8.223276138305664,86,6369.0,-16.670135498046875,-283,9930.0
4400,0.32827866077423096,1.1079285144805908,29,6369.0,-11.561241149902344,-21,9930.0
4410,0.3294176161289215,-4.644427299499512,-160,6369.0,-6.461325168609619,-65,9930.0
4420,0.3303270637989044,-17.099220275878906,-385,6369.0,7.305603981018066,163,9930.0
4430,0.33050504326820374,-21.413467407226562,-311,6369.0,18.589628219604492,345,9930.0
4440,0.33097612857818604,-16.52479362487793,-186,6369.0,24.569992065429688,266,9930.0
4450,0.3315679728984833,-5.9571123123168945,-14,6369.0,16.667142868041992,363,9930.0
4460,0.33196476101875305,2.4110641479492188,67,6369.0,12.526233673095703,163,9930.0
4470,0.33094146847724915,9.819031715393066,158,6369.0,12.61933708190918,81,9930.0
4480,0.33072319626808167,17.746049880981445,447,6369.0,11.944302558898926,215,9930.0
4490,0.330181747674942,29.2510986328125,463,6369.0,11.008858680725098,231,9930.0
4500,0.3293762505054474,37.566009521484375,643,6369.0,9.00732421875,169,9930.0
4510,0.32777631282806396,37.04747009277344,639,6369.0,6.973814010620117,-1,9930.0
4520,0.3268798887729645,24.704578399658203,261,6369.0,3.9249448776245117,45,9930.0
4530,0.3259463906288147,0.9575121402740479,-217,6369.0,-5.916494846343994,-62,9930.0
4540,0.32569366693496704,-29.925867080688477,-605,6369.0,-13.217424392700195,-280,9930.0
4550,0.3250308930873871,-53.77426528930664,-966,6369.0,-12.205598831176758,-203,9930.0
4560,0.3240015208721161,-60.614017486572266,-947,6369.0,-9.158315658569336,-10,9930.0
4570,0.3234676122665405,-43.00717544555664,-487,6369.0,-4.2572736740112305,-34,9930.0
4580,0.32379382848739624,-9.904930114746094,81,6369.0,0.6142756938934326,-126,9930.0
4590,0.32366347312927246,21.393177032470703,464,6369.0,-1.7754582166671753,134,9930.0
4600,0.3234287202358246,39.12981033325195,715,6369.0,0.30468884110450745,-26,9930.0
4610,0.32367876172065735,45.77845764160156,706,6369.0,6.770492076873779,51,9930.0
4620,0.3241851031780243,42.63444137573242,752,6369.0,10.608244895935059,259,9930.0
4630,0.32466456294059753,30.23595428466797,438,6369.0,9.126805305480957,224,9930.0
4640,0.32565635442733765,17.336803436279297,102,6369.0,7.284940242767334,192,9930.0
4650,0.3259297013282776,-1.5127609968185425,-146,6369.0,10.220864295959473,136,9930.0
4660,0.32658135890960693,-19.999164581298828,-318,6369.0,11.649147987365723,142,9930.0
4670,0.3270949125289917,-33.568519592285156,-556,6369.0,9.030595779418945,144,9930.0
4680,0.327486127614975,-35.869293212890625,-588,6369.0,11.505830764770508,329,9930.0
4690,0.3271062672138214,-21.94816017150879,-318,6369.0,14.131987571716309,210,9930.0
4700,0.32716259360313416,-7.896805286407471,27,6369.0,13.27275276184082,137,9930.0
4710,0.3269638419151306,13.456111907958984,219,6369.0,8.264695167541504,248,9930.0
4720,0.32670140266418457,27.422109603881836,499,6369.0,3.849932909011841,-80,9930.0
4730,0.3269253671169281,33.83808517456055,592,6369.0,0.7583611011505127,26,9930.0
4740,0.32624194025993347,32.14619827270508,409,6369.0,-0.27043813467025757,110,9930.0
4750,0.3255455195903778,16.241844177246094,215,6369.0,-0.16583900153636932,-54,9930.0
4760,0.3246595859527588,-5.019710063934326,-129,6369.0,0.8984562754631042,-16,9930.0
4770,0.3236352801322937,-18.83800506591797,-381,6369.0,1.3596727848052979,126,9930.0
4780,0.3225781321525574,-21.4062442779541,-411,6369.0,-1.2072222232818604,-80,9930.0
4790,0.3213838040828705,-18.90906524658203,-165,6369.0,-9.148704528808594,-227,9930.0
4800,0.32027652859687805,-12.960348129272461,-264,6369.0,-16.824419021606445,-269,9930.0
4810,0.3192594051361084,-11.176645278930664,-190,6369.0,-18.43630599975586,-321,9930.0
4820,0.3198906481266022,-1.949691891670227,110,6369.0,-17.139923095703125,-245,9930.0
4830,0.3193840980529785,3.7193472385406494,54,6369.0,-14.21259880065918,-218,9930.0
4840,0.31911471486091614,12.12547492980957,201,6369.0,-10.778219223022461,-250,9930.0
4850,0.3191254734992981,17.114965438842773,347,6369.0,-10.299935340881348,-134,9930.0
4860,0.32227230072021484,16.228296279907227,217,6369.0,-10.620363235473633,-72,9930.0
4870,0.3227826952934265,10.294561386108398,99,6369.0,-8.34756851196289,-225,9930.0
4880,0.32325756549835205,0.08223554491996765,-20,6369.0,-0.043763890862464905,-62,9930.0
4890,0.32375508546829224,-10.413657188415527,-204,6369.0,4.143699645996094,204,9930.0
4900,0.32403305172920227,-23.384674072265625,-441,6369.0,2.344818353652954,49,9930.0
4910,0.3254256546497345,-34.72391128540039,-606,6369.0,6.776647090911865,-61,9930.0
4920,0.3255292773246765,-30.012235641479492,-399,6369.0,7.977206707000732,197,9930.0
4930,0.3255644738674164,-16.47008514404297,-197,6369.0,17.347890853881836,374,9930.0
4940,0.3257674276828766,-2.6045641899108887,-6,6369.0,22.125816345214844,203,9930.0
4950,0.32666584849357605,9.658185005187988,182,6369.0,18.908557891845703,453,9930.0
4960,0.32652661204338074,19.34039878845215,337,6369.0,17.724510192871094,216,9930.0
4970,0.32634401321411133,31.753297805786133,549,6369.0,8.385303497314453,34,9930.0
4980,0.3262200355529785,36.8382568359375,584,6369.0,-10.053507804870605,-150,9930.0
4990,0.32591089606285095,32.69487380981445,548,6369.0,-30.70632553100586,-723,9930.0
5000,0.3260296583175659,20.04033088684082,237,6369.0,-49.409175872802734,-914,9930.0
5010,0.3259410560131073,2.3166017532348633,-104,6369.0,-64.15351867675781,-928,9930.0
5020,0.3256211578845978,-19.101181030273438,-365,6369.0,-62.301841735839844,-966,9930.0
5030,0.32549944519996643,-32.78398132324219,-505,6369.0,-37.94546127319336,-594,9930.0
5040,0.3273153305053711,-41.98834991455078,-589,6369.0,-11.950279235839844,-84,9930.0
5050,0.3276497721672058,-30.722280502319336,-505,6369.0,4.376307010650635,206,9930.0
5060,0.3279542624950409,-13.066120147705078,-194,6369.0,17.2938289642334,294,9930.0
5070,0.32830533385276794,4.895113945007324,232,6369.0,23.29316520690918,306,9930.0
5080,0.3286516070365906,22.717262268066406,486,6369.0,26.54781723022461,454,9930.0
5090,0.3297558128833771,30.331483840942383,426,6369.0,25.317373275756836,459,9930.0
5100,0.33089128136634827,26.180421829223633,364,6369.0,21.651613235473633,342,9930.0
5110,0.3320305347442627,13.236496925354004,188,6369.0,18.88805389404297,221,9930.0
5120,0.3336309790611267,-4.265605449676514,-115,6369.0,16.5948543548584,274,9930.0
5130,0.33164846897125244,-28.460514068603516,-570,6369.0,10.796293258666992,285,9930.0
5140,0.33263447880744934,-42.55833435058594,-753,6369.0,4.752442836761475,28,9930.0
5150,0.33339622616767883,-45.07902526855469,-752,6369.0,-2.6621248722076416,-128,9930.0
5160,0.33428147435188293,-31.5550479888916,-284,6369.0,-3.5388002395629883,-95,9930.0
5170,0.33157914876937866,-6.418391227722168,34,6369.0,1.392169713973999,71,9930.0
5180,0.3320193886756897,18.201274871826172,429,6369.0,12.29944133758545,339,9930.0
5190,0.3324868083000183,39.80208206176758,717,6369.0,26.221010208129883,314,9930.0
5200,0.33251339197158813,44.815147399902344,754,6369.0,38.1234016418457,734,9930.0
5210,0.33249104022979736,36.07548904418945,584,6369.0,41.71440505981445,765,9930.0
5220,0.3296947181224823,24.7529296875,251,6369.0,35.32785415649414,444,9930.0
5230,0.32918018102645874,1.2550086975097656,-78,6369.0,19.592802047729492,141,9930.0
5240,0.32977598905563354,-19.261001586914062,-370,6369.0,-0.33080536127090454,-37,9930.0
5250,0.3295269012451172,-33.095375061035156,-690,6369.0,-16.72422218322754,-147,9930.0
5260,0.32717645168304443,-36.09376907348633,-498,6369.0,-25.54283905029297,-517,9930.0
5270,0.326835036277771,-25.706687927246094,-290,6369.0,-29.238643646240234,-593,9930.0
5280,0.32663431763648987,-3.4077956676483154,55,6369.0,-32.06526184082031,-383,9930.0
5290,0.32647234201431274,17.934009552001953,356,6369.0,-31.13743019104004,-386,9930.0
5300,0.3265947997570038,24.958715438842773,461,6369.0,-23.07353401184082,-321,9930.0
5310,0.32541850209236145,31.766529083251953,560,6369.0,-5.596962928771973,-87,9930.0
5320,0.3255959153175354,32.45165252685547,487,6369.0,13.242498397827148,271,9930.0
5330,0.32586386799812317,25.924861907958984,324,6369.0,21.732202529907227,512,9930.0
5340,0.32593870162963867,15.488577842712402,202,6369.0,27.475358963012695,491,9930.0
5350,0.325336217880249,4.682987689971924,59,6369.0,25.59162712097168,215,9930.0
5360,0.32538047432899475,-1.513301134109497,-53,6369.0,11.558775901794434,142,9930.0
5370,0.32628586888313293,-14.930037498474121,-293,6369.0,-3.3523576259613037,-24,9930.0
5380,0.32614487409591675,-25.439306259155273,-455,6369.0,-19.223459243774414,-350,9930.0
5390,0.32609373331069946,-31.922866821289062,-590,6369.0,-30.343263626098633,-633,9930.0
5400,0.32590070366859436,-32.880035400390625,-380,6369.0,-31.70290184020996,-533,9930.0
5410,0.32558366656303406,-17.985782623291016,-207,6369.0,-27.639774322509766,-348,9930.0
5420,0.3251930773258209,3.0787672996520996,78,6369.0,-18.556121826171875,-279,9930.0
5430,0.32464465498924255,18.598814010620117,473,6369.0,-5.954493999481201,-143,9930.0
5440,0.3267585337162018,27.80592155456543,495,6369.0,3.4083263874053955,79,9930.0
5450,0.3264876902103424,22.40151023864746,209,6369.0,4.261791229248047,100,9930.0
5460,0.32617709040641785,9.210787773132324,74,6369.0,3.497269630432129,107,9930.0
5470,0.3257889747619629,-0.3503784239292145,57,6369.0,4.2169013023376465,41,9930.0
5480,0.3250555396080017,-5.902149677276611,-116,6369.0,0.6296060681343079,-19,9930.0
5490,0.3246512711048126,-9.99705696105957,-309,6369.0,-3.3440370559692383,-27,9930.0
5500,0.32429710030555725,-15.300528526306152,-261,6369.0,-8.421235084533691,-149,9930.0
5510,0.32401683926582336,-15.61513614654541,-166,6369.0,-11.892797470092773,-306,9930.0
5520,0.32386231422424316,-15.579395294189453,-306,6369.0,-16.557767868041992,-223,9930.0
5530,0.3246939480304718,-9.674160957336426,-203,6369.0,-18.628646850585938,-222,9930.0
5540,0.32488998770713806,-6.304715156555176,-43,6369.0,-13.258254051208496,-316,9930.0
5550,0.3250983953475952,-4.488714218139648,-21,6369.0,-4.870419502258301,-79,9930.0
5560,0.3252939283847809,-0.25865963101387024,-2,6369.0,0.41773179173469543,186,9930.0
5570,0.3270920515060425,3.6458404064178467,96,6369.0,7.765649795532227,198,9930.0
5580,0.3276505768299103,9.979799270629883,154,6369.0,12.174695014953613,103,9930.0
5590,0.3283224403858185,16.5395565032959,314,6369.0,14.424099922180176,245,9930.0
5600,0.32902511954307556,22.59981918334961,478,6369.0,13.006651878356934,232,9930.0
5610,0.32928553223609924,26.469017028808594,450,6369.0,13.806412696838379,223,9930.0
5620,0.32982876896858215,32.86676788330078,475,6369.0,11.406791687011719,261,9930.0
5630,0.33034902811050415,30.786651611328125,542,6369.0,5.803165912628174,51,9930.0
5640,0.33081957697868347,29.08492088317871,457,6369.0,4.6864776611328125,-102,9930.0
5650,0.33121803402900696,16.64942169189453,199,6369.0,11.10424518585205,211,9930.0
5660,0.3312181234359741,-4.401553630828857,-163,6369.0,13.947479248046875,222,9930.0
5670,0.3313344419002533,-26.951547622680664,-490,6369.0,11.499021530151367,295,9930.0
5680,0.33132898807525635,-45.92063903808594,-848,6369.0,4.861420154571533,18,9930.0
5690,0.33139145374298096,-56.456939697265625,-1042,6369.0,-2.5681357383728027,-30,9930.0
5700,0.32992836833000183,-49.81785202026367,-687,6369.0,-2.8729381561279297,-99,9930.0
5710,0.3295862674713135,-28.89291000366211,-333,6369.0,2.2462666034698486,49,9930.0
5720,0.3291979730129242,-1.8758188486099243,80,6369.0,5.7867255210876465,244,9930.0
5730,0.32891929149627686,19.3734188079834,335,6369.0,8.422412872314453,96,9930.0
5740,0.3287656903266907,28.425813674926758,497,6369.0,11.096612930297852,198,9930.0
5750,0.3265548050403595,26.0306339263916,441,6369.0,13.53860092163086,259,9930.0
5760,0.3263207674026489,13.17878246307373,123,6369.0,15.78189754486084,306,9930.0
5770,0.32614609599113464,-0.4629019498825073,-112,6369.0,14.648505210876465,186,9930.0
5780,0.32625216245651245,-10.497515678405762,-177,6369.0,8.903392791748047,36,9930.0
5790,0.3243195414543152,-21.119251251220703,-378,6369.0,1.3831849098205566,20,9930.0
5800,0.3244977295398712,-20.774166107177734,-355,6369.0,-5.892698764801025,-74,9930.0
5810,0.32484322786331177,-11.349756240844727,-107,6369.0,-11.391810417175293,-331,9930.0
5820,0.3254571557044983,-2.006495714187622,34,6369.0,-14.274895668029785,-228,9930.0
5830,0.3254152536392212,7.624128341674805,183,6369.0,-12.971867561340332,-184,9930.0
5840,0.32588130235671997,12.647904396057129,156,6369.0,-16.076801300048828,-274,9930.0
5850,0.3262747824192047,14.363092422485352,282,6369.0,-19.38747215270996,-391,9930.0
5860,0.3266616761684418,16.474470138549805,342,6369.0,-26.661441802978516,-560,9930.0
5870,0.32706400752067566,17.05076026916504,212,6369.0,-35.28605651855469,-488,9930.0
5880,0.3286879062652588,12.533658027648926,166,6369.0,-37.757835388183594,-457,9930.0
5890,0.3292940855026245,4.719814777374268,-24,6369.0,-27.342636108398438,-425,9930.0
5900,0.32959094643592834,-5.4464030265808105,-215,6369.0,-13.243380546569824,-280,9930.0
5910,0.3296256363391876,-16.252540588378906,-255,6369.0,-0.952265202999115,37,9930.0
5920,0.3304292857646942,-25.612998962402344,-376,6369.0,12.356104850769043,268,9930.0
5930,0.330265611410141,-27.911724090576172,-406,6369.0,23.81081771850586,504,9930.0
5940,0.32982778549194336,-24.896270751953125,-366,6369.0,36.389007568359375,760,9930.0
5950,0.32923975586891174,-14.012645721435547,-155,6369.0,44.69765853881836,723,9930.0
5960,0.32852545380592346,1.924371361732483,79,6369.0,43.601829528808594,592,9930.0
5970,0.32851624488830566,14.809945106506348,319,6369.0,34.55426025390625,661,9930.0
5980,0.3279694616794586,24.291431427001953,410,6369.0,22.759498596191406,184,9930.0
5990,0.32769495248794556,24.946210861206055,381,6369.0,6.676234722137451,67,9930.0
6000,0.32722944021224976,15.02853775024414,179,6369.0,-7.7547736167907715,-76,9930.0
6010,0.3252984583377838,-2.0543148517608643,-137,6369.0,-19.246749877929688,-562,9930.0
6020,0.3252297639846802,-14.099449157714844,-194,6369.0,-33.260292053222656,-484,9930.0
6030,0.3253650963306427,-14.724617004394531,-229,6369.0,-36.66606521606445,-530,9930.0
6040,0.32580509781837463,-10.701537132263184,-203,6369.0,-35.88213348388672,-666,9930.0
6050,0.325297474861145,-2.518702745437622,72,6369.0,-26.9124755859375,-374,9930.0
6060,0.32657942175865173,5.050512313842773,145,6369.0,-11.100408554077148,-104,9930.0
6070,0.3276534974575043,7.320639133453369,7,6369.0,0.06836044043302536,129,9930.0
6080,0.3288288414478302,7.525332450866699,95,6369.0,4.0761919021606445,137,9930.0
6090,0.3300401270389557,8.044733047485352,176,6369.0,5.679147243499756,-55,9930.0
6100,0.3296467065811157,9.114566802978516,125,6369.0,4.1804022789001465,20,9930.0
6110,0.3309474587440491,8.096321105957031,133,6369.0,0.8010761141777039,161,9930.0
6120,0.33213648200035095,-3.1420516967773438,-136,6369.0,7.500192642211914,157,9930.0
6130,0.33319517970085144,-11.35084342956543,-269,6369.0,17.13733673095703,294,9930.0
6140,0.3335108160972595,-11.12667179107666,-119,6369.0,21.02378273010254,315,9930.0
6150,0.33427995443344116,0.16110379993915558,92,6369.0,16.770889282226562,262,9930.0
6160,0.33470776677131653,6.369861602783203,57,6369.0,14.341341018676758,451,9930.0
6170,0.33497437834739685,6.915665149688721,93,6369.0,14.018877029418945,119,9930.0
6180,0.33495792746543884,7.685325622558594,104,6369.0,9.256477355957031,75,9930.0
6190,0.3323080241680145,12.41903305053711,296,6369.0,1.548385739326477,82,9930.0
6200,0.3316882848739624,13.554300308227539,165,6369.0,-4.412473678588867,-57,9930.0
6210,0.330927312374115,11.291291236877441,142,6369.0,-5.001758575439453,-151,9930.0
6220,0.33013904094696045,-2.338923931121826,-25,6369.0,-7.336132049560547,-215,9930.0
6230,0.32858148217201233,-18.119863510131836,-381,6369.0,-6.742828845977783,-36,9930.0
6240,0.3280225098133087,-29.560640335083008,-626,6369.0,-3.373364210128784,34,9930.0
6250,0.32757896184921265,-29.66280746459961,-407,6369.0,-0.030548151582479477,-158,9930.0
6260,0.3272646367549896,-16.405803680419922,-181,6369.0,0.6839914917945862,109,9930.0
6270,0.325284868478775,-1.8741310834884644,27,6369.0,0.6190774440765381,53,9930.0
6280,0.325382262468338,6.882634162902832,87,6369.0,-3.6761980056762695,-238,9930.0
6290,0.3255801200866699,9.063105583190918,228,6369.0,-6.198690414428711,-71,9930.0
6300,0.3259243071079254,9.741225242614746,153,6369.0,-3.783372163772583,-13,9930.0
6310,0.3265065550804138,8.455073356628418,86,6369.0,-0.24410507082939148,43,9930.0
6320,0.3274778425693512,6.7790327072143555,132,6369.0,-0.8890873193740845,-121,9930.0
6330,0.3283658027648926,4.767804145812988,42,6369.0,-5.953027248382568,-147,9930.0
6340,0.329385370016098,1.4519175291061401,51,6369.0,-12.82078742980957,-167,9930.0
6350,0.3303532600402832,0.5629672408103943,-72,6369.0,-21.684377670288086,-370,9930.0
6360,0.3315657377243042,0.7414339780807495,17,6369.0,-17.225326538085938,-256,9930.0
6370,0.33239880204200745,-3.0179715156555176,59,6369.0,-5.414917469024658,-121,9930.0
6380,0.33318740129470825,1.0508710145950317,5,6369.0,2.782344102859497,34,9930.0
6390,0.3338247537612915,-2.9362852573394775,-75,6369.0,3.8733134269714355,223,9930.0
6400,0.3338126838207245,0.849484384059906,28,6369.0,2.7454793453216553,36,9930.0
6410,0.333356648683548,9.977120399475098,153,6369.0,6.62443733215332,76,9930.0
6420,0.3335452079772949,11.360330581665039,266,6369.0,10.66027545928955,144,9930.0
6430,0.3334156274795532,9.4467191696167,184,6369.0,20.795625686645508,366,9930.0
6440,0.33303338289260864,5.032090187072754,-32,6369.0,30.119808197021484,655,9930.0
6450,0.3315446972846985,-1.8365955352783203,-44,6369.0,34.61537551879883,530,9930.0
6460,0.3308563232421875,-3.2601587772369385,-71,6369.0,29.46686553955078,336,9930.0
6470,0.33020254969596863,-6.5396504402160645,-91,6369.0,16.62916374206543,257,9930.0
6480,0.3295708894729614,-11.335007667541504,-313,6369.0,1.1714158058166504,-93,9930.0
6490,0.32730451226234436,-17.110483169555664,-251,6369.0,-14.979345321655273,-321,9930.0
6500,0.32651323080062866,-17.537878036499023,-250,6369.0,-28.353927612304688,-520,9930.0
6510,0.32583731412887573,-10.09012222290039,-220,6369.0,-38.406227111816406,-626,9930.0
6520,0.3252601623535156,-4.450335502624512,50,6369.0,-37.32669448852539,-618,9930.0
6530,0.3249688744544983,0.572039783000946,75,6369.0,-29.13082504272461,-437,9930.0
6540,0.3238881826400757,8.167091369628906,101,6369.0,-13.921916007995605,-56,9930.0
6550,0.32409733533859253,11.7991304397583,215,6369.0,2.9686062335968018,139,9930.0
6560,0.32467058300971985,11.327162742614746,236,6369.0,15.1689453125,141,9930.0
6570,0.32540374994277954,9.947772979736328,180,6369.0,11.633625030517578,90,9930.0
6580,0.3245994746685028,10.863602638244629,211,6369.0,-1.0717226266860962,60,9930.0
6590,0.32539108395576477,14.983989715576172,183,6369.0,-5.027409076690674,11,9930.0
6600,0.32643571496009827,12.443160057067871,155,6369.0,-0.9039701819419861,-99,9930.0
6610,0.3273093104362488,7.744247913360596,124,6369.0,3.7339022159576416,-4,9930.0
6620,0.3282746374607086,7.8242106437683105,99,6369.0,11.130346298217773,68,9930.0
6630,0.328994482755661,6.053832530975342,139,6369.0,19.466718673706055,429,9930.0
6640,0.3293963074684143,3.532813549041748,107,6369.0,31.80645179748535,596,9930.0
6650,0.3296288251876831,-1.1363555192947388,-124,6369.0,34.277381896972656,651,9930.0
6660,0.32961776852607727,-7.2979416847229,-185,6369.0,32.456661224365234,552,9930.0
6670,0.32811418175697327,-10.252447128295898,-92,6369.0,30.19594955444336,378,9930.0
6680,0.32769185304641724,-10.104425430297852,-176,6369.0,25.895349502563477,460,9930.0
6690,0.32745683193206787,-7.47260856628418,-105,6369.0,18.74077796936035,273,9930.0
6700,0.3267510235309601,-4.218840599060059,-52,6369.0,6.087952613830566,-45,9930.0
6710,0.3256257474422455,-5.851471900939941,-139,6369.0,-12.176079750061035,-119,9930.0
6720,0.3250950574874878,-11.49528980255127,-250,6369.0,-30.543432235717773,-747,9930.0
6730,0.324351042509079,-15.786504745483398,-210,6369.0,-47.490962982177734,-772,9930.0
6740,0.3236692249774933,-12.990010261535645,-182,6369.0,-56.23408889770508,-909,9930.0
6750,0.3231582045555115,-3.78830885887146,-56,6369.0,-50.20726013183594,-891,9930.0
6760,0.3239402770996094,6.788906574249268,199,6369.0,-33.74777603149414,-411,9930.0
6770,0.32449567317962646,10.725910186767578,196,6369.0,-12.800923347473145,-40,9930.0
6780,0.32486385107040405,4.865879535675049,-11,6369.0,8.045517921447754,192,9930.0
6790,0.3255285322666168,-6.7265944480896,-228,6369.0,20.66864776611328,330,9930.0
6800,0.3277370035648346,-14.693246841430664,-159,6369.0,20.019596099853516,259,9930.0
6810,0.3288485109806061,-14.174229621887207,-195,6369.0,10.907698631286621,115,9930.0
6820,0.33019259572029114,-15.054951667785645,-275,6369.0,12.043119430541992,438,9930.0
6830,0.33189961314201355,-7.226973056793213,-62,6369.0,22.000091552734375,321,9930.0
6840,0.3333565592765808,5.157046794891357,167,6369.0,24.707273483276367,251,9930.0
6850,0.3351844847202301,21.048873901367188,436,6369.0,14.085837364196777,314,9930.0
6860,0.3369349241256714,31.345705032348633,461,6369.0,11.85297679901123,246,9930.0
6870,0.33864012360572815,32.42017364501953,590,6369.0,5.911806583404541,43,9930.0
6880,0.3402087986469269,25.132553100585938,328,6369.0,1.5627014636993408,-147,9930.0
6890,0.34145647287368774,9.960997581481934,126,6369.0,-4.4651594161987305,33,9930.0
6900,0.34299689531326294,-4.6752142906188965,-181,6369.0,-4.8131818771362305,15,9930.0
6910,0.34427329897880554,-13.445770263671875,-246,6369.0,-5.586754322052002,-153,9930.0
6920,0.3454660475254059,-18.2672119140625,-348,6369.0,-6.409984111785889,-224,9930.0
6930,0.3485206067562103,-13.689433097839355,-106,6369.0,-16.14466667175293,-393,9930.0
6940,0.3493133783340454,-8.532780647277832,-119,6369.0,-25.642189025878906,-415,9930.0
6950,0.34984052181243896,-4.78762674331665,-58,6369.0,-36.189659118652344,-638,9930.0
6960,0.35019558668136597,-4.0298614501953125,-153,6369.0,-45.698177337646484,-604,9930.0
6970,0.35027575492858887,-3.174628734588623,-60,6369.0,-43.393829345703125,-667,9930.0
6980,0.35157886147499084,-0.532336413860321,-17,6369.0,-31.80048942565918,-384,9930.0
6990,0.35168585181236267,-2.870865821838379,-7,6369.0,-9.733667373657227,-202,9930.0
7000,0.35176485776901245,-1.9395053386688232,-14,6369.0,6.725289821624756,139,9930.0
7010,0.3518757224082947,-0.6072356104850769,77,6369.0,19.77329444885254,133,9930.0
7020,0.3549880385398865,0.4656287729740143,22,6369.0,20.896671295166016,342,9930.0
7030,0.3551548421382904,3.388906717300415,69,6369.0,9.576930046081543,257,9930.0
7040,0.3553057610988617,4.337677001953125,-12,6369.0,-2.6625735759735107,117,9930.0
7050,0.35535186529159546,4.704606533050537,54,6369.0,-8.620684623718262,-215,9930.0
7060,0.3562297523021698,9.219257354736328,46,6369.0,-4.175046920776367,-28,9930.0
7070,0.3560880422592163,14.472601890563965,255,6369.0,-1.6202930212020874,-133,9930.0
7080,0.35589081048965454,11.64511489868164,178,6369.0,-4.616044521331787,-72,9930.0
7090,0.35552123188972473,6.843173503875732,230,6369.0,-1.5847400426864624,-108,9930.0
7100,0.3547835648059845,19.280105590820312,387,6369.0,3.178812265396118,15,9930.0
7110,0.3535652756690979,20.770755767822266,336,6369.0,10.842429161071777,178,9930.0
7120,0.3522926867008209,2.667740821838379,-98,6369.0,16.68027114868164,300,9930.0
7130,0.3509388864040375,-7.968194961547852,-242,6369.0,23.223772048950195,666,9930.0
7140,0.3491247892379761,-14.339544296264648,-352,6369.0,35.74643325805664,631,9930.0
7150,0.3454127013683319,-24.823156356811523,-432,6369.0,49.663665771484375,705,9930.0
7160,0.3430148959159851,-27.972152709960938,-391,6369.0,53.321346282958984,862,9930.0
7170,0.34028181433677673,-20.830724716186523,-227,6369.0,39.973670959472656,502,9930.0
7180,0.3379285931587219,-2.746612548828125,4,6369.0,14.642223358154297,56,9930.0
7190,0.33552226424217224,5.436176776885986,123,6369.0,-10.021761894226074,-244,9930.0
7200,0.32987409830093384,3.952723503112793,70,6369.0,-30.038022994995117,-658,9930.0
7210,0.3277217447757721,-0.11602954566478729,-128,6369.0,-40.7528076171875,-610,9930.0
7220,0.3258262574672699,-6.063159942626953,-16,6369.0,-38.468772888183594,-606,9930.0
7230,0.3246198892593384,-9.673177719116211,-148,6369.0,-28.610628128051758,-427,9930.0
7240,0.3211800456047058,-6.501095294952393,-194,6369.0,-12.076774597167969,-106,9930.0
7250,0.32076168060302734,-1.6922893524169922,57,6369.0,3.0597457885742188,56,9930.0
7260,0.32091638445854187,3.8890421390533447,-2,6369.0,11.795721054077148,318,9930.0
7270,0.32134100794792175,9.616881370544434,174,6369.0,9.624347686767578,95,9930.0
7280,0.3220879137516022,12.076017379760742,269,6369.0,2.5684542655944824,-10,9930.0
7290,0.32299917936325073,10.409367561340332,44,6369.0,0.3715750575065613,108,9930.0
7300,0.32409003376960754,15.96384048461914,293,6369.0,10.318754196166992,212,9930.0
7310,0.32523617148399353,25.456045150756836,575,6369.0,15.899980545043945,307,9930.0
7320,0.3262958526611328,36.06627655029297,601,6369.0,18.226089477539062,284,9930.0
7330,0.3269681930541992,42.565555572509766,634,6369.0,19.533273696899414,254,9930.0
7340,0.3278569281101227,41.913917541503906,681,6369.0,11.371896743774414,106,9930.0
7350,0.32854607701301575,35.95813751220703,627,6369.0,3.4712204933166504,71,9930.0
7360,0.3285409212112427,24.259817123413086,349,6369.0,2.004833936691284,62,9930.0
7370,0.33020102977752686,11.158374786376953,48,6369.0,5.758832931518555,90,9930.0
7380,0.3300494849681854,-7.281058311462402,-260,6369.0,7.8172607421875,54,9930.0
7390,0.3296791613101959,-23.100984573364258,-367,6369.0,6.051550388336182,64,9930.0
7400,0.32904499769210815,-29.042837142944336,-453,6369.0,2.197596788406372,110,9930.0
7410,0.3281916081905365,-31.14407730102539,-557,6369.0,-4.187099933624268,-127,9930.0
7420,0.3281401991844177,-28.5689640045166,-444,6369.0,-17.45576286315918,-450,9930.0
7430,0.32686010003089905,-22.960830688476562,-352,6369.0,-32.55156326293945,-453,9930.0
7440,0.3255738317966461,-13.418540000915527,-142,6369.0,-42.05648422241211,-754,9930.0
7450,0.3239860236644745,-3.283352851867676,27,6369.0,-43.470863342285156,-798,9930.0
7460,0.32378408312797546,5.736305236816406,105,6369.0,-33.069053649902344,-423,9930.0
7470,0.322015643119812,11.342477798461914,143,6369.0,-12.549160957336426,-119,9930.0
7480,0.32049205899238586,9.545430183410645,135,6369.0,3.1109023094177246,103,9930.0
7490,0.3190641701221466,1.2570469379425049,17,6369.0,15.994633674621582,348,9930.0
7500,0.3175121247768402,-9.07717227935791,-205,6369.0,16.4165096282959,281,9930.0
7510,0.3156130611896515,-19.012313842773438,-375,6369.0,2.543552875518799,-115,9930.0
7520,0.31340736150741577,-30.94123649597168,-526,6369.0,-11.949469566345215,-356,9930.0
7530,0.3110255002975464,-40.11988830566406,-763,6369.0,-22.245027542114258,-280,9930.0
7540,0.30817824602127075,-46.11328125,-739,6369.0,-24.564085006713867,-449,9930.0
7550,0.3061951994895935,-36.500244140625,-427,6369.0,-27.998353958129883,-361,9930.0
7560,0.30486559867858887,-12.381643295288086,-96,6369.0,-17.360654830932617,-210,9930.0
7570,0.3027501702308655,8.694971084594727,239,6369.0,5.272852420806885,47,9930.0
7580,0.30075183510780334,21.70905113220215,369,6369.0,25.754823684692383,578,9930.0
7590,0.29706189036369324,28.34116554260254,451,6369.0,45.51104736328125,651,9930.0
7600,0.2943955957889557,22.79767608642578,364,6369.0,55.523921966552734,1022,9930.0
7610,0.29233449697494507,13.086739540100098,125,6369.0,65.18852233886719,946,9930.0
7620,0.2901184558868408,1.1403604745864868,-19,6369.0,60.07568359375,1012,9930.0
7630,0.2835941016674042,-10.908279418945312,-240,6369.0,44.157676696777344,566,9930.0
7640,0.28099045157432556,-15.819409370422363,-283,6369.0,23.112625122070312,357,9930.0
7650,0.2781149744987488,-15.440909385681152,-93,6369.0,4.063255310058594,43,9930.0
7660,0.27511563897132874,-5.766340255737305,-124,6369.0,-8.945631980895996,-250,9930.0
7670,0.2721883952617645,2.6899166107177734,88,6369.0,-15.35433578491211,-199,9930.0
7680,0.26735493540763855,8.453577995300293,259,6369.0,-17.954450607299805,-265,9930.0
7690,0.2646232545375824,9.433762550354004,73,6369.0,-11.39969253540039,-209,9930.0
7700,0.2614242136478424,4.198594093322754,57,6369.0,-1.1190394163131714,131,9930.0
7710,0.26047971844673157,-4.407124996185303,-85,6369.0,15.683076858520508,293,9930.0
7720,0.2560996413230896,-6.661528587341309,-136,6369.0,31.904762268066406,553,9930.0
7730,0.2533329427242279,-0.1252981573343277,191,6369.0,44.013877868652344,861,9930.0
7740,0.2510928511619568,19.838361740112305,454,6369.0,48.92546844482422,786,9930.0
7750,0.2509615421295166,35.90486526489258,618,6369.0,50.668670654296875,708,9930.0
7760,0.2501952648162842,43.56608963012695,715,6369.0,47.161903381347656,829,9930.0
7770,0.2472863495349884,42.674076080322266,713,6369.0,40.51245880126953,564,9930.0
7780,0.2472836971282959,32.659664154052734,436,6369.0,30.679847717285156,332,9930.0
7790,0.24768811464309692,19.71945571899414,287,6369.0,22.92494773864746,448,9930.0
7800,0.2479305863380432,8.548125267028809,119,6369.0,21.288803100585938,277,9930.0
7810,0.24850130081176758,0.16654440760612488,-106,6369.0,19.403541564941406,406,9930.0
7820,0.24940332770347595,-7.60658073425293,-76,6369.0,25.160707473754883,409,9930.0
7830,0.2505907118320465,-10.543682098388672,-227,6369.0,20.409576416015625,298,9930.0
7840,0.2514044940471649,-3.5095794200897217,60,6369.0,19.03008270263672,383,9930.0
7850,0.2519209086894989,6.64446496963501,66,6369.0,17.92125701904297,209,9930.0
7860,0.2522105574607849,12.045708656311035,287,6369.0,21.14556312561035,484,9930.0
7870,0.2531885802745819,13.992175102233887,166,6369.0,26.166154861450195,432,9930.0
7880,0.2541674077510834,13.716188430786133,210,6369.0,29.685884475708008,596,9930.0
7890,0.25452920794487,5.70968770980835,57,6369.0,27.42170524597168,308,9930.0
7900,0.2557181119918823,-1.0078374147415161,-44,6369.0,23.69005584716797,529,9930.0
7910,0.25631168484687805,-12.74986743927002,-239,6369.0,16.40821075439453,147,9930.0
7920,0.2569515109062195,-20.889110565185547,-388,6369.0,8.699150085449219,252,9930.0
7930,0.257191926240921,-25.11904525756836,-328,6369.0,2.654916763305664,-49,9930.0
7940,0.2570704519748688,-20.90035629272461,-331,6369.0,-6.8407301902771,-67,9930.0
7950,0.25711682438850403,-15.012855529785156,-155,6369.0,-15.2959566116333,-286,9930.0
7960,0.2570347785949707,-12.816425323486328,-216,6369.0,-22.113950729370117,-428,9930.0
7970,0.2565721571445465,-12.227761268615723,-162,6369.0,-28.306161880493164,-408,9930.0
7980,0.2563883662223816,-10.875998497009277,-182,6369.0,-28.566322326660156,-541,9930.0
7990,0.25658753514289856,-10.682536125183105,-152,6369.0,-24.509521484375,-283,9930.0
8000,0.2565422058105469,-12.958041191101074,-211,6369.0,-19.97948455810547,-362,9930.0
8010,0.25597086548805237,-16.99318504333496,-322,6369.0,-15.210838317871094,-231,9930.0
8020,0.2555314302444458,-19.850299835205078,-284,6369.0,-15.967547416687012,-246,9930.0
8030,0.2552100121974945,-23.047712326049805,-381,6369.0,-14.377750396728516,-316,9930.0
8040,0.25477659702301025,-16.77549934387207,-189,6369.0,-13.441183090209961,-166,9930.0
8050,0.2543002963066101,-8.043482780456543,-47,6369.0,-9.826746940612793,-185,9930.0
8060,0.2539411187171936,-2.2473390102386475,-53,6369.0,-0.16413727402687073,79,9930.0
8070,0.25306257605552673,6.336730003356934,171,6369.0,12.805670738220215,403,9930.0
8080,0.252681165933609,10.13803482055664,223,6369.0,24.862455368041992,415,9930.0
8090,0.2529350519180298,13.67581558227539,200,6369.0,32.71872329711914,485,9930.0
8100,0.25253912806510925,13.972694396972656,262,6369.0,33.907894134521484,694,9930.0
8110,0.25262385606765747,8.812954902648926,194,6369.0,38.213226318359375,589,9930.0
8120,0.25322675704956055,11.032492637634277,171,6369.0,34.12541198730469,388,9930.0
8130,0.2529684901237488,12.881850242614746,161,6369.0,24.378692626953125,467,9930.0
8140,0.2526756823062897,9.955392837524414,194,6369.0,13.865358352661133,202,9930.0
8150,0.25217708945274353,6.144166946411133,79,6369.0,0.1680118292570114,-90,9930.0
8160,0.2520234286785126,-0.8316279649734497,-56,6369.0,-10.2481689453125,-297,9930.0
8170,0.2514389157295227,-2.3128411769866943,-30,6369.0,-21.130512237548828,-310,9930.0
8180,0.25069567561149597,-5.11936616897583,10,6369.0,-26.08977508544922,-463,9930.0
8190,0.24977535009384155,-7.557560920715332,-194,6369.0,-29.036231994628906,-569,9930.0
8200,0.24882735311985016,-2.43772292137146,-12,6369.0,-29.21909523010254,-343,9930.0
8210,0.24813677370548248,-2.5031421184539795,66,6369.0,-21.019317626953125,-341,9930.0
8220,0.24719153344631195,2.4693596363067627,-14,6369.0,-9.568639755249023,-123,9930.0
8230,0.24634365737438202,7.118481636047363,193,6369.0,3.1003634929656982,202,9930.0
8240,0.24551942944526672,14.492711067199707,321,6369.0,12.91718864440918,178,9930.0
8250,0.24456751346588135,22.015308380126953,302,6369.0,13.828835487365723,155,9930.0
8260,0.24374686181545258,23.60689926147461,380,6369.0,8.268192291259766,190,9930.0
8270,0.242899551987648,18.97653579711914,408,6369.0,2.1476709842681885,-22,9930.0
8280,0.2422984093427658,18.21754264831543,219,6369.0,-2.1018478870391846,-136,9930.0
8290,0.24143041670322418,15.174432754516602,277,6369.0,-8.269798278808594,-74,9930.0
8300,0.24169832468032837,7.925902843475342,151,6369.0,-8.23885440826416,-175,9930.0
8310,0.24124948680400848,1.1809417009353638,-9,6369.0,-7.876994609832764,-243,9930.0
8320,0.2408866584300995,0.5323691368103027,28,6369.0,-9.077301979064941,-24,9930.0
8330,0.24077844619750977,-0.6827885508537292,36,6369.0,-3.4678142070770264,-103,9930.0
8340,0.2414861023426056,1.520359754562378,-19,6369.0,6.250551700592041,141,9930.0
8350,0.2414996325969696,4.300690650939941,139,6369.0,11.694801330566406,271,9930.0
8360,0.24154502153396606,5.742584705352783,150,6369.0,10.145054817199707,130,9930.0
8370,0.2418346256017685,9.883454322814941,96,6369.0,6.078300952911377,12,9930.0
8380,0.24259522557258606,12.811697006225586,251,6369.0,1.0242241621017456,124,9930.0
8390,0.24272966384887695,10.620084762573242,153,6369.0,0.9944784045219421,-81,9930.0
8400,0.24357381463050842,4.808848857879639,3,6369.0,6.775994300842285,210,9930.0
8410,0.2438262701034546,-4.756965160369873,-82,6369.0,16.026540756225586,236,9930.0
8420,0.24430613219738007,-10.27586555480957,-208,6369.0,22.38632583618164,342,9930.0
8430,0.24462339282035828,-9.705928802490234,-106,6369.0,21.285688400268555,386,9930.0
8440,0.2453189492225647,-3.803058624267578,4,6369.0,14.948430061340332,62,9930.0
8450,0.24562102556228638,3.876248598098755,86,6369.0,7.273482322692871,144,9930.0
8460,0.24597297608852386,6.317845821380615,143,6369.0,-1.558077335357666,-207,9930.0
8470,0.25037437677383423,-1.8071218729019165,-135,6369.0,-15.133195877075195,-268,9930.0
8480,0.2509721517562866,-15.552799224853516,-310,6369.0,-22.121814727783203,-432,9930.0
8490,0.2514764964580536,-31.159215927124023,-646,6369.0,-24.107635498046875,-232,9930.0
8500,0.2519594132900238,-41.145782470703125,-643,6369.0,-19.36811637878418,-383,9930.0
8510,0.25256451964378357,-42.15359878540039,-681,6369.0,-17.56553840637207,-199,9930.0
8520,0.25516724586486816,-34.574249267578125,-439,6369.0,-12.002453804016113,-340,9930.0
8530,0.25588881969451904,-22.7041072845459,-292,6369.0,-9.823698997497559,-73,9930.0
8540,0.25647228956222534,-10.859367370605469,-183,6369.0,-5.432492733001709,-201,9930.0
8550,0.2573288083076477,-3.233766555786133,-31,6369.0,0.8164626955986023,177,9930.0
8560,0.2571599781513214,0.8748524785041809,24,6369.0,7.403692245483398,71,9930.0
8570,0.2582941949367523,2.5565168857574463,-4,6369.0,9.080925941467285,260,9930.0
8580,0.25917863845825195,-0.030938273295760155,-25,6369.0,6.122125625610352,24,9930.0
8590,0.2602250277996063,-0.824306845664978,-26,6369.0,-1.004492998123169,49,9930.0
8600,0.260168194770813,1.1414971351623535,64,6369.0,-7.447728633880615,-177,9930.0
8610,0.26126283407211304,4.316789150238037,65,6369.0,-7.825300216674805,-35,9930.0
8620,0.2623874247074127,-0.17775744199752808,-28,6369.0,2.0141968727111816,-5,9930.0
8630,0.26348212361335754,-6.369443416595459,-67,6369.0,12.760842323303223,353,9930.0
8640,0.2647496163845062,1.1641041040420532,33,6369.0,16.75659942626953,186,9930.0
8650,0.2639225125312805,16.089935302734375,342,6369.0,11.23270320892334,304,9930.0
8660,0.26472342014312744,29.078353881835938,467,6369.0,6.945057392120361,18,9930.0
8670,0.26584944128990173,25.130220413208008,346,6369.0,3.564309597015381,112,9930.0
8680,0.2670398950576782,10.826736450195312,64,6369.0,7.687961101531982,83,9930.0
8690,0.26414990425109863,-2.0718488693237305,-66,6369.0,15.562832832336426,281,9930.0
8700,0.2647412121295929,-12.203946113586426,-268,6369.0,23.473371505737305,367,9930.0
8710,0.26534974575042725,-18.0406494140625,-197,6369.0,21.163719177246094,271,9930.0
8720,0.2658730745315552,-10.170607566833496,-177,6369.0,8.300503730773926,53,9930.0
8730,0.26262250542640686,-0.2911733090877533,107,6369.0,-4.669602394104004,-91,9930.0
8740,0.2626146376132965,7.137733459472656,59,6369.0,-14.668638229370117,-231,9930.0
8750,0.26261913776397705,7.535529136657715,167,6369.0,-20.948774337768555,-369,9930.0
8760,0.2625701129436493,1.8480113744735718,-88,6369.0,-21.23073959350586,-234,9930.0
8770,0.2626466453075409,-11.314329147338867,-204,6369.0,-14.67302131652832,-284,9930.0
8780,0.26120221614837646,-18.594297409057617,-356,6369.0,-6.2555437088012695,79,9930.0
8790,0.26110488176345825,-21.728715896606445,-405,6369.0,4.960829257965088,40,9930.0
8800,0.26092529296875,-25.240755081176758,-394,6369.0,7.535365104675293,143,9930.0
8810,0.2606906294822693,-25.73556137084961,-459,6369.0,3.0710105895996094,7,9930.0
8820,0.2591625154018402,-15.513922691345215,-128,6369.0,-0.6311737895011902,70,9930.0
8830,0.2591245174407959,-0.8961573839187622,14,6369.0,-0.9857539534568787,-102,9930.0
8840,0.2591245472431183,9.6506986618042,202,6369.0,-5.264468193054199,23,9930.0
8850,0.2591238021850586,13.43376636505127,211,6369.0,-7.35487174987793,-245,9930.0
8860,0.25914740562438965,14.86939811706543,209,6369.0,-12.341464042663574,-112,9930.0
8870,0.2556193172931671,10.409050941467285,148,6369.0,-14.274107933044434,-342,9930.0
8880,0.25568750500679016,4.985656261444092,7,6369.0,-10.340897560119629,-38,9930.0
8890,0.25581902265548706,-2.0589499473571777,-39,6369.0,1.4780598878860474,8,9930.0
8900,0.2560836374759674,1.729314923286438,71,6369.0,9.820338249206543,304,9930.0
8910,0.2546656131744385,14.411641120910645,330,6369.0,17.08149528503418,201,9930.0
8920,0.25509247183799744,21.949249267578125,341,6369.0,22.445877075195312,421,9930.0
8930,0.2554766535758972,24.32900619506836,430,6369.0,21.462034225463867,269,9930.0
8940,0.25611910223960876,19.978130340576172,228,6369.0,17.866905212402344,232,9930.0
8950,0.25394341349601746,8.716245651245117,121,6369.0,20.173006057739258,443,9930.0
8960,0.25424396991729736,-3.2472116947174072,-120,6369.0,21.7044677734375,238,9930.0
8970,0.2547483444213867,-16.07735824584961,-319,6369.0,16.93714714050293,339,9930.0
8980,0.25501248240470886,-26.841257095336914,-420,6369.0,4.724615573883057,-22,9930.0
8990,0.2553028166294098,-26.797054290771484,-481,6369.0,-12.576393127441406,-348,9930.0
9000,0.25528913736343384,-20.545284271240234,-194,6369.0,-32.724422454833984,-546,9930.0
9010,0.2555423080921173,-11.149466514587402,-196,6369.0,-48.39745330810547,-950,9930.0
9020,0.25580692291259766,-8.341329574584961,-71,6369.0,-57.23603057861328,-878,9930.0
9030,0.25573796033859253,-8.8018798828125,-173,6369.0,-55.86248016357422,-932,9930.0
9040,0.257223904132843,-12.720460891723633,-226,6369.0,-44.75202941894531,-585,9930.0
9050,0.25772619247436523,-12.979187965393066,-242,6369.0,-26.31601905822754,-343,9930.0
9060,0.25782865285873413,-11.623156547546387,-93,6369.0,-5.1522417068481445,51,9930.0
9070,0.2581590712070465,-6.167319297790527,-120,6369.0,12.078010559082031,201,9930.0
9080,0.2587040662765503,-1.9906593561172485,16,6369.0,24.24614715576172,529,9930.0
9090,0.2587681710720062,4.362344264984131,111,6369.0,33.513614654541016,451,9930.0
9100,0.25922611355781555,11.563884735107422,178,6369.0,29.935440063476562,508,9930.0
9110,0.25978562235832214,17.244163513183594,379,6369.0,20.678966522216797,271,9930.0
9120,0.26039406657218933,17.994487762451172,153,6369.0,7.270429611206055,-56,9930.0
9130,0.26107174158096313,6.288240432739258,39,6369.0,2.0635666847229004,127,9930.0
9140,0.2620663642883301,-10.990921974182129,-227,6369.0,6.710224628448486,119,9930.0
9150,0.2631341218948364,-23.576560974121094,-455,6369.0,9.457672119140625,86,9930.0
9160,0.2641109228134155,-24.059680938720703,-298,6369.0,6.658992767333984,37,9930.0
9170,0.2650993764400482,-14.168709754943848,-161,6369.0,-0.31018558144569397,-178,9930.0
9180,0.26622873544692993,1.919876217842102,86,6369.0,-7.609306335449219,-92,9930.0
9190,0.26743653416633606,16.10512924194336,323,6369.0,-6.068359851837158,9,9930.0
9200,0.2684359550476074,21.737253189086914,374,6369.0,1.254804253578186,-131,9930.0
9210,0.2697533369064331,21.891338348388672,265,6369.0,4.72304105758667,161,9930.0
9220,0.27094218134880066,10.309103965759277,178,6369.0,1.1525782346725464,3,9930.0
9230,0.27204015851020813,0.604437530040741,-73,6369.0,-3.309455633163452,-135,9930.0
9240,0.27316856384277344,-7.856531143188477,-169,6369.0,-4.347455978393555,2,9930.0
9250,0.2743045389652252,-12.10606861114502,-137,6369.0,-5.752507209777832,-57,9930.0
9260,0.27522820234298706,-12.512312889099121,-254,6369.0,-6.905844211578369,-165,9930.0
9270,0.27632373571395874,-10.794417381286621,-129,6369.0,-9.523587226867676,-94,9930.0
9280,0.27749067544937134,-4.4695539474487305,-11,6369.0,-8.829986572265625,-146,9930.0
9290,0.27848005294799805,-0.768327534198761,-49,6369.0,-12.445390701293945,-324,9930.0
9300,0.2796476185321808,-1.9178853034973145,-90,6369.0,-13.526662826538086,-231,9930.0
9310,0.28076234459877014,-7.846835136413574,-64,6369.0,-15.556805610656738,-289,9930.0
9320,0.28171059489250183,-9.066362380981445,-200,6369.0,-13.569517135620117,-271,9930.0
9330,0.28264784812927246,-8.211684226989746,-48,6369.0,-7.20128059387207,-44,9930.0
9340,0.2836044132709503,-0.11542388796806335,119,6369.0,-6.412237644195557,-173,9930.0
9350,0.2843489646911621,9.719891548156738,109,6369.0,-11.36003303527832,-243,9930.0
9360,0.28524523973464966,12.07309627532959,238,6369.0,-18.354541778564453,-207,9930.0
9370,0.2860923111438751,13.904414176940918,216,6369.0,-23.077884674072266,-505,9930.0
9380,0.2867175340652466,17.286033630371094,308,6369.0,-23.88760757446289,-274,9930.0
9390,0.2885759472846985,27.62627410888672,485,6369.0,-13.93571662902832,-207,9930.0
9400,0.2894443869590759,30.29060935974121,504,6369.0,9.162154197692871,375,9930.0
9410,0.290214866399765,32.542381286621094,502,6369.0,30.934206008911133,498,9930.0
9420,0.29084062576293945,25.338239669799805,365,6369.0,40.95674133300781,777,9930.0
9430,0.2920350432395935,17.798940658569336,247,6369.0,48.22019577026367,772,9930.0
9440,0.29237955808639526,12.191548347473145,150,6369.0,49.49513244628906,857,9930.0
9450,0.2928275763988495,5.904656410217285,145,6369.0,41.444114685058594,542,9930.0
9460,0.29395031929016113,1.5675289630889893,-30,6369.0,22.999717712402344,242,9930.0
9470,0.2943006157875061,-2.7017643451690674,-25,6369.0,-3.6250083446502686,-102,9930.0
9480,0.29435300827026367,-10.163589477539062,-239,6369.0,-25.50140953063965,-586,9930.0
9490,0.2944890856742859,-13.540783882141113,-192,6369.0,-38.208213806152344,-560,9930.0
9500,0.29443395137786865,-12.708088874816895,-217,6369.0,-40.10982131958008,-676,9930.0
9510,0.29447731375694275,-10.198643684387207,-160,6369.0,-32.97786331176758,-402,9930.0
9520,0.29496529698371887,-8.140048027038574,-105,6369.0,-21.236242294311523,-363,9930.0
9530,0.2947659194469452,-6.272364139556885,-93,6369.0,-11.663718223571777,-113,9930.0
9540,0.29473283886909485,-4.450787544250488,-117,6369.0,-4.072869777679443,-70,9930.0
9550,0.2945123016834259,-4.016530990600586,4,6369.0,4.042660236358643,198,9930.0
9560,0.2944786548614502,-2.460258960723877,-52,6369.0,20.05069351196289,294,9930.0
9570,0.2954052984714508,-1.052870273590088,33,6369.0,30.42444610595703,589,9930.0
9580,0.2953755557537079,0.060002170503139496,42,6369.0,32.105140686035156,423,9930.0
9590,0.295504093170166,-0.4594767093658447,-19,6369.0,23.264894485473633,303,9930.0
9600,0.295585036277771,0.6034836769104004,100,6369.0,9.007609367370605,85,9930.0
9610,0.296671599149704,0.5118190050125122,-64,6369.0,-3.2248599529266357,-186,9930.0
9620,0.29679837822914124,-2.7079696655273438,-8,6369.0,-17.85948371887207,-283,9930.0
9630,0.2973164916038513,-7.070802211761475,-241,6369.0,-28.954673767089844,-554,9930.0
9640,0.29787495732307434,-14.224595069885254,-226,6369.0,-31.09869384765625,-441,9930.0
9650,0.2984614372253418,-20.58174705505371,-386,6369.0,-21.114906311035156,-372,9930.0
9660,0.29891785979270935,-19.44876480102539,-279,6369.0,-4.441414833068848,68,9930.0
9670,0.2996140420436859,-12.20654582977295,-141,6369.0,6.340702056884766,74,9930.0
9680,0.3004263639450073,-9.123889923095703,-128,6369.0,10.319816589355469,230,9930.0
9690,0.301218181848526,-6.684369087219238,-140,6369.0,16.833049774169922,323,9930.0
9700,0.3024098873138428,0.661504328250885,56,6369.0,26.69377326965332,560,9930.0
9710,0.30312952399253845,6.274489402770996,93,6369.0,27.434276580810547,357,9930.0
9720,0.3040093779563904,3.7443385124206543,-2,6369.0,20.4237003326416,320,9930.0
9730,0.3045825660228729,-1.4956440925598145,-6,6369.0,12.9454984664917,139,9930.0
9740,0.30529144406318665,-8.637714385986328,-258,6369.0,4.109152793884277,41,9930.0
9750,0.30487364530563354,-13.094850540161133,-142,6369.0,-2.348689556121826,-38,9930.0
9760,0.30535516142845154,-12.57582950592041,-277,6369.0,-5.228460311889648,-103,9930.0
9770,0.3055999279022217,-9.720823287963867,-68,6369.0,-6.039181709289551,-46,9930.0
9780,0.3057815730571747,-5.542707920074463,-172,6369.0,-4.714205741882324,-141,9930.0
9790,0.3051389157772064,-7.887433052062988,-83,6369.0,-7.479511737823486,-90,9930.0
9800,0.30522334575653076,-12.202296257019043,-287,6369.0,-12.307235717773438,-250,9930.0
9810,0.30521586537361145,-16.316978454589844,-180,6369.0,-15.769378662109375,-296,9930.0
9820,0.30518195033073425,-13.100037574768066,-226,6369.0,-17.13909912109375,-322,9930.0
9830,0.3047483265399933,-6.178282260894775,19,6369.0,-15.365878105163574,-213,9930.0
9840,0.3046850860118866,4.096498966217041,46,6369.0,-11.66878890991211,-184,9930.0
9850,0.3046974837779999,11.574530601501465,272,6369.0,-9.350442886352539,-72,9930.0
9860,0.30469557642936707,15.373340606689453,251,6369.0,-9.237762451171875,-257,9930.0
9870,0.30474019050598145,12.452781677246094,235,6369.0,-13.984762191772461,-170,9930.0
9880,0.3057659864425659,8.336614608764648,59,6369.0,-14.658792495727539,-319,9930.0
9890,0.30603039264678955,1.5167549848556519,53,6369.0,-13.02871322631836,-128,9930.0
9900,0.30637791752815247,-4.765571117401123,-178,6369.0,-2.030428647994995,40,9930.0
9910,0.3067755699157715,-6.72977876663208,-62,6369.0,17.82390022277832,414,9930.0
9920,0.3075048625469208,-8.924717903137207,-230,6369.0,36.85591506958008,616,9930.0
9930,0.3079575300216675,-9.10034465789795,-93,6369.0,44.477439880371094,827,9930.0
9940,0.30831432342529297,-5.874368190765381,-95,6369.0,43.52069854736328,517,9930.0
9950,0.30842769145965576,-2.271632671356201,18,6369.0,30.880075454711914,589,9930.0
9960,0.3095621168613434,3.6484479904174805,151,6369.0,15.50656795501709,149,9930.0
9970,0.3101200461387634,11.591630935668945,205,6369.0,-2.1147477626800537,-169,9930.0
9980,0.31044241786003113,19.27284049987793,338,6369.0,-16.09447479248047,-196,9930.0
9990,0.31068384647369385,23.099872589111328,407,6369.0,-22.67027473449707,-478,9930.0
10000,0.31091490387916565,24.890010833740234,382,6369.0,-23.9426326751709,-331,9930.0
10010,0.3106989562511444,26.139385223388672,472,6369.0,-23.01127815246582,-411,9930.0
10020,0.3107369840145111,26.89362144470215,342,6369.0,-20.69808578491211,-292,9930.0
10030,0.31088563799858093,18.905210494995117,348,6369.0,-19.865259170532227,-373,9930.0
10040,0.31113895773887634,11.115584373474121,104,6369.0,-16.9074764251709,-208,9930.0
10050,0.3111909329891205,-2.8422701358795166,-99,6369.0,-5.6819939613342285,-145,9930.0
10060,0.3114453852176666,-18.04791831970215,-378,6369.0,3.0174131393432617,127,9930.0
10070,0.3115168511867523,-32.097496032714844,-571,6369.0,15.036026954650879,206,9930.0
10080,0.31158629059791565,-32.92879867553711,-467,6369.0,18.044981002807617,388,9930.0
10090,0.31170180439949036,-23.71468734741211,-284,6369.0,15.828927040100098,90,9930.0
10100,0.31107187271118164,-4.8788862228393555,-11,6369.0,4.941951751708984,70,9930.0
10110,0.31142428517341614,10.772806167602539,313,6369.0,-8.478090286254883,-244,9930.0
10120,0.31178537011146545,18.23607063293457,264,6369.0,-20.91228485107422,-412,9930.0
10130,0.3122116029262543,18.493581771850586,351,6369.0,-25.456298828125,-346,9930.0
10140,0.3116024434566498,17.940011978149414,245,6369.0,-16.809335708618164,-300,9930.0
10150,0.31202197074890137,11.399463653564453,230,6369.0,-1.3771814107894897,60,9930.0
10160,0.31254133582115173,10.3419771194458,143,6369.0,14.07161808013916,194,9930.0
10170,0.31302011013031006,6.7838134765625,92,6369.0,20.70679473876953,438,9930.0
10180,0.31495600938796997,-4.1035566329956055,-78,6369.0,21.38022232055664,237,9930.0
10190,0.31543102860450745,-15.259521484375,-340,6369.0,18.071256637573242,379,9930.0
10200,0.31594762206077576,-24.945032119750977,-352,6369.0,18.02076530456543,284,9930.0
10210,0.3161565065383911,-25.631683349609375,-473,6369.0,14.70067310333252,151,9930.0
10220,0.3165154457092285,-15.68073844909668,-183,6369.0,5.115734577178955,116,9930.0
10230,0.3171277940273285,-1.3640806674957275,78,6369.0,-6.4971394538879395,-182,9930.0
10240,0.3173964321613312,9.189779281616211,96,6369.0,-15.954790115356445,-379,9930.0
10250,0.31764107942581177,12.766667366027832,239,6369.0,-17.955821990966797,-157,9930.0
10260,0.31780949234962463,14.492962837219238,260,6369.0,-15.252387046813965,-293,9930.0
10270,0.31757602095603943,11.678472518920898,142,6369.0,-15.585972785949707,-190,9930.0
10280,0.31771960854530334,6.333861827850342,143,6369.0,-10.952322959899902,-163,9930.0
10290,0.3178155720233917,0.8875430226325989,-97,6369.0,-5.876775741577148,-17,9930.0
10300,0.31795328855514526,-4.954026222229004,-33,6369.0,5.243452548980713,191,9930.0
10310,0.31807371973991394,-3.8791661262512207,-61,6369.0,10.039241790771484,60,9930.0
10320,0.3191041350364685,0.35003504157066345,35,6369.0,3.560682773590088,35,9930.0
10330,0.31946322321891785,5.269664287567139,128,6369.0,-6.453191757202148,-247,9930.0
10340,0.31996801495552063,3.5584018230438232,-92,6369.0,-17.570932388305664,-306,9930.0
10350,0.32047730684280396,-5.971235275268555,-52,6369.0,-19.89349937438965,-306,9930.0
10360,0.3218310475349426,-8.479877471923828,-195,6369.0,-15.037428855895996,-294,9930.0
10370,0.3225346505641937,-11.834418296813965,-108,6369.0,-6.896127223968506,12,9930.0
10380,0.3231869339942932,-8.937305450439453,-171,6369.0,5.239081859588623,129,9930.0
10390,0.323822945356369,0.01733223907649517,90,6369.0,20.010866165161133,406,9930.0
10400,0.32433179020881653,15.790626525878906,386,6369.0,27.894824981689453,383,9930.0
10410,0.325038880109787,26.742679595947266,475,6369.0,24.3212947845459,252,9930.0
10420,0.3254670202732086,33.6881103515625,585,6369.0,19.150787353515625,360,9930.0
10430,0.3257984519004822,31.54318618774414,484,6369.0,14.587262153625488,143,9930.0
10440,0.3259597718715668,18.166866302490234,197,6369.0,12.675125122070312,239,9930.0
10450,0.3275456130504608,7.511216640472412,96,6369.0,6.872133731842041,102,9930.0
10460,0.3275960683822632,-3.3229973316192627,-120,6369.0,-3.268902540206909,-154,9930.0
10470,0.327932745218277,-11.230412483215332,-120,6369.0,-8.030329704284668,-186,9930.0
10480,0.3279850482940674,-13.002944946289062,-203,6369.0,-10.461353302001953,-243,9930.0
10490,0.32963302731513977,-8.866694450378418,-87,6369.0,-17.6080322265625,-233,9930.0
10500,0.32974860072135925,-2.199413299560547,-25,6369.0,-23.696937561035156,-475,9930.0
10510,0.3298325836658478,-0.4471961259841919,-64,6369.0,-28.11293601989746,-345,9930.0
10520,0.32991480827331543,-6.55068302154541,-72,6369.0,-25.08562660217285,-461,9930.0
10530,0.3300996720790863,-13.010801315307617,-261,6369.0,-16.790735244750977,-252,9930.0
10540,0.32819315791130066,-17.779375076293945,-275,6369.0,-2.805640697479248,-22,9930.0
10550,0.3281927704811096,-18.61473846435547,-321,6369.0,6.334190845489502,117,9930.0
10560,0.32820820808410645,-16.596637725830078,-242,6369.0,7.947052001953125,186,9930.0
10570,0.32820218801498413,-12.746941566467285,-206,6369.0,4.612231731414795,-114,9930.0
10580,0.3293294608592987,-7.435969829559326,-108,6369.0,-5.794922828674316,-35,9930.0
10590,0.3295633792877197,-3.1720216274261475,29,6369.0,-13.823697090148926,-326,9930.0
10600,0.32994192838668823,-6.721175670623779,-217,6369.0,-17.994247436523438,-209,9930.0
10610,0.3302132785320282,-9.87768268585205,-106,6369.0,-7.428783416748047,-59,9930.0
10620,0.33047598600387573,-8.663838386535645,-150,6369.0,6.394699573516846,113,9930.0
10630,0.32931992411613464,5.246740818023682,159,6369.0,15.062032699584961,341,9930.0
10640,0.3294588327407837,15.754165649414062,274,6369.0,18.073545455932617,268,9930.0
10650,0.3296055793762207,22.265045166015625,343,6369.0,18.591388702392578,306,9930.0
10660,0.3298479914665222,21.315475463867188,428,6369.0,18.693241119384766,311,9930.0
10670,0.3295103907585144,14.774882316589355,131,6369.0,18.215076446533203,219,9930.0
10680,0.32945460081100464,5.646180152893066,66,6369.0,16.174095153808594,335,9930.0
10690,0.3294300436973572,-10.291584968566895,-217,6369.0,9.466350555419922,98,9930.0
10700,0.32948747277259827,-27.26323699951172,-586,6369.0,4.123953819274902,42,9930.0
10710,0.3312487006187439,-34.54591369628906,-562,6369.0,-2.9213366508483887,48,9930.0
10720,0.3311539590358734,-36.66551208496094,-543,6369.0,-7.859630584716797,-152,9930.0
10730,0.3309316337108612,-26.490211486816406,-369,6369.0,-15.341399192810059,-448,9930.0
10740,0.3324967324733734,-9.8208589553833,-134,6369.0,-21.079822540283203,-266,9930.0
10750,0.3326571583747864,3.5676910877227783,127,6369.0,-17.8416748046875,-176,9930.0
10760,0.3338337540626526,16.130002975463867,319,6369.0,-15.702836990356445,-274,9930.0
10770,0.3341599106788635,27.052024841308594,394,6369.0,-11.11401081085205,-161,9930.0
10780,0.3345887362957001,30.967050552368164,576,6369.0,-1.3645154237747192,160,9930.0
10790,0.3351096212863922,26.145952224731445,343,6369.0,18.021411895751953,228,9930.0
10800,0.33401253819465637,15.633625030517578,183,6369.0,31.572263717651367,619,9930.0
10810,0.3347490131855011,3.2728421688079834,47,6369.0,34.89872360229492,490,9930.0
10820,0.33534547686576843,-4.189110279083252,-121,6369.0,21.881553649902344,215,9930.0
10830,0.33616137504577637,-10.21570110321045,-190,6369.0,6.590444087982178,198,9930.0
10840,0.3361979126930237,-23.066579818725586,-446,6369.0,0.6714963316917419,-109,9930.0
10850,0.33679601550102234,-33.239234924316406,-603,6369.0,-8.4401273727417,-253,9930.0
10860,0.33745452761650085,-36.18024826049805,-592,6369.0,-17.828271865844727,-196,9930.0
10870,0.337978720664978,-29.50741958618164,-365,6369.0,-16.029251098632812,-211,9930.0
10880,0.3386394679546356,-13.41370964050293,-183,6369.0,-9.627689361572266,-269,9930.0
10890,0.33848729729652405,4.987263202667236,121,6369.0,-4.0445780754089355,42,9930.0
10900,0.33913758397102356,25.162181854248047,534,6369.0,4.438546180725098,178,9930.0
10910,0.3397124111652374,39.758384704589844,736,6369.0,8.552844047546387,149,9930.0
10920,0.34014955163002014,48.11790466308594,722,6369.0,10.674256324768066,170,9930.0
10930,0.33955034613609314,48.59578323364258,778,6369.0,15.278820991516113,322,9930.0
10940,0.33986008167266846,38.70548629760742,534,6369.0,14.522479057312012,122,9930.0
10950,0.3401659429073334,28.68120765686035,410,6369.0,10.966428756713867,298,9930.0
10960,0.34020546078681946,19.067798614501953,306,6369.0,10.099459648132324,112,9930.0
10970,0.340495765209198,9.560137748718262,59,6369.0,6.263873100280762,77,9930.0
10980,0.3411342203617096,-4.331024169921875,-121,6369.0,3.527313709259033,98,9930.0
10990,0.3412438929080963,-19.573482513427734,-409,6369.0,-7.2671074867248535,-331,9930.0
11000,0.3414323329925537,-28.028886795043945,-471,6369.0,-29.04310417175293,-505,9930.0
11010,0.3414219319820404,-25.396692276000977,-335,6369.0,-46.18633270263672,-834,9930.0
11020,0.34089964628219604,-18.21344566345215,-290,6369.0,-49.633583068847656,-807,9930.0
11030,0.3411622643470764,-12.364668846130371,-85,6369.0,-33.34550476074219,-333,9930.0
11040,0.34118813276290894,-0.6322495341300964,-6,6369.0,-13.842198371887207,-127,9930.0
11050,0.34170451760292053,5.63386869430542,117,6369.0,4.367901802062988,247,9930.0
11060,0.3420431613922119,14.298455238342285,346,6369.0,21.905200958251953,360,9930.0
11070,0.3411337733268738,22.20293426513672,370,6369.0,29.04668426513672,439,9930.0
11080,0.3414856791496277,29.371458053588867,491,6369.0,29.677967071533203,539,9930.0
11090,0.3419283628463745,29.639060974121094,338,6369.0,20.392698287963867,109,9930.0
11100,0.342483252286911,19.077552795410156,326,6369.0,4.2439188957214355,47,9930.0
11110,0.34308916330337524,6.208995342254639,-21,6369.0,-10.276322364807129,-301,9930.0
11120,0.34370824694633484,-6.042738914489746,-73,6369.0,-16.33761215209961,-227,9930.0
11130,0.3443313539028168,-16.803340911865234,-404,6369.0,-14.319868087768555,-230,9930.0
11140,0.3449746072292328,-27.946256637573242,-468,6369.0,-8.532465934753418,-25,9930.0
11150,0.34494665265083313,-30.399580001831055,-488,6369.0,-1.941559076309204,-81,9930.0
11160,0.34559816122055054,-22.013957977294922,-239,6369.0,0.3937574326992035,74,9930.0
11170,0.34614673256874084,-3.4273805618286133,12,6369.0,4.392619609832764,90,9930.0
11180,0.3466876447200775,11.814850807189941,212,6369.0,10.701814651489258,262,9930.0
11190,0.3471898138523102,17.10507583618164,335,6369.0,14.193164825439453,240,9930.0
11200,0.3490680754184723,19.77334213256836,255,6369.0,17.29588508605957,363,9930.0
11210,0.3494396209716797,16.647899627685547,361,6369.0,23.839265823364258,376,9930.0
11220,0.34973642230033875,13.949187278747559,144,6369.0,28.42432975769043,469,9930.0
11230,0.35002949833869934,9.28898811340332,200,6369.0,26.400747299194336,380,9930.0
11240,0.34937503933906555,4.757110595703125,-5,6369.0,16.792253494262695,225,9930.0
11250,0.3495008945465088,0.15443569421768188,25,6369.0,4.6911749839782715,96,9930.0
11260,0.3494889736175537,-4.833261013031006,-145,6369.0,-6.640970230102539,-229,9930.0
11270,0.349562406539917,-10.949728012084961,-177,6369.0,-15.836670875549316,-141,9930.0
11280,0.3495696485042572,-12.478776931762695,-234,6369.0,-18.264135360717773,-434,9930.0
11290,0.34897398948669434,-14.363972663879395,-209,6369.0,-18.30211639404297,-209,9930.0
11300,0.34901875257492065,-11.759242057800293,-216,6369.0,-16.1134090423584,-297,9930.0
11310,0.3490116596221924,-9.684114456176758,-145,6369.0,-17.76347541809082,-207,9930.0
11320,0.34911105036735535,-5.3373494148254395,-14,6369.0,-18.93724250793457,-383,9930.0
11330,0.347909152507782,3.641663074493408,110,6369.0,-16.12984275817871,-191,9930.0
11340,0.3478755056858063,10.045295715332031,159,6369.0,-6.8448405265808105,-132,9930.0
11350,0.34792670607566833,14.16722583770752,285,6369.0,4.837833404541016,166,9930.0
11360,0.34803086519241333,18.388086318969727,309,6369.0,16.469642639160156,199,9930.0
11370,0.3476775884628296,19.577333450317383,311,6369.0,21.90951156616211,485,9930.0
11380,0.34775879979133606,12.89856243133545,114,6369.0,34.160518646240234,511,9930.0
11390,0.34781187772750854,-0.6554791927337646,-85,6369.0,41.60464096069336,719,9930.0
11400,0.3482440114021301,-17.398000717163086,-387,6369.0,36.43453598022461,473,9930.0
11410,0.3481825292110443,-27.80579948425293,-428,6369.0,25.974544525146484,400,9930.0
11420,0.3480117619037628,-32.069053649902344,-484,6369.0,11.29746150970459,58,9930.0
11430,0.34801575541496277,-31.44272804260254,-549,6369.0,-1.5680205821990967,-84,9930.0
11440,0.34783369302749634,-27.723234176635742,-381,6369.0,-15.359725952148438,-250,9930.0
11450,0.34761855006217957,-21.455120086669922,-285,6369.0,-22.1107120513916,-496,9930.0
11460,0.34861883521080017,-8.812082290649414,-142,6369.0,-23.991931915283203,-297,9930.0
11470,0.3483894169330597,0.616030752658844,105,6369.0,-20.88747215270996,-361,9930.0
11480,0.3482048213481903,7.058110237121582,72,6369.0,-15.50988483428955,-313,9930.0
11490,0.34791237115859985,9.579225540161133,172,6369.0,-16.61272430419922,-240,9930.0
11500,0.34701916575431824,9.375673294067383,68,6369.0,-18.655515670776367,-403,9930.0
11510,0.3468098044395447,1.3357772827148438,14,6369.0,-10.17509937286377,10,9930.0
11520,0.3466697633266449,-4.385826110839844,-116,6369.0,8.006897926330566,70,9930.0
11530,0.34657806158065796,-12.088491439819336,-147,6369.0,18.992521286010742,389,9930.0
11540,0.34654948115348816,-11.199005126953125,-206,6369.0,21.77483367919922,286,9930.0
11550,0.34721076488494873,-8.154123306274414,-115,6369.0,18.051355361938477,313,9930.0
11560,0.34745490550994873,-9.764415740966797,-116,6369.0,5.597662925720215,-47,9930.0
11570,0.3478536605834961,-11.822488784790039,-263,6369.0,-11.995372772216797,-202,9930.0
11580,0.348249614238739,-10.828822135925293,-126,6369.0,-21.971221923828125,-381,9930.0
11590,0.3490377962589264,-9.16561508178711,-182,6369.0,-27.99803352355957,-483,9930.0
11600,0.34961041808128357,-8.432762145996094,-92,6369.0,-19.21267318725586,-112,9930.0
11610,0.35029974579811096,-3.6842379570007324,-19,6369.0,-0.5774540305137634,-78,9930.0
11620,0.35101553797721863,10.739452362060547,283,6369.0,5.2225799560546875,195,9930.0
11630,0.3517066538333893,25.759323120117188,372,6369.0,9.169144630432129,138,9930.0
11640,0.35032981634140015,26.99251365661621,471,6369.0,13.887192726135254,317,9930.0
11650,0.3508774936199188,18.865400314331055,168,6369.0,20.792312622070312,393,9930.0
11660,0.3513650894165039,0.5537360310554504,-99,6369.0,28.17098045349121,522,9930.0
11670,0.351549357175827,-17.350637435913086,-424,6369.0,24.340843200683594,299,9930.0
11680,0.35063737630844116,-27.305753707885742,-397,6369.0,13.46723747253418,204,9930.0
11690,0.3507237434387207,-22.289030075073242,-343,6369.0,-1.5881644487380981,-216,9930.0
11700,0.3506415784358978,-11.155786514282227,-135,6369.0,-13.614241600036621,-171,9930.0
11710,0.350516676902771,-2.4648830890655518,38,6369.0,-20.474416732788086,-439,9930.0
11720,0.3501569926738739,0.2868252396583557,-83,6369.0,-26.50599479675293,-412,9930.0
11730,0.34993115067481995,0.9982373714447021,83,6369.0,-31.58742904663086,-635,9930.0
11740,0.3496496081352234,-2.9604058265686035,-135,6369.0,-33.85549545288086,-475,9930.0
11750,0.34926703572273254,-9.198383331298828,-156,6369.0,-26.214860916137695,-462,9930.0
11760,0.3491401672363281,-6.955870628356934,-72,6369.0,-10.192741394042969,45,9930.0
11770,0.3494969606399536,4.1826558113098145,157,6369.0,11.770081520080566,145,9930.0
11780,0.3496820628643036,19.80329132080078,348,6369.0,28.370994567871094,538,9930.0
11790,0.3500078022480011,31.570253372192383,601,6369.0,27.575576782226562,400,9930.0
11800,0.3503546416759491,38.52512741088867,547,6369.0,16.61161231994629,212,9930.0
11810,0.3512938916683197,30.262432098388672,508,6369.0,-0.7520186305046082,-51,9930.0
11820,0.3518226444721222,18.73421859741211,189,6369.0,-19.307924270629883,-440,9930.0
11830,0.3523109555244446,6.815746784210205,147,6369.0,-30.90418243408203,-470,9930.0
11840,0.3529393672943115,0.3898693025112152,-63,6369.0,-26.227336883544922,-331,9930.0
11850,0.3539375066757202,-5.1975555419921875,-102,6369.0,-14.985967636108398,-168,9930.0
11860,0.35467562079429626,-9.888764381408691,-280,6369.0,7.064416885375977,210,9930.0
11870,0.35539552569389343,-16.02752113342285,-202,6369.0,18.671588897705078,329,9930.0
11880,0.3560267686843872,-19.69565200805664,-403,6369.0,25.697750091552734,461,9930.0
11890,0.35652366280555725,-18.646215438842773,-222,6369.0,28.760168075561523,525,9930.0
11900,0.35641422867774963,-9.515871047973633,-171,6369.0,28.973285675048828,377,9930.0
11910,0.35681867599487305,-2.650783061981201,4,6369.0,20.383981704711914,367,9930.0
11920,0.35716837644577026,2.2969582080841064,132,6369.0,7.621677875518799,46,9930.0
11930,0.357433021068573,11.565470695495605,143,6369.0,-5.460822105407715,-137,9930.0
11940,0.3570520281791687,19.02276039123535,410,6369.0,-17.59625244140625,-252,9930.0
11950,0.35704952478408813,23.11500358581543,357,6369.0,-24.571298599243164,-498,9930.0
11960,0.35704120993614197,23.618921279907227,383,6369.0,-27.771638870239258,-382,9930.0
11970,0.356904000043869,20.47190284729004,269,6369.0,-24.54922103881836,-429,9930.0
11980,0.357132226228714,10.566741943359375,114,6369.0,-17.65430450439453,-147,9930.0
11990,0.35699111223220825,-2.0948991775512695,-124,6369.0,-2.665466070175171,-53,9930.0
12000,0.3569381833076477,-16.363487243652344,-311,6369.0,11.01156997680664,408,9930.0
12010,0.3569180369377136,-25.385009765625,-429,6369.0,25.657596588134766,364,9930.0
12020,0.3569139838218689,-24.76782989501953,-340,6369.0,31.232444763183594,608,9930.0
12030,0.35571277141571045,-15.65422248840332,-184,6369.0,25.549617767333984,386,9930.0
12040,0.3557078242301941,-5.931887626647949,-131,6369.0,10.971763610839844,92,9930.0
12050,0.35581135749816895,2.181166887283325,107,6369.0,-8.73275089263916,-124,9930.0
12060,0.3560106158256531,6.321671009063721,51,6369.0,-23.56991958618164,-500,9930.0
12070,0.3561139702796936,7.859212875366211,108,6369.0,-24.25750160217285,-311,9930.0
12080,0.35579854249954224,10.663337707519531,263,6369.0,-16.1914119720459,-206,9930.0
12090,0.3559708297252655,12.036566734313965,97,6369.0,-5.9093708992004395,-38,9930.0
12100,0.3561688959598541,7.16895866394043,162,6369.0,-3.234673023223877,22,9930.0
12110,0.3562670052051544,5.089805603027344,-5,6369.0,2.2964603900909424,81,9930.0
12120,0.3561939299106598,0.8010596632957458,49,6369.0,11.31147289276123,259,9930.0
12130,0.35608991980552673,-4.76155948638916,-143,6369.0,20.68821144104004,285,9930.0
12140,0.3559030592441559,-7.958438396453857,-141,6369.0,23.47555923461914,499,9930.0
12150,0.35560399293899536,-9.180703163146973,-145,6369.0,23.076515197753906,305,9930.0
12160,0.35601067543029785,-4.163393020629883,-146,6369.0,14.467719078063965,158,9930.0
12170,0.3557986319065094,-1.7693647146224976,48,6369.0,3.461989641189575,84,9930.0
12180,0.3554742634296417,3.7373578548431396,87,6369.0,-10.121750831604004,-239,9930.0
12190,0.35513243079185486,5.800486087799072,20,6369.0,-23.021913528442383,-443,9930.0
12200,0.35467007756233215,4.661533355712891,117,6369.0,-32.26165771484375,-432,9930.0
12210,0.3555619716644287,1.7831743955612183,-7,6369.0,-32.597049713134766,-576,9930.0
12220,0.3551422953605652,-1.8854669332504272,-79,6369.0,-24.571632385253906,-293,9930.0
12230,0.3549288809299469,-4.464812755584717,0,6369.0,-7.58631706237793,-19,9930.0
12240,0.35466820001602173,-3.1821696758270264,-115,6369.0,10.902170181274414,289,9930.0
12250,0.35550814867019653,-0.6302026510238647,59,6369.0,26.32549285888672,518,9930.0
12260,0.35555651783943176,3.648982048034668,58,6369.0,31.09889793395996,415,9930.0
12270,0.3557179570198059,7.653491497039795,55,6369.0,20.678415298461914,266,9930.0
12280,0.35594746470451355,6.490838050842285,131,6369.0,-1.6731059551239014,-158,9930.0
12290,0.3563467264175415,5.037552833557129,49,6369.0,-26.523265838623047,-642,9930.0
12300,0.35783061385154724,2.3731870651245117,-48,6369.0,-37.70862579345703,-519,9930.0
12310,0.35828787088394165,-2.9012906551361084,-5,6369.0,-29.07436180114746,-387,9930.0
12320,0.3587772250175476,-8.715531349182129,-268,6369.0,-8.327105522155762,78,9930.0
12330,0.35927462577819824,-14.53170394897461,-171,6369.0,12.517542839050293,275,9930.0
12340,0.35885000228881836,-12.358756065368652,-190,6369.0,22.875478744506836,343,9930.0
12350,0.35938626527786255,-8.134688377380371,-84,6369.0,21.196044921875,413,9930.0
12360,0.35983777046203613,0.3499468266963959,39,6369.0,16.34939193725586,163,9930.0
12370,0.36017757654190063,7.0667195320129395,101,6369.0,11.693267822265625,235,9930.0
12380,0.36045464873313904,10.09632682800293,216,6369.0,8.455878257751465,136,9930.0
12390,0.36184635758399963,11.311213493347168,136,6369.0,6.833287715911865,33,9930.0
12400,0.3621453642845154,6.96331787109375,116,6369.0,4.443343162536621,19,9930.0
12410,0.3623470366001129,4.585165977478027,-7,6369.0,3.5111069679260254,-19,9930.0
12420,0.36250749230384827,0.7744927406311035,30,6369.0,1.6887911558151245,124,9930.0
12430,0.363991379737854,-0.7388819456100464,-51,6369.0,-1.3627561330795288,-174,9930.0
12440,0.36410313844680786,-3.028866767883301,-22,6369.0,-9.089937210083008,-130,9930.0
12450,0.3641732335090637,-8.078432083129883,-85,6369.0,-13.571022987365723,-321,9930.0
12460,0.36419862508773804,-6.638224124908447,-115,6369.0,-14.219157218933105,-179,9930.0
12470,0.3641204535961151,-6.872798442840576,-26,6369.0,-7.572747230529785,-137,9930.0
12480,0.36415353417396545,-5.928901195526123,-201,6369.0,0.0872340202331543,22,9930.0
12490,0.36428970098495483,-7.39429235458374,-53,6369.0,5.458041667938232,171,9930.0
12500,0.36451542377471924,-6.893561840057373,-197,6369.0,7.316738128662109,43,9930.0
12510,0.36482611298561096,-5.161670684814453,-20,6369.0,-0.9839910864830017,28,9930.0
12520,0.3639645278453827,-4.428347110748291,-81,6369.0,-8.310003280639648,-260,9930.0
12530,0.36429354548454285,-2.365985155105591,18,6369.0,-13.601612091064453,-200,9930.0
12540,0.36458489298820496,-2.1867787837982178,-32,6369.0,-15.243852615356445,-323,9930.0
12550,0.3649091124534607,-6.42383337020874,-158,6369.0,-10.195873260498047,-94,9930.0
12560,0.36574622988700867,-15.42945671081543,-263,6369.0,-0.2917206585407257,-52,9930.0
12570,0.3661952614784241,-14.016888618469238,-242,6369.0,4.844587802886963,127,9930.0
12580,0.36662986874580383,-8.3131103515625,-59,6369.0,13.614509582519531,210,9930.0
12590,0.3670699894428253,2.4335238933563232,9,6369.0,16.63698387145996,269,9930.0
12600,0.3659045994281769,8.712493896484375,248,6369.0,16.374706268310547,339,9930.0
12610,0.3662378191947937,15.386167526245117,229,6369.0,15.75318717956543,118,9930.0
12620,0.36648112535476685,20.27702522277832,361,6369.0,7.904303550720215,181,9930.0
12630,0.36665263772010803,21.3493595123291,350,6369.0,-3.4806787967681885,-174,9930.0
12640,0.36661678552627563,17.57720184326172,249,6369.0,-9.251054763793945,-96,9930.0
12650,0.36616063117980957,11.631175994873047,233,6369.0,-5.57448673248291,-57,9930.0
12660,0.365840882062912,6.256825923919678,-22,6369.0,1.0197545289993286,72,9930.0
12670,0.3654507100582123,1.603856086730957,77,6369.0,6.02023983001709,121,9930.0
12680,0.3650369644165039,1.8222746849060059,-18,6369.0,5.514130115509033,-44,9930.0
12690,0.36461424827575684,3.524717092514038,95,6369.0,1.358267068862915,98,9930.0
12700,0.3641355335712433,3.999159812927246,35,6369.0,-0.027118204161524773,-94,9930.0
12710,0.3636181354522705,-0.13105706870555878,-29,6369.0,-0.4576150178909302,25,9930.0
12720,0.3631112277507782,-5.467431545257568,-58,6369.0,3.0132312774658203,78,9930.0
12730,0.36267200112342834,-10.037546157836914,-258,6369.0,10.367390632629395,138,9930.0
12740,0.362029492855072,-12.27966594696045,-160,6369.0,11.719575881958008,280,9930.0
12750,0.3617633581161499,-12.532946586608887,-225,6369.0,6.904252529144287,12,9930.0
12760,0.3615589737892151,-7.294047832489014,-120,6369.0,-2.5334184169769287,-89,9930.0
12770,0.3615553379058838,-2.8721485137939453,68,6369.0,-13.984845161437988,-315,9930.0
12780,0.36055788397789,3.276113748550415,7,6369.0,-22.662921905517578,-489,9930.0
12790,0.3606520891189575,0.9198130965232849,40,6369.0,-15.909845352172852,-150,9930.0
12800,0.3607105612754822,-9.830944061279297,-178,6369.0,-7.126843452453613,-129,9930.0
12810,0.36076200008392334,-17.199769973754883,-346,6369.0,-0.9578595757484436,47,9930.0
12820,0.3596762716770172,-10.022795677185059,-28,6369.0,5.602844715118408,184,9930.0
12830,0.3596512973308563,7.991462230682373,167,6369.0,14.161535263061523,160,9930.0
12840,0.3596457540988922,21.607961654663086,385,6369.0,21.797380447387695,451,9930.0
12850,0.35950711369514465,29.89219093322754,554,6369.0,21.942514419555664,397,9930.0
12860,0.35955920815467834,34.88681411743164,535,6369.0,22.978336334228516,262,9930.0
12870,0.3604930341243744,27.754785537719727,400,6369.0,18.404502868652344,378,9930.0
12880,0.36025044322013855,12.29896068572998,170,6369.0,10.716530799865723,149,9930.0
12890,0.3602527976036072,-4.2159743309021,-188,6369.0,0.858989953994751,-119,9930.0
12900,0.3600606620311737,-15.462772369384766,-256,6369.0,-8.774275779724121,-62,9930.0
12910,0.36024874448776245,-15.784181594848633,-218,6369.0,-17.634998321533203,-353,9930.0
12920,0.3599116802215576,-10.197000503540039,-174,6369.0,-25.953754425048828,-507,9930.0
12930,0.35954296588897705,-6.0694499015808105,-10,6369.0,-26.440906524658203,-258,9930.0
12940,0.35915040969848633,-3.6722352504730225,-99,6369.0,-16.473054885864258,-263,9930.0
12950,0.35879090428352356,0.27975839376449585,-37,6369.0,-12.442331314086914,-138,9930.0
12960,0.3570460379123688,4.923767566680908,211,6369.0,-8.705293655395508,-47,9930.0
12970,0.35685279965400696,11.989252090454102,151,6369.0,3.1812987327575684,16,9930.0
12980,0.35668081045150757,15.174766540527344,285,6369.0,14.014338493347168,366,9930.0
12990,0.3565405011177063,13.057028770446777,162,6369.0,19.637636184692383,326,9930.0
13000,0.35598108172416687,4.038492679595947,-46,6369.0,22.183452606201172,378,9930.0
13010,0.3560958802700043,-8.094103813171387,-129,6369.0,17.730499267578125,250,9930.0
13020,0.35627004504203796,-17.8983097076416,-362,6369.0,1.8027420043945312,-158,9930.0
13030,0.356550008058548,-22.131023406982422,-416,6369.0,-16.55506706237793,-354,9930.0
13040,0.3573031723499298,-32.08319854736328,-612,6369.0,-29.395233154296875,-585,9930.0
13050,0.3576882779598236,-38.14873123168945,-727,6369.0,-34.03104019165039,-511,9930.0
13060,0.3581085205078125,-43.335838317871094,-643,6369.0,-30.2879581451416,-392,9930.0
13070,0.3588906526565552,-36.85431671142578,-549,6369.0,-20.382295608520508,-367,9930.0
13080,0.3593616485595703,-15.689176559448242,-167,6369.0,-4.348142623901367,67,9930.0
13090,0.3607311546802521,10.431769371032715,398,6369.0,10.686213493347168,266,9930.0
13100,0.3614126443862915,43.99002456665039,803,6369.0,17.91900634765625,284,9930.0
13110,0.36220696568489075,58.416114807128906,939,6369.0,24.758058547973633,404,9930.0
13120,0.3627191483974457,58.13923263549805,942,6369.0,29.692800521850586,616,9930.0
13130,0.3639196753501892,47.28068161010742,614,6369.0,32.30350875854492,396,9930.0
13140,0.36487409472465515,26.32495880126953,316,6369.0,28.387022018432617,547,9930.0
13150,0.36528247594833374,6.758819103240967,28,6369.0,16.923280715942383,176,9930.0
13160,0.36563366651535034,-8.813594818115234,-277,6369.0,-1.633113145828247,-113,9930.0
13170,0.36598068475723267,-20.437545776367188,-286,6369.0,-22.574668884277344,-430,9930.0
13180,0.366537868976593,-26.960153579711914,-486,6369.0,-34.23017120361328,-673,9930.0
13190,0.36674952507019043,-29.85968780517578,-426,6369.0,-33.00653839111328,-435,9930.0
13200,0.3668879270553589,-33.99778747558594,-558,6369.0,-20.948415756225586,-310,9930.0
13210,0.3670838475227356,-34.725440979003906,-583,6369.0,-5.758256912231445,26,9930.0
13220,0.36692023277282715,-28.52659797668457,-349,6369.0,6.906001567840576,141,9930.0
13230,0.3673931956291199,-13.015740394592285,-176,6369.0,13.576766014099121,209,9930.0
13240,0.36784854531288147,3.8856112957000732,140,6369.0,18.57441520690918,368,9930.0
13250,0.3683677911758423,19.297338485717773,431,6369.0,19.107372283935547,292,9930.0
13260,0.37112388014793396,26.664522171020508,405,6369.0,17.73383903503418,197,9930.0
13270,0.37180787324905396,25.796161651611328,413,6369.0,17.46784019470215,449,9930.0
13280,0.37249162793159485,15.467633247375488,210,6369.0,17.082117080688477,172,9930.0
13290,0.3731064200401306,0.19570448994636536,-161,6369.0,3.9556829929351807,17,9930.0
13300,0.3736840784549713,-12.172797203063965,-216,6369.0,-9.294682502746582,-182,9930.0
13310,0.3752639591693878,-18.6037654876709,-347,6369.0,-14.101921081542969,-308,9930.0
13320,0.3757568895816803,-19.257421493530273,-255,6369.0,-7.846693515777588,-6,9930.0
13330,0.37616705894470215,-6.3343825340271,4,6369.0,0.9271408319473267,40,9930.0
13340,0.37653782963752747,11.35056209564209,204,6369.0,10.35842514038086,169,9930.0
13350,0.3769322335720062,28.886632919311523,578,6369.0,12.154243469238281,284,9930.0
13360,0.37719830870628357,40.99613571166992,649,6369.0,18.578079223632812,233,9930.0
13370,0.3773929476737976,40.79534149169922,660,6369.0,20.453020095825195,422,9930.0
13380,0.37760984897613525,34.45929718017578,525,6369.0,17.878433227539062,172,9930.0
13390,0.37761279940605164,26.34029769897461,370,6369.0,8.525914192199707,164,9930.0
13400,0.37762245535850525,17.252737045288086,279,6369.0,-0.6654874682426453,-149,9930.0
13410,0.37743428349494934,7.505258083343506,59,6369.0,-9.349120140075684,-130,9930.0
13420,0.37712278962135315,-2.1447298526763916,-77,6369.0,-16.103410720825195,-375,9930.0
13430,0.3767912983894348,-11.984211921691895,-294,6369.0,-17.737506866455078,-110,9930.0
13440,0.37700173258781433,-23.475757598876953,-375,6369.0,-9.429814338684082,-219,9930.0
13450,0.37664681673049927,-30.8972225189209,-578,6369.0,-4.173704624176025,9,9930.0
13460,0.37621036171913147,-31.925342559814453,-471,6369.0,-1.4197238683700562,-111,9930.0
13470,0.3756791651248932,-28.98906898498535,-487,6369.0,-4.525354862213135,-100,9930.0
13480,0.37546923756599426,-23.386289596557617,-330,6369.0,-6.561517238616943,-56,9930.0
13490,0.37505224347114563,-14.876662254333496,-212,6369.0,-6.557089805603027,-210,9930.0
13500,0.3747044503688812,-6.225473880767822,-151,6369.0,-9.053016662597656,-197,9930.0
13510,0.3744628131389618,0.6274541616439819,104,6369.0,-11.405280113220215,-129,9930.0
13520,0.3742081820964813,4.816962242126465,13,6369.0,-13.165854454040527,-301,9930.0
13530,0.375349223613739,0.5659951567649841,-77,6369.0,-8.549816131591797,-4,9930.0
13540,0.37530621886253357,-12.338244438171387,-174,6369.0,0.29577791690826416,15,9930.0
13550,0.3753376007080078,-17.036701202392578,-342,6369.0,12.289999008178711,178,9930.0
13560,0.37535545229911804,-8.958735466003418,-52,6369.0,23.94648551940918,542,9930.0
13570,0.37514960765838623,14.086097717285156,444,6369.0,28.411701202392578,458,9930.0
13580,0.37507542967796326,37.43101501464844,596,6369.0,26.083431243896484,406,9930.0
13590,0.37498152256011963,42.501644134521484,594,6369.0,22.393892288208008,257,9930.0
13600,0.37470144033432007,33.135948181152344,490,6369.0,6.880270957946777,176,9930.0
13610,0.3743149936199188,18.218711853027344,139,6369.0,-3.046400547027588,-230,9930.0
13620,0.3741517961025238,-0.07784562557935715,-164,6369.0,-16.416547775268555,-324,9930.0
13630,0.37386035919189453,-19.342266082763672,-316,6369.0,-24.73429298400879,-323,9930.0
13640,0.37346020340919495,-28.30109977722168,-520,6369.0,-27.28582191467285,-556,9930.0
13650,0.37293240427970886,-25.393484115600586,-350,6369.0,-20.199199676513672,-177,9930.0
13660,0.3722827434539795,-14.802329063415527,-89,6369.0,-2.6829819679260254,4,9930.0
13670,0.3716892600059509,-2.912846803665161,-99,6369.0,9.203768730163574,95,9930.0
13680,0.37110280990600586,-1.2884202003479004,-52,6369.0,10.382888793945312,126,9930.0
13690,0.3705049455165863,-3.2298269271850586,-87,6369.0,4.779660224914551,-13,9930.0
13700,0.3699832856655121,-6.581446647644043,-194,6369.0,0.6139764785766602,-11,9930.0
13710,0.3695142865180969,-8.04347038269043,-54,6369.0,-3.558711290359497,36,9930.0
13720,0.3690994679927826,-5.576094150543213,-102,6369.0,-8.750970840454102,-202,9930.0
13730,0.3687608242034912,-7.526837348937988,-173,6369.0,-7.980950832366943,-173,9930.0
13740,0.36846718192100525,-5.864589691162109,-49,6369.0,-6.502567768096924,28,9930.0
13750,0.36777088046073914,-10.35289478302002,-114,6369.0,0.2695767283439636,2,9930.0
13760,0.3675929009914398,-19.64542007446289,-435,6369.0,1.5211101770401,-32,9930.0
13770,0.36759212613105774,-23.27914047241211,-309,6369.0,-3.7944469451904297,-16,9930.0
13780,0.3675096333026886,-15.743139266967773,-157,6369.0,-3.6837542057037354,-37,9930.0
13790,0.3672817647457123,-5.088778972625732,-82,6369.0,3.315687656402588,-1,9930.0
13800,0.3672747313976288,12.160326957702637,226,6369.0,10.709641456604004,224,9930.0
13810,0.3673146963119507,30.875282287597656,619,6369.0,14.361420631408691,344,9930.0
13820,0.36720865964889526,45.65227127075195,819,6369.0,11.462791442871094,152,9930.0
13830,0.36660924553871155,49.574825286865234,759,6369.0,6.398715972900391,-17,9930.0
13840,0.3663663864135742,44.2177848815918,670,6369.0,-0.8733229637145996,109,9930.0
13850,0.3659079968929291,28.63060760498047,459,6369.0,-3.068657398223877,-99,9930.0
13860,0.3661768436431885,15.169110298156738,138,6369.0,-7.5594801902771,-138,9930.0
13870,0.36593225598335266,7.8452534675598145,183,6369.0,-15.791515350341797,-223,9930.0
13880,0.3668762743473053,3.420912981033325,-33,6369.0,-25.026397705078125,-566,9930.0
13890,0.3666478097438812,-3.2014646530151367,-83,6369.0,-24.655834197998047,-272,9930.0
13900,0.36642318964004517,-13.781575202941895,-295,6369.0,-14.692752838134766,-260,9930.0
13910,0.3662607669830322,-20.41653823852539,-337,6369.0,-6.866220474243164,1,9930.0
13920,0.3656516969203949,-26.859439849853516,-458,6369.0,0.7353089451789856,-22,9930.0
13930,0.36550456285476685,-29.983766555786133,-575,6369.0,4.161001682281494,102,9930.0
13940,0.3653770685195923,-27.168359756469727,-359,6369.0,3.3815722465515137,100,9930.0
13950,0.3652532994747162,-19.268186569213867,-370,6369.0,-2.393339157104492,-142,9930.0
13960,0.36531347036361694,-9.838445663452148,-146,6369.0,-6.7394633293151855,-84,9930.0
13970,0.36601075530052185,-4.791556358337402,3,6369.0,-9.452775955200195,-99,9930.0
13980,0.36612993478775024,-3.9787814617156982,-101,6369.0,-1.976509928703308,-103,9930.0
13990,0.3663301467895508,-6.445428371429443,-121,6369.0,8.366796493530273,273,9930.0
14000,0.3667249083518982,-8.29096508026123,-17,6369.0,15.845870018005371,250,9930.0
14010,0.3667067885398865,-6.129219055175781,-137,6369.0,13.665009498596191,52,9930.0
14020,0.36715003848075867,-5.3258819580078125,-53,6369.0,11.709077835083008,295,9930.0
14030,0.36763930320739746,-3.0357956886291504,45,6369.0,15.17161750793457,256,9930.0
14040,0.3681929111480713,1.7059955596923828,35,6369.0,17.213869094848633,157,9930.0
14050,0.3684605658054352,7.511407852172852,82,6369.0,16.39714813232422,329,9930.0
14060,0.3689117729663849,15.036190032958984,361,6369.0,15.947896957397461,301,9930.0
14070,0.3692505657672882,27.76902198791504,436,6369.0,16.13748550415039,120,9930.0
14080,0.3694749176502228,33.359092712402344,535,6369.0,7.376035213470459,124,9930.0
14090,0.3698177933692932,33.328025817871094,609,6369.0,-7.734218597412109,-193,9930.0
14100,0.3701924681663513,32.84532165527344,435,6369.0,-23.691133499145508,-582,9930.0
