timestamp,kalman.stateZ,gyro.x,gyro.xRaw,gyro.xVariance,gyro.y,gyro.yRaw,gyro.yVariance
0,0.31244805455207825,1.188357949256897,16,6343.0,0.07253242284059525,6,9953.0
10,0.31175369024276733,0.8774293661117554,12,6343.0,0.21990296244621277,8,9953.0
20,0.31170690059661865,0.8881252408027649,7,6343.0,-0.10723195225000381,1,9953.0
30,0.3116630017757416,-0.1352095603942871,-10,6343.0,-0.2135702222585678,-6,9953.0
40,0.31162020564079285,-0.9432476758956909,-17,6343.0,-0.767276406288147,-17,9953.0
50,0.31158602237701416,-1.474082589149475,-24,6343.0,-1.010631799697876,-21,9953.0
60,0.31154903769493103,-1.3821879625320435,-19,6343.0,-1.2533020973205566,-19,9953.0
70,0.3115237057209015,-1.0842493772506714,-13,6343.0,-1.3848676681518555,-20,9953.0
80,0.3114890456199646,-0.11884264647960663,-3,6343.0,-1.8307716846466064,-27,9953.0
90,0.31145456433296204,0.5019000172615051,15,6343.0,-1.8192548751831055,-24,9953.0
100,0.3122945725917816,1.1882572174072266,24,6343.0,-1.318783164024353,-13,9953.0
110,0.3123151659965515,1.8420758247375488,28,6343.0,-1.052383542060852,-13,9953.0
120,0.312364399433136,1.6470298767089844,24,6343.0,-0.5699548721313477,-2,9953.0
130,0.31239259243011475,1.1110519170761108,13,6343.0,0.05014168098568916,9,9953.0
140,0.31288471817970276,0.3351525366306305,6,6343.0,0.7650040984153748,21,9953.0
150,0.31294870376586914,-0.43542781472206116,-3,6343.0,1.1696721315383911,29,9953.0
160,0.3130059242248535,-1.0081709623336792,-18,6343.0,1.4082598686218262,27,9953.0
170,0.31306540966033936,-0.9737812876701355,-10,6343.0,0.12379103153944016,-7,9953.0
180,0.31313830614089966,0.41777199506759644,7,6343.0,-2.8290796279907227,-44,9953.0
190,0.3137890100479126,0.8863253593444824,42,6343.0,-6.193750381469727,-120,9953.0
200,0.31394073367118835,3.349548816680908,60,6343.0,-14.348475456237793,-284,9953.0
210,0.31411245465278625,2.810716390609741,61,6343.0,-22.556386947631836,-394,9953.0
220,0.3142746388912201,2.922316789627075,51,6343.0,-31.15513801574707,-592,9953.0
230,0.3141758441925049,1.7239552736282349,29,6343.0,-40.74106216430664,-690,9953.0
240,0.31454184651374817,1.2283062934875488,38,6343.0,-49.50648880004883,-859,9953.0
250,0.31471794843673706,2.8170664310455322,37,6343.0,-55.7417106628418,-928,9953.0
260,0.31480973958969116,3.525357723236084,79,6343.0,-57.650062561035156,-996,9953.0
270,0.316050261259079,2.0306084156036377,74,6343.0,-56.14104080200195,-898,9953.0
280,0.31649625301361084,2.792740821838379,21,6343.0,-48.61286163330078,-739,9953.0
290,0.31675276160240173,0.9260345697402954,37,6343.0,-36.50858688354492,-601,9953.0
300,0.3168509900569916,2.6030969619750977,17,6343.0,-25.64849090576172,-315,9953.0
310,0.3174896836280823,1.6543292999267578,83,6343.0,-10.595972061157227,-143,9953.0
320,0.3182111978530884,1.657981038093567,8,6343.0,1.9309011697769165,71,9953.0
330,0.3187728226184845,1.5632236003875732,-57,6343.0,13.883539199829102,378,9953.0
340,0.31919845938682556,0.5641372203826904,0,6343.0,21.941829681396484,469,9953.0
350,0.3196658194065094,-0.03158244490623474,64,6343.0,28.85162353515625,407,9953.0
360,0.3184358477592468,0.7016400694847107,26,6343.0,31.07601547241211,439,9953.0
370,0.3187737762928009,0.9993739128112793,21,6343.0,27.742401123046875,479,9953.0
380,0.31912052631378174,0.5222225189208984,26,6343.0,25.26099395751953,411,9953.0
390,0.3194848299026489,1.080384612083435,22,6343.0,19.247291564941406,353,9953.0
400,0.31987571716308594,1.317772388458252,104,6343.0,14.527609825134277,48,9953.0
410,0.3169359564781189,2.748030424118042,51,6343.0,5.425902366638184,-22,9953.0
420,0.3171674311161041,2.7937991619110107,82,6343.0,-1.582316279411316,-202,9953.0
430,0.3174470067024231,3.845127820968628,-9,6343.0,-9.896632194519043,-237,9953.0
440,0.317770391702652,4.113480567932129,25,6343.0,-14.386046409606934,-188,9953.0
450,0.31765419244766235,3.3609721660614014,-15,6343.0,-18.241029739379883,-273,9953.0
460,0.31804001331329346,1.7911491394042969,-62,6343.0,-20.420440673828125,-202,9953.0
470,0.3184056878089905,1.6101019382476807,-98,6343.0,-18.690235137939453,-324,9953.0
480,0.3187275826931,-1.3893102407455444,-80,6343.0,-16.63274383544922,-145,9953.0
490,0.319179505109787,-2.6948955059051514,-99,6343.0,-10.314189910888672,-175,9953.0
500,0.31906256079673767,-4.595668315887451,-75,6343.0,-2.2918033599853516,33,9953.0
510,0.3194515109062195,-1.5593945980072021,-26,6343.0,2.50246000289917,16,9953.0
520,0.3198620676994324,-1.0672407150268555,17,6343.0,11.477413177490234,79,9953.0
530,0.32039201259613037,-0.5354511737823486,-75,6343.0,16.87668800354004,268,9953.0
540,0.3205275237560272,2.122034788131714,64,6343.0,17.98296546936035,251,9953.0
550,0.3209242820739746,0.9438840746879578,19,6343.0,18.378164291381836,422,9953.0
560,0.3211917579174042,2.6068332195281982,-51,6343.0,13.413314819335938,382,9953.0
570,0.3215726912021637,0.5179082155227661,-39,6343.0,13.390190124511719,148,9953.0
580,0.32156991958618164,2.7118072509765625,-16,6343.0,6.425217628479004,65,9953.0
590,0.3218061327934265,1.6654647588729858,22,6343.0,1.8895938396453857,47,9953.0
600,0.32200756669044495,0.4147835373878479,52,6343.0,-2.348379135131836,-196,9953.0
610,0.3222092390060425,0.31794247031211853,34,6343.0,-4.791005611419678,-197,9953.0
620,0.32242149114608765,-1.0014660358428955,-31,6343.0,-10.370282173156738,-36,9953.0
630,0.3208041787147522,-0.6723994612693787,-75,6343.0,-10.596291542053223,-62,9953.0
640,0.32090213894844055,-1.2725509405136108,-30,6343.0,-8.894474983215332,-206,9953.0
650,0.3209972381591797,-0.8022284507751465,46,6343.0,-9.287008285522461,-290,9953.0
660,0.3210989832878113,0.7307934761047363,-58,6343.0,-11.004965782165527,-228,9953.0
670,0.3199279010295868,0.38414183259010315,71,6343.0,-10.374752044677734,-176,9953.0
680,0.3198413550853729,-1.0591710805892944,-80,6343.0,-12.927151679992676,-29,9953.0
690,0.31985345482826233,-0.9608179330825806,-43,6343.0,-7.551609516143799,-231,9953.0
700,0.3198896050453186,-0.7988206148147583,73,6343.0,-5.370349407196045,-186,9953.0
710,0.3189191520214081,-0.6575959920883179,54,6343.0,-6.037138938903809,-2,9953.0
720,0.3190370500087738,-1.4722962379455566,-73,6343.0,-2.4646100997924805,-11,9953.0
730,0.31904512643814087,-2.7628118991851807,-68,6343.0,1.5242000818252563,-33,9953.0
740,0.31895551085472107,-2.7143821716308594,-2,6343.0,0.5364793539047241,59,9953.0
750,0.3188914358615875,-0.9791428446769714,0,6343.0,1.0385397672653198,39,9953.0
760,0.32014498114585876,0.6831746697425842,-46,6343.0,4.798070430755615,104,9953.0
770,0.3201930522918701,0.9696637988090515,13,6343.0,4.044356346130371,95,9953.0
780,0.32018962502479553,-0.38774779438972473,16,6343.0,1.2872576713562012,-81,9953.0
790,0.3201107084751129,-0.5309712290763855,-8,6343.0,0.8338754773139954,37,9953.0
800,0.3199523985385895,-1.8029253482818604,-64,6343.0,1.505082607269287,186,9953.0
810,0.3196919560432434,-0.982568085193634,-82,6343.0,3.842930555343628,17,9953.0
820,0.3194366693496704,-0.759305477142334,59,6343.0,2.3504583835601807,-77,9953.0
830,0.3192653954029083,-1.6765968799591064,15,6343.0,-0.5464341640472412,113,9953.0
840,0.3192788064479828,2.9186477661132812,-9,6343.0,-4.345529556274414,69,9953.0
850,0.3212364614009857,0.8706691861152649,10,6343.0,-3.569105386734009,-170,9953.0
860,0.3214625120162964,2.185133695602417,72,6343.0,-6.469846248626709,-149,9953.0
870,0.3216467499732971,-0.2955307364463806,-22,6343.0,-7.777099132537842,-19,9953.0
880,0.32181021571159363,-1.2890911102294922,-62,6343.0,-8.133357048034668,-146,9953.0
890,0.3200194537639618,-1.0354832410812378,-2,6343.0,-6.4555559158325195,-210,9953.0
900,0.32012149691581726,-0.30233731865882874,18,6343.0,-5.997944355010986,-43,9953.0
910,0.32024532556533813,-0.2260926365852356,-16,6343.0,-4.267941951751709,19,9953.0
920,0.3205263912677765,-1.0267369747161865,-31,6343.0,-0.5071927309036255,-35,9953.0
930,0.31924372911453247,0.2945437729358673,28,6343.0,-0.21837185323238373,-47,9953.0
940,0.3191854953765869,0.5332751274108887,45,6343.0,1.0170159339904785,53,9953.0
950,0.3190600275993347,1.3327043056488037,-2,6343.0,2.7495319843292236,46,9953.0
960,0.3188673257827759,-0.9844053983688354,-29,6343.0,2.2388246059417725,27,9953.0
970,0.3186478614807129,-0.41115739941596985,53,6343.0,0.3208961486816406,25,9953.0
980,0.31987208127975464,-0.36712202429771423,25,6343.0,2.7615208625793457,53,9953.0
990,0.3199872076511383,0.6348145008087158,-32,6343.0,-0.8698767423629761,57,9953.0
1000,0.32007384300231934,0.8000995516777039,21,6343.0,2.998365640640259,58,9953.0
1010,0.3202662169933319,0.03115495853126049,52,6343.0,8.406484603881836,38,9953.0
1020,0.32065120339393616,-0.21867573261260986,-68,6343.0,7.536067962646484,192,9953.0
1030,0.32086747884750366,-0.795261025428772,-70,6343.0,6.611900806427002,212,9953.0
1040,0.32099688053131104,-3.484318733215332,9,6343.0,8.908329010009766,11,9953.0
1050,0.3210925757884979,-0.7942619323730469,-3,6343.0,7.268893241882324,91,9953.0
1060,0.32127633690834045,-0.48107773065567017,-50,6343.0,5.434441089630127,208,9953.0
1070,0.3209448754787445,1.3952492475509644,38,6343.0,5.218791961669922,21,9953.0
1080,0.3211270868778229,0.7653234004974365,94,6343.0,3.530949592590332,-149,9953.0
1090,0.32128095626831055,2.2955241203308105,57,6343.0,-0.15201354026794434,111,9953.0
1100,0.3213306665420532,2.886155605316162,23,6343.0,-1.2474373579025269,170,9953.0
1110,0.3215634524822235,2.4337964057922363,66,6343.0,3.956051826477051,-143,9953.0
1120,0.3214475214481354,2.2423455715179443,88,6343.0,3.165442705154419,-26,9953.0
1130,0.3213450014591217,0.8920850157737732,55,6343.0,-2.083517551422119,-7,9953.0
1140,0.3213513195514679,-0.8614650368690491,-70,6343.0,0.003319079987704754,-8,9953.0
1150,0.32090386748313904,-2.4427592754364014,-72,6343.0,2.17207670211792,-89,9953.0
1160,0.3210952877998352,-2.505584239959717,-48,6343.0,1.3140454292297363,75,9953.0
1170,0.3213382959365845,-0.7727531790733337,-8,6343.0,-1.0894107818603516,115,9953.0
1180,0.3215535879135132,1.3896881341934204,0,6343.0,-1.1723287105560303,-107,9953.0
1190,0.32167986035346985,2.520375967025757,66,6343.0,-3.291130304336548,-138,9953.0
1200,0.32143551111221313,2.3945868015289307,43,6343.0,-3.7576181888580322,95,9953.0
1210,0.32145071029663086,1.1333061456680298,-36,6343.0,-3.3758881092071533,3,9953.0
1220,0.32140228152275085,-0.6544329524040222,47,6343.0,-1.9493249654769897,-167,9953.0
1230,0.3213309943675995,-0.577763020992279,-26,6343.0,-3.0039873123168945,-92,9953.0
1240,0.3208054006099701,-1.9548251628875732,-92,6343.0,-5.1609673500061035,-58,9953.0
1250,0.320783793926239,-3.032662868499756,-19,6343.0,-7.105291843414307,-47,9953.0
1260,0.3207913041114807,-1.2948213815689087,-80,6343.0,-7.823294639587402,-19,9953.0
1270,0.3208584189414978,-0.09818429499864578,53,6343.0,-6.1919403076171875,-203,9953.0
1280,0.3217906355857849,1.5693893432617188,11,6343.0,-4.372757434844971,-105,9953.0
1290,0.32208338379859924,1.306985855102539,71,6343.0,-0.6923546195030212,-250,9953.0
1300,0.32243189215660095,3.756857395172119,28,6343.0,-0.7479345798492432,23,9953.0
1310,0.32278504967689514,1.9429749250411987,29,6343.0,-0.6840100288391113,-33,9953.0
1320,0.3231426179409027,1.8733735084533691,-14,6343.0,-0.4096647799015045,187,9953.0
1330,0.32329776883125305,0.14103376865386963,-2,6343.0,0.41584500670433044,73,9953.0
1340,0.3236371576786041,-0.05442783981561661,-14,6343.0,-1.2404210567474365,184,9953.0
1350,0.32402798533439636,-0.16435760259628296,-44,6343.0,-0.2542831599712372,58,9953.0
1360,0.3245183229446411,0.5728344321250916,-33,6343.0,0.8386933207511902,37,9953.0
1370,0.3246421217918396,-1.2335193157196045,61,6343.0,-0.24426431953907013,-21,9953.0
1380,0.3251417279243469,0.5457329750061035,-19,6343.0,0.8280521035194397,-79,9953.0
1390,0.32561513781547546,1.2354178428649902,92,6343.0,-0.9855263829231262,-110,9953.0
1400,0.32603490352630615,2.125701665878296,35,6343.0,1.5675361156463623,-110,9953.0
1410,0.32641392946243286,0.968169093132019,69,6343.0,-0.8629454374313354,-19,9953.0
1420,0.32628029584884644,-2.4046502113342285,50,6343.0,2.081726312637329,-77,9953.0
1430,0.3267439007759094,-0.3530106544494629,-37,6343.0,3.7840030193328857,54,9953.0
1440,0.3272418677806854,-0.4837733507156372,36,6343.0,4.511866092681885,44,9953.0
1450,0.3275778293609619,0.42579537630081177,-71,6343.0,7.754275321960449,191,9953.0
1460,0.3264809548854828,-1.060325026512146,23,6343.0,8.833455085754395,248,9953.0
1470,0.3268442153930664,-1.0753087997436523,-53,6343.0,11.34570598602295,319,9953.0
1480,0.3272142708301544,-0.6788733601570129,-19,6343.0,13.526514053344727,336,9953.0
1490,0.3276732861995697,-0.463942289352417,-9,6343.0,16.068063735961914,280,9953.0
1500,0.32799914479255676,-1.3788275718688965,12,6343.0,16.593976974487305,294,9953.0
1510,0.3282994329929352,0.3263182044029236,37,6343.0,18.373275756835938,156,9953.0
1520,0.3285168707370758,0.9918591380119324,30,6343.0,14.457094192504883,171,9953.0
1530,0.32867878675460815,-0.07129234820604324,23,6343.0,13.349220275878906,8,9953.0
1540,0.32882291078567505,0.7188018560409546,27,6343.0,10.053894996643066,160,9953.0
1550,0.32772892713546753,-0.4517158269882202,-25,6343.0,3.809837579727173,24,9953.0
1560,0.3280448913574219,-0.8039913177490234,6,6343.0,1.1047345399856567,141,9953.0
1570,0.32816553115844727,0.44240015745162964,-1,6343.0,-3.7390363216400146,13,9953.0
1580,0.3283158838748932,1.4411810636520386,2,6343.0,-5.3403706550598145,120,9953.0
1590,0.32632601261138916,2.848515033721924,22,6343.0,-4.606651306152344,-53,9953.0
1600,0.3262336552143097,1.8827940225601196,106,6343.0,-4.794165134429932,-27,9953.0
1610,0.3260591924190521,1.5369993448257446,41,6343.0,-2.287860155105591,-194,9953.0
1620,0.3257574439048767,0.9205775260925293,53,6343.0,-1.3896710872650146,-84,9953.0
1630,0.32542842626571655,-1.0105383396148682,24,6343.0,1.794880986213684,-266,9953.0
1640,0.32595449686050415,1.6700879335403442,21,6343.0,1.2230398654937744,45,9953.0
1650,0.3254874646663666,0.3387235701084137,-8,6343.0,0.7184329032897949,6,9953.0
1660,0.3249625861644745,-0.409146249294281,-44,6343.0,-0.049503110349178314,168,9953.0
1670,0.3244895339012146,-1.09866201877594,-17,6343.0,-1.3260477781295776,38,9953.0
1680,0.3243875503540039,-2.2619357109069824,-42,6343.0,-3.1224007606506348,159,9953.0
1690,0.3238318860530853,-2.4770052433013916,-72,6343.0,-3.945908784866333,5,9953.0
1700,0.32331278920173645,-2.024824857711792,-31,6343.0,-5.865179538726807,-50,9953.0
1710,0.3228253126144409,-2.061939239501953,-25,6343.0,-5.986882209777832,-69,9953.0
1720,0.3224298655986786,0.4409788250923157,-81,6343.0,-8.56950569152832,-143,9953.0
1730,0.3228614628314972,-1.7129663228988647,41,6343.0,-9.265170097351074,-136,9953.0
1740,0.32278093695640564,-0.83065265417099,-65,6343.0,-12.541839599609375,-265,9953.0
1750,0.3230105936527252,-1.091068983078003,53,6343.0,-12.3181734085083,-224,9953.0
1760,0.32302990555763245,0.46092239022254944,20,6343.0,-11.623934745788574,-335,9953.0
1770,0.3239140212535858,0.8791311979293823,47,6343.0,-14.077828407287598,-315,9953.0
1780,0.32412442564964294,1.7129162549972534,119,6343.0,-11.958170890808105,-379,9953.0
1790,0.3244428336620331,0.6556974053382874,-3,6343.0,-11.640423774719238,-249,9953.0
1800,0.32486531138420105,-0.46244198083877563,-26,6343.0,-10.82418441772461,-142,9953.0
1810,0.32525938749313354,-2.5497071743011475,-138,6343.0,-7.95527458190918,-94,9953.0
1820,0.3256534934043884,-3.849500894546509,-54,6343.0,-5.31584358215332,21,9953.0
1830,0.3260048031806946,-3.3816516399383545,-132,6343.0,-5.078625202178955,101,9953.0
1840,0.32626375555992126,-1.7100491523742676,0,6343.0,-2.644171714782715,11,9953.0
1850,0.3264579474925995,0.792750358581543,-44,6343.0,-0.8393316864967346,-20,9953.0
1860,0.3260718882083893,0.28591635823249817,67,6343.0,0.46082207560539246,-104,9953.0
1870,0.32628440856933594,0.05524260550737381,11,6343.0,2.0715999603271484,-115,9953.0
1880,0.3265692889690399,-0.7835341691970825,47,6343.0,0.7026547789573669,-73,9953.0
1890,0.32706451416015625,-1.7022634744644165,-24,6343.0,2.0976035594940186,-173,9953.0
1900,0.32604318857192993,-2.5394036769866943,-46,6343.0,2.253802537918091,120,9953.0
1910,0.3264010548591614,-1.0229109525680542,-35,6343.0,1.5686924457550049,49,9953.0
1920,0.3268183171749115,-2.395874261856079,-75,6343.0,1.31282377243042,241,9953.0
1930,0.32732170820236206,-1.9865144491195679,-65,6343.0,3.003204822540283,145,9953.0
1940,0.32779836654663086,0.5262013077735901,-20,6343.0,3.6426048278808594,184,9953.0
1950,0.32725879549980164,2.108076810836792,103,6343.0,5.77197790145874,47,9953.0
1960,0.32771575450897217,5.450741291046143,58,6343.0,8.355804443359375,26,9953.0
1970,0.32817965745925903,2.682232618331909,132,6343.0,8.066144943237305,97,9953.0
1980,0.3286120295524597,2.3803458213806152,-14,6343.0,11.246402740478516,125,9953.0
1990,0.32811638712882996,1.397005319595337,92,6343.0,11.999171257019043,275,9953.0
2000,0.3285936415195465,1.02629554271698,-63,6343.0,11.403748512268066,319,9953.0
2010,0.3293997347354889,-0.9734886884689331,8,6343.0,11.269912719726562,299,9953.0
2020,0.3299460709095001,0.6515306234359741,-37,6343.0,12.918145179748535,218,9953.0
2030,0.3290906548500061,0.4336967170238495,102,6343.0,12.091609001159668,125,9953.0
2040,0.3294595777988434,2.812866449356079,38,6343.0,12.381781578063965,38,9953.0
2050,0.3297242224216461,3.4629223346710205,153,6343.0,9.525702476501465,-8,9953.0
2060,0.32985979318618774,3.407331943511963,10,6343.0,9.231155395507812,43,9953.0
2070,0.32994160056114197,4.927347660064697,83,6343.0,5.480093002319336,131,9953.0
2080,0.32767289876937866,1.5305120944976807,-67,6343.0,2.935513496398926,152,9953.0
2090,0.32777008414268494,-0.4523625671863556,11,6343.0,0.17132335901260376,120,9953.0
2100,0.3277616500854492,-0.3404923975467682,-83,6343.0,-3.390444040298462,70,9953.0
2110,0.3277663290500641,-1.8739842176437378,17,6343.0,-4.4620771408081055,-6,9953.0
2120,0.32823431491851807,-0.4744424521923065,-28,6343.0,-3.4457321166992188,-75,9953.0
2130,0.3281917870044708,-1.0322530269622803,53,6343.0,-1.9995133876800537,-172,9953.0
2140,0.3280913829803467,-0.5375659465789795,-50,6343.0,-2.259798765182495,-144,9953.0
2150,0.32794898748397827,-1.3181616067886353,70,6343.0,-0.7002881169319153,-113,9953.0
2160,0.3270626366138458,-0.16751515865325928,-55,6343.0,0.9970263838768005,-30,9953.0
2170,0.3268519937992096,-0.014199775643646717,55,6343.0,-0.8643134236335754,24,9953.0
2180,0.3266806900501251,1.1257343292236328,-58,6343.0,-2.0982778072357178,57,9953.0
2190,0.326564759016037,0.8796518445014954,32,6343.0,-3.1244988441467285,69,9953.0
2200,0.326546847820282,0.1891719400882721,-74,6343.0,-3.323207139968872,59,9953.0
2210,0.32630637288093567,-0.7865167260169983,28,6343.0,-4.265574932098389,18,9953.0
2220,0.3264232575893402,-0.2251773476600647,-17,6343.0,-4.901784420013428,-49,9953.0
2230,0.32643160223960876,-1.3943967819213867,46,6343.0,-5.280937671661377,-148,9953.0
2240,0.326478511095047,-1.1751937866210938,-8,6343.0,-4.380218982696533,-220,9953.0
2250,0.32467782497406006,-2.0854947566986084,1,6343.0,-5.288126468658447,-194,9953.0
2260,0.324521541595459,-3.2433295249938965,-24,6343.0,-5.394266128540039,-287,9953.0
2270,0.32439661026000977,-3.593442916870117,-58,6343.0,-6.544589519500732,-115,9953.0
2280,0.3242943286895752,-3.0013554096221924,-52,6343.0,-7.2757182121276855,-142,9953.0
2290,0.32425805926322937,-1.1737556457519531,-62,6343.0,-7.621430397033691,24,9953.0
2300,0.3237645626068115,-0.3403506577014923,23,6343.0,-8.92186450958252,-104,9953.0
2310,0.32405078411102295,1.3114900588989258,-54,6343.0,-9.055975914001465,64,9953.0
2320,0.32412129640579224,2.809051275253296,20,6343.0,-6.893898010253906,-57,9953.0
2330,0.32413679361343384,3.153841972351074,16,6343.0,-4.381075382232666,10,9953.0
2340,0.32373446226119995,1.996810793876648,69,6343.0,0.1291690319776535,-5,9953.0
2350,0.32380208373069763,0.6116166114807129,-16,6343.0,2.6886565685272217,-71,9953.0
2360,0.3238976299762726,-2.2871835231781006,-11,6343.0,4.176435947418213,-13,9953.0
2370,0.3240194618701935,-3.4615437984466553,0,6343.0,3.291918992996216,-244,9953.0
2380,0.32327234745025635,-1.3381004333496094,-11,6343.0,2.4688217639923096,23,9953.0
2390,0.32322925329208374,-3.532992124557495,3,6343.0,0.03927508741617203,-104,9953.0
2400,0.323273241519928,-2.2019124031066895,-50,6343.0,2.0319323539733887,5,9953.0
2410,0.3232797682285309,-1.564937710762024,17,6343.0,-0.47417736053466797,30,9953.0
2420,0.32334932684898376,0.4548410177230835,-36,6343.0,-1.7629576921463013,30,9953.0
2430,0.324020117521286,1.3918787240982056,71,6343.0,-0.5201016664505005,115,9953.0
2440,0.324037104845047,4.116500377655029,9,6343.0,-0.567625880241394,87,9953.0
2450,0.3240461051464081,2.7049431800842285,50,6343.0,1.819513201713562,53,9953.0
2460,0.3241052031517029,2.248790979385376,-13,6343.0,2.3605382442474365,-8,9953.0
2470,0.32490599155426025,0.7654148936271667,74,6343.0,2.222803831100464,-28,9953.0
2480,0.32503223419189453,0.17113326489925385,40,6343.0,5.136048316955566,-90,9953.0
2490,0.3250998854637146,0.3887293040752411,5,6343.0,6.307943820953369,43,9953.0
2500,0.3252178132534027,0.46353447437286377,49,6343.0,9.24862289428711,20,9953.0
2510,0.3252900540828705,-1.354017734527588,-77,6343.0,10.812967300415039,125,9953.0
2520,0.3273322880268097,-0.9238120913505554,34,6343.0,11.20796012878418,213,9953.0
2530,0.3275882303714752,-0.4833219647407532,-57,6343.0,14.193863868713379,257,9953.0
2540,0.3278869390487671,-0.04279661178588867,16,6343.0,12.776212692260742,305,9953.0
2550,0.3282542824745178,1.7920663356781006,-21,6343.0,10.632613182067871,249,9953.0
2560,0.3289354145526886,2.007159948348999,-19,6343.0,8.708765983581543,286,9953.0
2570,0.32924726605415344,3.1699275970458984,35,6343.0,7.469174385070801,160,9953.0
2580,0.3297002911567688,3.041072130203247,11,6343.0,2.5478978157043457,189,9953.0
2590,0.33010804653167725,3.2934412956237793,37,6343.0,0.9510048627853394,75,9953.0
2600,0.32944557070732117,4.960806846618652,11,6343.0,-1.7902966737747192,48,9953.0
2610,0.32981598377227783,3.8450767993927,120,6343.0,-1.3336093425750732,-104,9953.0
2620,0.32991763949394226,2.7924346923828125,-8,6343.0,-1.3994646072387695,-71,9953.0
2630,0.33001959323883057,-0.17023146152496338,73,6343.0,-0.5780388116836548,-162,9953.0
2640,0.32997891306877136,-2.059422254562378,-60,6343.0,2.1455912590026855,-93,9953.0
2650,0.3295222222805023,-2.433151960372925,31,6343.0,2.389864444732666,-24,9953.0
2660,0.32941746711730957,-3.0858731269836426,-114,6343.0,7.225346088409424,70,9953.0
2670,0.3292502760887146,-2.575155019760132,-47,6343.0,5.229684352874756,206,9953.0
2680,0.32898780703544617,-2.0659871101379395,-74,6343.0,5.36279821395874,188,9953.0
2690,0.32799503207206726,-0.6785904169082642,-34,6343.0,3.624891757965088,252,9953.0
2700,0.32762911915779114,0.2629448473453522,-43,6343.0,2.445476770401001,133,9953.0
2710,0.327233225107193,0.4921322464942932,-30,6343.0,-0.7428110241889954,75,9953.0
2720,0.3269188404083252,1.548325538635254,-2,6343.0,-1.9215372800827026,-55,9953.0
2730,0.3259475827217102,1.0531766414642334,-3,6343.0,-5.510547161102295,-93,9953.0
2740,0.3255223035812378,-0.4132082760334015,80,6343.0,-6.587031364440918,-232,9953.0
2750,0.32509803771972656,-0.03565233573317528,-41,6343.0,-8.456645011901855,-196,9953.0
2760,0.32467636466026306,-0.7164656519889832,71,6343.0,-11.147632598876953,-305,9953.0
2770,0.3242614269256592,-0.5895643830299377,-59,6343.0,-11.614066123962402,-307,9953.0
2780,0.32447612285614014,-2.104318141937256,10,6343.0,-12.263026237487793,-294,9953.0
2790,0.3240553140640259,-3.9325475692749023,-58,6343.0,-9.74982738494873,-298,9953.0
2800,0.323695570230484,-2.050614833831787,-1,6343.0,-9.009313583374023,-187,9953.0
2810,0.323613703250885,-0.8115793466567993,84,6343.0,-6.154369354248047,-264,9953.0
2820,0.3228076696395874,1.9288256168365479,-5,6343.0,-5.5444207191467285,-138,9953.0
2830,0.3224591314792633,3.0633344650268555,105,6343.0,-6.150045871734619,-111,9953.0
2840,0.3221389055252075,2.5905826091766357,2,6343.0,-6.247170925140381,-107,9953.0
2850,0.3220425546169281,-0.3066975176334381,-26,6343.0,-4.920858383178711,40,9953.0
2860,0.32182776927948,-3.061203956604004,-6,6343.0,-4.667337417602539,-87,9953.0
2870,0.3218003809452057,-3.4992611408233643,-98,6343.0,-5.0298662185668945,-33,9953.0
2880,0.321627140045166,-2.244408369064331,-14,6343.0,-3.1462559700012207,21,9953.0
2890,0.3215169608592987,-2.7149441242218018,-34,6343.0,-3.0219333171844482,-9,9953.0
2900,0.3214481770992279,-1.5545378923416138,-77,6343.0,-3.754181385040283,142,9953.0
2910,0.32205280661582947,-0.3388681709766388,-10,6343.0,-4.542340278625488,5,9953.0
2920,0.3220713138580322,-0.3953658640384674,-79,6343.0,-5.109758377075195,21,9953.0
2930,0.32212400436401367,0.009197669103741646,-93,6343.0,-4.764206886291504,67,9953.0
2940,0.32220181822776794,-0.5377107262611389,-38,6343.0,-2.976278781890869,-73,9953.0
2950,0.3233757019042969,-3.1298811435699463,-96,6343.0,-4.968521595001221,93,9953.0
2960,0.3238815665245056,-1.4069947004318237,-26,6343.0,-2.2387778759002686,108,9953.0
2970,0.32428380846977234,-1.3664745092391968,-73,6343.0,-0.24128535389900208,51,9953.0
2980,0.32466843724250793,0.6934472918510437,46,6343.0,2.9806737899780273,184,9953.0
2990,0.32517483830451965,2.6487014293670654,43,6343.0,6.109457969665527,68,9953.0
3000,0.326473206281662,4.1076860427856445,56,6343.0,10.876028060913086,121,9953.0
3010,0.3271455466747284,1.7198551893234253,84,6343.0,14.24429702758789,167,9953.0
3020,0.3278273642063141,-0.29666265845298767,13,6343.0,17.0635986328125,103,9953.0
3030,0.32853055000305176,-0.45754027366638184,6,6343.0,15.890070915222168,192,9953.0
3040,0.32794198393821716,-0.7239311933517456,41,6343.0,18.921659469604492,150,9953.0
3050,0.32858601212501526,-0.7564223408699036,-64,6343.0,17.70892906188965,244,9953.0
3060,0.32913610339164734,0.6521202921867371,60,6343.0,14.595019340515137,293,9953.0
3070,0.3297209143638611,1.4258418083190918,-13,6343.0,13.082232475280762,254,9953.0
3080,0.3305481970310211,3.1695713996887207,97,6343.0,10.700248718261719,288,9953.0
3090,0.3310442566871643,4.464861869812012,22,6343.0,6.9000444412231445,183,9953.0
3100,0.3318042755126953,5.579439640045166,112,6343.0,5.727164268493652,220,9953.0
3110,0.33252573013305664,4.180936336517334,44,6343.0,3.6957626342773438,36,9953.0
3120,0.3331191837787628,1.5209174156188965,90,6343.0,3.4555623531341553,-96,9953.0
3130,0.33197328448295593,0.26787930727005005,-19,6343.0,4.216620922088623,-95,9953.0
3140,0.332258939743042,-0.17119958996772766,54,6343.0,3.5672850608825684,-65,9953.0
3150,0.3324015438556671,-0.747123122215271,-79,6343.0,4.192363262176514,9,9953.0
3160,0.3324691951274872,0.7491925358772278,2,6343.0,3.196031093597412,178,9953.0
3170,0.33191946148872375,-1.9384081363677979,-90,6343.0,3.3196487426757812,179,9953.0
3180,0.33193305134773254,-2.8461554050445557,-43,6343.0,3.3109748363494873,241,9953.0
3190,0.3318884074687958,-3.1399896144866943,-113,6343.0,2.2730863094329834,120,9953.0
3200,0.33181634545326233,-2.8972368240356445,40,6343.0,-0.2149084359407425,39,9953.0
3210,0.3316589295864105,1.0950337648391724,-39,6343.0,0.3816967308521271,-63,9953.0
3220,0.32988399267196655,-1.0661500692367554,88,6343.0,-4.192193508148193,-130,9953.0
3230,0.329563707113266,0.5944578647613525,5,6343.0,-6.870955944061279,-265,9953.0
3240,0.3291448652744293,0.21678447723388672,73,6343.0,-9.10326099395752,-253,9953.0
3250,0.32882794737815857,-0.046171244233846664,-39,6343.0,-8.669816970825195,-372,9953.0
3260,0.32665926218032837,-0.20669306814670563,37,6343.0,-11.662910461425781,-234,9953.0
3270,0.32645183801651,-1.3113758563995361,-73,6343.0,-13.725506782531738,-226,9953.0
3280,0.3262196183204651,-1.5337300300598145,-20,6343.0,-12.502245903015137,-75,9953.0
3290,0.32609930634498596,-0.7162755727767944,-26,6343.0,-12.52902889251709,-124,9953.0
3300,0.3251819610595703,-0.9531970620155334,-41,6343.0,-11.557644844055176,10,9953.0
3310,0.3250451982021332,-0.8642304539680481,-45,6343.0,-12.822898864746094,-133,9953.0
3320,0.3251645863056183,-0.17241643369197845,-62,6343.0,-12.329319953918457,-78,9953.0
3330,0.3252313435077667,-0.1521528959274292,18,6343.0,-9.898000717163086,-89,9953.0
3340,0.3253527581691742,1.7583004236221313,-36,6343.0,-9.117772102355957,-121,9953.0
3350,0.32390180230140686,3.230154275894165,103,6343.0,-9.062965393066406,-114,9953.0
3360,0.32409942150115967,4.663383960723877,21,6343.0,-10.103851318359375,-145,9953.0
3370,0.32421913743019104,3.6688928604125977,106,6343.0,-9.21280574798584,-152,9953.0
3380,0.32436224818229675,1.2296003103256226,31,6343.0,-8.938555717468262,-274,9953.0
3390,0.32388100028038025,1.1264008283615112,-9,6343.0,-8.133838653564453,-185,9953.0
3400,0.3239172697067261,-0.21118313074111938,101,6343.0,-5.650397777557373,-268,9953.0
3410,0.32398441433906555,-2.359909772872925,-51,6343.0,-4.426944732666016,-218,9953.0
3420,0.3240225315093994,-1.833559274673462,14,6343.0,-5.047147750854492,-123,9953.0
3430,0.3240845799446106,-3.8246800899505615,-45,6343.0,-1.589301586151123,-89,9953.0
3440,0.32399797439575195,-1.805787444114685,-85,6343.0,-0.10063502192497253,62,9953.0
3450,0.3239207863807678,-5.324926853179932,-53,6343.0,-0.4726547300815582,24,9953.0
3460,0.3237822353839874,-6.206796646118164,-172,6343.0,0.6648534536361694,114,9953.0
3470,0.32362258434295654,-6.2517523765563965,-91,6343.0,1.0478324890136719,123,9953.0
3480,0.3240857720375061,-4.392002582550049,-74,6343.0,1.1817868947982788,59,9953.0
3490,0.3241334855556488,-4.539947509765625,-195,6343.0,1.4850889444351196,208,9953.0
3500,0.32423895597457886,-0.8223020434379578,-28,6343.0,3.749237537384033,106,9953.0
3510,0.3244154155254364,1.60740327835083,-16,6343.0,4.844912052154541,188,9953.0
3520,0.32526731491088867,5.2071027755737305,101,6343.0,8.101741790771484,307,9953.0
3530,0.3255830407142639,6.199382781982422,66,6343.0,10.518132209777832,186,9953.0
3540,0.32605406641960144,6.842243671417236,78,6343.0,11.036602973937988,283,9953.0
3550,0.3265884816646576,4.634787559509277,112,6343.0,15.102829933166504,236,9953.0
3560,0.32727357745170593,2.3424227237701416,-7,6343.0,16.267763137817383,155,9953.0
3570,0.3265126943588257,-1.8737266063690186,-20,6343.0,15.94803237915039,221,9953.0
3580,0.3272230923175812,-2.8747074604034424,-9,6343.0,19.113473892211914,95,9953.0
3590,0.32785090804100037,-0.8090441226959229,7,6343.0,18.611082077026367,223,9953.0
3600,0.3286195993423462,0.9826052784919739,57,6343.0,17.131710052490234,173,9953.0
3610,0.329055517911911,1.3714709281921387,-18,6343.0,14.857792854309082,211,9953.0
3620,0.32949909567832947,1.1447302103042603,91,6343.0,11.517858505249023,269,9953.0
3630,0.3298209309577942,1.4654648303985596,51,6343.0,8.836735725402832,146,9953.0
3640,0.3301030397415161,3.061979055404663,28,6343.0,7.983500003814697,292,9953.0
3650,0.33041146397590637,3.1194324493408203,78,6343.0,6.613692283630371,167,9953.0
3660,0.33004558086395264,3.0615086555480957,-23,6343.0,5.007262229919434,243,9953.0
3670,0.3301173448562622,2.802128314971924,66,6343.0,5.234495639801025,169,9953.0
3680,0.33006197214126587,0.05518953129649162,-69,6343.0,3.58819317817688,88,9953.0
3690,0.32987475395202637,-1.128544569015503,-14,6343.0,1.8601285219192505,85,9953.0
3700,0.33008894324302673,-2.099560499191284,-101,6343.0,1.0730386972427368,15,9953.0
3710,0.32984259724617004,-2.9871866703033447,-28,6343.0,-0.08547402173280716,14,9953.0
3720,0.32955607771873474,-1.875092625617981,1,6343.0,-2.7173962593078613,-82,9953.0
3730,0.3292800784111023,-0.610222339630127,100,6343.0,-4.695071697235107,-85,9953.0
3740,0.3289583921432495,-2.3184313774108887,-38,6343.0,-4.407405853271484,-215,9953.0
3750,0.32858213782310486,-1.3567485809326172,20,6343.0,-4.717502593994141,-171,9953.0
3760,0.3282076418399811,-1.5814803838729858,-24,6343.0,-3.2905006408691406,-159,9953.0
3770,0.32785406708717346,-1.0518873929977417,-32,6343.0,-1.795898199081421,-81,9953.0
3780,0.3275556266307831,1.7791061401367188,70,6343.0,-3.738957643508911,-104,9953.0
3790,0.32697224617004395,1.0314356088638306,-66,6343.0,-4.4371137619018555,-25,9953.0
3800,0.32666683197021484,1.9182785749435425,74,6343.0,-6.481199741363525,25,9953.0
3810,0.3263208866119385,0.914426326751709,-31,6343.0,-6.585537910461426,-61,9953.0
3820,0.3261260390281677,-0.42581063508987427,-5,6343.0,-7.490302085876465,18,9953.0
3830,0.32559776306152344,-0.7465803027153015,-29,6343.0,-9.87275218963623,-153,9953.0
3840,0.32542312145233154,-0.5879306197166443,-92,6343.0,-8.524633407592773,-75,9953.0
3850,0.3252629339694977,0.04506747052073479,-17,6343.0,-10.53610897064209,-64,9953.0
3860,0.3250032961368561,-1.5921329259872437,-96,6343.0,-13.330888748168945,-94,9953.0
3870,0.32490962743759155,-0.6440747380256653,-33,6343.0,-10.89630126953125,-1,9953.0
3880,0.3247842788696289,-1.2638988494873047,-35,6343.0,-13.070290565490723,-150,9953.0
3890,0.3247291147708893,-1.1844428777694702,-85,6343.0,-11.831724166870117,-98,9953.0
3900,0.3246402442455292,-0.19152355194091797,-33,6343.0,-13.639534950256348,-108,9953.0
3910,0.32445186376571655,1.835752248764038,-43,6343.0,-12.942602157592773,-120,9953.0
3920,0.3242075443267822,0.7858037352561951,-20,6343.0,-11.016590118408203,-4,9953.0
3930,0.3241352140903473,2.085331439971924,16,6343.0,-10.733304023742676,-41,9953.0
3940,0.32405948638916016,2.993755340576172,-47,6343.0,-10.541565895080566,-56,9953.0
3950,0.323921799659729,0.8333179354667664,-63,6343.0,-8.77979850769043,-25,9953.0
3960,0.3241802752017975,2.325166702270508,-27,6343.0,-6.274269104003906,-76,9953.0
3970,0.32412442564964294,-1.6169019937515259,-110,6343.0,-7.4901580810546875,-6,9953.0
3980,0.3240705728530884,-3.4539661407470703,-32,6343.0,-6.6391215324401855,-14,9953.0
3990,0.32395461201667786,-4.780943393707275,-131,6343.0,-5.261960983276367,-3,9953.0
4000,0.3254881203174591,-2.961505651473999,-75,6343.0,-5.867062091827393,5,9953.0
4010,0.3256632387638092,-3.3640360832214355,-19,6343.0,-2.4148993492126465,28,9953.0
4020,0.3259256184101105,-0.9640830159187317,-52,6343.0,-0.9249765276908875,-18,9953.0
4030,0.3262217044830322,0.7533049583435059,26,6343.0,1.7310357093811035,40,9953.0
4040,0.3265577256679535,2.1797823905944824,86,6343.0,6.038862705230713,14,9953.0
4050,0.3283081352710724,3.3074305057525635,3,6343.0,7.659621715545654,76,9953.0
4060,0.3288383185863495,4.251967906951904,111,6343.0,9.603170394897461,139,9953.0
4070,0.32939612865448,2.803804874420166,117,6343.0,13.616986274719238,15,9953.0
4080,0.3299645185470581,0.3050519824028015,-19,6343.0,15.294559478759766,173,9953.0
4090,0.327958345413208,-2.5232937335968018,10,6343.0,17.79245948791504,233,9953.0
4100,0.3285301625728607,-3.5257198810577393,-26,6343.0,19.396507263183594,159,9953.0
4110,0.3289928436279297,-3.8232028484344482,-59,6343.0,17.551645278930664,250,9953.0
4120,0.3294795751571655,-1.6554352045059204,43,6343.0,14.480419158935547,169,9953.0
4130,0.3300131857395172,1.7049330472946167,-38,6343.0,16.820363998413086,281,9953.0
4140,0.3305834233760834,2.540956735610962,60,6343.0,14.511096000671387,299,9953.0
4150,0.3310171365737915,2.1353769302368164,21,6343.0,11.451705932617188,273,9953.0
4160,0.331301212310791,4.037121295928955,27,6343.0,11.150224685668945,343,9953.0
4170,0.33157268166542053,3.8200979232788086,74,6343.0,10.893594741821289,264,9953.0
4180,0.32996630668640137,5.066397190093994,19,6343.0,10.277462005615234,309,9953.0
4190,0.3300509750843048,4.692043781280518,112,6343.0,11.029603004455566,304,9953.0
4200,0.3300878405570984,5.61622428894043,3,6343.0,8.57790470123291,207,9953.0
4210,0.3299977779388428,1.1730756759643555,63,6343.0,7.156221866607666,164,9953.0
4220,0.3298794627189636,-0.4734514355659485,-35,6343.0,2.704949140548706,-5,9953.0
4230,0.32972174882888794,-3.252399444580078,-80,6343.0,-0.026048775762319565,23,9953.0
4240,0.32954004406929016,-4.183748722076416,-47,6343.0,-3.4923324584960938,-95,9953.0
4250,0.3293093144893646,-1.2234885692596436,-76,6343.0,-8.635841369628906,-110,9953.0
4260,0.3290550708770752,-1.9280189275741577,74,6343.0,-10.981714248657227,-183,9953.0
4270,0.3295041024684906,3.2251601219177246,18,6343.0,-10.57450008392334,-217,9953.0
4280,0.32912930846214294,1.8876792192459106,94,6343.0,-10.60204029083252,-128,9953.0
4290,0.3287662863731384,2.2173428535461426,60,6343.0,-8.300189971923828,-272,9953.0
4300,0.32845282554626465,0.5459323525428772,-1,6343.0,-5.0472307205200195,-142,9953.0
4310,0.32919132709503174,-0.4781482219696045,19,6343.0,-2.9848079681396484,-78,9953.0
4320,0.32891103625297546,-4.598571300506592,-3,6343.0,0.5595905184745789,-143,9953.0
4330,0.32867929339408875,-3.864393949508667,-15,6343.0,0.9034879803657532,25,9953.0
4340,0.3286115527153015,-4.958820343017578,40,6343.0,3.5214178562164307,-155,9953.0
4350,0.3288225829601288,-2.049128293991089,-1,6343.0,1.063010811805725,-65,9953.0
4360,0.3277256190776825,-0.5446699261665344,105,6343.0,1.872011423110962,-120,9953.0
4370,0.3277275860309601,0.042129840701818466,43,6343.0,-3.679217576980591,-314,9953.0
4380,0.3278435468673706,0.6192567944526672,41,6343.0,-6.917605400085449,-198,9953.0
4390,0.32801151275634766,-1.1401809453964233,62,6343.0,-10.553296089172363,-219,9953.0
4400,0.32619017362594604,-0.9473568201065063,-31,6343.0,-9.476795196533203,-121,9953.0
4410,0.32635125517845154,-2.4533307552337646,-12,6343.0,-11.369447708129883,-246,9953.0
4420,0.3265282213687897,-1.67427396774292,-53,6343.0,-10.434385299682617,-119,9953.0
4430,0.3267575800418854,-0.7184627056121826,38,6343.0,-11.332616806030273,-160,9953.0
4440,0.32704105973243713,0.07465510815382004,-32,6343.0,-9.702254295349121,-170,9953.0
4450,0.32730522751808167,1.4000844955444336,-4,6343.0,-6.88555908203125,44,9953.0
4460,0.3274592161178589,2.7723474502563477,73,6343.0,-3.091221809387207,-9,9953.0
4470,0.3275829553604126,2.8487465381622314,6,6343.0,-1.5034878253936768,118,9953.0
4480,0.3277433216571808,4.346949577331543,95,6343.0,0.937261700630188,226,9953.0
4490,0.32683485746383667,3.4792561531066895,11,6343.0,0.046865835785865784,63,9953.0
4500,0.3269376754760742,1.5146044492721558,31,6343.0,-0.9749733805656433,200,9953.0
4510,0.3269050419330597,-1.1439496278762817,-61,6343.0,-0.7144092321395874,73,9953.0
4520,0.32679879665374756,-2.7776567935943604,-91,6343.0,0.1971118301153183,62,9953.0
4530,0.327632874250412,-5.486361026763916,-127,6343.0,-0.8195692300796509,162,9953.0
4540,0.32770437002182007,-4.213392734527588,-137,6343.0,-2.155057668685913,-14,9953.0
4550,0.32774949073791504,-3.1138031482696533,-89,6343.0,-2.5565993785858154,114,9953.0
4560,0.327747642993927,-1.6829133033752441,-48,6343.0,-3.6165122985839844,111,9953.0
4570,0.32773661613464355,2.938178300857544,-50,6343.0,-1.9832007884979248,-2,9953.0
4580,0.32752442359924316,-0.07701897621154785,17,6343.0,-2.2110490798950195,33,9953.0
4590,0.32762235403060913,2.6149861812591553,-4,6343.0,-0.022627707570791245,-24,9953.0
4600,0.327685683965683,1.156686782836914,-27,6343.0,-0.2822069227695465,-2,9953.0
4610,0.32799631357192993,0.3653978407382965,75,6343.0,2.2002346515655518,48,9953.0
4620,0.327811062335968,-0.1671777367591858,-38,6343.0,6.1014790534973145,25,9953.0
4630,0.328075110912323,1.2241915464401245,-18,6343.0,9.266942024230957,152,9953.0
4640,0.3282689154148102,-1.5757708549499512,136,6343.0,11.854565620422363,124,9953.0
4650,0.32853415608406067,1.5813146829605103,4,6343.0,12.985063552856445,49,9953.0
4660,0.32849642634391785,2.5017454624176025,59,6343.0,13.709522247314453,165,9953.0
4670,0.32881903648376465,2.8211255073547363,127,6343.0,13.713017463684082,26,9953.0
4680,0.3291432857513428,4.245793342590332,72,6343.0,11.13631534576416,16,9953.0
4690,0.3294770419597626,2.816213369369507,112,6343.0,8.31234073638916,43,9953.0
4700,0.32976871728897095,-0.22203746438026428,35,6343.0,6.589961528778076,-83,9953.0
4710,0.32939648628234863,3.388232707977295,36,6343.0,5.194680690765381,84,9953.0
4720,0.329731822013855,-1.314831018447876,73,6343.0,3.9222984313964844,22,9953.0
4730,0.3300228416919708,-0.9761280417442322,-24,6343.0,5.607107639312744,-52,9953.0
4740,0.330268532037735,-0.21182119846343994,32,6343.0,2.7570173740386963,37,9953.0
4750,0.33043521642684937,0.38156694173812866,52,6343.0,5.579861164093018,-117,9953.0
4760,0.3307381868362427,-1.2318893671035767,-26,6343.0,4.902311325073242,15,9953.0
4770,0.3310070335865021,0.2622627317905426,48,6343.0,4.6051154136657715,48,9953.0
4780,0.33113792538642883,-2.2504777908325195,-66,6343.0,4.319669246673584,122,9953.0
4790,0.33122074604034424,-2.229419469833374,-85,6343.0,5.052126884460449,178,9953.0
4800,0.3291471600532532,-3.247875213623047,-16,6343.0,3.5198895931243896,90,9953.0
4810,0.3291223645210266,-2.8196144104003906,-126,6343.0,2.913114547729492,129,9953.0
4820,0.32903000712394714,-3.778350830078125,-37,6343.0,0.20832709968090057,73,9953.0
4830,0.3289026618003845,-2.5508828163146973,-59,6343.0,-1.5282416343688965,-6,9953.0
4840,0.32841283082962036,-1.7231807708740234,-74,6343.0,-3.0514557361602783,81,9953.0
4850,0.32824021577835083,1.469696044921875,24,6343.0,-2.183676242828369,13,9953.0
4860,0.3279637098312378,2.354020833969116,-36,6343.0,-5.895039081573486,69,9953.0
4870,0.3276320993900299,3.6021623611450195,93,6343.0,-6.46859073638916,29,9953.0
4880,0.3279029130935669,4.334158420562744,-8,6343.0,-6.720502853393555,-13,9953.0
4890,0.32767802476882935,2.4557998180389404,-18,6343.0,-7.537173748016357,59,9953.0
4900,0.327362596988678,0.379352867603302,-53,6343.0,-8.654831886291504,-83,9953.0
4910,0.3269501328468323,-3.1159770488739014,-132,6343.0,-8.785859107971191,-46,9953.0
4920,0.32642126083374023,-4.451683044433594,-102,6343.0,-6.841030120849609,62,9953.0
4930,0.3261239528656006,-3.9453654289245605,-99,6343.0,-7.718753337860107,-35,9953.0
4940,0.3257327079772949,-2.4878945350646973,-92,6343.0,-6.697107791900635,15,9953.0
4950,0.3253614902496338,-0.8243458271026611,-8,6343.0,-7.8304443359375,61,9953.0
4960,0.32492953538894653,3.2933754920959473,-40,6343.0,-7.147274017333984,-79,9953.0
4970,0.3251616954803467,2.2563774585723877,-27,6343.0,-3.6841912269592285,3,9953.0
4980,0.3244943916797638,5.748895168304443,29,6343.0,-2.5674917697906494,117,9953.0
4990,0.3238299787044525,3.5020668506622314,25,6343.0,-3.2921178340911865,0,9953.0
5000,0.3232289254665375,1.446658730506897,-53,6343.0,-3.8879528045654297,14,9953.0
5010,0.32263436913490295,-0.3251281976699829,-37,6343.0,-5.005741596221924,-23,9953.0
5020,0.32250845432281494,0.2149934321641922,-30,6343.0,-4.032470226287842,-97,9953.0
5030,0.3217238485813141,-4.651313304901123,-140,6343.0,-7.123095512390137,-60,9953.0
5040,0.320934921503067,-3.205669403076172,17,6343.0,-8.547557830810547,-74,9953.0
5050,0.32019901275634766,-1.6104170083999634,-52,6343.0,-7.149587154388428,-178,9953.0
5060,0.31970515847206116,2.222120523452759,74,6343.0,-8.381020545959473,-76,9953.0
5070,0.31887149810791016,1.5728354454040527,106,6343.0,-6.925997734069824,-122,9953.0
5080,0.31801196932792664,2.279982805252075,76,6343.0,-1.7933861017227173,-181,9953.0
5090,0.3170579671859741,1.9565155506134033,36,6343.0,-2.044105291366577,-202,9953.0
5100,0.3208983242511749,0.8975096940994263,64,6343.0,-1.5109038352966309,-81,9953.0
5110,0.3203505873680115,-2.0398809909820557,74,6343.0,1.313490867614746,-55,9953.0
5120,0.3198806345462799,-1.0204644203186035,69,6343.0,4.109081745147705,-50,9953.0
5130,0.3195224106311798,-1.6622233390808105,13,6343.0,3.962073564529419,33,9953.0
5140,0.31896424293518066,0.8679572939872742,-13,6343.0,7.702236175537109,120,9953.0
5150,0.3225780725479126,1.074350118637085,19,6343.0,7.109158515930176,258,9953.0
5160,0.32221296429634094,3.5324831008911133,-70,6343.0,8.60336971282959,328,9953.0
5170,0.32173317670822144,1.0487264394760132,-50,6343.0,7.158019065856934,170,9953.0
5180,0.3213160037994385,1.739674687385559,-57,6343.0,6.571310043334961,147,9953.0
5190,0.3244781792163849,-1.1261600255966187,-81,6343.0,7.381958961486816,102,9953.0
5200,0.32436665892601013,-1.0643647909164429,14,6343.0,7.709371566772461,168,9953.0
5210,0.3242264688014984,-0.3101169764995575,52,6343.0,11.12971305847168,126,9953.0
5220,0.3242970407009125,-1.117708444595337,68,6343.0,10.694494247436523,-11,9953.0
5230,0.3243672549724579,-0.5530855059623718,80,6343.0,12.55130386352539,92,9953.0
5240,0.32727599143981934,0.38929858803749084,55,6343.0,13.574380874633789,199,9953.0
5250,0.3275822103023529,1.669732928276062,154,6343.0,12.659964561462402,217,9953.0
5260,0.3278745710849762,3.064176559448242,51,6343.0,12.117536544799805,114,9953.0
5270,0.32815277576446533,3.067307233810425,-69,6343.0,11.848389625549316,247,9953.0
5280,0.330839604139328,0.5074528455734253,-4,6343.0,8.990164756774902,226,9953.0
5290,0.33122843503952026,-0.9621910452842712,-38,6343.0,8.190505981445312,278,9953.0
5300,0.3315983712673187,-2.1761322021484375,-112,6343.0,6.407635688781738,244,9953.0
5310,0.3319151997566223,-1.7925984859466553,-123,6343.0,4.643644332885742,201,9953.0
5320,0.33332303166389465,-1.4012391567230225,-40,6343.0,4.142618656158447,211,9953.0
5330,0.333415687084198,0.6425918936729431,-43,6343.0,2.549957275390625,85,9953.0
5340,0.3333856761455536,0.14508004486560822,-72,6343.0,1.0437318086624146,122,9953.0
5350,0.3331662714481354,0.17990966141223907,14,6343.0,2.5063788890838623,214,9953.0
5360,0.33316633105278015,-0.13243570923805237,-24,6343.0,-0.6368094682693481,8,9953.0
5370,0.33436319231987,0.24500949680805206,-59,6343.0,-1.9781718254089355,-6,9953.0
5380,0.3343609869480133,-0.3034065067768097,-73,6343.0,-1.77201247215271,139,9953.0
5390,0.33343443274497986,-1.4363868236541748,-2,6343.0,-4.285279273986816,-3,9953.0
5400,0.33337971568107605,-1.1120505332946777,-55,6343.0,-4.254330635070801,-6,9953.0
5410,0.3322204053401947,-3.1633918285369873,-76,6343.0,-4.1743340492248535,-3,9953.0
5420,0.3321389853954315,-2.5260534286499023,-12,6343.0,-5.506361961364746,-148,9953.0
5430,0.33148688077926636,0.5086473226547241,-46,6343.0,-4.481521129608154,-110,9953.0
5440,0.3306947648525238,0.5521732568740845,0,6343.0,-5.3793487548828125,-92,9953.0
5450,0.3297109305858612,-0.3322426974773407,72,6343.0,-6.2658467292785645,-181,9953.0
5460,0.3303596079349518,-1.2295173406600952,4,6343.0,-7.3734049797058105,-267,9953.0
5470,0.32949569821357727,-1.0748924016952515,15,6343.0,-8.968491554260254,-275,9953.0
5480,0.3287137746810913,-2.3064124584198,104,6343.0,-11.22970962524414,-211,9953.0
5490,0.32796552777290344,-4.240790843963623,9,6343.0,-10.035354614257812,-320,9953.0
5500,0.3272787034511566,-4.408788204193115,-95,6343.0,-10.764436721801758,-226,9953.0
5510,0.3273748755455017,-3.5984511375427246,-6,6343.0,-12.565677642822266,-179,9953.0
5520,0.32691463828086853,-2.8618059158325195,4,6343.0,-13.88764762878418,-75,9953.0
5530,0.327012300491333,4.532644271850586,-60,6343.0,-14.433234214782715,-182,9953.0
5540,0.32687774300575256,4.082950592041016,86,6343.0,-12.34146499633789,-103,9953.0
5550,0.32685503363609314,5.988493919372559,36,6343.0,-12.340801239013672,-67,9953.0
5560,0.32745641469955444,6.018783092498779,37,6343.0,-14.215821266174316,-171,9953.0
5570,0.32750898599624634,5.516231060028076,-6,6343.0,-14.588905334472656,-183,9953.0
5580,0.32789403200149536,3.0651323795318604,10,6343.0,-13.824328422546387,-149,9953.0
5590,0.32669979333877563,2.2856483459472656,-37,6343.0,-13.976558685302734,-152,9953.0
5600,0.32708483934402466,-0.2844306230545044,-72,6343.0,-8.680968284606934,-150,9953.0
5610,0.3274184763431549,-2.6043732166290283,-36,6343.0,-8.974554061889648,-113,9953.0
5620,0.3277577757835388,-4.671372890472412,-2,6343.0,-10.770587921142578,-186,9953.0
5630,0.32764455676078796,-4.60501766204834,-21,6343.0,-10.661616325378418,-312,9953.0
5640,0.32795020937919617,-2.370030641555786,-25,6343.0,-7.913385391235352,-186,9953.0
5650,0.32823434472084045,-2.3062844276428223,52,6343.0,-6.324988842010498,-25,9953.0
5660,0.32841646671295166,-2.4397623538970947,6,6343.0,-4.503456115722656,-112,9953.0
5670,0.32864826917648315,-1.4546037912368774,-66,6343.0,-1.2341216802597046,-115,9953.0
5680,0.3281438946723938,-0.8943620324134827,12,6343.0,-0.15742850303649902,4,9953.0
5690,0.32844075560569763,-0.033947478979825974,57,6343.0,5.223078727722168,56,9953.0
5700,0.3288815915584564,0.27112075686454773,-7,6343.0,3.702613592147827,176,9953.0
5710,0.3292936384677887,1.0750230550765991,-2,6343.0,8.299111366271973,320,9953.0
5720,0.32858914136886597,0.14047028124332428,11,6343.0,11.518909454345703,254,9953.0
5730,0.3293258249759674,0.745678722858429,-61,6343.0,14.377744674682617,335,9953.0
5740,0.32984402775764465,1.7637596130371094,-18,6343.0,14.742059707641602,457,9953.0
5750,0.33042824268341064,1.638205647468567,-20,6343.0,16.855201721191406,375,9953.0
5760,0.3299025893211365,1.5989998579025269,-46,6343.0,18.644777297973633,339,9953.0
5770,0.3306109607219696,0.6138418316841125,-103,6343.0,16.692228317260742,464,9953.0
5780,0.3313446044921875,1.8649967908859253,-26,6343.0,19.943410873413086,389,9953.0
5790,0.332166850566864,1.2836018800735474,-32,6343.0,15.728761672973633,372,9953.0
5800,0.33308568596839905,2.6918270587921143,-1,6343.0,13.990376472473145,438,9953.0
5810,0.33259692788124084,3.0465829372406006,21,6343.0,10.901694297790527,224,9953.0
5820,0.33356061577796936,2.3905038833618164,-68,6343.0,8.322354316711426,226,9953.0
5830,0.3344879448413849,0.8708768486976624,-47,6343.0,6.651114463806152,192,9953.0
5840,0.3354271352291107,2.6923553943634033,1,6343.0,6.391693115234375,141,9953.0
5850,0.33392754197120667,1.0428205728530884,-33,6343.0,5.649300575256348,200,9953.0
5860,0.334652304649353,3.016979932785034,66,6343.0,5.306839942932129,148,9953.0
5870,0.3353036344051361,3.3200063705444336,-25,6343.0,5.443014144897461,129,9953.0
5880,0.3358615040779114,1.984803557395935,22,6343.0,3.7168972492218018,153,9953.0
5890,0.33468538522720337,-0.8758193254470825,23,6343.0,2.8876073360443115,109,9953.0
5900,0.3349056839942932,-0.5918527245521545,-13,6343.0,2.077425479888916,58,9953.0
5910,0.33509883284568787,-1.8725844621658325,47,6343.0,2.078815221786499,20,9953.0
5920,0.33520781993865967,-0.43658116459846497,-18,6343.0,0.7755829691886902,-68,9953.0
5930,0.3352995812892914,-0.9905166625976562,-29,6343.0,-2.1345889568328857,-51,9953.0
5940,0.3332160413265228,-1.9518887996673584,62,6343.0,-0.7316238880157471,-140,9953.0
5950,0.33302047848701477,-1.0444763898849487,-46,6343.0,-0.7913524508476257,-107,9953.0
5960,0.3328038156032562,0.03269059211015701,37,6343.0,-1.3092212677001953,-83,9953.0
5970,0.33255666494369507,-0.4535701274871826,57,6343.0,-0.5582460761070251,-159,9953.0
5980,0.3305993676185608,2.6571197509765625,61,6343.0,-2.088846445083618,-73,9953.0
5990,0.33006733655929565,2.146876335144043,172,6343.0,-1.9035508632659912,-93,9953.0
6000,0.3295115530490875,2.3113086223602295,24,6343.0,-3.9332094192504883,-185,9953.0
6010,0.32920128107070923,-1.031158447265625,0,6343.0,-5.853968143463135,-164,9953.0
6020,0.328853964805603,-4.193794250488281,-26,6343.0,-8.134008407592773,-232,9953.0
6030,0.32793912291526794,-6.43811559677124,-155,6343.0,-9.432914733886719,-227,9953.0
6040,0.3275258541107178,-6.22370719909668,-21,6343.0,-11.073720932006836,-116,9953.0
6050,0.32734736800193787,-7.800002574920654,-36,6343.0,-12.025842666625977,-218,9953.0
6060,0.32731732726097107,-1.5094544887542725,-75,6343.0,-12.107770919799805,-266,9953.0
6070,0.3261314034461975,1.4601585865020752,31,6343.0,-14.864392280578613,-134,9953.0
6080,0.3260944187641144,4.734480857849121,37,6343.0,-11.969389915466309,-74,9953.0
6090,0.3259489834308624,4.883216381072998,-29,6343.0,-9.713550567626953,-107,9953.0
6100,0.32586604356765747,5.124465465545654,-90,6343.0,-6.478079319000244,87,9953.0
6110,0.32737770676612854,6.383340358734131,-54,6343.0,-6.287314414978027,18,9953.0
6120,0.3272925615310669,3.5487008094787598,-11,6343.0,-2.3843302726745605,-40,9953.0
6130,0.32710781693458557,0.8539354801177979,-65,6343.0,-4.607865333557129,66,9953.0
6140,0.3269977867603302,0.4102236330509186,-49,6343.0,-4.45824670791626,94,9953.0
6150,0.32688504457473755,0.2603137195110321,-3,6343.0,-5.6654157638549805,-114,9953.0
6160,0.32767871022224426,0.1966465711593628,22,6343.0,-7.347062587738037,-223,9953.0
6170,0.32778120040893555,0.07874199002981186,-24,6343.0,-7.43947696685791,-136,9953.0
6180,0.3277774751186371,3.4177823066711426,153,6343.0,-9.173450469970703,-119,9953.0
6190,0.3276774287223816,2.739997386932373,85,6343.0,-7.256688594818115,-279,9953.0
6200,0.32811474800109863,0.3456960916519165,40,6343.0,-6.828455448150635,-181,9953.0
6210,0.3279517590999603,0.0715903714299202,85,6343.0,-5.18239164352417,-150,9953.0
6220,0.32775089144706726,-0.6555241942405701,111,6343.0,-2.010596513748169,-179,9953.0
6230,0.32764744758605957,-5.42274808883667,-1,6343.0,2.5323615074157715,-88,9953.0
6240,0.3275500237941742,-5.125097274780273,-64,6343.0,3.2620790004730225,93,9953.0
6250,0.3265095353126526,-5.237810134887695,4,6343.0,8.97905158996582,147,9953.0
6260,0.3264477849006653,-3.5393433570861816,-9,6343.0,13.982120513916016,156,9953.0
6270,0.3264962434768677,-4.287071704864502,-68,6343.0,14.021684646606445,170,9953.0
6280,0.3264920711517334,-1.8902281522750854,-83,6343.0,13.911569595336914,251,9953.0
6290,0.32717928290367126,0.7688351273536682,19,6343.0,13.097099304199219,321,9953.0
6300,0.32725611329078674,2.4062530994415283,-48,6343.0,11.093693733215332,303,9953.0
6310,0.3275822699069977,3.707287549972534,-70,6343.0,11.751531600952148,250,9953.0
6320,0.32784003019332886,2.7960705757141113,-38,6343.0,12.071978569030762,286,9953.0
6330,0.32803070545196533,0.7156313061714172,-18,6343.0,13.381514549255371,371,9953.0
6340,0.3299304246902466,2.548168659210205,-1,6343.0,10.172271728515625,218,9953.0
6350,0.33030933141708374,1.3887146711349487,-60,6343.0,9.603879928588867,197,9953.0
6360,0.3306463062763214,-0.07095639407634735,-47,6343.0,8.733243942260742,305,9953.0
6370,0.3309823274612427,1.4809391498565674,-48,6343.0,6.754111289978027,121,9953.0
6380,0.33154240250587463,2.3852713108062744,13,6343.0,4.755910396575928,185,9953.0
6390,0.33184272050857544,0.6830539703369141,34,6343.0,4.859338283538818,164,9953.0
6400,0.33213531970977783,1.013107419013977,68,6343.0,5.4675068855285645,109,9953.0
6410,0.33236294984817505,2.3124303817749023,-6,6343.0,5.59466552734375,67,9953.0
6420,0.333429217338562,1.4841948747634888,36,6343.0,5.314924240112305,49,9953.0
6430,0.3336235284805298,1.2541524171829224,126,6343.0,2.3350281715393066,-61,9953.0
6440,0.33376964926719666,-0.6151236295700073,81,6343.0,1.2603284120559692,-212,9953.0
6450,0.333920419216156,0.325787752866745,64,6343.0,2.0442235469818115,-95,9953.0
6460,0.33412936329841614,1.3457776308059692,79,6343.0,-1.610943078994751,-31,9953.0
6470,0.33570829033851624,-0.9094192981719971,88,6343.0,-0.008735881187021732,-199,9953.0
6480,0.3357561230659485,-2.6262896060943604,1,6343.0,-1.0250602960586548,-153,9953.0
6490,0.3356689214706421,-2.711610794067383,-25,6343.0,-2.3844170570373535,-95,9953.0
6500,0.3354119658470154,-5.0819315910339355,32,6343.0,0.2134847790002823,-116,9953.0
6510,0.33430132269859314,-5.186976909637451,-61,6343.0,-1.484890103340149,-140,9953.0
6520,0.3338398039340973,-2.2663824558258057,-44,6343.0,0.03048337623476982,-52,9953.0
6530,0.33325862884521484,0.7442443370819092,65,6343.0,-0.5424407720565796,51,9953.0
6540,0.3326457440853119,2.353297710418701,47,6343.0,-0.10425171256065369,-56,9953.0
6550,0.3316289782524109,2.6090550422668457,-18,6343.0,1.6086586713790894,2,9953.0
6560,0.3310192823410034,2.933685541152954,-24,6343.0,-1.5636388063430786,125,9953.0
6570,0.33042120933532715,0.5019471645355225,-45,6343.0,-4.167520999908447,12,9953.0
6580,0.3299618363380432,-3.008265495300293,-168,6343.0,-6.012265205383301,-3,9953.0
6590,0.32960790395736694,-3.6828646659851074,-159,6343.0,-10.712968826293945,-58,9953.0
6600,0.33005446195602417,-4.058473110198975,-114,6343.0,-14.824602127075195,-201,9953.0
6610,0.32994556427001953,-3.6112799644470215,-81,6343.0,-16.86947250366211,-249,9953.0
6620,0.3299691677093506,-2.5390570163726807,-86,6343.0,-16.13813591003418,-250,9953.0
6630,0.330077201128006,-3.5064923763275146,11,6343.0,-15.865535736083984,-309,9953.0
6640,0.3290417492389679,-0.8849046230316162,93,6343.0,-14.241416931152344,-359,9953.0
6650,0.32934263348579407,-1.1251047849655151,31,6343.0,-8.774565696716309,-228,9953.0
6660,0.3297439217567444,1.7157119512557983,75,6343.0,-7.262511730194092,-163,9953.0
6670,0.3301965892314911,2.4019689559936523,173,6343.0,-5.592380046844482,-156,9953.0
6680,0.33072784543037415,3.219590663909912,161,6343.0,-5.613439083099365,-219,9953.0
6690,0.330576628446579,2.562392473220825,7,6343.0,-6.110591888427734,-141,9953.0
6700,0.3310498297214508,3.7432029247283936,60,6343.0,-6.3764777183532715,-11,9953.0
6710,0.33156055212020874,1.1169781684875488,178,6343.0,-6.6904215812683105,-18,9953.0
6720,0.33215081691741943,1.9304656982421875,-23,6343.0,-7.086536407470703,-183,9953.0
6730,0.33087196946144104,2.5756676197052,-18,6343.0,-5.363852500915527,-86,9953.0
6740,0.33130577206611633,0.02277422696352005,-53,6343.0,-6.210654258728027,29,9953.0
6750,0.33173203468322754,-2.1814515590667725,-73,6343.0,-3.941084861755371,-35,9953.0
6760,0.33208346366882324,-3.8046202659606934,-154,6343.0,-4.499196529388428,-14,9953.0
6770,0.32996922731399536,-4.036169052124023,-133,6343.0,-1.7698010206222534,108,9953.0
6780,0.3302088677883148,-4.97817325592041,-67,6343.0,-0.5871806144714355,81,9953.0
6790,0.3304992914199829,-2.151207208633423,-107,6343.0,3.0792813301086426,35,9953.0
6800,0.33088696002960205,-1.685991644859314,-102,6343.0,1.7610441446304321,100,9953.0
6810,0.33126184344291687,0.15061914920806885,-9,6343.0,2.0584049224853516,124,9953.0
6820,0.3293265402317047,0.32026350498199463,-35,6343.0,4.261183738708496,155,9953.0
6830,0.3296572268009186,2.411860466003418,-82,6343.0,5.169922828674316,220,9953.0
6840,0.3300345838069916,2.357224702835083,8,6343.0,7.1413702964782715,275,9953.0
6850,0.3305736780166626,3.3835790157318115,-32,6343.0,10.384661674499512,217,9953.0
6860,0.3290601968765259,4.226369857788086,-14,6343.0,11.539353370666504,227,9953.0
6870,0.3295194208621979,1.018174171447754,-29,6343.0,12.119997024536133,283,9953.0
6880,0.32992348074913025,0.877388596534729,-32,6343.0,12.66343879699707,357,9953.0
6890,0.3304117023944855,2.3171703815460205,-87,6343.0,10.568487167358398,228,9953.0
6900,0.3310319483280182,-0.42977339029312134,5,6343.0,8.499921798706055,317,9953.0
6910,0.330890029668808,2.4340600967407227,-46,6343.0,8.53492546081543,322,9953.0
6920,0.33148008584976196,4.348628997802734,25,6343.0,7.269334316253662,166,9953.0
6930,0.3320470452308655,5.060810565948486,36,6343.0,6.530296325683594,228,9953.0
6940,0.33266231417655945,5.305213928222656,93,6343.0,5.232640743255615,140,9953.0
6950,0.33256039023399353,5.338486194610596,68,6343.0,1.5796880722045898,39,9953.0
6960,0.3331424295902252,4.364121913909912,-17,6343.0,0.4754525423049927,88,9953.0
6970,0.3336114287376404,2.2469818592071533,51,6343.0,0.23586058616638184,100,9953.0
6980,0.33406326174736023,-0.7724451422691345,0,6343.0,0.16236865520477295,11,9953.0
6990,0.332741916179657,-4.519840717315674,-128,6343.0,3.036720037460327,21,9953.0
7000,0.33293986320495605,-4.452378749847412,-113,6343.0,6.581090450286865,137,9953.0
7010,0.3330967426300049,-3.7243456840515137,-134,6343.0,5.090639591217041,86,9953.0
7020,0.3330979645252228,-4.743946075439453,-140,6343.0,6.596537113189697,240,9953.0
7030,0.3329014182090759,-3.6742770671844482,-64,6343.0,5.157325267791748,159,9953.0
7040,0.3320065140724182,-2.641207695007324,-63,6343.0,3.297858953475952,98,9953.0
7050,0.331785649061203,-1.1024049520492554,-75,6343.0,3.6020960807800293,108,9953.0
7060,0.331428587436676,1.5820002555847168,103,6343.0,2.044801712036133,53,9953.0
7070,0.3309878408908844,3.339010715484619,70,6343.0,0.8131288886070251,-87,9953.0
7080,0.33120492100715637,2.892509698867798,32,6343.0,0.5477271676063538,-158,9953.0
7090,0.33082646131515503,3.5345025062561035,145,6343.0,-2.2273435592651367,-132,9953.0
7100,0.3303719460964203,5.405889511108398,104,6343.0,-3.993628978729248,-152,9953.0
7110,0.329839289188385,0.917106032371521,35,6343.0,-4.624417781829834,-212,9953.0
7120,0.3293282985687256,-1.3969782590866089,-11,6343.0,-4.584636688232422,-55,9953.0
7130,0.3294823467731476,-3.7245943546295166,19,6343.0,-6.534156322479248,-168,9953.0
7140,0.3290458917617798,-7.167675018310547,-19,6343.0,-5.052829265594482,-181,9953.0
7150,0.3286195993423462,-2.9416048526763916,-64,6343.0,-7.914010524749756,-103,9953.0
7160,0.32821330428123474,-0.2905614376068115,-23,6343.0,-8.30471420288086,-24,9953.0
7170,0.3277917504310608,-0.6569374203681946,-35,6343.0,-5.931892395019531,13,9953.0
7180,0.3272534906864166,-0.1531793475151062,-70,6343.0,-8.008524894714355,-91,9953.0
7190,0.326808899641037,2.3770968914031982,-68,6343.0,-7.554523944854736,-35,9953.0
7200,0.32646265625953674,3.020465612411499,47,6343.0,-7.927002906799316,-85,9953.0
7210,0.3276580572128296,0.2654547095298767,71,6343.0,-4.0698137283325195,-175,9953.0
7220,0.32758355140686035,0.017841113731265068,82,6343.0,-6.36176872253418,-218,9953.0
7230,0.32748714089393616,0.5501276850700378,75,6343.0,-4.218006134033203,-181,9953.0
7240,0.3273458778858185,-0.1284705251455307,-19,6343.0,-1.6745917797088623,-129,9953.0
7250,0.32717999815940857,-0.8213630318641663,44,6343.0,-2.4405200481414795,32,9953.0
7260,0.32819291949272156,-0.7327579855918884,-14,6343.0,-3.454928159713745,41,9953.0
7270,0.32804155349731445,-0.38516032695770264,-90,6343.0,-3.687100887298584,-16,9953.0
7280,0.32791969180107117,1.2169781923294067,-93,6343.0,-1.3221005201339722,51,9953.0
7290,0.32786479592323303,0.9383450150489807,-33,6343.0,-4.201748371124268,-29,9953.0
7300,0.328610897064209,-1.1464860439300537,-42,6343.0,-2.430600643157959,-59,9953.0
7310,0.32861626148223877,0.7876039743423462,81,6343.0,0.13156180083751678,-64,9953.0
7320,0.3286775052547455,-1.0811821222305298,29,6343.0,-1.1809539794921875,-141,9953.0
7330,0.32879769802093506,-2.5570855140686035,0,6343.0,-0.13526371121406555,-84,9953.0
7340,0.3288840353488922,-2.845412015914917,-23,6343.0,0.9966505169868469,-106,9953.0
7350,0.32783639430999756,-2.6978232860565186,-9,6343.0,3.475419044494629,108,9953.0
7360,0.32793405652046204,-4.766551971435547,44,6343.0,3.3479628562927246,131,9953.0
7370,0.3280007541179657,-1.235810399055481,-72,6343.0,5.926575183868408,142,9953.0
7380,0.3281298279762268,-1.156456708908081,-71,6343.0,10.631001472473145,193,9953.0
7390,0.329743891954422,2.3978495597839355,-23,6343.0,7.704706192016602,303,9953.0
7400,0.3299938142299652,4.7583794593811035,47,6343.0,8.963976860046387,283,9953.0
7410,0.3302879333496094,4.142975807189941,53,6343.0,8.627432823181152,135,9953.0
7420,0.33058038353919983,5.65512752532959,35,6343.0,11.198674201965332,75,9953.0
7430,0.33044862747192383,4.364989280700684,76,6343.0,5.667455196380615,2,9953.0
7440,0.3306187689304352,0.3764111399650574,55,6343.0,4.652166843414307,65,9953.0
7450,0.3307490348815918,0.4687938690185547,128,6343.0,5.828171730041504,44,9953.0
7460,0.3307449221611023,-0.9345237016677856,47,6343.0,7.112213611602783,-52,9953.0
7470,0.3310312330722809,-1.545718789100647,-9,6343.0,5.842140197753906,22,9953.0
7480,0.33224958181381226,-2.9097743034362793,9,6343.0,4.600635528564453,73,9953.0
7490,0.33232513070106506,0.36892780661582947,16,6343.0,4.450629234313965,172,9953.0
7500,0.332396924495697,0.6597403883934021,-54,6343.0,3.5675272941589355,63,9953.0
7510,0.33250319957733154,2.522165536880493,-27,6343.0,3.9206643104553223,131,9953.0
7520,0.33352598547935486,3.0821444988250732,-27,6343.0,1.5334831476211548,138,9953.0
7530,0.3335634768009186,4.54398250579834,21,6343.0,0.06815943866968155,74,9953.0
7540,0.3336256742477417,2.533116102218628,23,6343.0,-2.1631131172180176,5,9953.0
7550,0.33361661434173584,1.8340948820114136,-62,6343.0,-2.6524622440338135,-89,9953.0
7560,0.3335449695587158,-1.2313926219940186,-19,6343.0,-2.6032774448394775,-125,9953.0
7570,0.3348853886127472,-1.717512607574463,56,6343.0,-4.626130104064941,-154,9953.0
7580,0.33490660786628723,-3.3843045234680176,83,6343.0,-3.206456184387207,-155,9953.0
7590,0.33487144112586975,-2.8705878257751465,42,6343.0,-3.5515851974487305,-166,9953.0
7600,0.33478298783302307,0.6767951250076294,2,6343.0,-0.006192860193550587,7,9953.0
7610,0.3340006470680237,1.0253069400787354,58,6343.0,-0.29476556181907654,39,9953.0
7620,0.33377596735954285,0.008468737825751305,7,6343.0,-0.18091966211795807,45,9953.0
7630,0.33347946405410767,-0.17474325001239777,-107,6343.0,-0.7631924748420715,70,9953.0
7640,0.33313605189323425,-0.2659760117530823,-97,6343.0,-1.3782484531402588,80,9953.0
7650,0.3336661159992218,-3.2685751914978027,-49,6343.0,0.2763980031013489,95,9953.0
7660,0.33350953459739685,-1.7954556941986084,-46,6343.0,-2.2538704872131348,-12,9953.0
7670,0.33343228697776794,-2.1580002307891846,-99,6343.0,-4.187611103057861,13,9953.0
7680,0.3333381414413452,-0.7254228591918945,-45,6343.0,-7.1920576095581055,45,9953.0
7690,0.33321696519851685,-3.6968910694122314,-112,6343.0,-6.94352388381958,-81,9953.0
7700,0.3311215937137604,-2.207463026046753,-102,6343.0,-7.082891941070557,-197,9953.0
7710,0.33080750703811646,-1.7641170024871826,-90,6343.0,-6.456104755401611,-164,9953.0
7720,0.3304775059223175,1.2733426094055176,76,6343.0,-9.374375343322754,-157,9953.0
7730,0.33018428087234497,2.553619146347046,127,6343.0,-8.56315803527832,-311,9953.0
7740,0.3303564786911011,1.2931246757507324,98,6343.0,-7.439902305603027,-222,9953.0
7750,0.33016130328178406,1.0718387365341187,22,6343.0,-5.347721576690674,-149,9953.0
7760,0.3300701677799225,1.0370279550552368,-14,6343.0,-6.088560581207275,-35,9953.0
7770,0.3300599455833435,-1.1940447092056274,32,6343.0,-4.389631748199463,26,9953.0
7780,0.3300417363643646,-0.03199055418372154,-159,6343.0,-5.131804466247559,-60,9953.0
7790,0.3296455144882202,0.06912767887115479,-77,6343.0,-2.1595652103424072,-10,9953.0
7800,0.32969337701797485,0.5856334567070007,-42,6343.0,-1.5819787979125977,106,9953.0
7810,0.3297021985054016,1.4001848697662354,11,6343.0,-3.219554901123047,65,9953.0
7820,0.32966041564941406,2.2358081340789795,59,6343.0,-4.128232002258301,-86,9953.0
7830,0.32975131273269653,1.5327666997909546,83,6343.0,-3.70473575592041,-197,9953.0
7840,0.3296692967414856,-1.1199188232421875,25,6343.0,-1.8337498903274536,-166,9953.0
7850,0.3295259177684784,-1.124377965927124,50,6343.0,-1.6203584671020508,-34,9953.0
7860,0.32946521043777466,-2.706557273864746,49,6343.0,-4.670344352722168,-59,9953.0
7870,0.3281489312648773,-1.8556684255599976,24,6343.0,-3.9237825870513916,-13,9953.0
7880,0.3280845284461975,-2.6086950302124023,-89,6343.0,-4.057854175567627,-60,9953.0
7890,0.3280523419380188,-1.9723702669143677,-153,6343.0,-3.4797139167785645,20,9953.0
7900,0.3280850648880005,-0.6114401817321777,-90,6343.0,-2.7846055030822754,123,9953.0
7910,0.3281208276748657,-1.6158831119537354,-63,6343.0,-3.6858646869659424,84,9953.0
7920,0.32814547419548035,-1.0694537162780762,7,6343.0,0.6049506068229675,16,9953.0
7930,0.32847854495048523,0.788840115070343,2,6343.0,6.573307514190674,-14,9953.0
7940,0.3288176357746124,2.0430121421813965,42,6343.0,11.222293853759766,-3,9953.0
7950,0.32899975776672363,0.5272668600082397,93,6343.0,9.886052131652832,86,9953.0
7960,0.32958459854125977,1.77494478225708,77,6343.0,12.439827919006348,160,9953.0
7970,0.32984480261802673,1.293636679649353,118,6343.0,14.318763732910156,168,9953.0
7980,0.3300815224647522,1.3959990739822388,55,6343.0,13.216322898864746,291,9953.0
7990,0.33033639192581177,2.1812632083892822,-47,6343.0,11.872674942016602,255,9953.0
8000,0.3307456076145172,0.9880813360214233,-49,6343.0,10.890253067016602,240,9953.0
8010,0.3310003876686096,0.2861389219760895,-58,6343.0,5.422217845916748,245,9953.0
8020,0.33129435777664185,0.5033121109008789,19,6343.0,4.5206074714660645,137,9953.0
8030,0.33172863721847534,1.58174467086792,24,6343.0,5.276966094970703,38,9953.0
8040,0.3320959210395813,1.9674568176269531,26,6343.0,6.244501113891602,-21,9953.0
8050,0.3338754177093506,-0.1249883621931076,41,6343.0,4.456232070922852,-50,9953.0
8060,0.33413001894950867,1.7981265783309937,91,6343.0,4.890038967132568,-13,9953.0
8070,0.3342033624649048,1.623120665550232,177,6343.0,3.743285894393921,51,9953.0
8080,0.3341265618801117,-0.6037886142730713,99,6343.0,5.299219131469727,10,9953.0
8090,0.3340047299861908,1.7085542678833008,-65,6343.0,5.732903480529785,45,9953.0
8100,0.3338834047317505,-0.2970350980758667,-16,6343.0,2.758326530456543,125,9953.0
8110,0.3337026834487915,-0.942169725894928,-74,6343.0,2.151585340499878,199,9953.0
8120,0.3335314691066742,-2.2665562629699707,-100,6343.0,1.8509604930877686,128,9953.0
8130,0.33333101868629456,-0.7039533257484436,-57,6343.0,0.3398614823818207,45,9953.0
8140,0.3345126211643219,-2.126131057739258,-62,6343.0,0.8798646926879883,-74,9953.0
8150,0.33426639437675476,-3.2930335998535156,-22,6343.0,0.002009078860282898,-75,9953.0
8160,0.33406633138656616,-1.8285788297653198,82,6343.0,1.5303664207458496,8,9953.0
8170,0.3340919017791748,-0.5290722250938416,77,6343.0,0.8064521551132202,-154,9953.0
8180,0.3334973156452179,-1.0714958906173706,64,6343.0,-0.5367018580436707,-104,9953.0
8190,0.33326467871665955,-0.5076661109924316,-32,6343.0,0.12713108956813812,-12,9953.0
8200,0.33301347494125366,0.504425585269928,-30,6343.0,-1.474437952041626,126,9953.0
8210,0.33275726437568665,-2.1904048919677734,-31,6343.0,-1.2184076309204102,102,9953.0
8220,0.3326457142829895,0.8315823078155518,-88,6343.0,-2.216135025024414,2,9953.0
8230,0.33293160796165466,0.11061277985572815,-91,6343.0,-3.3470664024353027,-32,9953.0
8240,0.3331385850906372,-0.6039488911628723,17,6343.0,-5.23185396194458,-83,9953.0
8250,0.3333672881126404,-1.2852411270141602,91,6343.0,-4.530925273895264,-184,9953.0
8260,0.33360686898231506,0.5743388533592224,82,6343.0,-3.3346526622772217,-280,9953.0
8270,0.3339371681213379,0.7190812826156616,71,6343.0,-8.607250213623047,-261,9953.0
8280,0.33421680331230164,-0.0020428646821528673,56,6343.0,-9.72347354888916,-171,9953.0
8290,0.3343890905380249,1.8712430000305176,54,6343.0,-11.62770938873291,-133,9953.0
8300,0.334606409072876,0.15919001400470734,-2,6343.0,-12.842531204223633,-276,9953.0
8310,0.3357186019420624,-0.6803176403045654,-114,6343.0,-10.659975051879883,-116,9953.0
8320,0.3362096846103668,-0.7750657200813293,-54,6343.0,-10.568856239318848,-28,9953.0
8330,0.33701932430267334,-0.5472412109375,56,6343.0,-8.225872039794922,0,9953.0
8340,0.33794260025024414,-0.11792808771133423,-72,6343.0,-5.911435127258301,-41,9953.0
8350,0.3389259874820709,0.7837381958961487,-87,6343.0,-3.205143690109253,30,9953.0
8360,0.3392060101032257,0.20509199798107147,-46,6343.0,-4.569116115570068,104,9953.0
8370,0.34023624658584595,1.303972840309143,81,6343.0,-5.71409797668457,23,9953.0
8380,0.3412650525569916,2.9903016090393066,11,6343.0,-7.261559963226318,-133,9953.0
8390,0.3423793911933899,4.067689895629883,87,6343.0,-10.46267318725586,-114,9953.0
8400,0.34242525696754456,13.07170581817627,201,6343.0,-7.423947334289551,-31,9953.0
8410,0.3430017828941345,8.64178466796875,142,6343.0,-10.886307716369629,-125,9953.0
8420,0.34334707260131836,6.359807968139648,58,6343.0,-11.331377983093262,-27,9953.0
8430,0.3436112701892853,2.1935861110687256,-47,6343.0,-9.96652603149414,31,9953.0
8440,0.3429854214191437,-5.692229747772217,-76,6343.0,-7.547271728515625,-28,9953.0
8450,0.3427450656890869,-7.289740085601807,-160,6343.0,-5.347912788391113,-41,9953.0
8460,0.34218233823776245,-8.335136413574219,-230,6343.0,-4.224499225616455,52,9953.0
8470,0.3414166569709778,-8.891108512878418,-180,6343.0,-0.05331273376941681,219,9953.0
8480,0.34043654799461365,-8.015913009643555,-167,6343.0,1.5478849411010742,132,9953.0
8490,0.33983585238456726,-6.690133094787598,-141,6343.0,3.1772286891937256,118,9953.0
8500,0.33841970562934875,-4.157472610473633,-123,6343.0,3.5181429386138916,156,9953.0
8510,0.3368006646633148,-5.998495101928711,-209,6343.0,0.11423981934785843,91,9953.0
8520,0.33517706394195557,-6.0069355964660645,-128,6343.0,4.634861469268799,-4,9953.0
8530,0.33278343081474304,-2.1533915996551514,-17,6343.0,2.0395102500915527,-31,9953.0
8540,0.33090654015541077,-4.380980491638184,7,6343.0,3.5024008750915527,-81,9953.0
8550,0.328841894865036,0.9268366694450378,102,6343.0,5.893283843994141,63,9953.0
8560,0.32722222805023193,1.1609410047531128,-75,6343.0,11.44315242767334,238,9953.0
8570,0.32583001255989075,-2.8551688194274902,-166,6343.0,19.530012130737305,435,9953.0
8580,0.32316651940345764,-2.2830183506011963,-99,6343.0,25.251188278198242,481,9953.0
8590,0.32220104336738586,-4.635195732116699,-147,6343.0,27.40461540222168,409,9953.0
8600,0.32178470492362976,-7.820719242095947,13,6343.0,23.65498924255371,326,9953.0
8610,0.321578711271286,-2.9600751399993896,21,6343.0,22.32707977294922,388,9953.0
8620,0.3201525807380676,3.1674599647521973,-26,6343.0,18.229280471801758,449,9953.0
8630,0.3202003538608551,9.248882293701172,227,6343.0,11.616463661193848,160,9953.0
8640,0.32040077447891235,16.42747688293457,367,6343.0,7.7539753913879395,61,9953.0
8650,0.32069551944732666,18.967117309570312,304,6343.0,3.6898326873779297,152,9953.0
8660,0.32023391127586365,12.461553573608398,157,6343.0,3.9707820415496826,132,9953.0
8670,0.3207310438156128,4.65596866607666,74,6343.0,6.261841297149658,6,9953.0
8680,0.32114389538764954,-0.5347738265991211,36,6343.0,5.731080532073975,105,9953.0
8690,0.3215543329715729,-2.697289228439331,-43,6343.0,6.892585277557373,223,9953.0
8700,0.32209277153015137,-2.7541816234588623,-88,6343.0,9.674237251281738,188,9953.0
8710,0.32351410388946533,-3.853407621383667,-68,6343.0,10.639307022094727,72,9953.0
8720,0.3243185579776764,-3.3596959114074707,-23,6343.0,8.081297874450684,119,9953.0
8730,0.3251248002052307,-0.2877350151538849,24,6343.0,6.204303741455078,139,9953.0
8740,0.32589617371559143,1.2955307960510254,5,6343.0,5.5149922370910645,96,9953.0
8750,0.32634681463241577,6.786228179931641,99,6343.0,2.7239625453948975,-103,9953.0
8760,0.32696133852005005,10.364864349365234,223,6343.0,0.7368231415748596,-117,9953.0
8770,0.32764333486557007,7.63524866104126,76,6343.0,-4.144529342651367,-17,9953.0
8780,0.32836243510246277,1.1186819076538086,-66,6343.0,-5.402317523956299,-22,9953.0
8790,0.3297642767429352,-4.1947736740112305,-140,6343.0,-4.972604274749756,-29,9953.0
8800,0.33034074306488037,-4.295671463012695,-56,6343.0,-7.366698741912842,-140,9953.0
8810,0.3307991623878479,-5.537060260772705,-19,6343.0,-5.412617206573486,-144,9953.0
8820,0.33122754096984863,-3.4353654384613037,64,6343.0,-3.7926218509674072,-133,9953.0
8830,0.33160287141799927,-0.3534567952156067,97,6343.0,-2.9576895236968994,3,9953.0
8840,0.331203430891037,4.076773643493652,65,6343.0,-3.6586997509002686,111,9953.0
8850,0.3312395215034485,4.612067222595215,26,6343.0,2.2505500316619873,61,9953.0
8860,0.3312183618545532,6.321333408355713,-21,6343.0,2.5478525161743164,105,9953.0
8870,0.33115097880363464,2.915273666381836,-37,6343.0,3.980982542037964,81,9953.0
8880,0.3309035897254944,0.7139527797698975,17,6343.0,3.974255084991455,80,9953.0
8890,0.3304986357688904,-4.206439018249512,-13,6343.0,5.028278827667236,84,9953.0
8900,0.3300151228904724,-6.465529441833496,-22,6343.0,5.2601823806762695,-59,9953.0
8910,0.329405277967453,-8.83068561553955,-62,6343.0,4.024033069610596,52,9953.0
8920,0.328739732503891,-9.811858177185059,-173,6343.0,0.9939178824424744,97,9953.0
8930,0.32694384455680847,-8.021374702453613,-224,6343.0,-0.7248044610023499,-18,9953.0
8940,0.3262685239315033,-8.124258041381836,-186,6343.0,-0.37766459584236145,0,9953.0
8950,0.32558637857437134,-7.304659366607666,-141,6343.0,-2.849198579788208,-24,9953.0
8960,0.32478761672973633,-7.043497085571289,-136,6343.0,-1.665655493736267,-23,9953.0
8970,0.3239750266075134,-6.586149215698242,-35,6343.0,-1.821927547454834,-175,9953.0
8980,0.32319375872612,-7.524229049682617,-52,6343.0,-3.2704694271087646,-82,9953.0
8990,0.32244592905044556,-5.958481311798096,-177,6343.0,-4.240262508392334,-17,9953.0
9000,0.32163384556770325,-3.682426929473877,-142,6343.0,-3.055522918701172,-34,9953.0
9010,0.3207820951938629,-1.5825423002243042,3,6343.0,-2.4027137756347656,-143,9953.0
9020,0.3188895583152771,-0.2911241948604584,72,6343.0,-2.513441801071167,-82,9953.0
9030,0.3182034194469452,0.8835088610649109,5,6343.0,-0.04987174645066261,142,9953.0
9040,0.31762152910232544,1.3419902324676514,-91,6343.0,1.9420795440673828,76,9953.0
9050,0.317122220993042,-0.6844039559364319,18,6343.0,3.9713618755340576,-61,9953.0
9060,0.31774818897247314,-0.17661622166633606,19,6343.0,1.0349398851394653,73,9953.0
9070,0.31725236773490906,-0.33394744992256165,-59,6343.0,1.526777744293213,79,9953.0
9080,0.3166641592979431,-2.3369479179382324,-100,6343.0,-0.3589340150356293,-61,9953.0
9090,0.3161884546279907,-4.085290431976318,51,6343.0,-2.3087503910064697,-73,9953.0
9100,0.31451788544654846,-4.797133445739746,-98,6343.0,-1.2888672351837158,61,9953.0
9110,0.31401994824409485,-5.742353916168213,-154,6343.0,0.19630202651023865,34,9953.0
9120,0.31366536021232605,-5.94169282913208,-77,6343.0,0.06432860344648361,-52,9953.0
9130,0.31359702348709106,-3.680121421813965,-44,6343.0,0.41462960839271545,40,9953.0
9140,0.313279926776886,-0.990967869758606,-97,6343.0,1.7642408609390259,81,9953.0
9150,0.31288328766822815,0.31226325035095215,0,6343.0,2.9265377521514893,-6,9953.0
9160,0.3122595250606537,3.5212690830230713,135,6343.0,3.7128069400787354,55,9953.0
9170,0.3124415874481201,8.346195220947266,91,6343.0,6.2875518798828125,162,9953.0
9180,0.31239214539527893,12.384583473205566,205,6343.0,10.31447696685791,66,9953.0
9190,0.31218183040618896,13.019006729125977,285,6343.0,12.940978050231934,161,9953.0
9200,0.3118555545806885,12.778139114379883,159,6343.0,12.470858573913574,305,9953.0
9210,0.3115813732147217,8.10575008392334,120,6343.0,13.760641098022461,197,9953.0
9220,0.3116803467273712,3.7298736572265625,128,6343.0,15.618507385253906,169,9953.0
9230,0.309908926486969,0.32370248436927795,-12,6343.0,14.671608924865723,361,9953.0
9240,0.3096800148487091,0.08676125854253769,-82,6343.0,14.680621147155762,294,9953.0
9250,0.30970367789268494,-2.2877469062805176,38,6343.0,13.364968299865723,168,9953.0
9260,0.30980879068374634,-0.8584029078483582,-48,6343.0,13.601897239685059,315,9953.0
9270,0.30987831950187683,0.6809487342834473,-56,6343.0,13.465710639953613,181,9953.0
9280,0.30828389525413513,1.7740375995635986,30,6343.0,13.851938247680664,137,9953.0
9290,0.30791038274765015,2.311660051345825,68,6343.0,12.231581687927246,261,9953.0
9300,0.3077103793621063,2.819410562515259,9,6343.0,12.062399864196777,132,9953.0
9310,0.30738094449043274,0.9183147549629211,63,6343.0,11.720273971557617,176,9953.0
9320,0.30561238527297974,-0.9570306539535522,-5,6343.0,12.542412757873535,307,9953.0
9330,0.30497801303863525,-2.0566720962524414,-111,6343.0,12.50839900970459,176,9953.0
9340,0.3041585683822632,-4.687219619750977,-23,6343.0,11.909385681152344,219,9953.0
9350,0.3037472665309906,-3.255018472671509,-124,6343.0,14.574827194213867,332,9953.0
9360,0.3030228912830353,-2.2363743782043457,9,6343.0,15.759940147399902,143,9953.0
9370,0.30131852626800537,-1.7756751775741577,-10,6343.0,16.11188507080078,362,9953.0
9380,0.3006303012371063,-2.776441812515259,-123,6343.0,16.18183135986328,254,9953.0
9390,0.29992690682411194,-4.652040004730225,-12,6343.0,15.807771682739258,218,9953.0
9400,0.2996716797351837,-3.2636659145355225,-101,6343.0,14.007150650024414,247,9953.0
9410,0.29944103956222534,-1.0782907009124756,44,6343.0,12.589730262756348,180,9953.0
9420,0.29879555106163025,1.4908889532089233,-21,6343.0,10.22342300415039,223,9953.0
9430,0.2988598644733429,1.4955743551254272,127,6343.0,10.348379135131836,113,9953.0
9440,0.29848137497901917,3.223301649093628,9,6343.0,11.236601829528809,179,9953.0
9450,0.2987297773361206,3.5784912109375,108,6343.0,9.718914031982422,156,9953.0
9460,0.29872551560401917,6.227924346923828,83,6343.0,8.947661399841309,226,9953.0
9470,0.2989167869091034,6.079095363616943,127,6343.0,11.433880805969238,141,9953.0
9480,0.2991999089717865,5.636476993560791,58,6343.0,10.588608741760254,267,9953.0
9490,0.2994197607040405,2.576380729675293,91,6343.0,11.766631126403809,56,9953.0
9500,0.30160483717918396,2.31343936920166,75,6343.0,9.654268264770508,252,9953.0
9510,0.3023401200771332,3.1782829761505127,1,6343.0,8.2652587890625,12,9953.0
9520,0.3030969202518463,2.7207980155944824,56,6343.0,8.133971214294434,251,9953.0
9530,0.3037932515144348,3.747694253921509,36,6343.0,5.112584590911865,-23,9953.0
9540,0.30524757504463196,3.749622344970703,76,6343.0,2.4467625617980957,77,9953.0
9550,0.3060629069805145,3.304816484451294,-5,6343.0,-2.2074334621429443,73,9953.0
9560,0.30665645003318787,4.4689836502075195,124,6343.0,-1.283828616142273,-96,9953.0
9570,0.30724725127220154,3.916060209274292,37,6343.0,-0.867870569229126,103,9953.0
9580,0.307936429977417,0.9466410875320435,-31,6343.0,0.1096569374203682,-34,9953.0
9590,0.3086688220500946,1.1176427602767944,35,6343.0,-0.4509667158126831,-38,9953.0
9600,0.30908098816871643,0.5541887879371643,18,6343.0,-0.985784649848938,80,9953.0
9610,0.30942457914352417,0.3879763185977936,-68,6343.0,0.05452761426568031,44,9953.0
9620,0.30967241525650024,-1.2154223918914795,-48,6343.0,3.1749002933502197,-4,9953.0
9630,0.31288203597068787,-1.090797781944275,67,6343.0,7.204352855682373,29,9953.0
9640,0.31334254145622253,-0.023894160985946655,23,6343.0,5.623889446258545,182,9953.0
9650,0.3138918876647949,2.4949758052825928,1,6343.0,8.1796236038208,153,9953.0
9660,0.31427597999572754,3.9079949855804443,152,6343.0,5.386601448059082,-80,9953.0
9670,0.3163299560546875,3.353938341140747,67,6343.0,5.3441548347473145,141,9953.0
9680,0.3168734312057495,1.965219259262085,-3,6343.0,5.035106658935547,106,9953.0
9690,0.3172920048236847,1.3397371768951416,-5,6343.0,5.7561516761779785,-52,9953.0
9700,0.3174012005329132,-2.0703704357147217,40,6343.0,1.6489176750183105,22,9953.0
9710,0.31763967871665955,-4.349808216094971,-84,6343.0,0.06425794214010239,59,9953.0
9720,0.31916919350624084,-3.1447770595550537,-89,6343.0,-1.076235294342041,-12,9953.0
9730,0.3192148208618164,-4.748257637023926,-18,6343.0,-1.4823665618896484,-126,9953.0
9740,0.31915536522865295,-4.749790668487549,-24,6343.0,-1.7650375366210938,-2,9953.0
9750,0.31928274035453796,-2.302522659301758,-79,6343.0,-2.3271844387054443,126,9953.0
9760,0.3205803632736206,0.8313417434692383,-39,6343.0,2.06667160987854,-8,9953.0
9770,0.32063162326812744,0.9788849353790283,99,6343.0,0.4062758684158325,-45,9953.0
9780,0.32026711106300354,1.7411013841629028,13,6343.0,2.3318393230438232,157,9953.0
9790,0.3199427127838135,3.347343921661377,2,6343.0,2.9181835651397705,75,9953.0
9800,0.32162725925445557,2.526646375656128,63,6343.0,3.4942753314971924,-51,9953.0
9810,0.32129815220832825,2.306262969970703,92,6343.0,3.777874708175659,96,9953.0
9820,0.32099685072898865,2.690178155899048,5,6343.0,3.20932674407959,124,9953.0
9830,0.3207046389579773,1.9066964387893677,-43,6343.0,1.5689626932144165,36,9953.0
9840,0.32039228081703186,3.003596067428589,121,6343.0,1.3319969177246094,-13,9953.0
9850,0.32100561261177063,2.1995925903320312,57,6343.0,1.031546711921692,43,9953.0
9860,0.3205842077732086,3.2760169506073,-41,6343.0,0.06307520717382431,68,9953.0
9870,0.3201502859592438,1.538167119026184,25,6343.0,1.190868854522705,-37,9953.0
9880,0.31979382038116455,-0.14847320318222046,56,6343.0,1.186652421951294,-9,9953.0
9890,0.31951814889907837,0.724277675151825,-21,6343.0,2.023855447769165,141,9953.0
9900,0.31924426555633545,3.2281525135040283,-27,6343.0,3.8338160514831543,84,9953.0
9910,0.31909653544425964,2.87315034866333,104,6343.0,2.7885782718658447,-48,9953.0
9920,0.31900259852409363,4.208521842956543,57,6343.0,1.5092909336090088,144,9953.0
9930,0.31906408071517944,3.4097414016723633,-17,6343.0,-0.08563398569822311,10,9953.0
9940,0.3179987370967865,2.551420211791992,53,6343.0,-2.9504027366638184,-141,9953.0
9950,0.31779319047927856,1.9813019037246704,72,6343.0,-3.4361636638641357,16,9953.0
9960,0.3174741268157959,1.29571533203125,0,6343.0,-2.392723321914673,-6,9953.0
9970,0.317118376493454,1.3007373809814453,29,6343.0,-2.3649230003356934,-125,9953.0
9980,0.3153499662876129,1.1322325468063354,80,6343.0,-3.7263095378875732,-14,9953.0
9990,0.31488969922065735,0.36979320645332336,-82,6343.0,-2.5066540241241455,5,9953.0
10000,0.31444624066352844,-0.2794450521469116,-1,6343.0,-3.0135419368743896,-124,9953.0
10010,0.31401294469833374,-1.3919191360473633,19,6343.0,-2.5356662273406982,-11,9953.0
10020,0.3124725818634033,-1.2484906911849976,-93,6343.0,-0.4796305298805237,50,9953.0
10030,0.3120185434818268,-0.7440699338912964,22,6343.0,0.38876983523368835,-127,9953.0
10040,0.3116588890552521,-0.48774057626724243,2,6343.0,-2.714510679244995,-13,9953.0
10050,0.311386376619339,-1.4076125621795654,-74,6343.0,-2.9335765838623047,-50,9953.0
10060,0.3111729025840759,-2.794362783432007,23,6343.0,-1.2349532842636108,-128,9953.0
10070,0.308435320854187,-1.0417505502700806,-25,6343.0,-2.3437845706939697,95,9953.0
10080,0.3082030117511749,0.42100420594215393,14,6343.0,-3.4283998012542725,-128,9953.0
10090,0.3079655170440674,1.1664689779281616,47,6343.0,-5.936483383178711,-21,9953.0
10100,0.3077889680862427,1.3680768013000488,-29,6343.0,-4.8053507804870605,-55,9953.0
10110,0.30531570315361023,0.5659211277961731,36,6343.0,-5.223506450653076,-162,9953.0
10120,0.3051952123641968,-0.9916837811470032,18,6343.0,-5.625118255615234,-40,9953.0
10130,0.3051489293575287,0.1596408635377884,-95,6343.0,-7.4869303703308105,-171,9953.0
10140,0.30510997772216797,-1.6939797401428223,51,6343.0,-6.543109893798828,-182,9953.0
10150,0.30511125922203064,-3.9314661026000977,-98,6343.0,-7.665617942810059,-25,9953.0
10160,0.3034588098526001,-5.420193195343018,-97,6343.0,-6.557285308837891,-179,9953.0
10170,0.3035811185836792,-7.230318069458008,-97,6343.0,-5.931241989135742,-83,9953.0
10180,0.3036387264728546,-8.840486526489258,-190,6343.0,-4.631571292877197,9,9953.0
10190,0.30368316173553467,-8.538208961486816,-83,6343.0,-3.3547823429107666,-162,9953.0
10200,0.30255556106567383,-5.653902053833008,-65,6343.0,-3.7371959686279297,17,9953.0
10210,0.3024272918701172,-2.7122128009796143,-96,6343.0,-5.253262519836426,-150,9953.0
10220,0.30233532190322876,-1.8907239437103271,14,6343.0,-4.148339748382568,-50,9953.0
10230,0.30218595266342163,-1.6733437776565552,-84,6343.0,-4.404090404510498,45,9953.0
10240,0.301987886428833,-1.3925107717514038,-92,6343.0,-2.480076551437378,-88,9953.0
10250,0.30280062556266785,-0.965167224407196,66,6343.0,-1.9688048362731934,41,9953.0
10260,0.30282920598983765,-1.9259812831878662,-66,6343.0,0.012489288114011288,65,9953.0
10270,0.3026922941207886,-2.1675212383270264,-59,6343.0,2.5780112743377686,-19,9953.0
10280,0.3024557828903198,-2.1367411613464355,14,6343.0,4.710109233856201,64,9953.0
10290,0.30287572741508484,-1.9776833057403564,-58,6343.0,6.053393363952637,132,9953.0
10300,0.30304011702537537,-0.7558548450469971,16,6343.0,7.7533392906188965,48,9953.0
10310,0.3029106855392456,-0.03284480422735214,8,6343.0,5.754870414733887,176,9953.0
10320,0.3029629588127136,2.520733118057251,-32,6343.0,4.23484468460083,24,9953.0
10330,0.30488455295562744,0.9647104144096375,86,6343.0,3.3709359169006348,31,9953.0
10340,0.30487826466560364,0.26197928190231323,-85,6343.0,0.8864774107933044,114,9953.0
10350,0.30472710728645325,-3.335113048553467,-65,6343.0,1.1897382736206055,-91,9953.0
10360,0.30490946769714355,-5.100944995880127,-53,6343.0,1.6223564147949219,69,9953.0
10370,0.3052610158920288,-4.3244242668151855,-113,6343.0,5.076061725616455,151,9953.0
10380,0.30818504095077515,-2.6116888523101807,4,6343.0,8.643681526184082,42,9953.0
10390,0.30846667289733887,0.3902718424797058,31,6343.0,8.229682922363281,236,9953.0
10400,0.30850544571876526,1.0740219354629517,-57,6343.0,10.437739372253418,135,9953.0
10410,0.30907532572746277,1.5839333534240723,115,6343.0,12.028280258178711,167,9953.0
10420,0.31205037236213684,2.1877877712249756,-25,6343.0,12.522822380065918,294,9953.0
10430,0.31273677945137024,-0.05091031640768051,-31,6343.0,12.605567932128906,159,9953.0
10440,0.31325724720954895,-0.7501804828643799,44,6343.0,11.962991714477539,181,9953.0
10450,0.3139268755912781,0.06834756582975388,-48,6343.0,10.214381217956543,284,9953.0
10460,0.31862249970436096,1.35792875289917,-49,6343.0,9.169232368469238,20,9953.0
10470,0.3196399211883545,-1.2998008728027344,63,6343.0,7.588654518127441,124,9953.0
10480,0.32078638672828674,-1.696773886680603,-80,6343.0,6.246609687805176,175,9953.0
10490,0.3220996856689453,-2.7609944343566895,-90,6343.0,5.795428276062012,94,9953.0
10500,0.3232212960720062,-1.2167896032333374,48,6343.0,8.123992919921875,35,9953.0
10510,0.32666605710983276,-1.0466489791870117,-4,6343.0,7.686114311218262,195,9953.0
10520,0.32745882868766785,-1.7594536542892456,-93,6343.0,10.029699325561523,250,9953.0
10530,0.3287115693092346,-3.2142269611358643,-94,6343.0,11.494767189025879,187,9953.0
10540,0.3296440541744232,-2.60709547996521,11,6343.0,11.83615493774414,70,9953.0
10550,0.33411723375320435,-2.012200355529785,54,6343.0,12.921780586242676,98,9953.0
10560,0.33493515849113464,-1.33049476146698,15,6343.0,10.938403129577637,211,9953.0
10570,0.3358355760574341,-1.030775547027588,-22,6343.0,10.417993545532227,231,9953.0
10580,0.3365311026573181,-0.09836195409297943,-64,6343.0,9.298439979553223,186,9953.0
10590,0.3371092975139618,0.030989577993750572,-43,6343.0,9.980803489685059,200,9953.0
10600,0.3382626175880432,1.2845033407211304,48,6343.0,8.718550682067871,60,9953.0
10610,0.33865463733673096,-0.5775682330131531,81,6343.0,6.821345329284668,-30,9953.0
10620,0.3389667868614197,0.007524633780121803,55,6343.0,7.175456523895264,-30,9953.0
10630,0.3390621542930603,-1.3521677255630493,56,6343.0,8.202157020568848,74,9953.0
10640,0.340157151222229,-0.8465316891670227,-40,6343.0,6.140870094299316,42,9953.0
10650,0.34024229645729065,-3.311999559402466,-6,6343.0,6.9567155838012695,31,9953.0
10660,0.34015601873397827,-2.412463665008545,-50,6343.0,7.7706217765808105,119,9953.0
10670,0.3401450216770172,-1.8665159940719604,-125,6343.0,7.534580230712891,168,9953.0
10680,0.34104713797569275,-3.651489734649658,-32,6343.0,6.232479095458984,150,9953.0
10690,0.3409428894519806,-0.20470832288265228,-40,6343.0,6.683847904205322,161,9953.0
10700,0.34092479944229126,2.1516759395599365,-45,6343.0,5.355671405792236,243,9953.0
10710,0.34074610471725464,4.835527420043945,34,6343.0,6.08498477935791,193,9953.0
10720,0.3404695987701416,10.495383262634277,72,6343.0,6.645346164703369,275,9953.0
10730,0.3418387472629547,11.277639389038086,95,6343.0,5.360871315002441,239,9953.0
10740,0.3414842188358307,8.611594200134277,66,6343.0,5.469809055328369,118,9953.0
10750,0.34109950065612793,4.167418956756592,-5,6343.0,4.419663429260254,199,9953.0
10760,0.34057173132896423,-0.8136417865753174,-86,6343.0,0.2991509735584259,41,9953.0
10770,0.3401389718055725,-6.075072765350342,-112,6343.0,-4.681309223175049,-33,9953.0
10780,0.339376300573349,-6.435213088989258,-58,6343.0,-7.887789249420166,-142,9953.0
10790,0.33846545219421387,-5.09779167175293,-84,6343.0,-8.142951011657715,-144,9953.0
10800,0.3374043405056,-5.070329666137695,-37,6343.0,-9.410765647888184,-183,9953.0
10810,0.3363285958766937,-3.323136568069458,38,6343.0,-6.682734489440918,-224,9953.0
10820,0.33365413546562195,1.6572335958480835,136,6343.0,-5.712588787078857,-150,9953.0
10830,0.3323862850666046,1.9295191764831543,115,6343.0,-3.934473752975464,-88,9953.0
10840,0.330975204706192,-0.05107098072767258,61,6343.0,-4.123696804046631,5,9953.0
10850,0.32946261763572693,-1.8404695987701416,-61,6343.0,-0.5520350933074951,57,9953.0
10860,0.325877845287323,-1.8420588970184326,-100,6343.0,-6.128534317016602,-70,9953.0
10870,0.32402944564819336,-2.183579444885254,-12,6343.0,-3.313504695892334,-44,9953.0
10880,0.32233187556266785,1.2555413246154785,3,6343.0,-1.211999535560608,-83,9953.0
10890,0.3204306364059448,5.331448554992676,225,6343.0,-5.074693202972412,-158,9953.0
10900,0.31781017780303955,9.624175071716309,194,6343.0,-3.096524953842163,-165,9953.0
10910,0.31601986289024353,11.946881294250488,153,6343.0,-5.443874835968018,-46,9953.0
10920,0.31434160470962524,13.018383026123047,147,6343.0,-6.328897476196289,22,9953.0
10930,0.312692791223526,11.47286605834961,148,6343.0,-8.095257759094238,-184,9953.0
10940,0.31123030185699463,7.958000183105469,182,6343.0,-7.6107587814331055,-172,9953.0
10950,0.3094867467880249,4.480583190917969,66,6343.0,-9.243315696716309,-71,9953.0
10960,0.3080172538757324,1.9401661157608032,-34,6343.0,-9.649372100830078,-165,9953.0
10970,0.30671992897987366,0.17962957918643951,64,6343.0,-9.287765502929688,-211,9953.0
10980,0.3061266541481018,0.02676708623766899,-38,6343.0,-9.41382122039795,-59,9953.0
10990,0.3068923056125641,-0.04626418277621269,-49,6343.0,-8.562232971191406,-201,9953.0
11000,0.30636104941368103,-1.760488510131836,60,6343.0,-8.740586280822754,-150,9953.0
11010,0.30605387687683105,2.0994787216186523,33,6343.0,-6.080007076263428,0,9953.0
11020,0.3059665262699127,6.674909591674805,149,6343.0,-2.838611602783203,-131,9953.0
11030,0.3061158359050751,8.439347267150879,149,6343.0,-3.3456368446350098,55,9953.0
11040,0.3071083724498749,8.918920516967773,172,6343.0,-2.280224323272705,-109,9953.0
11050,0.3076760768890381,8.985983848571777,153,6343.0,-2.032728433609009,45,9953.0
11060,0.30837365984916687,7.243485927581787,84,6343.0,-3.511256456375122,-128,9953.0
11070,0.30931714177131653,5.953924179077148,192,6343.0,-3.6257472038269043,-9,9953.0
11080,0.309832900762558,5.683274745941162,-7,6343.0,-2.8690567016601562,-42,9953.0
11090,0.31107744574546814,1.6010764837265015,80,6343.0,-1.870293378829956,-111,9953.0
11100,0.31245675683021545,-0.20170319080352783,-5,6343.0,-4.3012614250183105,51,9953.0
11110,0.3139597475528717,0.4882185757160187,-25,6343.0,-3.8885436058044434,-180,9953.0
11120,0.31499263644218445,1.0436513423919678,92,6343.0,-4.815953731536865,-83,9953.0
11130,0.31671303510665894,2.672351598739624,-29,6343.0,-3.505120038986206,32,9953.0
11140,0.3185122013092041,1.8321963548660278,29,6343.0,-3.5647549629211426,-184,9953.0
11150,0.32049882411956787,2.1385586261749268,119,6343.0,-3.408419609069824,-13,9953.0
11160,0.322598934173584,2.5870277881622314,-8,6343.0,-4.115229606628418,18,9953.0
11170,0.3229399621486664,0.5762262940406799,-35,6343.0,-2.981557607650757,-68,9953.0
11180,0.3252675235271454,-0.7363353967666626,27,6343.0,-3.7629354000091553,-184,9953.0
11190,0.3273308575153351,-0.2961552143096924,48,6343.0,-5.987605571746826,-24,9953.0
11200,0.32923391461372375,-0.7029425501823425,-26,6343.0,-7.4452996253967285,-24,9953.0
11210,0.33055201172828674,-0.5394452810287476,-83,6343.0,-7.5347418785095215,-72,9953.0
11220,0.3323260545730591,1.4970159530639648,25,6343.0,-5.11422061920166,-139,9953.0
11230,0.3340859115123749,2.3977713584899902,65,6343.0,-3.988996982574463,-179,9953.0
11240,0.3356187343597412,3.016018867492676,75,6343.0,2.9770829677581787,-37,9953.0
11250,0.3370192348957062,2.9410815238952637,127,6343.0,2.26888370513916,-63,9953.0
11260,0.3365675210952759,2.3523998260498047,51,6343.0,2.2668635845184326,20,9953.0
11270,0.3376726508140564,0.3378579914569855,26,6343.0,6.5538201332092285,91,9953.0
11280,0.33866509795188904,-2.817809581756592,-65,6343.0,5.8794264793396,52,9953.0
11290,0.3395818769931793,-4.740797996520996,-125,6343.0,5.913559436798096,120,9953.0
11300,0.3373029828071594,-5.576992511749268,-144,6343.0,4.746252059936523,73,9953.0
11310,0.337860107421875,-6.689318656921387,-154,6343.0,2.308990001678467,41,9953.0
11320,0.3383405804634094,-8.102825164794922,-194,6343.0,1.2648940086364746,19,9953.0
11330,0.3387623429298401,-8.814863204956055,-230,6343.0,1.7585102319717407,28,9953.0
11340,0.337892085313797,-8.289891242980957,-191,6343.0,1.9639050960540771,83,9953.0
11350,0.3381468951702118,-6.13057804107666,-143,6343.0,3.268033027648926,116,9953.0
11360,0.3382366895675659,-5.045040607452393,-186,6343.0,4.2549238204956055,105,9953.0
11370,0.33818021416664124,-4.43891716003418,-171,6343.0,1.140763282775879,79,9953.0
11380,0.3381141722202301,-5.454541206359863,-140,6343.0,2.001451015472412,25,9953.0
11390,0.3374790847301483,-5.784785747528076,-131,6343.0,0.8836515545845032,79,9953.0
11400,0.3372700810432434,-5.60198974609375,-132,6343.0,-2.716838836669922,63,9953.0
11410,0.3370029032230377,-5.183592319488525,-170,6343.0,-4.872611999511719,87,9953.0
11420,0.3366059362888336,-3.9442365169525146,-135,6343.0,-3.480142593383789,106,9953.0
11430,0.33462241291999817,-3.9685897827148438,-119,6343.0,-0.6556861400604248,48,9953.0
11440,0.33387669920921326,-4.3627729415893555,-103,6343.0,1.8407636880874634,160,9953.0
11450,0.3329871594905853,-5.610995292663574,-117,6343.0,4.523419380187988,126,9953.0
11460,0.33204641938209534,-5.784378528594971,-58,6343.0,6.069958686828613,101,9953.0
11470,0.33098122477531433,-5.2074761390686035,-56,6343.0,6.2259626388549805,16,9953.0
11480,0.33059829473495483,-6.291651725769043,-5,6343.0,7.804933547973633,43,9953.0
11490,0.3293274939060211,-6.491715908050537,25,6343.0,6.697029113769531,53,9953.0
11500,0.32794657349586487,-4.548032760620117,-49,6343.0,7.079401969909668,162,9953.0
11510,0.3264579474925995,-4.075357437133789,-115,6343.0,6.106679916381836,225,9953.0
11520,0.32608744502067566,-3.2366716861724854,-196,6343.0,2.914652109146118,200,9953.0
11530,0.32472220063209534,-2.767498731613159,-96,6343.0,2.9515488147735596,-66,9953.0
11540,0.3232612907886505,-1.840135097503662,23,6343.0,3.3816983699798584,-30,9953.0
11550,0.32180556654930115,-1.5281137228012085,-10,6343.0,0.8814248442649841,20,9953.0
11560,0.32133519649505615,-0.7036343812942505,-32,6343.0,0.7551470994949341,58,9953.0
11570,0.3202328681945801,0.5085472464561462,-1,6343.0,-0.7996212840080261,-31,9953.0
11580,0.319158673286438,-0.15939420461654663,40,6343.0,-0.8840272426605225,-130,9953.0
11590,0.3181244134902954,-0.8743209838867188,41,6343.0,-0.12990140914916992,5,9953.0
11600,0.3171001672744751,-1.043651819229126,-44,6343.0,2.4002842903137207,89,9953.0
11610,0.31935566663742065,-1.5805505514144897,-27,6343.0,4.0313496589660645,-43,9953.0
11620,0.31856977939605713,-1.5896413326263428,62,6343.0,5.643955707550049,123,9953.0
11630,0.31793683767318726,-0.3190079629421234,-79,6343.0,4.538657188415527,106,9953.0
11640,0.3174111247062683,0.43184369802474976,37,6343.0,3.5142784118652344,-27,9953.0
11650,0.3196414113044739,2.455045461654663,91,6343.0,2.6453511714935303,155,9953.0
11660,0.31959670782089233,5.6463303565979,24,6343.0,1.9382213354110718,13,9953.0
11670,0.3196569085121155,5.359211444854736,211,6343.0,1.54221510887146,7,9953.0
11680,0.3198647201061249,6.310685157775879,76,6343.0,1.5155682563781738,155,9953.0
11690,0.32182979583740234,4.7456183433532715,14,6343.0,3.8062636852264404,-27,9953.0
11700,0.32244378328323364,3.6816587448120117,117,6343.0,-0.21854394674301147,-25,9953.0
11710,0.3232184946537018,0.5890486240386963,-40,6343.0,-2.4123032093048096,112,9953.0
11720,0.3241522014141083,-0.8093311786651611,-60,6343.0,-0.9489344358444214,-92,9953.0
11730,0.3252354860305786,-1.9259239435195923,57,6343.0,-3.3798041343688965,-128,9953.0
11740,0.3283657431602478,-0.7538504004478455,-40,6343.0,-4.861667156219482,13,9953.0
11750,0.32967597246170044,0.7291349768638611,-66,6343.0,-3.431239128112793,-110,9953.0
11760,0.33102965354919434,1.4268176555633545,96,6343.0,-4.940438747406006,-184,9953.0
11770,0.33233460783958435,1.6413685083389282,95,6343.0,-5.616113662719727,-18,9953.0
11780,0.3358675539493561,3.1051971912384033,-10,6343.0,-5.6309638023376465,-29,9953.0
11790,0.337274432182312,3.2468974590301514,-21,6343.0,-4.007248401641846,-29,9953.0
11800,0.3387274146080017,1.8378461599349976,58,6343.0,-2.7507216930389404,-181,9953.0
11810,0.34023362398147583,1.3996893167495728,87,6343.0,-3.9694392681121826,-113,9953.0
11820,0.3417035937309265,1.3033554553985596,58,6343.0,-4.638228416442871,-119,9953.0
11830,0.34197738766670227,1.2968240976333618,21,6343.0,-5.836427688598633,-42,9953.0
11840,0.34330788254737854,-0.3245549499988556,-42,6343.0,-5.296939373016357,-42,9953.0
11850,0.34466224908828735,0.324804425239563,-55,6343.0,-6.297056198120117,-32,9953.0
11860,0.3461097776889801,2.073875904083252,-31,6343.0,-4.467480659484863,-76,9953.0
11870,0.34721505641937256,3.6090142726898193,46,6343.0,-5.861011028289795,-9,9953.0
11880,0.34952855110168457,1.2189795970916748,26,6343.0,-3.451784372329712,-10,9953.0
11890,0.34954243898391724,1.8572876453399658,71,6343.0,-4.119198799133301,55,9953.0
11900,0.35127630829811096,0.9639840722084045,69,6343.0,-4.381902694702148,30,9953.0
11910,0.3512101471424103,0.9004384875297546,-15,6343.0,-4.0155229568481445,48,9953.0
11920,0.35224902629852295,-1.5417938232421875,-71,6343.0,-1.6181708574295044,88,9953.0
11930,0.3522258698940277,-0.6057013273239136,-71,6343.0,-0.7906770706176758,66,9953.0
11940,0.3524813652038574,0.6189001798629761,-61,6343.0,-1.0241385698318481,150,9953.0
11950,0.35264530777931213,1.4318171739578247,18,6343.0,-0.5609143972396851,83,9953.0
11960,0.3527091443538666,2.7300655841827393,50,6343.0,-2.012606382369995,26,9953.0
11970,0.3527022898197174,3.8374829292297363,44,6343.0,-3.8207080364227295,57,9953.0
11980,0.35243070125579834,3.8064401149749756,17,6343.0,-2.579449415206909,15,9953.0
11990,0.3519342839717865,5.690171718597412,80,6343.0,-1.4405640363693237,57,9953.0
12000,0.3519052267074585,6.287355899810791,76,6343.0,-3.222259998321533,93,9953.0
12010,0.3500344455242157,7.672950267791748,68,6343.0,-2.8160619735717773,81,9953.0
12020,0.35003289580345154,8.98647403717041,94,6343.0,1.500428318977356,116,9953.0
12030,0.3474487066268921,6.835000991821289,40,6343.0,-0.18330369889736176,74,9953.0
12040,0.3474564850330353,5.141427993774414,21,6343.0,0.6617376208305359,135,9953.0
12050,0.34739309549331665,0.32299891114234924,1,6343.0,2.5630953311920166,79,9953.0
12060,0.3474467098712921,-2.599357843399048,-95,6343.0,6.656755447387695,92,9953.0
12070,0.3444994390010834,-4.288873672485352,-17,6343.0,3.8679022789001465,13,9953.0
12080,0.3444689214229584,-5.456753253936768,-45,6343.0,5.306975364685059,51,9953.0
12090,0.345703661441803,-3.528242826461792,53,6343.0,4.219851016998291,-67,9953.0
12100,0.34452614188194275,-5.34519624710083,-13,6343.0,4.224765777587891,68,9953.0
12110,0.343475878238678,-3.793593168258667,-21,6343.0,2.795720100402832,72,9953.0
12120,0.3423497974872589,-2.9265499114990234,-88,6343.0,2.7247097492218018,113,9953.0
12130,0.34268102049827576,-0.3391663432121277,-86,6343.0,0.6221771836280823,40,9953.0
12140,0.34173983335494995,-0.24063177406787872,22,6343.0,-0.5421648025512695,-78,9953.0
12150,0.3407200872898102,-0.347097247838974,70,6343.0,-0.24594616889953613,-74,9953.0
12160,0.3395891785621643,-0.6338766813278198,54,6343.0,1.3868422508239746,59,9953.0
12170,0.33850857615470886,0.4257549047470093,-30,6343.0,1.383890986442566,100,9953.0
12180,0.33813780546188354,2.0066912174224854,-30,6343.0,2.5396111011505127,60,9953.0
12190,0.3373259902000427,1.5181739330291748,79,6343.0,4.745856285095215,-8,9953.0
12200,0.33647680282592773,1.7228120565414429,75,6343.0,6.331614971160889,21,9953.0
12210,0.3355411887168884,1.882802963256836,90,6343.0,5.009291172027588,174,9953.0
12220,0.3367084860801697,0.6453438401222229,-86,6343.0,5.167150020599365,100,9953.0
12230,0.33609539270401,-0.052385974675416946,-102,6343.0,1.8961881399154663,130,9953.0
12240,0.33565396070480347,-2.514620542526245,-47,6343.0,1.625334620475769,-68,9953.0
12250,0.3352419137954712,-5.06388521194458,-21,6343.0,2.9781177043914795,-6,9953.0
12260,0.334809809923172,-5.116989612579346,-99,6343.0,3.2226600646972656,136,9953.0
12270,0.3357904851436615,-5.721432209014893,-166,6343.0,5.245360374450684,123,9953.0
12280,0.33551084995269775,-6.497072219848633,-87,6343.0,5.894592761993408,-17,9953.0
12290,0.3352624475955963,-7.206161975860596,-29,6343.0,3.200240135192871,30,9953.0
12300,0.3350401818752289,-5.356034278869629,-74,6343.0,0.3019397258758545,39,9953.0
12310,0.3360796868801117,-3.5200092792510986,-135,6343.0,-0.85405433177948,-4,9953.0
12320,0.33604317903518677,-3.946803569793701,-70,6343.0,-0.0502648688852787,-121,9953.0
12330,0.3359585106372833,-2.6596758365631104,48,6343.0,-1.4806979894638062,-54,9953.0
12340,0.3358674943447113,-1.0298019647598267,-19,6343.0,-1.3577349185943604,72,9953.0
12350,0.33697882294654846,-1.777836799621582,-128,6343.0,-0.1014178991317749,72,9953.0
12360,0.33704808354377747,-3.484947681427002,-42,6343.0,0.9782611131668091,-61,9953.0
12370,0.3372430205345154,-5.022858142852783,-12,6343.0,2.634843111038208,-26,9953.0
12380,0.3375011384487152,-4.116557598114014,-6,6343.0,1.6245806217193604,74,9953.0
12390,0.33775678277015686,-2.8276174068450928,-80,6343.0,2.0053892135620117,144,9953.0
12400,0.339530885219574,-1.2229729890823364,-102,6343.0,2.069547653198242,131,9953.0
12410,0.33981719613075256,-0.2774730324745178,-42,6343.0,3.913386821746826,-9,9953.0
12420,0.3402104675769806,0.40425604581832886,54,6343.0,4.700521945953369,0,9953.0
12430,0.3406745195388794,-0.5025297403335571,104,6343.0,2.697009563446045,19,9953.0
12440,0.34106606245040894,2.0906660556793213,19,6343.0,1.5486228466033936,168,9953.0
12450,0.3414222002029419,2.928906202316284,-51,6343.0,3.0653152465820312,150,9953.0
12460,0.3417817950248718,3.5296545028686523,-36,6343.0,2.517664670944214,118,9953.0
12470,0.3422296345233917,3.1962811946868896,60,6343.0,0.7963724136352539,-39,9953.0
12480,0.3439103960990906,3.6967573165893555,102,6343.0,0.6342049241065979,-121,9953.0
12490,0.3443310856819153,0.5289214849472046,93,6343.0,-0.14739260077476501,-32,9953.0
12500,0.34471043944358826,1.399338960647583,92,6343.0,-2.283738613128662,-16,9953.0
12510,0.3452368378639221,0.9119036197662354,-4,6343.0,-0.6120657324790955,84,9953.0
12520,0.34578558802604675,-1.0070748329162598,-7,6343.0,2.3885042667388916,105,9953.0
12530,0.34696847200393677,-2.216409206390381,-111,6343.0,0.8305433988571167,109,9953.0
12540,0.3475158214569092,-1.1406930685043335,-112,6343.0,1.5940344333648682,138,9953.0
12550,0.3480144143104553,-1.5905320644378662,-139,6343.0,-2.307821273803711,78,9953.0
12560,0.34832361340522766,-1.2708487510681152,-82,6343.0,-2.949441432952881,-49,9953.0
12570,0.3494316041469574,-1.1116136312484741,-39,6343.0,0.47453048825263977,52,9953.0
12580,0.34960687160491943,0.2632973790168762,-5,6343.0,0.5952743887901306,-35,9953.0
12590,0.349751740694046,-0.4527477025985718,18,6343.0,0.021613122895359993,-13,9953.0
12600,0.349923312664032,-0.6265044212341309,60,6343.0,-1.3654128313064575,-128,9953.0
12610,0.3501285910606384,-1.557234287261963,73,6343.0,-0.5150618553161621,-62,9953.0
12620,0.3493442237377167,-1.2424018383026123,106,6343.0,-1.038618564605713,-70,9953.0
12630,0.34927764534950256,-1.3519734144210815,6,6343.0,0.6344715356826782,-30,9953.0
12640,0.34915754199028015,-0.4675554633140564,28,6343.0,-0.530841588973999,51,9953.0
12650,0.3488851487636566,2.079238176345825,-20,6343.0,0.749933123588562,89,9953.0
12660,0.34975019097328186,0.19205747544765472,-35,6343.0,1.9892698526382446,138,9953.0
12670,0.34915056824684143,3.2050588130950928,-84,6343.0,4.66826057434082,184,9953.0
12680,0.348466157913208,2.1997201442718506,-62,6343.0,6.070617198944092,206,9953.0
12690,0.3475555181503296,1.579509973526001,-81,6343.0,6.399495601654053,136,9953.0
12700,0.3465520143508911,2.087521553039551,-15,6343.0,1.4629337787628174,49,9953.0
12710,0.3452761173248291,0.27481573820114136,107,6343.0,-0.37916964292526245,-162,9953.0
12720,0.34414324164390564,0.8159124851226807,119,6343.0,-1.9736813306808472,-60,9953.0
12730,0.3430349826812744,-0.8222060203552246,50,6343.0,-2.461381196975708,-141,9953.0
12740,0.34194105863571167,-0.9310812950134277,21,6343.0,-6.552097797393799,-45,9953.0
12750,0.3420310616493225,0.40650105476379395,-84,6343.0,-5.017370700836182,46,9953.0
12760,0.3407956063747406,0.10455985367298126,-76,6343.0,-5.0177321434021,-27,9953.0
12770,0.339616596698761,0.7754420042037964,-42,6343.0,-2.0985286235809326,-137,9953.0
12780,0.3385068476200104,0.899642825126648,78,6343.0,-1.4695360660552979,-96,9953.0
12790,0.3391948640346527,-0.008128062821924686,60,6343.0,-2.161975383758545,29,9953.0
12800,0.33822309970855713,0.8595244884490967,-5,6343.0,0.12365832924842834,16,9953.0
12810,0.337289035320282,0.9336472749710083,-26,6343.0,0.6268376111984253,6,9953.0
12820,0.3364618420600891,1.5218075513839722,50,6343.0,0.6661725044250488,-80,9953.0
12830,0.3357391059398651,0.06042385846376419,43,6343.0,2.5914859771728516,45,9953.0
12840,0.3374943435192108,-0.3536449372768402,-63,6343.0,-0.7216804027557373,110,9953.0
12850,0.3370055556297302,0.423067569732666,-6,6343.0,-0.6949450373649597,-142,9953.0
12860,0.336478590965271,-0.6817208528518677,68,6343.0,-0.6712074279785156,-18,9953.0
12870,0.3359162211418152,-0.25302913784980774,83,6343.0,-1.433911919593811,-39,9953.0
12880,0.33564433455467224,2.5497870445251465,-2,6343.0,-2.1895265579223633,50,9953.0
12890,0.33528026938438416,3.2843050956726074,18,6343.0,-2.6759557723999023,-36,9953.0
12900,0.3350764513015747,3.304351806640625,81,6343.0,-2.8760712146759033,-140,9953.0
12910,0.33500686287879944,2.4447906017303467,81,6343.0,-1.4167009592056274,21,9953.0
12920,0.33499521017074585,3.2422854900360107,-38,6343.0,-0.1363621950149536,141,9953.0
12930,0.3369799852371216,1.5218678712844849,-69,6343.0,3.4217870235443115,-18,9953.0
12940,0.3370823264122009,0.48656928539276123,84,6343.0,3.3868765830993652,0,9953.0
12950,0.3372654318809509,-0.17621184885501862,-11,6343.0,3.1709749698638916,102,9953.0
12960,0.33743470907211304,-0.11756420135498047,-44,6343.0,2.762662887573242,84,9953.0
12970,0.33939969539642334,-0.36553293466567993,-21,6343.0,3.2919762134552,25,9953.0
12980,0.3399096429347992,0.12672844529151917,62,6343.0,2.0732462406158447,-25,9953.0
12990,0.3405403196811676,1.2643811702728271,60,6343.0,2.1330809593200684,46,9953.0
13000,0.34108150005340576,3.0097503662109375,7,6343.0,1.5514636039733887,135,9953.0
13010,0.3421105742454529,4.404492378234863,49,6343.0,1.610987901687622,-10,9953.0
13020,0.3425925672054291,4.450547218322754,122,6343.0,-0.7835690379142761,-118,9953.0
13030,0.3431359529495239,3.7421624660491943,134,6343.0,-2.344972848892212,-55,9953.0
13040,0.3437519073486328,2.2836081981658936,63,6343.0,-2.3826260566711426,74,9953.0
13050,0.3443217873573303,4.651829719543457,-12,6343.0,-4.076114177703857,37,9953.0
13060,0.346547394990921,3.1831705570220947,10,6343.0,-3.2677130699157715,-70,9953.0
13070,0.34698978066444397,2.6115880012512207,51,6343.0,-2.380878210067749,-99,9953.0
13080,0.3474016785621643,2.8738818168640137,116,6343.0,-2.213514566421509,-117,9953.0
13090,0.3478202521800995,2.1118686199188232,141,6343.0,-1.5023887157440186,-78,9953.0
13100,0.34967026114463806,0.9230539202690125,68,6343.0,0.5550527572631836,-61,9953.0
13110,0.3499264419078827,0.279585063457489,33,6343.0,-0.940395176410675,120,9953.0
13120,0.35012272000312805,-1.90864896774292,-73,6343.0,1.0216907262802124,109,9953.0
13130,0.3503846824169159,-0.7071366906166077,-141,6343.0,1.0449652671813965,135,9953.0
13140,0.35223495960235596,0.3917253017425537,-119,6343.0,2.027804374694824,144,9953.0
13150,0.35249534249305725,0.7618626356124878,-23,6343.0,2.027299165725708,84,9953.0
13160,0.3528366982936859,-0.035208895802497864,-6,6343.0,0.3341820240020752,-3,9953.0
13170,0.35327404737472534,0.05605625361204147,10,6343.0,2.7715344429016113,-84,9953.0
13180,0.3535310924053192,-2.691786766052246,38,6343.0,-0.3472301661968231,-93,9953.0
13190,0.35461145639419556,-2.275078296661377,41,6343.0,-1.6056653261184692,-90,9953.0
13200,0.3547668755054474,-4.96481990814209,17,6343.0,-0.5656147599220276,-50,9953.0
13210,0.35463812947273254,-3.300379753112793,9,6343.0,-0.023568931967020035,-83,9953.0
13220,0.35430052876472473,-3.3758087158203125,-66,6343.0,0.8797750473022461,-51,9953.0
13230,0.3547593355178833,-2.6520659923553467,-14,6343.0,1.7119264602661133,56,9953.0
13240,0.35423216223716736,-1.956714391708374,-89,6343.0,2.300830841064453,150,9953.0
13250,0.35357773303985596,-3.495556592941284,-105,6343.0,1.7833130359649658,101,9953.0
13260,0.3528487980365753,-4.1757378578186035,-180,6343.0,2.7544703483581543,101,9953.0
13270,0.35204195976257324,-4.760556221008301,-209,6343.0,3.874582052230835,144,9953.0
13280,0.3538638949394226,-7.040603160858154,-193,6343.0,2.7188313007354736,118,9953.0
13290,0.35310691595077515,-9.258788108825684,-207,6343.0,2.9157462120056152,10,9953.0
13300,0.35229355096817017,-5.592311859130859,-84,6343.0,2.750882148742676,62,9953.0
13310,0.3514675796031952,-4.935811996459961,-26,6343.0,3.3323757648468018,-75,9953.0
13320,0.35236504673957825,-1.3416262865066528,78,6343.0,4.038461685180664,-81,9953.0
13330,0.35157686471939087,1.2282124757766724,151,6343.0,0.567611038684845,-126,9953.0
13340,0.3505953252315521,2.1093263626098633,136,6343.0,1.0903397798538208,20,9953.0
13350,0.34965524077415466,4.668542385101318,44,6343.0,-1.8850535154342651,34,9953.0
13360,0.35038018226623535,4.116441249847412,-53,6343.0,-4.997769832611084,73,9953.0
13370,0.3493952751159668,3.1067798137664795,-16,6343.0,-1.538257360458374,2,9953.0
13380,0.34841668605804443,1.6552387475967407,-3,6343.0,-0.22818703949451447,-30,9953.0
13390,0.3475324809551239,0.4924248158931732,73,6343.0,3.1820085048675537,-45,9953.0
13400,0.3466539978981018,-0.6285545229911804,77,6343.0,4.233141899108887,19,9953.0
13410,0.3482290804386139,-1.4165302515029907,15,6343.0,4.2621355056762695,117,9953.0
13420,0.3474288284778595,-3.276729106903076,-85,6343.0,4.154621601104736,136,9953.0
13430,0.34673649072647095,-2.0203492641448975,-93,6343.0,2.828087568283081,73,9953.0
13440,0.3460994064807892,-0.955213725566864,-19,6343.0,1.1145612001419067,-55,9953.0
13450,0.3483809530735016,-0.6055914759635925,68,6343.0,0.35595494508743286,-95,9953.0
13460,0.34782683849334717,0.6653785109519958,46,6343.0,-1.8518725633621216,-15,9953.0
13470,0.34737586975097656,0.2259708046913147,-55,6343.0,-4.002167224884033,40,9953.0
13480,0.34706535935401917,0.8801178336143494,-44,6343.0,-4.153680324554443,-58,9953.0
13490,0.34676092863082886,1.4404369592666626,-59,6343.0,-2.6399474143981934,-153,9953.0
13500,0.3479079604148865,0.029467131942510605,29,6343.0,-2.506373882293701,-69,9953.0
13510,0.34771010279655457,-0.05765600875020027,85,6343.0,-2.576910972595215,-46,9953.0
13520,0.3475421965122223,0.3648061454296112,22,6343.0,-2.425079822540283,-9,9953.0
13530,0.347494512796402,0.2770988643169403,-50,6343.0,-2.1618528366088867,-8,9953.0
13540,0.3480738699436188,-0.40675660967826843,-67,6343.0,-0.9288454055786133,18,9953.0
13550,0.3481462299823761,-2.4289567470550537,-31,6343.0,-0.16288067400455475,-114,9953.0
13560,0.34823474287986755,-4.129051208496094,24,6343.0,-2.887427806854248,-69,9953.0
13570,0.34842032194137573,-3.616940498352051,52,6343.0,-3.7475192546844482,-19,9953.0
13580,0.34865158796310425,-1.8821309804916382,-44,6343.0,-4.947342872619629,-43,9953.0
13590,0.3502885699272156,-2.111563205718994,-75,6343.0,-8.1956787109375,-63,9953.0
13600,0.35061153769493103,-1.9520483016967773,-101,6343.0,-4.343338489532471,-23,9953.0
13610,0.35091912746429443,-1.833240270614624,-18,6343.0,-8.413009643554688,-197,9953.0
13620,0.3513776361942291,-0.7499152421951294,90,6343.0,-8.423849105834961,-195,9953.0
13630,0.3519337475299835,-1.4680144786834717,82,6343.0,-5.202718734741211,-178,9953.0
13640,0.35236382484436035,-0.12344823777675629,62,6343.0,-3.7386600971221924,8,9953.0
13650,0.3526615798473358,0.5063527822494507,-4,6343.0,-2.170837640762329,-30,9953.0
13660,0.35296693444252014,0.288103848695755,-124,6343.0,1.4197680950164795,156,9953.0
13670,0.3520280718803406,-0.8812904953956604,-126,6343.0,3.761871814727783,130,9953.0
13680,0.35211363434791565,-2.2034144401550293,-29,6343.0,1.5808025598526,71,9953.0
13690,0.35213014483451843,-3.6366214752197266,-75,6343.0,2.6838889122009277,12,9953.0
13700,0.3521890640258789,-2.5411739349365234,22,6343.0,3.729447364807129,-12,9953.0
13710,0.35210853815078735,-3.105380058288574,61,6343.0,2.843270778656006,-41,9953.0
13720,0.35059699416160583,-1.6833184957504272,108,6343.0,4.173648357391357,22,9953.0
13730,0.3501874506473541,1.1678920984268188,112,6343.0,2.290700912475586,-14,9953.0
13740,0.3497433364391327,2.7081570625305176,76,6343.0,-2.0810298919677734,-12,9953.0
13750,0.3491569459438324,3.436851978302002,-17,6343.0,-1.2454164028167725,57,9953.0
13760,0.3502797782421112,4.08570671081543,-47,6343.0,-1.7471939325332642,169,9953.0
13770,0.349803626537323,4.168891906738281,-27,6343.0,-1.883702039718628,76,9953.0
13780,0.3492596447467804,2.2493906021118164,-48,6343.0,-0.6115490794181824,8,9953.0
13790,0.3485495150089264,1.2783945798873901,79,6343.0,2.614093065261841,-51,9953.0
13800,0.3493770360946655,1.1078017950057983,59,6343.0,7.169078350067139,44,9953.0
13810,0.34862202405929565,0.16339585185050964,94,6343.0,9.207205772399902,124,9953.0
13820,0.34786805510520935,1.5755528211593628,68,6343.0,6.811295032501221,158,9953.0
13830,0.3470492362976074,1.2760065793991089,-51,6343.0,5.015984058380127,212,9953.0
13840,0.34632810950279236,0.3600839674472809,-84,6343.0,5.862006187438965,134,9953.0
13850,0.34617599844932556,1.3397488594055176,50,6343.0,3.3355839252471924,12,9953.0
13860,0.3454091250896454,1.3843952417373657,76,6343.0,2.5280115604400635,-20,9953.0
13870,0.34462061524391174,2.871570587158203,104,6343.0,1.6162521839141846,-3,9953.0
13880,0.34393957257270813,3.6074917316436768,-22,6343.0,-0.28918981552124023,124,9953.0
13890,0.34396034479141235,4.0638227462768555,-16,6343.0,1.384577751159668,21,9953.0
13900,0.3433695137500763,3.700932264328003,98,6343.0,1.6385554075241089,-29,9953.0
13910,0.3427199423313141,5.282491207122803,131,6343.0,0.9410550594329834,-5,9953.0
13920,0.34206196665763855,3.8316380977630615,73,6343.0,1.6951124668121338,100,9953.0
13930,0.34149402379989624,3.472332239151001,-19,6343.0,2.8654537200927734,145,9953.0
13940,0.3427738845348358,1.2112764120101929,-2,6343.0,3.4899466037750244,33,9953.0
13950,0.3424297273159027,0.9549011588096619,104,6343.0,5.127161979675293,25,9953.0
13960,0.3420376479625702,1.4994957447052002,53,6343.0,4.56930685043335,155,9953.0
13970,0.34157755970954895,1.2427738904953003,-33,6343.0,5.220026969909668,119,9953.0
13980,0.34225502610206604,0.9505370855331421,-29,6343.0,5.407010555267334,60,9953.0
13990,0.34191685914993286,0.6786708831787109,51,6343.0,4.701473236083984,-28,9953.0
14000,0.3416386544704437,0.6840035319328308,67,6343.0,3.407799482345581,70,9953.0
14010,0.3414163589477539,2.586782693862915,-35,6343.0,-0.7119230628013611,67,9953.0
14020,0.34267479181289673,0.476778507232666,-20,6343.0,0.3992181420326233,-109,9953.0
14030,0.34252244234085083,-0.2246798872947693,100,6343.0,-0.21616347134113312,-89,9953.0
14040,0.34231704473495483,0.592020571231842,42,6343.0,-0.29441192746162415,69,9953.0
14050,0.34211087226867676,1.1557766199111938,-13,6343.0,0.2527644634246826,93,9953.0
14060,0.3419624865055084,2.7874808311462402,-13,6343.0,0.13381865620613098,-19,9953.0
14070,0.3435726463794708,1.2921364307403564,114,6343.0,2.468207836151123,-64,9953.0
14080,0.3437730371952057,2.208444595336914,73,6343.0,0.9630151391029358,44,9953.0
14090,0.34397825598716736,1.2383134365081787,-52,6343.0,-1.4069409370422363,69,9953.0
14100,0.34413060545921326,0.15078724920749664,-31,6343.0,-0.1548326164484024,-9,9953.0
14110,0.3468771278858185,-0.524996817111969,-20,6343.0,2.431006669998169,-50,9953.0
14120,0.3472268879413605,-2.9083220958709717,32,6343.0,3.5902979373931885,-17,9953.0
14130,0.3476903438568115,-2.7812204360961914,-19,6343.0,2.2536747455596924,22,9953.0
14140,0.34824371337890625,-2.2909669876098633,-78,6343.0,-2.4775445461273193,33,9953.0
14150,0.348784476518631,-0.12892886996269226,-63,6343.0,-1.8450753688812256,66,9953.0
14160,0.35018986463546753,-0.3053508400917053,20,6343.0,-1.7588471174240112,-153,9953.0
14170,0.3508032262325287,-0.5965156555175781,113,6343.0,-0.9945159554481506,-133,9953.0
14180,0.35148897767066956,-0.6465152502059937,82,6343.0,-0.7887533903121948,-107,9953.0
14190,0.3522226810455322,-0.7263292670249939,51,6343.0,-1.7023870944976807,-87,9953.0
14200,0.3525311350822449,0.06615732610225677,41,6343.0,-2.9814929962158203,-10,9953.0
14210,0.35313159227371216,-0.597387969493866,-48,6343.0,-3.263751983642578,42,9953.0
