timestamp,kalman.stateZ,gyro.x,gyro.xRaw,gyro.xVariance,gyro.y,gyro.yRaw,gyro.yVariance
0,0.30833861231803894,-1.0306276082992554,-3,5972.0,-27.533937454223633,-447,9973.0
10,0.30848264694213867,2.672508478164673,52,5972.0,-25.995359420776367,-421,9973.0
20,0.3087742030620575,3.678544282913208,60,5972.0,-24.982009887695312,-408,9973.0
30,0.3088553547859192,3.3086366653442383,58,5972.0,-23.919189453125,-395,9973.0
40,0.30892157554626465,3.2391388416290283,39,5972.0,-23.328882217407227,-369,9973.0
50,0.30891790986061096,-2.990563154220581,-83,5972.0,-19.427858352661133,-290,9973.0
60,0.3089090883731842,-9.112343788146973,-135,5972.0,-15.644210815429688,-244,9973.0
70,0.30886706709861755,-8.183622360229492,-139,5972.0,-16.042503356933594,-274,9973.0
80,0.30854254961013794,-7.944655895233154,-86,5972.0,-19.201692581176758,-356,9973.0
90,0.3086203336715698,-2.120753288269043,46,5972.0,-25.5537109375,-470,9973.0
100,0.3087182343006134,6.844841480255127,186,5972.0,-36.21364212036133,-668,9973.0
110,0.3088993430137634,10.580212593078613,239,5972.0,-52.079227447509766,-975,9973.0
120,0.30896010994911194,15.792091369628906,244,5972.0,-75.19657897949219,-1318,9973.0
130,0.30923181772232056,12.303092956542969,196,5972.0,-97.50654602050781,-1665,9973.0
140,0.3094267249107361,9.153608322143555,155,5972.0,-111.52104187011719,-1882,9973.0
150,0.309455007314682,8.436114311218262,185,5972.0,-118.58358001708984,-1926,9973.0
160,0.3085497319698334,11.342183113098145,131,5972.0,-118.9602279663086,-1896,9973.0
170,0.30858299136161804,2.8212711811065674,49,5972.0,-113.15833282470703,-1893,9973.0
180,0.31057554483413696,-1.5857220888137817,-62,5972.0,-103.81260681152344,-1630,9973.0
190,0.30996841192245483,-5.495929718017578,-101,5972.0,-87.7119369506836,-1283,9973.0
200,0.30962133407592773,-9.33775806427002,-183,5972.0,-58.25086212158203,-813,9973.0
210,0.3117437958717346,-17.484140396118164,-333,5972.0,-15.128457069396973,-109,9973.0
220,0.3137178421020508,-18.584552764892578,-317,5972.0,31.269460678100586,693,9973.0
230,0.3146960437297821,-14.159552574157715,-217,5972.0,70.40721130371094,1555,9973.0
240,0.31604066491127014,-5.878361225128174,-81,5972.0,107.95462799072266,2205,9973.0
250,0.31657031178474426,7.714388370513916,228,5972.0,142.2364501953125,2536,9973.0
260,0.3190540075302124,21.911865234375,468,5972.0,154.28854370117188,2340,9973.0
270,0.3191463053226471,33.43770217895508,534,5972.0,143.79318237304688,2108,9973.0
280,0.3182998597621918,33.58255386352539,434,5972.0,108.59294891357422,1617,9973.0
290,0.32000604271888733,18.010540008544922,200,5972.0,59.419918060302734,750,9973.0
300,0.3157944083213806,-3.268078088760376,-125,5972.0,3.969334125518799,-260,9973.0
310,0.31661298871040344,-20.521684646606445,-383,5972.0,-52.76216125488281,-1105,9973.0
320,0.31729498505592346,-24.527193069458008,-384,5972.0,-102.2728271484375,-1747,9973.0
330,0.3181817829608917,-14.554933547973633,-185,5972.0,-136.69168090820312,-2230,9973.0
340,0.31945669651031494,1.1336281299591064,119,5972.0,-155.16412353515625,-2529,9973.0
350,0.3178708255290985,16.467397689819336,454,5972.0,-154.8375701904297,-2475,9973.0
360,0.31777024269104004,28.135498046875,638,5972.0,-146.13197326660156,-2192,9973.0
370,0.3190516233444214,31.035228729248047,506,5972.0,-130.12689208984375,-2037,9973.0
380,0.318547785282135,26.386653900146484,301,5972.0,-109.96076965332031,-1588,9973.0
390,0.32322263717651367,8.798789978027344,102,5972.0,-79.49988555908203,-1181,9973.0
400,0.32429125905036926,-6.079322338104248,-191,5972.0,-46.17703628540039,-537,9973.0
410,0.32535821199417114,-16.044496536254883,-251,5972.0,-7.9745965003967285,27,9973.0
420,0.3280734419822693,-25.203332901000977,-504,5972.0,43.83840560913086,970,9973.0
430,0.32968318462371826,-33.430274963378906,-524,5972.0,92.85629272460938,1722,9973.0
440,0.33221128582954407,-28.277711868286133,-407,5972.0,135.31678771972656,2405,9973.0
450,0.33348387479782104,-7.038721084594727,-11,5972.0,165.87051391601562,2675,9973.0
460,0.33380767703056335,9.799470901489258,355,5972.0,184.92132568359375,2889,9973.0
470,0.33648571372032166,23.067873001098633,445,5972.0,185.48651123046875,2983,9973.0
480,0.32862019538879395,21.93427085876465,312,5972.0,157.75186157226562,2523,9973.0
490,0.3280715346336365,3.869563579559326,-26,5972.0,121.9617691040039,1809,9973.0
500,0.32855716347694397,-11.093965530395508,-326,5972.0,66.86737060546875,972,9973.0
510,0.3314182460308075,-13.799600601196289,-448,5972.0,4.086064338684082,-196,9973.0
520,0.3262719213962555,-13.186590194702148,-298,5972.0,-65.32256317138672,-1392,9973.0
530,0.3282203674316406,-10.18978214263916,-92,5972.0,-122.08277130126953,-2319,9973.0
540,0.3299761712551117,4.62902307510376,166,5972.0,-162.13156127929688,-2862,9973.0
550,0.33151930570602417,22.972274780273438,341,5972.0,-192.50880432128906,-3148,9973.0
560,0.33291637897491455,27.90499496459961,464,5972.0,-209.99049377441406,-3350,9973.0
570,0.32629111409187317,19.12183380126953,215,5972.0,-208.77845764160156,-3346,9973.0
580,0.3269314169883728,0.9245783090591431,2,5972.0,-184.2041778564453,-2973,9973.0
590,0.331663578748703,-20.603368759155273,-483,5972.0,-146.96954345703125,-2184,9973.0
600,0.33462002873420715,-36.621803283691406,-597,5972.0,-95.76067352294922,-1237,9973.0
610,0.33826401829719543,-40.24863052368164,-707,5972.0,-42.095542907714844,-419,9973.0
620,0.34008854627609253,-30.822397232055664,-365,5972.0,24.620315551757812,615,9973.0
630,0.34167739748954773,-10.621392250061035,-125,5972.0,85.65380859375,1676,9973.0
640,0.3433917462825775,3.582991123199463,145,5972.0,138.13414001464844,2605,9973.0
650,0.3435136377811432,19.38351821899414,383,5972.0,172.3546142578125,2997,9973.0
660,0.3441924750804901,28.80495834350586,571,5972.0,184.92935180664062,2994,9973.0
670,0.3454301059246063,31.62010383605957,487,5972.0,179.070556640625,2974,9973.0
680,0.34499382972717285,31.82977294921875,490,5972.0,160.1280059814453,2588,9973.0
690,0.34439748525619507,25.855440139770508,310,5972.0,127.74507141113281,1892,9973.0
700,0.3330737054347992,3.3661046028137207,46,5972.0,84.39312744140625,1066,9973.0
710,0.33760544657707214,-15.631646156311035,-297,5972.0,30.96697235107422,129,9973.0
720,0.3381744921207428,-28.947158813476562,-496,5972.0,-34.19683837890625,-794,9973.0
730,0.3403233289718628,-33.958335876464844,-553,5972.0,-98.42660522460938,-1752,9973.0
740,0.33137786388397217,-24.07779312133789,-365,5972.0,-148.9104766845703,-2536,9973.0
750,0.33223190903663635,-4.213367462158203,-109,5972.0,-183.10714721679688,-3028,9973.0
760,0.3332926034927368,10.202631950378418,228,5972.0,-191.52914428710938,-2989,9973.0
770,0.33358800411224365,21.301496505737305,279,5972.0,-174.38906860351562,-2671,9973.0
780,0.3336769938468933,18.776830673217773,387,5972.0,-141.68338012695312,-2218,9973.0
790,0.33348348736763,14.71009349822998,132,5972.0,-87.2146987915039,-1263,9973.0
800,0.3369770348072052,7.574822902679443,128,5972.0,-29.19192123413086,18,9973.0
810,0.338331401348114,5.359564781188965,105,5972.0,47.13007354736328,1052,9973.0
820,0.34015628695487976,3.152252674102783,-11,5972.0,107.50370788574219,2093,9973.0
830,0.3413306176662445,-4.233156681060791,-73,5972.0,162.80621337890625,2586,9973.0
840,0.34204763174057007,-13.503701210021973,-283,5972.0,180.41372680664062,2961,9973.0
850,0.3420640230178833,-15.608199119567871,-161,5972.0,184.8587188720703,2774,9973.0
860,0.3411162197589874,-12.050180435180664,-70,5972.0,165.6565704345703,2572,9973.0
870,0.33969101309776306,-5.587283134460449,-47,5972.0,127.25963592529297,2026,9973.0
880,0.3336261212825775,6.030270576477051,63,5972.0,86.5305404663086,1007,9973.0
890,0.3334387242794037,8.375971794128418,193,5972.0,31.052337646484375,25,9973.0
900,0.3345247805118561,3.1746349334716797,-46,5972.0,-38.14116668701172,-941,9973.0
910,0.3364851176738739,-3.3999884128570557,-98,5972.0,-105.59202575683594,-2069,9973.0
920,0.3267713785171509,-10.584062576293945,-142,5972.0,-162.1249542236328,-3043,9973.0
930,0.32688772678375244,-10.686800956726074,-202,5972.0,-202.71658325195312,-3193,9973.0
940,0.3263183832168579,-7.207444667816162,-167,5972.0,-205.05580139160156,-3220,9973.0
950,0.32571569085121155,0.6247686743736267,74,5972.0,-177.92140197753906,-2607,9973.0
960,0.3280896544456482,11.597939491271973,252,5972.0,-129.56320190429688,-1741,9973.0
970,0.3276955485343933,16.78497314453125,211,5972.0,-64.3476791381836,-552,9973.0
980,0.3290741741657257,9.556400299072266,0,5972.0,7.553928375244141,691,9973.0
990,0.3312859833240509,-1.6259769201278687,-12,5972.0,77.08628845214844,1863,9973.0
1000,0.33071044087409973,-4.138925552368164,-87,5972.0,133.36293029785156,2530,9973.0
1010,0.3364229202270508,-2.638478994369507,-95,5972.0,162.8964385986328,2751,9973.0
1020,0.336753785610199,-0.7898349165916443,-38,5972.0,172.70863342285156,2899,9973.0
1030,0.33547234535217285,-2.074282646179199,-125,5972.0,161.6398468017578,2472,9973.0
1040,0.34120887517929077,-1.2173526287078857,25,5972.0,128.63600158691406,1955,9973.0
1050,0.3333941698074341,2.3772132396698,56,5972.0,82.55000305175781,1135,9973.0
1060,0.333364874124527,8.705035209655762,185,5972.0,34.44663619995117,334,9973.0
1070,0.3340694308280945,10.270100593566895,176,5972.0,-14.518098831176758,-457,9973.0
1080,0.33529746532440186,8.58931827545166,134,5972.0,-75.40714263916016,-1582,9973.0
1090,0.33679741621017456,2.9294145107269287,54,5972.0,-133.07516479492188,-2319,9973.0
1100,0.3304467499256134,-7.824005126953125,-299,5972.0,-150.81494140625,-2351,9973.0
1110,0.33120808005332947,-22.2463436126709,-302,5972.0,-139.7831268310547,-2163,9973.0
1120,0.33306175470352173,-15.448795318603516,-198,5972.0,-114.97459411621094,-1882,9973.0
1130,0.33464542031288147,-15.222740173339844,-194,5972.0,-71.55046081542969,-1100,9973.0
1140,0.3326897919178009,-15.772292137145996,-288,5972.0,-15.023378372192383,17,9973.0
1150,0.3342900574207306,-16.589385986328125,-188,5972.0,47.74726486206055,1037,9973.0
1160,0.3362259566783905,-8.394350051879883,-56,5972.0,99.23625946044922,1813,9973.0
1170,0.33650094270706177,3.553107976913452,148,5972.0,128.3820343017578,2241,9973.0
1180,0.33536672592163086,10.490311622619629,141,5972.0,136.74497985839844,2240,9973.0
1190,0.33506062626838684,12.139020919799805,97,5972.0,132.82476806640625,2093,9973.0
1200,0.33443474769592285,3.565836191177368,160,5972.0,109.34276580810547,1586,9973.0
1210,0.3362632989883423,8.054525375366211,82,5972.0,71.20005798339844,1103,9973.0
1220,0.33597251772880554,15.058366775512695,326,5972.0,27.249740600585938,106,9973.0
1230,0.33020445704460144,16.335601806640625,199,5972.0,-15.809640884399414,-293,9973.0
1240,0.3311818838119507,7.7798614501953125,65,5972.0,-57.520233154296875,-1191,9973.0
1250,0.3309755027294159,-1.1233159303665161,5,5972.0,-100.95744323730469,-1860,9973.0
1260,0.33093127608299255,-5.942076683044434,-134,5972.0,-117.22411346435547,-1790,9973.0
1270,0.3281659483909607,-11.237719535827637,-216,5972.0,-100.38846588134766,-1381,9973.0
1280,0.32813817262649536,-7.5577287673950195,-103,5972.0,-69.78858184814453,-948,9973.0
1290,0.32881882786750793,-0.17267203330993652,79,5972.0,-22.246013641357422,-237,9973.0
1300,0.3291238844394684,6.595293998718262,140,5972.0,34.31765365600586,692,9973.0
1310,0.32796549797058105,8.288639068603516,163,5972.0,84.66724395751953,1482,9973.0
1320,0.32718488574028015,11.2919282913208,237,5972.0,108.44878387451172,1850,9973.0
1330,0.3270532488822937,6.30599308013916,51,5972.0,111.76020050048828,1919,9973.0
1340,0.3263322710990906,-11.101346015930176,-298,5972.0,98.39549255371094,1344,9973.0
1350,0.3247831165790558,-26.33460235595703,-454,5972.0,68.41777038574219,1043,9973.0
1360,0.32532402873039246,-27.7069149017334,-463,5972.0,36.252769470214844,478,9973.0
1370,0.3249205946922302,-22.413204193115234,-329,5972.0,-0.5755456686019897,-153,9973.0
1380,0.3245186507701874,-6.980784893035889,0,5972.0,-39.349788665771484,-881,9973.0
1390,0.3245804011821747,13.303971290588379,258,5972.0,-80.98619079589844,-1381,9973.0
1400,0.32380205392837524,22.468385696411133,364,5972.0,-104.039794921875,-1896,9973.0
1410,0.32357603311538696,22.63130760192871,436,5972.0,-114.6756362915039,-1766,9973.0
1420,0.32329830527305603,18.387351989746094,181,5972.0,-111.9903564453125,-1736,9973.0
1430,0.3227286636829376,-0.20952600240707397,-139,5972.0,-94.46257781982422,-1621,9973.0
1440,0.3228936791419983,-17.145158767700195,-270,5972.0,-77.06380462646484,-1208,9973.0
1450,0.3231668770313263,-13.964345932006836,-168,5972.0,-40.336181640625,-448,9973.0
1460,0.323661208152771,-0.3369327187538147,70,5972.0,10.707459449768066,361,9973.0
1470,0.32444408535957336,16.350784301757812,286,5972.0,59.95623016357422,1227,9973.0
1480,0.32526710629463196,32.00228500366211,475,5972.0,99.35883331298828,1804,9973.0
1490,0.32815858721733093,28.01181983947754,399,5972.0,118.79618835449219,1864,9973.0
1500,0.32803618907928467,8.21860122680664,56,5972.0,115.47611999511719,1944,9973.0
1510,0.3278249502182007,-13.196497917175293,-257,5972.0,103.01513671875,1625,9973.0
1520,0.32869163155555725,-19.293855667114258,-237,5972.0,77.66452026367188,922,9973.0
1530,0.32858186960220337,-10.963799476623535,-182,5972.0,31.117687225341797,377,9973.0
1540,0.32938405871391296,4.2363505363464355,267,5972.0,-6.165431976318359,-344,9973.0
1550,0.32969269156455994,17.86662483215332,208,5972.0,-45.818790435791016,-970,9973.0
1560,0.3305909037590027,18.99405860900879,317,5972.0,-75.2213363647461,-1380,9973.0
1570,0.33074671030044556,9.224055290222168,83,5972.0,-94.0083999633789,-1528,9973.0
1580,0.32902780175209045,-7.303840637207031,-289,5972.0,-100.84413146972656,-1690,9973.0
1590,0.3290732204914093,-21.75250244140625,-480,5972.0,-102.26619720458984,-1688,9973.0
1600,0.3292352259159088,-34.788490295410156,-597,5972.0,-90.82757568359375,-1406,9973.0
1610,0.3285938501358032,-47.222286224365234,-738,5972.0,-57.73867416381836,-709,9973.0
1620,0.3313184380531311,-47.75276565551758,-651,5972.0,-10.97060775756836,259,9973.0
1630,0.3319370448589325,-38.943077087402344,-547,5972.0,38.747642517089844,936,9973.0
1640,0.3329809308052063,-9.892263412475586,-87,5972.0,73.06061553955078,1454,9973.0
1650,0.33396580815315247,23.671451568603516,383,5972.0,103.39674377441406,1973,9973.0
1660,0.3347858488559723,39.485347747802734,902,5972.0,112.76285552978516,1670,9973.0
1670,0.3313750624656677,54.633079528808594,876,5972.0,110.66936492919922,1711,9973.0
1680,0.3305392563343048,58.76811599731445,914,5972.0,99.71044158935547,1642,9973.0
1690,0.3294980525970459,51.640960693359375,753,5972.0,84.24478149414062,1134,9973.0
1700,0.330544114112854,31.72864532470703,448,5972.0,58.028594970703125,956,9973.0
1710,0.32723674178123474,0.19425781071186066,-222,5972.0,19.552175521850586,-10,9973.0
1720,0.3272179067134857,-32.62622833251953,-566,5972.0,-25.268386840820312,-589,9973.0
1730,0.3276709020137787,-43.913124084472656,-678,5972.0,-65.75965118408203,-1210,9973.0
1740,0.32705381512641907,-37.768226623535156,-544,5972.0,-92.7936019897461,-1756,9973.0
1750,0.32420164346694946,-21.590917587280273,-243,5972.0,-106.24864959716797,-1553,9973.0
1760,0.32380667328834534,-9.156913757324219,-176,5972.0,-99.37097930908203,-1638,9973.0
1770,0.3236825168132782,-0.8911923170089722,-17,5972.0,-88.54833984375,-1452,9973.0
1780,0.32433992624282837,5.93788480758667,184,5972.0,-59.969303131103516,-857,9973.0
1790,0.3250480890274048,5.133227348327637,113,5972.0,-17.523683547973633,-83,9973.0
1800,0.32628241181373596,-8.334592819213867,-218,5972.0,14.03249454498291,457,9973.0
1810,0.3268258273601532,-23.959569931030273,-482,5972.0,38.58525085449219,740,9973.0
1820,0.32704421877861023,-20.438793182373047,-377,5972.0,57.94906234741211,1045,9973.0
1830,0.3271089494228363,-6.521834373474121,32,5972.0,79.72248840332031,1398,9973.0
1840,0.32798799872398376,24.027925491333008,610,5972.0,93.00013732910156,1609,9973.0
1850,0.32751867175102234,49.9182243347168,770,5972.0,92.93875122070312,1463,9973.0
1860,0.32863280177116394,51.54396057128906,870,5972.0,74.4676284790039,1061,9973.0
1870,0.3279305398464203,42.64038848876953,693,5972.0,43.38072967529297,568,9973.0
1880,0.3257583677768707,32.715938568115234,420,5972.0,-0.34075310826301575,-303,9973.0
1890,0.3253723382949829,18.841291427612305,361,5972.0,-42.50288009643555,-769,9973.0
1900,0.32525211572647095,3.889061212539673,-112,5972.0,-72.9017562866211,-1342,9973.0
1910,0.3245924115180969,-17.764326095581055,-441,5972.0,-96.51757049560547,-1708,9973.0
1920,0.32363370060920715,-37.4464111328125,-618,5972.0,-108.95611572265625,-1759,9973.0
1930,0.3221355378627777,-43.37763977050781,-716,5972.0,-106.95174407958984,-1604,9973.0
1940,0.3224405348300934,-44.4141731262207,-760,5972.0,-98.56776428222656,-1520,9973.0
1950,0.3213939666748047,-39.5211067199707,-669,5972.0,-87.52142333984375,-1410,9973.0
1960,0.3206064999103546,-35.740116119384766,-591,5972.0,-70.38423919677734,-1088,9973.0
1970,0.32398679852485657,-34.94190216064453,-518,5972.0,-42.45036697387695,-590,9973.0
1980,0.3241809010505676,-24.214319229125977,-304,5972.0,1.1588932275772095,216,9973.0
1990,0.32554125785827637,-9.298028945922852,-38,5972.0,47.16507339477539,994,9973.0
2000,0.32727545499801636,11.798173904418945,317,5972.0,83.10857391357422,1702,9973.0
2010,0.3283340632915497,29.729923248291016,471,5972.0,116.07926177978516,2053,9973.0
2020,0.3295021653175354,30.681028366088867,475,5972.0,139.7105255126953,2161,9973.0
2030,0.3312540650367737,28.99199867248535,520,5972.0,144.23329162597656,2374,9973.0
2040,0.33125975728034973,31.2324161529541,517,5972.0,123.8956527709961,1840,9973.0
2050,0.33150729537010193,31.169597625732422,559,5972.0,82.62479400634766,1086,9973.0
2060,0.32798245549201965,25.177526473999023,333,5972.0,39.59109878540039,624,9973.0
2070,0.3291645646095276,12.8901948928833,158,5972.0,2.6450893878936768,-297,9973.0
2080,0.329554945230484,9.84821891784668,236,5972.0,-34.30197525024414,-647,9973.0
2090,0.3304683566093445,4.356247425079346,4,5972.0,-70.11006164550781,-1260,9973.0
2100,0.327603816986084,-0.7782416939735413,-86,5972.0,-95.17341613769531,-1661,9973.0
2110,0.3279831111431122,-4.430378437042236,25,5972.0,-112.61021423339844,-1996,9973.0
2120,0.32796916365623474,-6.790826797485352,-96,5972.0,-120.50547790527344,-2014,9973.0
2130,0.32753729820251465,-8.799052238464355,-247,5972.0,-112.36212158203125,-1689,9973.0
2140,0.32872945070266724,-14.176800727844238,-344,5972.0,-89.98631286621094,-1266,9973.0
2150,0.3278592526912689,-29.931610107421875,-637,5972.0,-54.968994140625,-582,9973.0
2160,0.3292703926563263,-54.27717590332031,-986,5972.0,-4.920691967010498,312,9973.0
2170,0.3309004604816437,-61.209068298339844,-1056,5972.0,48.03499984741211,1137,9973.0
2180,0.33269065618515015,-57.023536682128906,-824,5972.0,75.2502212524414,1397,9973.0
2190,0.33130621910095215,-31.234777450561523,-334,5972.0,98.08041381835938,1546,9973.0
2200,0.33233749866485596,-4.622134208679199,123,5972.0,109.25932312011719,1816,9973.0
2210,0.33318203687667847,22.922679901123047,560,5972.0,104.02263641357422,1619,9973.0
2220,0.3333635926246643,44.598411560058594,792,5972.0,86.08525848388672,1194,9973.0
2230,0.3354293406009674,49.63606643676758,856,5972.0,60.14263916015625,932,9973.0
2240,0.3315091133117676,43.49329376220703,518,5972.0,28.886951446533203,211,9973.0
2250,0.33174851536750793,26.6901798248291,451,5972.0,4.27059268951416,-21,9973.0
2260,0.33188891410827637,13.721012115478516,174,5972.0,-18.314870834350586,-423,9973.0
2270,0.33179277181625366,17.390594482421875,268,5972.0,-31.46044921875,-580,9973.0
2280,0.3304257392883301,24.984140396118164,512,5972.0,-43.89070129394531,-845,9973.0
2290,0.33019590377807617,26.91107940673828,348,5972.0,-53.951934814453125,-857,9973.0
2300,0.3300490975379944,13.500250816345215,62,5972.0,-55.72053146362305,-925,9973.0
2310,0.3302580416202545,-4.708255290985107,-182,5972.0,-61.311912536621094,-980,9973.0
2320,0.3303821384906769,-23.17234230041504,-523,5972.0,-61.746036529541016,-1007,9973.0
2330,0.32861432433128357,-38.66535949707031,-729,5972.0,-52.60230255126953,-844,9973.0
2340,0.3284532427787781,-55.99409484863281,-908,5972.0,-42.024574279785156,-636,9973.0
2350,0.32856321334838867,-55.45888137817383,-719,5972.0,-21.034658432006836,-312,9973.0
2360,0.3294367790222168,-33.86896514892578,-393,5972.0,5.232273101806641,149,9973.0
2370,0.32935604453086853,-15.895543098449707,-217,5972.0,33.112911224365234,645,9973.0
2380,0.32956695556640625,2.0344104766845703,51,5972.0,53.71723937988281,1127,9973.0
2390,0.32966962456703186,15.213424682617188,310,5972.0,70.56167602539062,1168,9973.0
2400,0.3294910788536072,34.050209045410156,610,5972.0,82.2708740234375,1264,9973.0
2410,0.3277840316295624,48.47710037231445,799,5972.0,73.22087097167969,1360,9973.0
2420,0.3272140622138977,45.58910369873047,662,5972.0,59.819705963134766,725,9973.0
2430,0.3260798454284668,26.816390991210938,329,5972.0,33.98046875,426,9973.0
2440,0.3270118534564972,1.4823235273361206,-81,5972.0,-0.20845025777816772,-53,9973.0
2450,0.3269955515861511,-14.234758377075195,-275,5972.0,-30.757003784179688,-738,9973.0
2460,0.32556384801864624,-16.573711395263672,-255,5972.0,-53.07551193237305,-862,9973.0
2470,0.3252415657043457,-17.572154998779297,-272,5972.0,-62.39099884033203,-1019,9973.0
2480,0.3252284824848175,-18.066171646118164,-347,5972.0,-71.5557632446289,-1354,9973.0
2490,0.32499614357948303,-16.861064910888672,-207,5972.0,-83.99626922607422,-1418,9973.0
2500,0.3235017657279968,-19.06255340576172,-257,5972.0,-88.49823760986328,-1436,9973.0
2510,0.3238624930381775,-19.658945083618164,-409,5972.0,-76.76747131347656,-1086,9973.0
2520,0.32466253638267517,-12.114367485046387,-200,5972.0,-46.61670684814453,-563,9973.0
2530,0.32502666115760803,8.331582069396973,250,5972.0,-8.765888214111328,74,9973.0
2540,0.3275279700756073,30.677200317382812,646,5972.0,35.862918853759766,716,9973.0
2550,0.3278011977672577,46.2899055480957,888,5972.0,76.55811309814453,1325,9973.0
2560,0.3277912139892578,50.524417877197266,839,5972.0,106.35795593261719,1804,9973.0
2570,0.3281623423099518,36.5240478515625,404,5972.0,115.78083801269531,1931,9973.0
2580,0.3271690011024475,11.837474822998047,32,5972.0,99.28524017333984,1566,9973.0
2590,0.3270154297351837,-16.127750396728516,-302,5972.0,70.26866912841797,890,9973.0
2600,0.3274981379508972,-24.89882469177246,-399,5972.0,31.678939819335938,360,9973.0
2610,0.32750874757766724,-21.728912353515625,-367,5972.0,-18.0086612701416,-572,9973.0
2620,0.32838985323905945,-23.002418518066406,-381,5972.0,-72.54878997802734,-1417,9973.0
2630,0.32524216175079346,-23.416973114013672,-413,5972.0,-109.39947509765625,-1797,9973.0
2640,0.32561761140823364,-26.316665649414062,-389,5972.0,-127.572021484375,-2327,9973.0
2650,0.3252859115600586,-20.825578689575195,-284,5972.0,-138.29666137695312,-2314,9973.0
2660,0.32390838861465454,-12.794329643249512,-187,5972.0,-140.6962127685547,-2147,9973.0
2670,0.32459428906440735,-9.496109962463379,-217,5972.0,-128.5201873779297,-1920,9973.0
2680,0.3295353055000305,-10.477611541748047,-135,5972.0,-88.23387145996094,-1180,9973.0
2690,0.33061879873275757,0.8814019560813904,86,5972.0,-44.15290451049805,-548,9973.0
2700,0.3325003385543823,13.525032997131348,266,5972.0,2.948537588119507,269,9973.0
2710,0.3354150950908661,19.92971420288086,326,5972.0,57.4719123840332,1154,9973.0
2720,0.33915427327156067,19.86280059814453,313,5972.0,114.0325698852539,2023,9973.0
2730,0.34088119864463806,10.50332260131836,11,5972.0,155.2801971435547,2641,9973.0
2740,0.3423060476779938,-9.888830184936523,-186,5972.0,175.1868133544922,2858,9973.0
2750,0.3436666429042816,-30.604787826538086,-420,5972.0,170.62803649902344,2741,9973.0
2760,0.3394167125225067,-35.734214782714844,-594,5972.0,147.37533569335938,2225,9973.0
2770,0.33983945846557617,-28.23195457458496,-371,5972.0,105.66246795654297,1547,9973.0
2780,0.3406418561935425,-10.571027755737305,-132,5972.0,60.149658203125,832,9973.0
2790,0.34210899472236633,9.768431663513184,291,5972.0,8.531536102294922,-138,9973.0
2800,0.3443570137023926,31.767032623291016,606,5972.0,-38.33686447143555,-698,9973.0
2810,0.3381829857826233,45.45576095581055,729,5972.0,-79.16280364990234,-1573,9973.0
2820,0.33941593766212463,46.656890869140625,749,5972.0,-115.54298400878906,-1988,9973.0
2830,0.3408469259738922,39.571495056152344,677,5972.0,-140.3528594970703,-2370,9973.0
2840,0.34207063913345337,29.180866241455078,323,5972.0,-160.39828491210938,-2661,9973.0
2850,0.33713895082473755,8.263561248779297,-59,5972.0,-161.03115844726562,-2537,9973.0
2860,0.3385683000087738,-11.618678092956543,-361,5972.0,-139.0168914794922,-1867,9973.0
2870,0.3393358886241913,-27.01798439025879,-571,5972.0,-86.93807983398438,-876,9973.0
2880,0.3427003026008606,-39.3527717590332,-742,5972.0,-12.396719932556152,342,9973.0
2890,0.34550589323043823,-51.06991195678711,-743,5972.0,55.66081619262695,1195,9973.0
2900,0.3432890474796295,-48.57151412963867,-730,5972.0,105.89826202392578,1961,9973.0
2910,0.34452974796295166,-41.161781311035156,-616,5972.0,148.60983276367188,2542,9973.0
2920,0.34569793939590454,-18.058151245117188,-208,5972.0,165.93104553222656,2945,9973.0
2930,0.34735870361328125,7.375702381134033,182,5972.0,162.18960571289062,2513,9973.0
2940,0.33952954411506653,24.859399795532227,499,5972.0,142.50331115722656,2181,9973.0
2950,0.33942505717277527,36.540374755859375,626,5972.0,105.28619384765625,1447,9973.0
2960,0.33931395411491394,44.68515396118164,786,5972.0,57.914939880371094,597,9973.0
2970,0.3402769863605499,41.38920593261719,648,5972.0,6.750404357910156,-74,9973.0
2980,0.34128645062446594,27.577720642089844,372,5972.0,-37.90755844116211,-777,9973.0
2990,0.33478572964668274,11.515507698059082,124,5972.0,-73.68106079101562,-1328,9973.0
3000,0.3353205919265747,-6.873083591461182,-147,5972.0,-101.41890716552734,-1892,9973.0
3010,0.33489641547203064,-20.937166213989258,-404,5972.0,-127.740478515625,-1996,9973.0
3020,0.3351880609989166,-24.81136131286621,-386,5972.0,-129.3829345703125,-2080,9973.0
3030,0.3298785388469696,-14.457243919372559,-254,5972.0,-98.24946594238281,-1437,9973.0
3040,0.3297848701477051,2.818772792816162,75,5972.0,-55.88390350341797,-641,9973.0
3050,0.33010244369506836,9.299116134643555,190,5972.0,-20.923948287963867,-200,9973.0
3060,0.32982149720191956,9.869460105895996,202,5972.0,14.058634757995605,360,9973.0
3070,0.32983049750328064,4.219483852386475,19,5972.0,54.88621520996094,950,9973.0
3080,0.329530268907547,-9.610297203063965,-186,5972.0,88.82433319091797,1501,9973.0
3090,0.3291064500808716,-12.064358711242676,-115,5972.0,113.85877990722656,1994,9973.0
3100,0.32810550928115845,-13.417182922363281,-150,5972.0,112.62366485595703,1792,9973.0
3110,0.3277432322502136,-11.643071174621582,-270,5972.0,86.67029571533203,1099,9973.0
3120,0.32471156120300293,-4.954482078552246,78,5972.0,39.60194778442383,547,9973.0
3130,0.3254379630088806,8.1765718460083,84,5972.0,-11.417332649230957,-531,9973.0
3140,0.32604941725730896,15.168527603149414,376,5972.0,-55.05666732788086,-948,9973.0
3150,0.3268662691116333,16.114442825317383,131,5972.0,-82.39990234375,-1527,9973.0
3160,0.3246791958808899,4.160391330718994,35,5972.0,-106.73604583740234,-1828,9973.0
3170,0.32509034872055054,-11.449909210205078,-152,5972.0,-123.62983703613281,-2052,9973.0
3180,0.32609859108924866,-17.87924575805664,-365,5972.0,-135.76983642578125,-2166,9973.0
3190,0.3264431059360504,-26.872941970825195,-533,5972.0,-138.00244140625,-2275,9973.0
3200,0.3275070786476135,-25.8118839263916,-365,5972.0,-117.82219696044922,-1910,9973.0
3210,0.3277328908443451,-5.997707366943359,70,5972.0,-76.5323715209961,-1099,9973.0
3220,0.3302748203277588,9.90418815612793,334,5972.0,-27.348899841308594,-258,9973.0
3230,0.33262529969215393,22.44910430908203,523,5972.0,27.665430068969727,645,9973.0
3240,0.3339799642562866,36.76260757446289,658,5972.0,80.00770568847656,1500,9973.0
3250,0.33837583661079407,31.31460189819336,561,5972.0,130.07444763183594,2161,9973.0
3260,0.33925026655197144,21.47710418701172,322,5972.0,159.44485473632812,2566,9973.0
3270,0.3400671184062958,10.049448013305664,90,5972.0,163.55252075195312,2635,9973.0
3280,0.34012535214424133,0.836340069770813,-87,5972.0,146.3137969970703,2376,9973.0
3290,0.3342733383178711,-8.960793495178223,-194,5972.0,104.87852478027344,1350,9973.0
3300,0.33623936772346497,-11.96430778503418,-169,5972.0,43.2625846862793,518,9973.0
3310,0.33638787269592285,-12.174090385437012,-243,5972.0,-17.598852157592773,-549,9973.0
3320,0.3373190760612488,-15.54945182800293,-263,5972.0,-59.18390655517578,-1092,9973.0
3330,0.33795008063316345,-13.59249496459961,-168,5972.0,-85.1016616821289,-1430,9973.0
3340,0.3302190899848938,-12.47268009185791,-304,5972.0,-100.8082275390625,-1636,9973.0
3350,0.32994505763053894,-8.754542350769043,-131,5972.0,-107.81829833984375,-1762,9973.0
3360,0.32941684126853943,-1.0182721614837646,58,5972.0,-109.62406158447266,-1846,9973.0
3370,0.32854339480400085,-4.807800769805908,-29,5972.0,-97.06466674804688,-1632,9973.0
3380,0.3306844234466553,-2.0423004627227783,12,5972.0,-72.9702377319336,-1209,9973.0
3390,0.3315872848033905,7.634030818939209,183,5972.0,-33.824615478515625,-422,9973.0
3400,0.3325566351413727,17.498558044433594,314,5972.0,13.222460746765137,307,9973.0
3410,0.33480775356292725,13.138312339782715,221,5972.0,63.503753662109375,1128,9973.0
3420,0.33536866307258606,4.581498146057129,47,5972.0,114.24951934814453,2093,9973.0
3430,0.3353194296360016,-4.941635608673096,-60,5972.0,150.22080993652344,2570,9973.0
3440,0.33532845973968506,-16.548171997070312,-201,5972.0,170.67579650878906,2882,9973.0
3450,0.33547404408454895,-15.534775733947754,-248,5972.0,171.41650390625,2791,9973.0
3460,0.3369814455509186,-10.633907318115234,-241,5972.0,154.1184844970703,2367,9973.0
3470,0.3326234817504883,0.633097767829895,209,5972.0,113.33633422851562,1674,9973.0
3480,0.3323379158973694,15.046004295349121,156,5972.0,65.53844451904297,696,9973.0
3490,0.33273229002952576,21.868364334106445,534,5972.0,7.022680759429932,-213,9973.0
3500,0.3340620696544647,25.59402847290039,284,5972.0,-48.28229904174805,-1048,9973.0
3510,0.33120694756507874,20.05632781982422,367,5972.0,-88.50584411621094,-1758,9973.0
3520,0.3320413827896118,10.532163619995117,110,5972.0,-130.21682739257812,-2334,9973.0
3530,0.3324398398399353,0.14441119134426117,-142,5972.0,-160.41497802734375,-2674,9973.0
3540,0.33312273025512695,-13.08393383026123,-334,5972.0,-161.87200927734375,-2567,9973.0
3550,0.33361342549324036,-28.575990676879883,-465,5972.0,-141.65757751464844,-2291,9973.0
3560,0.3317633271217346,-32.36090087890625,-425,5972.0,-111.44052124023438,-1691,9973.0
3570,0.33229050040245056,-23.63966178894043,-332,5972.0,-64.9574203491211,-756,9973.0
3580,0.33364397287368774,-14.729914665222168,-199,5972.0,-4.577884674072266,275,9973.0
3590,0.3349514901638031,-1.6840031147003174,64,5972.0,55.04426193237305,1212,9973.0
3600,0.33481565117836,9.297908782958984,178,5972.0,99.70231628417969,1822,9973.0
3610,0.3349437415599823,9.161648750305176,33,5972.0,124.2657699584961,2381,9973.0
3620,0.3343294560909271,1.7845505475997925,-38,5972.0,137.67027282714844,2260,9973.0
3630,0.33562594652175903,4.088564872741699,18,5972.0,128.3076171875,2036,9973.0
3640,0.33498287200927734,7.791078567504883,236,5972.0,99.61331939697266,1407,9973.0
3650,0.3286780118942261,8.015396118164062,23,5972.0,62.18581008911133,882,9973.0
3660,0.32785195112228394,8.036008834838867,226,5972.0,17.881458282470703,13,9973.0
3670,0.32789599895477295,3.5180442333221436,-58,5972.0,-33.48633575439453,-718,9973.0
3680,0.32854965329170227,-4.202564716339111,-69,5972.0,-89.14092254638672,-1793,9973.0
3690,0.3265809118747711,-7.025180339813232,-136,5972.0,-138.84356689453125,-2417,9973.0
3700,0.3264538645744324,-9.267193794250488,-207,5972.0,-161.24827575683594,-2553,9973.0
3710,0.3274296224117279,-8.946949005126953,-76,5972.0,-159.62501525878906,-2643,9973.0
3720,0.32750627398490906,-6.914224147796631,-93,5972.0,-141.66017150878906,-2336,9973.0
3730,0.3271564245223999,-8.809446334838867,-129,5972.0,-109.7242202758789,-1609,9973.0
3740,0.32763218879699707,-4.808626174926758,-24,5972.0,-54.01498794555664,-613,9973.0
3750,0.32876211404800415,1.4302033185958862,61,5972.0,1.8528730869293213,253,9973.0
3760,0.32974082231521606,1.666749358177185,-3,5972.0,53.26959228515625,1087,9973.0
3770,0.3307288885116577,-0.1749746948480606,-57,5972.0,96.48584747314453,1839,9973.0
3780,0.33366474509239197,-1.4453901052474976,-50,5972.0,121.35830688476562,2146,9973.0
3790,0.3341544568538666,-0.5056350827217102,13,5972.0,132.6903839111328,1997,9973.0
3800,0.33417484164237976,3.564579486846924,99,5972.0,125.10450744628906,1942,9973.0
3810,0.33420389890670776,12.95800495147705,284,5972.0,97.636962890625,1400,9973.0
3820,0.3285348415374756,16.23446273803711,323,5972.0,54.37969207763672,634,9973.0
3830,0.3290262222290039,17.915830612182617,248,5972.0,5.2886857986450195,-97,9973.0
3840,0.33010441064834595,11.929469108581543,181,5972.0,-38.926998138427734,-901,9973.0
3850,0.33119040727615356,1.3966176509857178,-86,5972.0,-83.64060974121094,-1426,9973.0
3860,0.32654330134391785,-10.670507431030273,-153,5972.0,-127.4128189086914,-2409,9973.0
3870,0.32699018716812134,-13.046367645263672,-219,5972.0,-154.6102294921875,-2506,9973.0
3880,0.32706454396247864,-13.489617347717285,-227,5972.0,-152.8424072265625,-2294,9973.0
3890,0.3272396922111511,-1.3869563341140747,0,5972.0,-132.40524291992188,-1986,9973.0
3900,0.32698488235473633,10.926193237304688,166,5972.0,-103.49807739257812,-1397,9973.0
3910,0.3328832983970642,10.217700958251953,116,5972.0,-51.74293518066406,-590,9973.0
3920,0.3333735167980194,-1.4098135232925415,-96,5972.0,6.550638198852539,438,9973.0
3930,0.3352449834346771,-11.261012077331543,-162,5972.0,66.0174331665039,1385,9973.0
3940,0.33615002036094666,-14.145278930664062,-278,5972.0,113.01429748535156,2098,9973.0
3950,0.3390572667121887,-16.081233978271484,-346,5972.0,149.1967010498047,2510,9973.0
3960,0.3398098647594452,-13.074128150939941,-136,5972.0,164.69342041015625,2663,9973.0
3970,0.34047701954841614,0.4490067660808563,163,5972.0,157.29348754882812,2530,9973.0
3980,0.340765118598938,13.584739685058594,247,5972.0,131.10836791992188,2039,9973.0
3990,0.34137701988220215,23.907684326171875,396,5972.0,92.40037536621094,1241,9973.0
4000,0.33471372723579407,22.101680755615234,339,5972.0,45.38944625854492,560,9973.0
4010,0.3350730538368225,10.366790771484375,101,5972.0,-2.2186217308044434,-198,9973.0
4020,0.33645546436309814,-4.841267108917236,-108,5972.0,-50.899654388427734,-1191,9973.0
4030,0.33832836151123047,-14.820985794067383,-228,5972.0,-99.34314727783203,-1786,9973.0
4040,0.3329257071018219,-18.169952392578125,-380,5972.0,-135.98373413085938,-2219,9973.0
4050,0.3335382640361786,-31.435453414916992,-697,5972.0,-136.07408142089844,-2101,9973.0
4060,0.33383268117904663,-45.55178451538086,-723,5972.0,-111.65713500976562,-1726,9973.0
4070,0.33528903126716614,-39.09606170654297,-598,5972.0,-77.8083267211914,-1167,9973.0
4080,0.3333703577518463,-11.795004844665527,-76,5972.0,-30.281373977661133,-327,9973.0
4090,0.33422955870628357,15.57124137878418,378,5972.0,22.02214241027832,627,9973.0
4100,0.3352406919002533,24.037696838378906,516,5972.0,78.62621307373047,1499,9973.0
4110,0.3364016115665436,32.33034896850586,645,5972.0,122.59881591796875,1969,9973.0
4120,0.33678489923477173,32.768001556396484,570,5972.0,143.1620635986328,2375,9973.0
4130,0.3332086503505707,28.93341064453125,405,5972.0,147.78433227539062,2489,9973.0
4140,0.33216509222984314,19.512239456176758,222,5972.0,129.51693725585938,1924,9973.0
4150,0.33220675587654114,4.187972545623779,7,5972.0,92.12279510498047,1146,9973.0
4160,0.33290979266166687,-6.874791145324707,-102,5972.0,40.21179962158203,434,9973.0
4170,0.32790154218673706,-8.331281661987305,-150,5972.0,-11.765377044677734,-643,9973.0
4180,0.32808664441108704,-7.837520599365234,-127,5972.0,-58.09788513183594,-1012,9973.0
4190,0.32803019881248474,-13.562751770019531,-290,5972.0,-93.10713958740234,-1899,9973.0
4200,0.3274742066860199,-14.79336929321289,-165,5972.0,-121.93395233154297,-2087,9973.0
4210,0.3271874189376831,-12.865909576416016,-148,5972.0,-138.69615173339844,-2244,9973.0
4220,0.3244045674800873,-6.762199401855469,-162,5972.0,-128.3710479736328,-1861,9973.0
4230,0.324459969997406,-0.0017251296667382121,7,5972.0,-94.39000701904297,-1217,9973.0
4240,0.32543665170669556,9.878171920776367,187,5972.0,-48.744232177734375,-482,9973.0
4250,0.3261597454547882,18.54051399230957,369,5972.0,7.193317413330078,419,9973.0
4260,0.3280874192714691,27.31183624267578,391,5972.0,57.56834030151367,1129,9973.0
4270,0.3285841941833496,10.686984062194824,65,5972.0,103.0604248046875,1676,9973.0
4280,0.3288753926753998,-11.46689224243164,-304,5972.0,132.13369750976562,2143,9973.0
4290,0.32870563864707947,-26.528411865234375,-439,5972.0,134.37506103515625,2180,9973.0
4300,0.3269765377044678,-30.770774841308594,-499,5972.0,112.54222106933594,1746,9973.0
4310,0.3265647292137146,-25.655906677246094,-357,5972.0,80.75001525878906,1105,9973.0
4320,0.327144593000412,-10.74176025390625,-80,5972.0,38.63685989379883,457,9973.0
4330,0.32747945189476013,8.641241073608398,247,5972.0,-10.98992919921875,-398,9973.0
4340,0.3289816379547119,23.059354782104492,389,5972.0,-65.17302703857422,-1342,9973.0
4350,0.32570362091064453,24.456645965576172,371,5972.0,-110.92511749267578,-1942,9973.0
4360,0.3252413868904114,10.299643516540527,120,5972.0,-141.8407440185547,-2371,9973.0
4370,0.3252736032009125,-2.18220591545105,-92,5972.0,-166.69081115722656,-2897,9973.0
4380,0.3249197006225586,-10.707246780395508,-222,5972.0,-177.3369140625,-2953,9973.0
4390,0.3236587941646576,-10.351715087890625,-118,5972.0,-156.10682678222656,-2397,9973.0
4400,0.3238050937652588,-7.796458721160889,-46,5972.0,-115.26753234863281,-1679,9973.0
4410,0.3271774649620056,4.377580165863037,170,5972.0,-68.9141616821289,-774,9973.0
4420,0.32743024826049805,22.540550231933594,445,5972.0,-10.327964782714844,153,9973.0
4430,0.3294020891189575,34.826480865478516,635,5972.0,46.99433898925781,1052,9973.0
4440,0.33440709114074707,33.33647918701172,503,5972.0,96.66339111328125,1821,9973.0
4450,0.33479049801826477,21.076202392578125,321,5972.0,138.30819702148438,2442,9973.0
4460,0.3363310694694519,-0.2046928107738495,-133,5972.0,162.31716918945312,2774,9973.0
4470,0.33664003014564514,-27.103050231933594,-617,5972.0,169.0459442138672,2831,9973.0
4480,0.3353690207004547,-50.49931335449219,-906,5972.0,156.0325164794922,2252,9973.0
4490,0.3370996117591858,-59.455780029296875,-984,5972.0,117.74240112304688,1808,9973.0
4500,0.337236225605011,-52.235103607177734,-720,5972.0,67.54430389404297,751,9973.0
4510,0.33800414204597473,-25.1541748046875,-334,5972.0,11.853994369506836,41,9973.0
4520,0.33156049251556396,5.398698806762695,294,5972.0,-41.12428665161133,-997,9973.0
4530,0.3326311707496643,30.26133918762207,489,5972.0,-88.64905548095703,-1531,9973.0
4540,0.3340073823928833,33.85554504394531,560,5972.0,-126.06236267089844,-2309,9973.0
4550,0.33504796028137207,36.86894607543945,638,5972.0,-152.1042022705078,-2593,9973.0
4560,0.33565446734428406,34.21753692626953,372,5972.0,-161.54916381835938,-2515,9973.0
4570,0.33106479048728943,10.642969131469727,-7,5972.0,-146.46066284179688,-2120,9973.0
4580,0.3316650092601776,-15.745369911193848,-318,5972.0,-119.19519805908203,-1726,9973.0
4590,0.3329768776893616,-25.27842903137207,-379,5972.0,-79.6115951538086,-1080,9973.0
4600,0.3338436186313629,-16.96428680419922,-209,5972.0,-35.82258605957031,-240,9973.0
4610,0.3370661437511444,-0.5256288051605225,65,5972.0,25.032873153686523,752,9973.0
4620,0.3386071026325226,16.62076759338379,346,5972.0,84.3965072631836,1719,9973.0
4630,0.340182900428772,23.865501403808594,364,5972.0,137.1336669921875,2527,9973.0
4640,0.34086334705352783,17.474496841430664,147,5972.0,167.51072692871094,2904,9973.0
4650,0.3414470851421356,4.525876045227051,34,5972.0,181.97152709960938,2984,9973.0
4660,0.33829405903816223,-17.065332412719727,-258,5972.0,169.48822021484375,2602,9973.0
4670,0.33716273307800293,-30.42633819580078,-522,5972.0,139.5823974609375,2090,9973.0
4680,0.3361661732196808,-30.15888786315918,-482,5972.0,95.77826690673828,1342,9973.0
4690,0.33871909976005554,-14.675121307373047,-78,5972.0,39.86613464355469,391,9973.0
4700,0.330958753824234,6.885194778442383,196,5972.0,-19.083005905151367,-651,9973.0
4710,0.33155083656311035,18.303253173828125,302,5972.0,-72.34254455566406,-1270,9973.0
4720,0.332573264837265,17.374555587768555,300,5972.0,-112.95984649658203,-1997,9973.0
4730,0.33232417702674866,10.468626976013184,191,5972.0,-140.78274536132812,-2475,9973.0
4740,0.3300466537475586,2.2117574214935303,-107,5972.0,-142.6653594970703,-2145,9973.0
4750,0.3303064703941345,-12.14746379852295,-208,5972.0,-128.71653747558594,-1892,9973.0
4760,0.3303273022174835,-13.815485954284668,-194,5972.0,-104.42684173583984,-1459,9973.0
4770,0.33168819546699524,-4.539456367492676,-34,5972.0,-60.40461730957031,-844,9973.0
4780,0.3318311870098114,-0.6487154364585876,12,5972.0,-17.429004669189453,15,9973.0
4790,0.33334383368492126,7.0003533363342285,129,5972.0,38.053226470947266,818,9973.0
4800,0.3344299793243408,4.708034515380859,27,5972.0,80.24463653564453,1467,9973.0
4810,0.33468154072761536,-0.4860290586948395,-65,5972.0,115.75918579101562,1929,9973.0
4820,0.3347405791282654,-6.190722942352295,-103,5972.0,130.56643676757812,2151,9973.0
4830,0.33142757415771484,-8.748980522155762,-26,5972.0,126.02090454101562,2053,9973.0
4840,0.33032098412513733,7.094636917114258,136,5972.0,102.28168487548828,1324,9973.0
4850,0.3302263021469116,20.420555114746094,463,5972.0,68.201416015625,1012,9973.0
4860,0.3307453691959381,27.25399398803711,396,5972.0,22.74064064025879,1,9973.0
4870,0.3309362530708313,15.937477111816406,160,5972.0,-25.42392921447754,-720,9973.0
4880,0.32682856917381287,-3.0526511669158936,-141,5972.0,-76.16168975830078,-1515,9973.0
4890,0.3276047110557556,-16.423442840576172,-379,5972.0,-125.13739013671875,-2122,9973.0
4900,0.3277954161167145,-23.839284896850586,-367,5972.0,-159.77438354492188,-2727,9973.0
4910,0.3279114365577698,-25.398054122924805,-328,5972.0,-160.5427703857422,-2656,9973.0
4920,0.32526594400405884,-23.648284912109375,-368,5972.0,-128.25025939941406,-2068,9973.0
4930,0.3257075548171997,-13.525425910949707,-223,5972.0,-88.53540802001953,-1215,9973.0
4940,0.32774418592453003,-7.778483867645264,-14,5972.0,-38.53611373901367,-309,9973.0
4950,0.32840490341186523,9.807860374450684,243,5972.0,16.895971298217773,539,9973.0
4960,0.3312288522720337,11.830626487731934,209,5972.0,62.708797454833984,1171,9973.0
4970,0.3320750594139099,4.424821376800537,-21,5972.0,99.11000061035156,1772,9973.0
4980,0.33253926038742065,-19.227535247802734,-552,5972.0,115.43569946289062,2059,9973.0
4990,0.33290162682533264,-40.6629524230957,-748,5972.0,124.43333435058594,2049,9973.0
5000,0.3327353596687317,-38.025047302246094,-565,5972.0,113.94622039794922,1664,9973.0
5010,0.33042994141578674,-13.033872604370117,-39,5972.0,87.09423828125,1411,9973.0
5020,0.3319101333618164,13.713251113891602,280,5972.0,54.653785705566406,527,9973.0
5030,0.3324078619480133,41.348087310791016,849,5972.0,8.038389205932617,90,9973.0
5040,0.3331916928291321,54.5689582824707,842,5972.0,-30.092172622680664,-743,9973.0
5050,0.32722920179367065,48.9071159362793,770,5972.0,-56.93733596801758,-1070,9973.0
5060,0.3278091847896576,33.08059310913086,481,5972.0,-76.87925720214844,-1241,9973.0
5070,0.3286244571208954,12.252756118774414,20,5972.0,-86.65315246582031,-1400,9973.0
5080,0.32919618487358093,-9.297235488891602,-260,5972.0,-82.77920532226562,-1355,9973.0
5090,0.32657626271247864,-15.002832412719727,-297,5972.0,-67.77584075927734,-918,9973.0
5100,0.3278779685497284,-29.59390640258789,-518,5972.0,-35.688663482666016,-456,9973.0
5110,0.32839804887771606,-50.72835159301758,-881,5972.0,-1.1598565578460693,106,9973.0
5120,0.3290766179561615,-66.07506561279297,-1060,5972.0,32.90719223022461,498,9973.0
5130,0.33011260628700256,-55.66504669189453,-735,5972.0,59.685543060302734,1128,9973.0
5140,0.32996901869773865,-28.190950393676758,-184,5972.0,77.35952758789062,1316,9973.0
5150,0.330169677734375,17.03472137451172,466,5972.0,76.3980712890625,1236,9973.0
5160,0.3303205370903015,54.88947677612305,942,5972.0,61.974578857421875,838,9973.0
5170,0.3299390971660614,68.62924194335938,1184,5972.0,44.1700325012207,671,9973.0
5180,0.3263648450374603,59.126930236816406,812,5972.0,27.309345245361328,425,9973.0
5190,0.3256615400314331,35.41944885253906,429,5972.0,7.389415264129639,77,9973.0
5200,0.32540252804756165,7.164001941680908,78,5972.0,-9.603937149047852,-284,9973.0
5210,0.3249870240688324,-14.491827011108398,-247,5972.0,-22.99718475341797,-462,9973.0
5220,0.3248644769191742,-23.865449905395508,-517,5972.0,-38.147438049316406,-592,9973.0
5230,0.32231274247169495,-30.743131637573242,-579,5972.0,-43.18148422241211,-699,9973.0
5240,0.3221356272697449,-29.014612197875977,-350,5972.0,-47.74211883544922,-885,9973.0
5250,0.3220888674259186,-14.730515480041504,-151,5972.0,-44.59770202636719,-795,9973.0
5260,0.3223384618759155,2.4602651596069336,42,5972.0,-49.9493293762207,-749,9973.0
5270,0.32295888662338257,13.166095733642578,136,5972.0,-46.32807159423828,-518,9973.0
5280,0.3235227167606354,17.2951717376709,237,5972.0,-29.662017822265625,-253,9973.0
5290,0.324360191822052,9.676752090454102,168,5972.0,-12.346904754638672,-108,9973.0
5300,0.3253208100795746,2.335139036178589,22,5972.0,12.683870315551758,311,9973.0
5310,0.3267352283000946,-8.49532413482666,-201,5972.0,38.9331169128418,754,9973.0
5320,0.32712265849113464,-14.371747970581055,-255,5972.0,73.97760772705078,1143,9973.0
5330,0.3270810544490814,-8.443572044372559,-13,5972.0,86.03815460205078,1447,9973.0
5340,0.32679787278175354,7.693178653717041,320,5972.0,100.1048812866211,1597,9973.0
5350,0.3272872269153595,17.45878028869629,241,5972.0,100.6844711303711,1556,9973.0
5360,0.32558709383010864,23.53804588317871,254,5972.0,83.88343048095703,1296,9973.0
5370,0.32452934980392456,20.073850631713867,375,5972.0,53.00544738769531,556,9973.0
5380,0.3241986930370331,5.713347434997559,29,5972.0,1.410296082496643,-9,9973.0
5390,0.3237976133823395,-5.742477893829346,-160,5972.0,-45.62809371948242,-1076,9973.0
5400,0.32230710983276367,-15.05578899383545,-304,5972.0,-76.65919494628906,-1296,9973.0
5410,0.3216296136379242,-22.245935440063477,-358,5972.0,-90.5864486694336,-1433,9973.0
5420,0.3209903836250305,-18.941661834716797,-322,5972.0,-103.37454986572266,-1937,9973.0
5430,0.3211226761341095,-13.588994026184082,-138,5972.0,-117.63665771484375,-1985,9973.0
5440,0.3206610381603241,0.6960411667823792,123,5972.0,-122.31292724609375,-1800,9973.0
5450,0.321729838848114,9.674812316894531,152,5972.0,-90.64212036132812,-1173,9973.0
5460,0.32294994592666626,4.901614189147949,-4,5972.0,-51.42378234863281,-479,9973.0
5470,0.3246350586414337,1.047998309135437,-91,5972.0,-12.44572639465332,247,9973.0
5480,0.3258827328681946,-5.5761518478393555,-155,5972.0,44.58518600463867,1149,9973.0
5490,0.3290104866027832,-7.709721088409424,-120,5972.0,92.93059539794922,1796,9973.0
5500,0.32990843057632446,-3.553499937057495,-30,5972.0,125.59317016601562,2089,9973.0
5510,0.33106184005737305,4.819455146789551,157,5972.0,140.0662384033203,2230,9973.0
5520,0.3311985731124878,9.193428993225098,185,5972.0,134.73941040039062,2242,9973.0
5530,0.3305877149105072,11.821243286132812,165,5972.0,112.08763122558594,1626,9973.0
5540,0.3272812068462372,8.22747802734375,100,5972.0,74.83625030517578,964,9973.0
5550,0.32789045572280884,1.6924220323562622,25,5972.0,26.347349166870117,56,9973.0
5560,0.3287598788738251,2.6945600509643555,51,5972.0,-30.571767807006836,-825,9973.0
5570,0.32981929183006287,2.0840389728546143,66,5972.0,-76.95875549316406,-1434,9973.0
5580,0.3247418999671936,-0.467149555683136,-117,5972.0,-108.86263275146484,-1777,9973.0
5590,0.32460272312164307,-8.008240699768066,-84,5972.0,-124.96439361572266,-2218,9973.0
5600,0.32465603947639465,-12.132973670959473,-190,5972.0,-136.93026733398438,-2287,9973.0
5610,0.32452577352523804,-13.701555252075195,-330,5972.0,-130.86505126953125,-1927,9973.0
5620,0.32471519708633423,-17.371885299682617,-315,5972.0,-94.8501968383789,-1158,9973.0
5630,0.32667288184165955,-13.7034912109375,-234,5972.0,-59.09074401855469,-713,9973.0
5640,0.3269224464893341,-11.794120788574219,-188,5972.0,-26.403560638427734,-248,9973.0
5650,0.3278510272502899,-13.76218032836914,-203,5972.0,14.249953269958496,378,9973.0
5660,0.32913532853126526,-14.317020416259766,-175,5972.0,61.19533157348633,1065,9973.0
5670,0.3332873284816742,-5.813212871551514,23,5972.0,96.94194793701172,1617,9973.0
5680,0.3340018093585968,13.513893127441406,305,5972.0,121.58723449707031,2018,9973.0
5690,0.3346840441226959,23.094675064086914,474,5972.0,129.0852813720703,2122,9973.0
5700,0.33469951152801514,28.00786590576172,385,5972.0,112.90443420410156,1755,9973.0
5710,0.33064326643943787,25.109582901000977,432,5972.0,84.62110137939453,1232,9973.0
5720,0.3314671218395233,21.501718521118164,319,5972.0,47.09309005737305,601,9973.0
5730,0.33151713013648987,20.019689559936523,245,5972.0,6.570718765258789,-36,9973.0
5740,0.33221566677093506,16.309314727783203,340,5972.0,-34.62702941894531,-841,9973.0
5750,0.3302304446697235,7.341535568237305,25,5972.0,-69.78250885009766,-1155,9973.0
5760,0.33090776205062866,-8.999634742736816,-232,5972.0,-99.14350891113281,-1750,9973.0
5770,0.3318295478820801,-17.617515563964844,-347,5972.0,-129.5051727294922,-2310,9973.0
5780,0.33230167627334595,-15.626825332641602,-230,5972.0,-140.94357299804688,-2260,9973.0
5790,0.33271387219429016,-5.707574844360352,6,5972.0,-117.8208999633789,-1790,9973.0
5800,0.33232423663139343,-3.610339641571045,-34,5972.0,-78.47993469238281,-1200,9973.0
5810,0.33382049202919006,-5.702378749847412,-61,5972.0,-29.627370834350586,-361,9973.0
5820,0.336869478225708,-13.58377456665039,-304,5972.0,19.567468643188477,439,9973.0
5830,0.3392849266529083,-25.37842559814453,-431,5972.0,56.34426498413086,1066,9973.0
5840,0.33922553062438965,-23.787216186523438,-369,5972.0,90.97093200683594,1686,9973.0
5850,0.34099844098091125,-6.605638027191162,41,5972.0,111.6961898803711,1883,9973.0
5860,0.34269171953201294,18.774559020996094,383,5972.0,127.55221557617188,1916,9973.0
5870,0.34448155760765076,41.206336975097656,779,5972.0,122.57546997070312,1986,9973.0
5880,0.3471101224422455,49.2186279296875,892,5972.0,108.71142578125,1484,9973.0
5890,0.3421492278575897,47.69863510131836,710,5972.0,66.52315521240234,874,9973.0
5900,0.34396126866340637,18.587646484375,83,5972.0,27.664554595947266,305,9973.0
5910,0.3458591103553772,-20.931346893310547,-380,5972.0,-6.925773620605469,-119,9973.0
5920,0.3479917049407959,-40.53492736816406,-763,5972.0,-38.55377197265625,-650,9973.0
5930,0.343023419380188,-42.32427978515625,-642,5972.0,-72.2784652709961,-1372,9973.0
5940,0.34473514556884766,-22.384735107421875,-247,5972.0,-102.3751220703125,-1787,9973.0
5950,0.34629616141319275,4.273750305175781,165,5972.0,-119.15647888183594,-2048,9973.0
5960,0.3489658236503601,19.647476196289062,390,5972.0,-112.27857971191406,-1724,9973.0
5970,0.34756743907928467,10.013262748718262,145,5972.0,-87.87902069091797,-1415,9973.0
5980,0.3485153019428253,1.098991870880127,-83,5972.0,-64.4797592163086,-825,9973.0
5990,0.3496536314487457,-4.831981658935547,-118,5972.0,-30.68038558959961,-95,9973.0
6000,0.3513660728931427,-8.271709442138672,-119,5972.0,17.146883010864258,561,9973.0
6010,0.3519713878631592,-5.520259380340576,-122,5972.0,61.334293365478516,1146,9973.0
6020,0.3551144301891327,0.43863674998283386,72,5972.0,92.919189453125,1636,9973.0
6030,0.3550526797771454,2.3160457611083984,129,5972.0,114.74388122558594,1906,9973.0
6040,0.3551543056964874,6.405357360839844,-49,5972.0,116.31075286865234,1882,9973.0
6050,0.3547933101654053,3.4525349140167236,2,5972.0,98.0416488647461,1559,9973.0
6060,0.35161328315734863,4.7554426193237305,6,5972.0,71.1053237915039,1097,9973.0
6070,0.3509560525417328,4.310924053192139,157,5972.0,34.024505615234375,152,9973.0
6080,0.35075706243515015,2.0933549404144287,92,5972.0,-4.656077861785889,-255,9973.0
6090,0.35026222467422485,4.557934284210205,3,5972.0,-47.654747009277344,-885,9973.0
6100,0.3511987030506134,0.77858966588974,-24,5972.0,-80.90361785888672,-1661,9973.0
6110,0.34419283270835876,-10.781728744506836,-257,5972.0,-110.1614990234375,-1987,9973.0
6120,0.3432294726371765,-20.977996826171875,-422,5972.0,-132.0587158203125,-2122,9973.0
6130,0.34397169947624207,-30.438230514526367,-583,5972.0,-136.1175079345703,-1970,9973.0
6140,0.34386640787124634,-36.92021179199219,-517,5972.0,-112.32979583740234,-1486,9973.0
6150,0.34207943081855774,-12.53980827331543,32,5972.0,-74.26271057128906,-812,9973.0
6160,0.3428647816181183,15.607500076293945,379,5972.0,-31.2526798248291,-85,9973.0
6170,0.3446945548057556,31.885238647460938,649,5972.0,20.383588790893555,694,9973.0
6180,0.34557613730430603,37.38584518432617,565,5972.0,64.22916412353516,1366,9973.0
6190,0.34753164649009705,25.24408721923828,269,5972.0,99.6383285522461,1967,9973.0
6200,0.3482721745967865,7.995364189147949,-27,5972.0,126.7977523803711,2334,9973.0
6210,0.3489866256713867,-5.865481376647949,-97,5972.0,139.25465393066406,2303,9973.0
6220,0.34961166977882385,-11.272322654724121,-193,5972.0,134.14723205566406,2082,9973.0
6230,0.3496592342853546,-7.22025203704834,-17,5972.0,107.12442016601562,1505,9973.0
6240,0.3438005745410919,5.848424434661865,126,5972.0,65.09003448486328,806,9973.0
6250,0.3451121747493744,13.433260917663574,246,5972.0,21.434152603149414,217,9973.0
6260,0.34543949365615845,18.2888240814209,216,5972.0,-18.988018035888672,-571,9973.0
6270,0.3457639813423157,13.091591835021973,284,5972.0,-47.42435836791992,-866,9973.0
6280,0.34166908264160156,3.066932201385498,-12,5972.0,-63.04811477661133,-1076,9973.0
6290,0.341260701417923,-15.261604309082031,-366,5972.0,-76.15164947509766,-1120,9973.0
6300,0.34098589420318604,-26.36142921447754,-461,5972.0,-83.77632141113281,-1334,9973.0
6310,0.3405991494655609,-14.144553184509277,-207,5972.0,-94.18299102783203,-1560,9973.0
6320,0.3395404815673828,-3.258838176727295,-4,5972.0,-90.27337646484375,-1367,9973.0
6330,0.33769258856773376,-2.3356940746307373,-54,5972.0,-67.61146545410156,-977,9973.0
6340,0.3368760049343109,-3.407737970352173,-34,5972.0,-38.61833953857422,-466,9973.0
6350,0.33566194772720337,-5.564221382141113,-112,5972.0,-11.769312858581543,-24,9973.0
6360,0.3348087966442108,-7.496642112731934,-123,5972.0,19.97154426574707,532,9973.0
6370,0.3350986838340759,-17.380495071411133,-307,5972.0,57.58865737915039,1106,9973.0
6380,0.33391156792640686,-31.67093276977539,-496,5972.0,94.90441131591797,1626,9973.0
6390,0.332283079624176,-28.71476173400879,-317,5972.0,118.94391632080078,1945,9973.0
6400,0.3301832377910614,-18.78564453125,-230,5972.0,127.71502685546875,2010,9973.0
6410,0.3276902139186859,-0.9253863096237183,-48,5972.0,111.29600524902344,1613,9973.0
6420,0.32528406381607056,8.353093147277832,243,5972.0,74.34598541259766,1188,9973.0
6430,0.32314857840538025,10.313977241516113,107,5972.0,34.425418853759766,215,9973.0
6440,0.32193392515182495,11.244232177734375,159,5972.0,-9.629172325134277,-202,9973.0
6450,0.32117536664009094,14.638747215270996,306,5972.0,-48.77589416503906,-1054,9973.0
6460,0.318074494600296,13.10610294342041,128,5972.0,-78.93024444580078,-1347,9973.0
6470,0.31714919209480286,7.151010990142822,58,5972.0,-101.76404571533203,-1780,9973.0
6480,0.3160913586616516,2.4812510013580322,102,5972.0,-127.04542541503906,-2120,9973.0
6490,0.31506961584091187,4.959366321563721,-26,5972.0,-149.3571014404297,-2438,9973.0
6500,0.31685593724250793,-10.720429420471191,-225,5972.0,-138.89637756347656,-2180,9973.0
6510,0.31638866662979126,-22.512710571289062,-364,5972.0,-102.44759368896484,-1539,9973.0
6520,0.31747403740882874,-22.231346130371094,-293,5972.0,-50.0302619934082,-675,9973.0
6530,0.3182705342769623,-18.232154846191406,-211,5972.0,12.494154930114746,525,9973.0
6540,0.32026997208595276,-10.453451156616211,-116,5972.0,79.68523406982422,1591,9973.0
6550,0.3234041631221771,-1.4370439052581787,-56,5972.0,127.59796905517578,2333,9973.0
6560,0.3239167630672455,5.814656734466553,152,5972.0,156.5214385986328,2482,9973.0
6570,0.3235670030117035,14.593581199645996,308,5972.0,159.214599609375,2582,9973.0
6580,0.32751211524009705,21.46538734436035,240,5972.0,142.90914916992188,2241,9973.0
6590,0.3213732838630676,22.677818298339844,433,5972.0,113.49853515625,1724,9973.0
6600,0.3206115961074829,18.855573654174805,296,5972.0,74.20720672607422,964,9973.0
6610,0.32047605514526367,17.1547794342041,250,5972.0,19.164306640625,42,9973.0
6620,0.3205849230289459,11.471826553344727,146,5972.0,-37.65642547607422,-878,9973.0
6630,0.3168216645717621,5.374275207519531,24,5972.0,-87.18026733398438,-1676,9973.0
6640,0.31612417101860046,-8.042378425598145,-207,5972.0,-122.15296173095703,-1995,9973.0
6650,0.3146703839302063,-20.732789993286133,-418,5972.0,-150.4370574951172,-2620,9973.0
6660,0.3161412477493286,-28.44502067565918,-450,5972.0,-172.92933654785156,-2961,9973.0
6670,0.3145420551300049,-35.523162841796875,-569,5972.0,-162.66458129882812,-2580,9973.0
6680,0.31145450472831726,-33.37921142578125,-519,5972.0,-134.7210235595703,-2011,9973.0
6690,0.3097379803657532,-20.324716567993164,-326,5972.0,-90.70670318603516,-1207,9973.0
6700,0.31357619166374207,-8.642868995666504,-156,5972.0,-26.215967178344727,-55,9973.0
6710,0.313528448343277,0.6510635614395142,17,5972.0,41.07997512817383,979,9973.0
6720,0.31528064608573914,12.213811874389648,198,5972.0,95.2300033569336,1770,9973.0
6730,0.31535980105400085,19.496999740600586,323,5972.0,132.21580505371094,2326,9973.0
6740,0.3149470090866089,19.84267807006836,375,5972.0,160.1367645263672,2690,9973.0
6750,0.31472551822662354,16.976099014282227,301,5972.0,172.55397033691406,2940,9973.0
6760,0.3132396936416626,22.63742446899414,407,5972.0,161.64593505859375,2450,9973.0
6770,0.3055741488933563,27.975765228271484,506,5972.0,128.44110107421875,1857,9973.0
6780,0.3067733943462372,25.818822860717773,285,5972.0,73.18883514404297,707,9973.0
6790,0.3058568835258484,12.490094184875488,179,5972.0,13.208198547363281,34,9973.0
6800,0.306225448846817,-0.002789364429190755,-125,5972.0,-43.341636657714844,-1117,9973.0
6810,0.3017466962337494,-11.841988563537598,-260,5972.0,-95.09471130371094,-1851,9973.0
6820,0.30056944489479065,-22.2929630279541,-478,5972.0,-133.63121032714844,-2200,9973.0
6830,0.29915598034858704,-27.817171096801758,-508,5972.0,-155.47787475585938,-2668,9973.0
6840,0.2962905764579773,-34.56743621826172,-560,5972.0,-164.3804168701172,-2730,9973.0
6850,0.28932467103004456,-49.94075393676758,-856,5972.0,-161.75018310546875,-2487,9973.0
6860,0.29059287905693054,-57.995182037353516,-1020,5972.0,-144.4827880859375,-2047,9973.0
6870,0.28729432821273804,-54.01674270629883,-876,5972.0,-109.29933166503906,-1478,9973.0
6880,0.28617480397224426,-39.1942253112793,-611,5972.0,-54.891632080078125,-618,9973.0
6890,0.28634828329086304,-25.944650650024414,-343,5972.0,17.62505340576172,560,9973.0
6900,0.28504589200019836,-15.4037446975708,-128,5972.0,84.32108306884766,1673,9973.0
6910,0.283412903547287,-0.4048003554344177,73,5972.0,135.63169860839844,2495,9973.0
6920,0.2843885123729706,15.92906665802002,285,5972.0,165.50479125976562,2744,9973.0
6930,0.28412896394729614,27.15618324279785,504,5972.0,172.8583526611328,2851,9973.0
6940,0.28018221259117126,35.895904541015625,562,5972.0,159.5577850341797,2394,9973.0
6950,0.2816148102283478,41.323062896728516,706,5972.0,130.6960906982422,2059,9973.0
6960,0.28087082505226135,41.64554214477539,792,5972.0,88.56317138671875,1330,9973.0
6970,0.28073641657829285,41.38494110107422,612,5972.0,43.44764709472656,388,9973.0
6980,0.28065937757492065,31.582592010498047,497,5972.0,1.5250613689422607,-50,9973.0
6990,0.27723848819732666,19.578868865966797,235,5972.0,-27.542875289916992,-667,9973.0
7000,0.2768971025943756,7.3221330642700195,91,5972.0,-42.333011627197266,-708,9973.0
7010,0.27662432193756104,-0.7575104832649231,-73,5972.0,-51.79164123535156,-854,9973.0
7020,0.27602875232696533,-4.207551956176758,-56,5972.0,-50.57526397705078,-848,9973.0
7030,0.2734590470790863,-8.271474838256836,-117,5972.0,-40.60298156738281,-540,9973.0
7040,0.2730613648891449,-15.182241439819336,-381,5972.0,-26.357118606567383,-241,9973.0
7050,0.27288779616355896,-30.665931701660156,-598,5972.0,-1.8109239339828491,37,9973.0
7060,0.27265143394470215,-45.71177673339844,-716,5972.0,32.55643081665039,634,9973.0
7070,0.26769086718559265,-48.95446014404297,-753,5972.0,69.76985168457031,1397,9973.0
7080,0.26786431670188904,-39.69289779663086,-640,5972.0,95.82970428466797,1657,9973.0
7090,0.26729056239128113,-18.991119384765625,-164,5972.0,104.83195495605469,1715,9973.0
7100,0.26660269498825073,7.364465236663818,192,5972.0,102.00276947021484,1519,9973.0
7110,0.2670484185218811,38.84998321533203,801,5972.0,89.55802154541016,1534,9973.0
7120,0.2646614909172058,65.05777740478516,1095,5972.0,62.64914321899414,902,9973.0
7130,0.2634141743183136,65.83881378173828,976,5972.0,36.83396530151367,574,9973.0
7140,0.2623837888240814,43.797142028808594,713,5972.0,13.242424964904785,68,9973.0
7150,0.2613612115383148,20.364118576049805,209,5972.0,-13.0614013671875,-266,9973.0
7160,0.25828754901885986,0.9085693955421448,53,5972.0,-38.258148193359375,-769,9973.0
7170,0.25658759474754333,-8.573339462280273,-186,5972.0,-52.99460220336914,-827,9973.0
7180,0.254576176404953,-12.01841926574707,-212,5972.0,-51.373600006103516,-826,9973.0
7190,0.2534755766391754,-8.637603759765625,-89,5972.0,-37.80619812011719,-436,9973.0
7200,0.2538771331310272,0.6817166209220886,47,5972.0,-9.533854484558105,-148,9973.0
7210,0.25315895676612854,11.585219383239746,288,5972.0,15.141611099243164,374,9973.0
7220,0.25221753120422363,17.825002670288086,298,5972.0,34.66062927246094,698,9973.0
7230,0.251617968082428,18.266145706176758,286,5972.0,40.74467468261719,593,9973.0
7240,0.2512972056865692,12.974620819091797,162,5972.0,39.468387603759766,736,9973.0
7250,0.2520295977592468,4.181291580200195,76,5972.0,43.50276565551758,651,9973.0
7260,0.25266069173812866,-6.830236434936523,-217,5972.0,47.790287017822266,924,9973.0
7270,0.25340428948402405,-26.333742141723633,-493,5972.0,38.50448989868164,486,9973.0
7280,0.2536974549293518,-31.997758865356445,-508,5972.0,14.541985511779785,202,9973.0
7290,0.25260087847709656,-28.970792770385742,-396,5972.0,-2.487443208694458,-193,9973.0
7300,0.25275152921676636,-20.42762565612793,-357,5972.0,-22.6678466796875,-420,9973.0
7310,0.25286614894866943,-8.115666389465332,11,5972.0,-30.788503646850586,-625,9973.0
7320,0.25272947549819946,5.396740913391113,87,5972.0,-39.722206115722656,-645,9973.0
7330,0.2525307834148407,13.131105422973633,241,5972.0,-43.205780029296875,-744,9973.0
7340,0.2507716715335846,12.810223579406738,171,5972.0,-40.95040512084961,-594,9973.0
7350,0.25055262446403503,5.538203239440918,28,5972.0,-37.52330017089844,-685,9973.0
7360,0.25007379055023193,-9.284671783447266,-211,5972.0,-28.041271209716797,-434,9973.0
7370,0.2494765967130661,-23.794424057006836,-399,5972.0,-20.476764678955078,-194,9973.0
7380,0.249040424823761,-27.895427703857422,-496,5972.0,-11.321101188659668,-68,9973.0
7390,0.24856777489185333,-24.4849796295166,-320,5972.0,-2.6850600242614746,-42,9973.0
7400,0.24806435406208038,-15.906169891357422,-173,5972.0,2.5408220291137695,88,9973.0
7410,0.24751481413841248,-8.776979446411133,-202,5972.0,-2.6033685207366943,-45,9973.0
7420,0.24729399383068085,-9.507482528686523,-106,5972.0,1.2245104312896729,-65,9973.0
7430,0.24546398222446442,-15.176016807556152,-241,5972.0,4.1036057472229,141,9973.0
7440,0.2451268583536148,-17.852458953857422,-370,5972.0,3.468240976333618,31,9973.0
7450,0.244480699300766,-20.215763092041016,-258,5972.0,4.988760948181152,119,9973.0
7460,0.24384139478206635,-19.72325325012207,-337,5972.0,0.5179253220558167,45,9973.0
7470,0.24226714670658112,-19.06926727294922,-192,5972.0,5.35385799407959,-9,9973.0
7480,0.24108996987342834,-8.494752883911133,-63,5972.0,0.9929072260856628,117,9973.0
7490,0.2400788962841034,10.031469345092773,196,5972.0,7.296479225158691,102,9973.0
7500,0.2392507791519165,24.982084274291992,477,5972.0,16.309431076049805,399,9973.0
7510,0.23706038296222687,25.235754013061523,260,5972.0,17.03397560119629,208,9973.0
7520,0.23540599644184113,17.595111846923828,306,5972.0,10.922904968261719,130,9973.0
7530,0.23374740779399872,6.813760280609131,-29,5972.0,4.519753932952881,39,9973.0
7540,0.23247253894805908,-3.1973516941070557,1,5972.0,0.9582392573356628,-25,9973.0
7550,0.230484738945961,-4.554152965545654,-126,5972.0,-8.605504989624023,-164,9973.0
7560,0.22622118890285492,-3.4456639289855957,37,5972.0,-15.000479698181152,-249,9973.0
7570,0.2250872403383255,-1.9064232110977173,-72,5972.0,-16.679597854614258,-292,9973.0
7580,0.22278806567192078,2.0443177223205566,110,5972.0,-12.730851173400879,-86,9973.0
7590,0.2218996286392212,7.891044616699219,110,5972.0,-0.9132252931594849,-31,9973.0
7600,0.21886111795902252,14.615034103393555,332,5972.0,6.352808952331543,151,9973.0
7610,0.2168966382741928,18.930631637573242,278,5972.0,7.713755130767822,52,9973.0
7620,0.2149689793586731,19.843656539916992,340,5972.0,6.592700481414795,213,9973.0
7630,0.21426691114902496,14.875450134277344,202,5972.0,8.801856994628906,58,9973.0
7640,0.21457332372665405,5.191258907318115,75,5972.0,13.83409595489502,303,9973.0
7650,0.21371082961559296,-5.443772315979004,-153,5972.0,20.46915626525879,307,9973.0
7660,0.21360449492931366,-12.895820617675781,-259,5972.0,28.38292121887207,593,9973.0
7670,0.21273328363895416,-9.09888744354248,-19,5972.0,32.86088943481445,541,9973.0
7680,0.21194563806056976,1.6518630981445312,-5,5972.0,26.00861930847168,325,9973.0
7690,0.21430310606956482,3.8072495460510254,108,5972.0,19.353801727294922,453,9973.0
7700,0.21404911577701569,2.871840476989746,89,5972.0,15.060601234436035,146,9973.0
7710,0.21368877589702606,1.4861514568328857,-61,5972.0,8.314623832702637,133,9973.0
7720,0.2134934663772583,-4.412811756134033,-43,5972.0,-2.2609922885894775,18,9973.0
7730,0.21711412072181702,-11.519292831420898,-204,5972.0,-10.706663131713867,-356,9973.0
7740,0.21711944043636322,-17.586320877075195,-341,5972.0,-16.13829231262207,-203,9973.0
7750,0.2172669768333435,-20.270397186279297,-215,5972.0,-16.278888702392578,-302,9973.0
7760,0.21760256588459015,-14.732647895812988,-272,5972.0,-10.513543128967285,-165,9973.0
7770,0.21955865621566772,-8.593812942504883,-55,5972.0,-5.349098205566406,26,9973.0
7780,0.2199362963438034,-3.4347102642059326,-54,5972.0,-0.28009769320487976,-153,9973.0
7790,0.22027069330215454,1.4329999685287476,32,5972.0,-0.3794230818748474,64,9973.0
7800,0.2210211455821991,4.42124080657959,166,5972.0,-1.7929385900497437,-75,9973.0
7810,0.22154057025909424,5.8926920890808105,27,5972.0,-1.3754862546920776,-49,9973.0
7820,0.22390876710414886,7.221166133880615,184,5972.0,5.546665668487549,214,9973.0
7830,0.22458630800247192,13.257976531982422,212,5972.0,13.309959411621094,106,9973.0
7840,0.22607189416885376,18.565752029418945,336,5972.0,16.417884826660156,369,9973.0
7850,0.22807735204696655,14.247420310974121,188,5972.0,32.113162994384766,444,9973.0
7860,0.22560055553913116,-1.2746483087539673,-58,5972.0,36.16846466064453,661,9973.0
7870,0.22663527727127075,-16.889001846313477,-399,5972.0,34.74532699584961,494,9973.0
7880,0.22743038833141327,-29.047632217407227,-513,5972.0,25.366422653198242,487,9973.0
7890,0.22811855375766754,-32.50206756591797,-481,5972.0,8.400146484375,-8,9973.0
7900,0.2287544310092926,-23.274349212646484,-418,5972.0,-8.193796157836914,-219,9973.0
7910,0.23177070915699005,-10.539052963256836,-51,5972.0,-21.02166175842285,-296,9973.0
7920,0.23224709928035736,3.8913958072662354,165,5972.0,-25.39971160888672,-507,9973.0
7930,0.23248416185379028,18.30131721496582,387,5972.0,-26.880075454711914,-294,9973.0
7940,0.23292063176631927,26.12065887451172,416,5972.0,-20.4655704498291,-404,9973.0
7950,0.2311636060476303,23.2949275970459,394,5972.0,-7.655370235443115,56,9973.0
7960,0.23193161189556122,21.047565460205078,310,5972.0,8.640547752380371,169,9973.0
7970,0.23226146399974823,17.159839630126953,248,5972.0,21.080949783325195,486,9973.0
7980,0.2327018827199936,15.798543930053711,239,5972.0,24.055662155151367,252,9973.0
7990,0.23498012125492096,15.540116310119629,284,5972.0,17.714815139770508,281,9973.0
8000,0.23565559089183807,18.17144203186035,237,5972.0,11.620168685913086,124,9973.0
8010,0.2362673580646515,20.32749366760254,422,5972.0,6.701343536376953,103,9973.0
8020,0.23673993349075317,24.367733001708984,339,5972.0,5.504411697387695,4,9973.0
8030,0.23748724162578583,21.56827735900879,366,5972.0,5.222677707672119,105,9973.0
8040,0.23760636150836945,10.971856117248535,94,5972.0,11.051041603088379,357,9973.0
8050,0.23787233233451843,0.06027020514011383,-72,5972.0,26.30653953552246,435,9973.0
8060,0.2381921410560608,-9.676606178283691,-123,5972.0,40.10702896118164,800,9973.0
8070,0.23820440471172333,-12.610947608947754,-278,5972.0,45.07401657104492,646,9973.0
8080,0.23526917397975922,-13.22546100616455,-139,5972.0,39.849002838134766,681,9973.0
8090,0.23524145781993866,-5.348583221435547,-17,5972.0,31.81267547607422,388,9973.0
8100,0.23462387919425964,9.505579948425293,233,5972.0,17.96645736694336,293,9973.0
8110,0.2339538335800171,20.211475372314453,337,5972.0,-6.411341190338135,-334,9973.0
8120,0.23321519792079926,17.309772491455078,160,5972.0,-34.88713836669922,-741,9973.0
8130,0.2320012003183365,11.15895938873291,169,5972.0,-64.54727935791016,-1227,9973.0
8140,0.23093988001346588,1.348555326461792,-107,5972.0,-77.12783813476562,-1149,9973.0
8150,0.23012933135032654,-9.817984580993652,-273,5972.0,-72.80818176269531,-1030,9973.0
8160,0.22902052104473114,-21.18903923034668,-313,5972.0,-56.871620178222656,-946,9973.0
8170,0.2294960767030716,-24.05815315246582,-405,5972.0,-42.349822998046875,-512,9973.0
8180,0.22880765795707703,-16.364578247070312,-229,5972.0,-19.257705688476562,-270,9973.0
8190,0.22891885042190552,-2.8812758922576904,47,5972.0,6.147312164306641,231,9973.0
8200,0.22847111523151398,7.998250484466553,98,5972.0,25.385210037231445,421,9973.0
8210,0.22881433367729187,15.371366500854492,292,5972.0,39.92539978027344,798,9973.0
8220,0.22837437689304352,15.853129386901855,218,5972.0,49.16056442260742,716,9973.0
8230,0.22799347341060638,10.651928901672363,149,5972.0,46.71965408325195,804,9973.0
8240,0.2280108630657196,9.549039840698242,194,5972.0,37.71194076538086,570,9973.0
8250,0.22842909395694733,7.8033528327941895,121,5972.0,18.746337890625,59,9973.0
8260,0.23020264506340027,9.237141609191895,114,5972.0,-5.282009601593018,-106,9973.0
8270,0.2300163060426712,9.358773231506348,209,5972.0,-23.540056228637695,-496,9973.0
8280,0.22993212938308716,11.580000877380371,126,5972.0,-31.320178985595703,-630,9973.0
8290,0.23010846972465515,9.039387702941895,70,5972.0,-31.665924072265625,-433,9973.0
8300,0.23233415186405182,2.428401470184326,59,5972.0,-32.892066955566406,-619,9973.0
8310,0.23241057991981506,-1.348710060119629,-84,5972.0,-35.006507873535156,-557,9973.0
8320,0.23233483731746674,-4.3396453857421875,-19,5972.0,-32.665679931640625,-511,9973.0
8330,0.23320290446281433,-7.920933246612549,-206,5972.0,-26.012760162353516,-424,9973.0
8340,0.23478741943836212,-6.07420015335083,-8,5972.0,-8.818718910217285,-27,9973.0
8350,0.23558184504508972,-5.174484729766846,-178,5972.0,2.3476555347442627,-1,9973.0
8360,0.2363731861114502,-6.811742782592773,-154,5972.0,9.579211235046387,263,9973.0
8370,0.23742520809173584,-7.657625198364258,-33,5972.0,9.739574432373047,163,9973.0
8380,0.23845241963863373,-1.8394581079483032,-56,5972.0,6.852506160736084,54,9973.0
8390,0.23988255858421326,10.763619422912598,302,5972.0,2.894327402114868,175,9973.0
8400,0.24110954999923706,23.714773178100586,446,5972.0,2.0885868072509766,-51,9973.0
8410,0.24228540062904358,28.359697341918945,398,5972.0,8.34994125366211,272,9973.0
8420,0.24371054768562317,14.468831062316895,249,5972.0,18.900680541992188,272,9973.0
8430,0.24499979615211487,-1.865109920501709,-155,5972.0,23.627553939819336,407,9973.0
8440,0.24595242738723755,-6.375669479370117,-65,5972.0,27.25667381286621,471,9973.0
8450,0.2467268854379654,-8.328431129455566,-149,5972.0,29.84337615966797,374,9973.0
8460,0.2481880784034729,-6.938778877258301,-98,5972.0,16.591846466064453,303,9973.0
8470,0.2507156729698181,-6.926851749420166,-84,5972.0,0.638891339302063,-58,9973.0
8480,0.25158610939979553,-6.118936538696289,-146,5972.0,-14.665088653564453,-378,9973.0
8490,0.25242263078689575,0.9755211472511292,91,5972.0,-32.0791130065918,-528,9973.0
8500,0.2533017694950104,10.237548828125,255,5972.0,-47.447669982910156,-889,9973.0
8510,0.2540673613548279,18.749187469482422,315,5972.0,-51.82004165649414,-870,9973.0
8520,0.25703728199005127,18.755037307739258,368,5972.0,-50.89191436767578,-867,9973.0
8530,0.25801512598991394,13.22055435180664,108,5972.0,-41.873130798339844,-583,9973.0
8540,0.2596956491470337,-0.34802502393722534,-31,5972.0,-22.499231338500977,-298,9973.0
8550,0.26096677780151367,-17.919340133666992,-319,5972.0,7.073509216308594,397,9973.0
8560,0.26187214255332947,-22.389291763305664,-362,5972.0,42.352848052978516,727,9973.0
8570,0.2631675899028778,-10.470837593078613,-13,5972.0,62.98627471923828,1158,9973.0
8580,0.2646201252937317,6.814796447753906,74,5972.0,68.25587463378906,1035,9973.0
8590,0.26543113589286804,3.96610164642334,11,5972.0,54.814369201660156,925,9973.0
8600,0.26637136936187744,-5.741590976715088,-141,5972.0,34.07170486450195,401,9973.0
8610,0.26825854182243347,-14.665983200073242,-350,5972.0,15.065540313720703,198,9973.0
8620,0.2687745988368988,-20.5764217376709,-304,5972.0,-3.609468698501587,-141,9973.0
8630,0.2694356441497803,-22.214754104614258,-398,5972.0,-18.797311782836914,-458,9973.0
8640,0.27002498507499695,-17.63700294494629,-214,5972.0,-27.015871047973633,-300,9973.0
8650,0.27106544375419617,-12.349482536315918,-175,5972.0,-32.38130187988281,-658,9973.0
8660,0.27126210927963257,-3.7776238918304443,8,5972.0,-39.23466873168945,-599,9973.0
8670,0.2713490128517151,9.803500175476074,313,5972.0,-43.77109909057617,-781,9973.0
8680,0.27155256271362305,24.6044979095459,461,5972.0,-47.52353286743164,-685,9973.0
8690,0.27203255891799927,35.869964599609375,604,5972.0,-40.97666549682617,-750,9973.0
8700,0.2722308933734894,34.55729293823242,534,5972.0,-32.939693450927734,-352,9973.0
8710,0.27286475896835327,24.92946434020996,314,5972.0,-21.291784286499023,-264,9973.0
8720,0.2734038829803467,9.130658149719238,88,5972.0,-5.510699272155762,-139,9973.0
8730,0.27398568391799927,-12.296209335327148,-307,5972.0,6.617522716522217,283,9973.0
8740,0.2738191485404968,-24.521251678466797,-426,5972.0,19.528287887573242,375,9973.0
8750,0.27456796169281006,-19.51568031311035,-172,5972.0,39.40065002441406,810,9973.0
8760,0.27516260743141174,-1.4175187349319458,20,5972.0,54.84503173828125,790,9973.0
8770,0.2755500376224518,10.401763916015625,279,5972.0,55.6556510925293,938,9973.0
8780,0.2742360830307007,17.264528274536133,328,5972.0,43.80531311035156,543,9973.0
8790,0.2753380239009857,14.201509475708008,165,5972.0,28.21254539489746,380,9973.0
8800,0.27544105052948,10.086960792541504,205,5972.0,2.98244309425354,-53,9973.0
8810,0.27582764625549316,7.641729354858398,-18,5972.0,-17.238401412963867,-436,9973.0
8820,0.27599507570266724,-3.821481227874756,-58,5972.0,-32.022682189941406,-477,9973.0
8830,0.2771342396736145,-13.900774002075195,-276,5972.0,-36.26576614379883,-723,9973.0
8840,0.2769417464733124,-18.742616653442383,-302,5972.0,-36.882198333740234,-462,9973.0
8850,0.27688103914260864,-16.398788452148438,-261,5972.0,-33.99828338623047,-610,9973.0
8860,0.2765578031539917,-4.627680778503418,67,5972.0,-30.02227783203125,-434,9973.0
8870,0.2765377461910248,12.248298645019531,212,5972.0,-26.52756690979004,-470,9973.0
8880,0.2765498161315918,21.468687057495117,399,5972.0,-21.426162719726562,-195,9973.0
8890,0.27661240100860596,26.461742401123047,408,5972.0,-3.744969129562378,-66,9973.0
8900,0.2770615220069885,27.557064056396484,484,5972.0,22.504989624023438,622,9973.0
8910,0.27738580107688904,24.28564453125,338,5972.0,54.086029052734375,920,9973.0
8920,0.27622583508491516,14.144604682922363,151,5972.0,63.84566879272461,1071,9973.0
8930,0.27612805366516113,-4.861508369445801,-233,5972.0,58.12693786621094,882,9973.0
8940,0.27660131454467773,-21.918262481689453,-380,5972.0,43.16634750366211,683,9973.0
8950,0.2775351405143738,-31.76229476928711,-540,5972.0,20.705032348632812,86,9973.0
8960,0.27740296721458435,-32.82083511352539,-472,5972.0,-5.389876842498779,-128,9973.0
8970,0.2773672342300415,-23.633039474487305,-252,5972.0,-30.29193878173828,-607,9973.0
8980,0.27728161215782166,-11.413990020751953,-159,5972.0,-46.67447280883789,-838,9973.0
8990,0.27705487608909607,-2.2397799491882324,-1,5972.0,-48.83734893798828,-674,9973.0
9000,0.2755017876625061,-1.4249155521392822,-84,5972.0,-39.589847564697266,-735,9973.0
9010,0.27510198950767517,-6.1469526290893555,-164,5972.0,-32.65976333618164,-355,9973.0
9020,0.2752878963947296,-8.295014381408691,-74,5972.0,-17.274688720703125,-332,9973.0
9030,0.27520814538002014,0.0191180557012558,33,5972.0,-6.8398613929748535,-16,9973.0
9040,0.27538880705833435,8.517784118652344,148,5972.0,4.038481712341309,47,9973.0
9050,0.27621525526046753,13.0303316116333,288,5972.0,16.686750411987305,381,9973.0
9060,0.2764442563056946,20.2277774810791,304,5972.0,26.157958984375,362,9973.0
9070,0.27696657180786133,19.905242919921875,324,5972.0,25.509471893310547,476,9973.0
9080,0.2776600420475006,5.890743732452393,-15,5972.0,29.10281753540039,445,9973.0
9090,0.278560996055603,-9.535401344299316,-238,5972.0,31.777135848999023,651,9973.0
9100,0.27902793884277344,-17.164793014526367,-287,5972.0,29.785442352294922,329,9973.0
9110,0.27977854013442993,-26.993358612060547,-523,5972.0,15.067732810974121,248,9973.0
9120,0.280913382768631,-31.0015926361084,-434,5972.0,0.29532840847969055,-75,9973.0
9130,0.2805512547492981,-30.936100006103516,-534,5972.0,-20.77168083190918,-508,9973.0
9140,0.28085532784461975,-30.850940704345703,-486,5972.0,-35.806270599365234,-573,9973.0
9150,0.28130796551704407,-24.88668441772461,-271,5972.0,-43.3260612487793,-738,9973.0
9160,0.28188592195510864,-14.44758129119873,-264,5972.0,-41.616600036621094,-660,9973.0
9170,0.281943142414093,-2.918031692504883,70,5972.0,-26.751203536987305,-258,9973.0
9180,0.28336527943611145,17.380722045898438,295,5972.0,-9.186776161193848,-161,9973.0
9190,0.28403612971305847,33.82358169555664,619,5972.0,7.446361064910889,266,9973.0
9200,0.2848520874977112,40.078765869140625,624,5972.0,12.651788711547852,169,9973.0
9210,0.28566649556159973,34.65492630004883,522,5972.0,13.626143455505371,285,9973.0
9220,0.28554970026016235,24.743518829345703,389,5972.0,8.620250701904297,29,9973.0
9230,0.28670331835746765,14.113455772399902,180,5972.0,4.884430885314941,146,9973.0
9240,0.2877444922924042,4.681723117828369,74,5972.0,8.880908966064453,122,9973.0
9250,0.2887938320636749,9.58655834197998,215,5972.0,14.664742469787598,278,9973.0
9260,0.28977444767951965,10.24219799041748,98,5972.0,16.402502059936523,238,9973.0
9270,0.2904106676578522,-0.22378487884998322,20,5972.0,12.779974937438965,151,9973.0
9280,0.29140228033065796,-14.22641372680664,-340,5972.0,2.5142297744750977,24,9973.0
9290,0.2922936677932739,-25.51163673400879,-382,5972.0,-5.919998645782471,-223,9973.0
9300,0.2930164933204651,-27.168590545654297,-476,5972.0,-11.867538452148438,-79,9973.0
9310,0.2936858534812927,-22.043067932128906,-293,5972.0,-9.117696762084961,-206,9973.0
9320,0.29425764083862305,-11.83522891998291,-145,5972.0,-6.719854831695557,-44,9973.0
9330,0.29509884119033813,-3.1682000160217285,37,5972.0,-5.7462968826293945,-169,9973.0
9340,0.2956055700778961,7.697868347167969,184,5972.0,-5.048422336578369,-14,9973.0
9350,0.2960377037525177,12.161993026733398,153,5972.0,-4.286634922027588,-125,9973.0
9360,0.2958042323589325,7.421527862548828,183,5972.0,0.09782566130161285,8,9973.0
9370,0.2964037358760834,3.551278591156006,-57,5972.0,0.6969907879829407,5,9973.0
9380,0.29687976837158203,-0.31021130084991455,46,5972.0,0.9635991454124451,-19,9973.0
9390,0.2983222007751465,-2.4794750213623047,-121,5972.0,-2.729135513305664,42,9973.0
9400,0.29964637756347656,-4.900311470031738,-80,5972.0,-4.90041971206665,-92,9973.0
9410,0.300471693277359,-4.571787357330322,-79,5972.0,1.7362887859344482,229,9973.0
9420,0.3018520474433899,-3.1705479621887207,-58,5972.0,15.53967571258545,239,9973.0
9430,0.3025280237197876,0.47798916697502136,96,5972.0,23.793352127075195,430,9973.0
9440,0.3022540807723999,4.893841743469238,104,5972.0,22.18769645690918,247,9973.0
9450,0.30345529317855835,10.575948715209961,273,5972.0,18.723539352416992,334,9973.0
9460,0.30422836542129517,13.304091453552246,152,5972.0,13.338210105895996,177,9973.0
9470,0.30483943223953247,14.330377578735352,344,5972.0,5.149439811706543,-35,9973.0
9480,0.30536457896232605,16.03367805480957,186,5972.0,1.8663692474365234,159,9973.0
9490,0.30603617429733276,5.821471214294434,59,5972.0,2.582261800765991,-71,9973.0
9500,0.3064798414707184,-7.61143159866333,-210,5972.0,0.42420047521591187,124,9973.0
9510,0.30666491389274597,-20.749990463256836,-447,5972.0,0.012712636031210423,-78,9973.0
9520,0.3066503405570984,-31.61225700378418,-560,5972.0,0.5861583948135376,119,9973.0
9530,0.30540528893470764,-36.28482437133789,-566,5972.0,-1.763468623161316,-158,9973.0
9540,0.3053284287452698,-28.04989242553711,-463,5972.0,-13.159553527832031,-281,9973.0
9550,0.3050481379032135,-11.164989471435547,-34,5972.0,-31.847694396972656,-475,9973.0
9560,0.30529531836509705,11.883155822753906,232,5972.0,-43.119441986083984,-866,9973.0
9570,0.30549997091293335,31.81016731262207,609,5972.0,-49.65410232543945,-688,9973.0
9580,0.3053141236305237,45.79330062866211,744,5972.0,-45.671199798583984,-821,9973.0
9590,0.30535420775413513,45.04065704345703,760,5972.0,-34.62522506713867,-386,9973.0
9600,0.3055676519870758,43.173431396484375,622,5972.0,-3.5035512447357178,60,9973.0
9610,0.3062574565410614,36.72881317138672,626,5972.0,29.258195877075195,567,9973.0
9620,0.3044297397136688,23.75139617919922,281,5972.0,46.21792221069336,875,9973.0
9630,0.3046502470970154,1.464032769203186,-31,5972.0,56.192481994628906,809,9973.0
9640,0.3048146367073059,-18.61941909790039,-352,5972.0,47.28129196166992,766,9973.0
9650,0.3051176071166992,-33.6348762512207,-598,5972.0,31.277679443359375,387,9973.0
9660,0.3059629201889038,-42.74067306518555,-732,5972.0,19.140085220336914,299,9973.0
9670,0.30590465664863586,-39.5324821472168,-535,5972.0,5.938757419586182,1,9973.0
9680,0.3059297502040863,-30.14539337158203,-513,5972.0,-12.166586875915527,-421,9973.0
9690,0.305833101272583,-14.766708374023438,-147,5972.0,-33.665767669677734,-576,9973.0
9700,0.3062196671962738,-1.630706548690796,86,5972.0,-43.4548225402832,-701,9973.0
9710,0.30624404549598694,7.355347156524658,52,5972.0,-39.97710418701172,-634,9973.0
9720,0.3064197897911072,4.490561485290527,158,5972.0,-35.069644927978516,-526,9973.0
9730,0.3065882623195648,3.3118374347686768,-35,5972.0,-33.739253997802734,-554,9973.0
9740,0.30678510665893555,9.617466926574707,268,5972.0,-30.180702209472656,-470,9973.0
9750,0.3064452111721039,9.90905475616455,77,5972.0,-16.8957462310791,-161,9973.0
9760,0.30691832304000854,-2.48616886138916,-37,5972.0,5.470056056976318,171,9973.0
9770,0.3075779676437378,-6.863569259643555,-99,5972.0,26.17943000793457,588,9973.0
9780,0.3081780672073364,-7.398988723754883,-81,5972.0,49.45459747314453,846,9973.0
9790,0.308590829372406,2.5528993606567383,71,5972.0,60.251407623291016,964,9973.0
9800,0.3088168203830719,4.3889617919921875,138,5972.0,53.60127258300781,774,9973.0
9810,0.30918893218040466,6.797840118408203,37,5972.0,38.0408935546875,453,9973.0
9820,0.3101353943347931,8.724143028259277,210,5972.0,14.474262237548828,161,9973.0
9830,0.3105308413505554,8.294069290161133,157,5972.0,-16.806760787963867,-461,9973.0
9840,0.3117716610431671,-0.6048067212104797,-145,5972.0,-41.594398498535156,-698,9973.0
9850,0.3122132122516632,-9.18762493133545,-87,5972.0,-50.21900177001953,-875,9973.0
9860,0.31252020597457886,-14.024714469909668,-320,5972.0,-53.67601013183594,-831,9973.0
9870,0.3127630650997162,-12.582669258117676,-132,5972.0,-38.5566291809082,-574,9973.0
9880,0.3143375813961029,-5.6969804763793945,-112,5972.0,-19.523839950561523,-194,9973.0
9890,0.3146563470363617,5.10278844833374,226,5972.0,-0.966127336025238,51,9973.0
9900,0.31504708528518677,18.878498077392578,292,5972.0,12.242281913757324,287,9973.0
9910,0.3153868019580841,30.239944458007812,600,5972.0,20.4959774017334,347,9973.0
9920,0.31531989574432373,28.637895584106445,384,5972.0,24.386171340942383,382,9973.0
9930,0.31542593240737915,16.749591827392578,229,5972.0,19.276229858398438,307,9973.0
9940,0.31545209884643555,-8.488320350646973,-256,5972.0,17.733491897583008,258,9973.0
9950,0.3159109652042389,-32.424015045166016,-541,5972.0,18.049362182617188,267,9973.0
9960,0.3164827525615692,-44.61387252807617,-759,5972.0,11.141276359558105,110,9973.0
9970,0.3186175525188446,-40.15999984741211,-594,5972.0,-6.41803503036499,-65,9973.0
9980,0.319387286901474,-32.234703063964844,-451,5972.0,-8.425585746765137,-213,9973.0
9990,0.31998273730278015,-14.848776817321777,-173,5972.0,-7.880545616149902,-120,9973.0
10000,0.3206416368484497,-2.444065570831299,57,5972.0,-16.287254333496094,-274,9973.0
10010,0.321233868598938,0.3699749708175659,-37,5972.0,-23.323196411132812,-492,9973.0
10020,0.32186391949653625,-1.6928318738937378,-64,5972.0,-18.255062103271484,-143,9973.0
10030,0.3223535120487213,-7.38939094543457,-75,5972.0,-10.997278213500977,-175,9973.0
10040,0.3227253556251526,-14.44001579284668,-299,5972.0,-10.514636993408203,-248,9973.0
10050,0.3230486512184143,-9.6586275100708,7,5972.0,-15.743850708007812,-176,9973.0
10060,0.32497265934944153,7.505284309387207,326,5972.0,-20.352750778198242,-338,9973.0
10070,0.32543155550956726,29.691946029663086,460,5972.0,-3.40358304977417,63,9973.0
10080,0.3259122371673584,37.710205078125,631,5972.0,16.53108787536621,382,9973.0
10090,0.32658475637435913,29.49930763244629,392,5972.0,26.219669342041016,310,9973.0
10100,0.327578604221344,14.207947731018066,86,5972.0,27.73728370666504,495,9973.0
10110,0.3285501301288605,-12.921501159667969,-368,5972.0,25.508926391601562,330,9973.0
10120,0.3293939530849457,-35.073204040527344,-617,5972.0,14.073400497436523,220,9973.0
10130,0.3303578197956085,-38.35239028930664,-495,5972.0,-2.9918758869171143,-56,9973.0
10140,0.3311942219734192,-16.6439208984375,-167,5972.0,-7.013359546661377,-130,9973.0
10150,0.3332563042640686,17.359180450439453,434,5972.0,11.121621131896973,282,9973.0
10160,0.3343288004398346,43.39154815673828,878,5972.0,18.371746063232422,340,9973.0
10170,0.335138738155365,56.994728088378906,895,5972.0,7.617880344390869,-146,9973.0
10180,0.33585700392723083,51.89757537841797,767,5972.0,-19.836376190185547,-388,9973.0
10190,0.33712029457092285,30.666866302490234,402,5972.0,-41.69208908081055,-791,9973.0
10200,0.33765119314193726,3.4964523315429688,-114,5972.0,-48.48139953613281,-673,9973.0
10210,0.3380875587463379,-18.20552635192871,-361,5972.0,-41.201847076416016,-681,9973.0
10220,0.338360995054245,-27.803241729736328,-466,5972.0,-29.121702194213867,-304,9973.0
10230,0.3394852578639984,-30.59334373474121,-539,5972.0,-15.325547218322754,-328,9973.0
10240,0.33985233306884766,-23.603940963745117,-282,5972.0,-4.108857154846191,130,9973.0
10250,0.3403337299823761,-3.692200183868408,4,5972.0,18.206315994262695,315,9973.0
10260,0.34095335006713867,20.225296020507812,423,5972.0,43.4798583984375,866,9973.0
10270,0.3416723906993866,33.95594024658203,550,5972.0,53.583900451660156,822,9973.0
10280,0.3415115475654602,35.319000244140625,565,5972.0,55.18414306640625,992,9973.0
10290,0.34235885739326477,23.007369995117188,270,5972.0,52.95109558105469,833,9973.0
10300,0.3431873321533203,3.81845760345459,-32,5972.0,50.0754508972168,844,9973.0
10310,0.34429502487182617,-12.04800796508789,-234,5972.0,36.135921478271484,457,9973.0
10320,0.3467697501182556,-26.333606719970703,-514,5972.0,10.554060935974121,23,9973.0
10330,0.3477077782154083,-25.64038848876953,-369,5972.0,-11.993552207946777,-128,9973.0
10340,0.3486620783805847,-18.64119529724121,-334,5972.0,-22.139366149902344,-502,9973.0
10350,0.34932345151901245,-14.25523567199707,-206,5972.0,-24.728891372680664,-311,9973.0
10360,0.3500167727470398,-10.815733909606934,-135,5972.0,-26.51519775390625,-567,9973.0
10370,0.35112836956977844,-3.0025877952575684,-45,5972.0,-28.892303466796875,-320,9973.0
10380,0.35164228081703186,7.203607559204102,197,5972.0,-17.639123916625977,-317,9973.0
10390,0.35206183791160583,14.624429702758789,259,5972.0,-6.983423233032227,3,9973.0
10400,0.3522703945636749,15.573792457580566,214,5972.0,8.939908027648926,194,9973.0
10410,0.3510948121547699,15.161382675170898,283,5972.0,18.493928909301758,315,9973.0
10420,0.3510453402996063,12.054722785949707,155,5972.0,19.94109535217285,305,9973.0
10430,0.3511102497577667,9.126714706420898,120,5972.0,8.98685073852539,15,9973.0
10440,0.3511234521865845,5.203038215637207,103,5972.0,0.4135498106479645,80,9973.0
10450,0.3514057993888855,4.929078578948975,47,5972.0,-6.655346870422363,-250,9973.0
10460,0.3515249192714691,2.867638349533081,72,5972.0,-21.032405853271484,-392,9973.0
10470,0.35161736607551575,-6.626476764678955,-238,5972.0,-25.427038192749023,-375,9973.0
10480,0.3518282175064087,-22.412626266479492,-414,5972.0,-24.453763961791992,-508,9973.0
10490,0.3520694077014923,-29.54978370666504,-463,5972.0,-19.905424118041992,-191,9973.0
10500,0.35096144676208496,-24.2144832611084,-359,5972.0,-6.660031318664551,-119,9973.0
10510,0.3515283167362213,-3.8526723384857178,124,5972.0,11.855827331542969,314,9973.0
10520,0.35190799832344055,27.507963180541992,521,5972.0,30.72926139831543,544,9973.0
10530,0.35213008522987366,48.55759048461914,916,5972.0,41.220760345458984,680,9973.0
10540,0.3510604798793793,50.8683967590332,658,5972.0,46.0142936706543,812,9973.0
10550,0.3510259985923767,31.24018669128418,450,5972.0,42.290252685546875,600,9973.0
10560,0.3516825735569,5.9787492752075195,-47,5972.0,21.0417537689209,325,9973.0
10570,0.35183849930763245,-18.119020462036133,-329,5972.0,-3.189310312271118,-203,9973.0
10580,0.3508167862892151,-23.423349380493164,-455,5972.0,-28.593210220336914,-496,9973.0
10590,0.3506849408149719,-22.96680450439453,-328,5972.0,-48.44438552856445,-915,9973.0
10600,0.35036250948905945,-15.959233283996582,-212,5972.0,-61.20361328125,-901,9973.0
10610,0.35002100467681885,-6.958131313323975,-94,5972.0,-62.51112747192383,-1141,9973.0
10620,0.3496738374233246,-2.2750937938690186,17,5972.0,-57.13638687133789,-712,9973.0
10630,0.3475556969642639,0.9473868608474731,-48,5972.0,-36.22978210449219,-474,9973.0
10640,0.3476715385913849,-2.5994248390197754,-61,5972.0,-12.24595832824707,-121,9973.0
10650,0.3474085330963135,-15.576885223388672,-325,5972.0,12.296284675598145,419,9973.0
10660,0.3472617566585541,-24.166288375854492,-440,5972.0,26.941570281982422,456,9973.0
10670,0.34515953063964844,-23.414012908935547,-300,5972.0,37.60879898071289,742,9973.0
10680,0.3450964689254761,-9.113560676574707,-87,5972.0,47.90861511230469,675,9973.0
10690,0.3449613153934479,14.121772766113281,415,5972.0,47.247501373291016,832,9973.0
10700,0.3450692594051361,32.12811279296875,576,5972.0,35.99417495727539,452,9973.0
10710,0.3450491428375244,28.213356018066406,312,5972.0,24.43478012084961,334,9973.0
10720,0.34375521540641785,12.945755958557129,180,5972.0,14.1981782913208,138,9973.0
10730,0.3440213203430176,-5.95977258682251,-204,5972.0,0.7899852395057678,-119,9973.0
10740,0.34410563111305237,-15.515816688537598,-191,5972.0,-11.490270614624023,-223,9973.0
10750,0.34438931941986084,-6.9049248695373535,-129,5972.0,-33.66935729980469,-617,9973.0
10760,0.34451162815093994,0.947559118270874,135,5972.0,-52.5273323059082,-888,9973.0
10770,0.34452953934669495,8.047150611877441,91,5972.0,-56.9674072265625,-834,9973.0
10780,0.3445580303668976,8.015246391296387,140,5972.0,-46.652130126953125,-808,9973.0
10790,0.3445919454097748,-1.814507246017456,-102,5972.0,-25.679197311401367,-214,9973.0
10800,0.3451175093650818,-16.447891235351562,-383,5972.0,-6.161564826965332,-96,9973.0
10810,0.3434365391731262,-27.743999481201172,-429,5972.0,3.826179027557373,18,9973.0
10820,0.3437232971191406,-29.037126541137695,-474,5972.0,5.058347702026367,104,9973.0
10830,0.34422430396080017,-26.64732551574707,-429,5972.0,4.306058406829834,-13,9973.0
10840,0.34512293338775635,-26.51769256591797,-446,5972.0,6.438947677612305,271,9973.0
10850,0.3447186350822449,-23.93579864501953,-325,5972.0,16.418426513671875,250,9973.0
10860,0.3454708456993103,-6.255353927612305,16,5972.0,29.7054500579834,576,9973.0
10870,0.3462488353252411,19.8936824798584,472,5972.0,39.631404876708984,707,9973.0
10880,0.3470200002193451,37.921142578125,604,5972.0,50.968021392822266,798,9973.0
10890,0.34800809621810913,47.06178665161133,856,5972.0,42.98748779296875,692,9973.0
10900,0.3483037054538727,40.85062026977539,521,5972.0,26.970169067382812,257,9973.0
10910,0.34926506876945496,17.56348991394043,169,5972.0,12.388391494750977,211,9973.0
10920,0.3495674133300781,-14.545018196105957,-402,5972.0,-3.9326913356781006,-217,9973.0
10930,0.3498724102973938,-26.24325942993164,-387,5972.0,-25.92058563232422,-391,9973.0
10940,0.3512521982192993,-12.967906951904297,-185,5972.0,-43.19321823120117,-895,9973.0
10950,0.3512691557407379,0.9652087688446045,121,5972.0,-50.450355529785156,-768,9973.0
10960,0.3513380289077759,14.615803718566895,210,5972.0,-43.0626106262207,-582,9973.0
10970,0.3513447642326355,8.310281753540039,91,5972.0,-16.2045841217041,-232,9973.0
10980,0.35156625509262085,-5.345932960510254,-103,5972.0,9.300642013549805,349,9973.0
10990,0.3516468107700348,-21.348831176757812,-531,5972.0,25.724445343017578,479,9973.0
11000,0.3516494929790497,-39.251609802246094,-660,5972.0,24.198331832885742,300,9973.0
11010,0.35176700353622437,-47.977455139160156,-825,5972.0,17.411855697631836,305,9973.0
11020,0.35155096650123596,-42.39688491821289,-617,5972.0,13.818918228149414,203,9973.0
11030,0.35164493322372437,-21.24964141845703,-261,5972.0,18.746597290039062,348,9973.0
11040,0.3518587648868561,9.28531551361084,362,5972.0,16.645553588867188,251,9973.0
11050,0.3521253168582916,24.48865509033203,281,5972.0,11.347286224365234,158,9973.0
11060,0.35245537757873535,22.82231330871582,440,5972.0,3.3040573596954346,-33,9973.0
11070,0.354889839887619,17.337072372436523,205,5972.0,-5.110844135284424,-71,9973.0
11080,0.3556256592273712,7.393856525421143,119,5972.0,-1.0272215604782104,46,9973.0
11090,0.3561634421348572,-3.402994394302368,-187,5972.0,-1.4347559213638306,-64,9973.0
11100,0.35656365752220154,-17.373279571533203,-251,5972.0,-6.281987190246582,-132,9973.0
11110,0.3584907650947571,-20.109825134277344,-380,5972.0,-15.426474571228027,-196,9973.0
11120,0.3587046265602112,-23.342479705810547,-345,5972.0,-16.81923484802246,-261,9973.0
11130,0.35874900221824646,-26.206998825073242,-478,5972.0,-10.6304349899292,-131,9973.0
11140,0.35902509093284607,-26.154739379882812,-384,5972.0,-3.594123125076294,-51,9973.0
11150,0.35926708579063416,-24.925437927246094,-442,5972.0,-0.9743053913116455,11,9973.0
11160,0.36038094758987427,-18.500089645385742,-203,5972.0,-11.636162757873535,-315,9973.0
11170,0.3607197403907776,-6.902057647705078,-157,5972.0,-29.403892517089844,-468,9973.0
11180,0.36114758253097534,4.254663944244385,153,5972.0,-33.944026947021484,-572,9973.0
11190,0.36170336604118347,8.608011245727539,117,5972.0,-29.186227798461914,-327,9973.0
11200,0.3636407256126404,18.480642318725586,426,5972.0,-17.112930297851562,-338,9973.0
11210,0.36429399251937866,37.58145523071289,619,5972.0,-10.705011367797852,-94,9973.0
11220,0.3648720979690552,43.46509552001953,750,5972.0,-2.1405508518218994,-80,9973.0
11230,0.3655356466770172,44.345542907714844,784,5972.0,10.150338172912598,289,9973.0
11240,0.365254282951355,36.72783660888672,444,5972.0,20.621198654174805,509,9973.0
11250,0.3656516969203949,17.011690139770508,261,5972.0,36.81250762939453,546,9973.0
11260,0.36593732237815857,1.3251063823699951,-36,5972.0,43.04355239868164,779,9973.0
11270,0.3659537732601166,-6.137118339538574,-209,5972.0,37.795433044433594,526,9973.0
11280,0.3660080134868622,-8.612991333007812,20,5972.0,29.82320213317871,394,9973.0
11290,0.36608120799064636,3.3365914821624756,103,5972.0,14.345629692077637,172,9973.0
11300,0.365953266620636,15.273529052734375,322,5972.0,2.8131332397460938,-84,9973.0
11310,0.3658163547515869,16.75803565979004,216,5972.0,-9.458514213562012,-221,9973.0
11320,0.36563530564308167,6.176353454589844,29,5972.0,-26.432893753051758,-513,9973.0
11330,0.3641032576560974,-15.720902442932129,-311,5972.0,-26.93061637878418,-398,9973.0
11340,0.36388710141181946,-41.834449768066406,-896,5972.0,-34.64658737182617,-607,9973.0
11350,0.36358457803726196,-58.38304901123047,-871,5972.0,-32.2556037902832,-572,9973.0
11360,0.36300283670425415,-53.00127410888672,-832,5972.0,-26.64661979675293,-322,9973.0
11370,0.36281099915504456,-41.66423416137695,-560,5972.0,-15.192920684814453,-164,9973.0
11380,0.3633584976196289,-17.98567008972168,-156,5972.0,4.131942272186279,96,9973.0
11390,0.3634122908115387,12.140105247497559,391,5972.0,20.946779251098633,422,9973.0
11400,0.3636400103569031,44.48451614379883,886,5972.0,35.973628997802734,598,9973.0
11410,0.3637198507785797,68.78001403808594,1124,5972.0,37.9932746887207,565,9973.0
11420,0.36426228284835815,80.33451843261719,1347,5972.0,36.42425537109375,659,9973.0
11430,0.3640190660953522,75.22022247314453,1099,5972.0,36.177337646484375,460,9973.0
11440,0.3638327419757843,52.513031005859375,765,5972.0,31.494104385375977,552,9973.0
11450,0.3634965121746063,24.119503021240234,204,5972.0,25.158079147338867,318,9973.0
11460,0.36336228251457214,-5.378831386566162,-176,5972.0,12.510787963867188,214,9973.0
11470,0.3625156283378601,-28.120460510253906,-602,5972.0,1.0241265296936035,-107,9973.0
11480,0.36204642057418823,-31.581226348876953,-454,5972.0,-17.243209838867188,-323,9973.0
11490,0.3615891635417938,-26.31501579284668,-417,5972.0,-35.64936447143555,-784,9973.0
11500,0.36104658246040344,-27.3011531829834,-463,5972.0,-48.39082336425781,-720,9973.0
11510,0.36030516028404236,-28.516197204589844,-451,5972.0,-48.86834716796875,-806,9973.0
11520,0.3598077595233917,-28.215381622314453,-474,5972.0,-42.26831817626953,-661,9973.0
11530,0.3596246540546417,-17.641857147216797,-165,5972.0,-35.4711799621582,-567,9973.0
11540,0.3597986698150635,-7.232245445251465,-196,5972.0,-20.371702194213867,-207,9973.0
11550,0.35866579413414,-6.59355354309082,-24,5972.0,5.64023494720459,234,9973.0
11560,0.3586116433143616,-8.690725326538086,-184,5972.0,29.526485443115234,453,9973.0
11570,0.3585132658481598,-4.311284065246582,45,5972.0,44.91714859008789,912,9973.0
11580,0.3585273325443268,11.406152725219727,279,5972.0,56.090179443359375,935,9973.0
11590,0.3586694002151489,34.04549789428711,624,5972.0,59.20547866821289,898,9973.0
11600,0.35879334807395935,58.71357727050781,1079,5972.0,51.900943756103516,866,9973.0
11610,0.35868188738822937,68.76354217529297,1166,5972.0,41.636478424072266,610,9973.0
11620,0.35943472385406494,54.298744201660156,770,5972.0,20.196821212768555,95,9973.0
11630,0.3593676686286926,25.224197387695312,227,5972.0,-4.966161251068115,-137,9973.0
11640,0.3579917252063751,-5.978033065795898,-186,5972.0,-28.42203140258789,-500,9973.0
11650,0.35803061723709106,-29.82219886779785,-588,5972.0,-46.44890213012695,-970,9973.0
11660,0.357856810092926,-35.59236526489258,-587,5972.0,-51.25331497192383,-721,9973.0
11670,0.3577178716659546,-33.95871353149414,-536,5972.0,-40.31059646606445,-613,9973.0
11680,0.3597794771194458,-33.066200256347656,-623,5972.0,-22.361202239990234,-281,9973.0
11690,0.35988980531692505,-34.705360412597656,-470,5972.0,-8.383698463439941,-100,9973.0
11700,0.36034899950027466,-26.422443389892578,-384,5972.0,1.2480911016464233,-53,9973.0
11710,0.3606962561607361,-6.624631881713867,12,5972.0,6.477999687194824,275,9973.0
11720,0.3613761067390442,13.881725311279297,324,5972.0,18.81049156188965,269,9973.0
11730,0.36249974370002747,15.591830253601074,171,5972.0,33.1547966003418,583,9973.0
11740,0.3633747696876526,12.71256160736084,208,5972.0,42.87260818481445,792,9973.0
11750,0.36415547132492065,13.78796100616455,299,5972.0,37.842010498046875,504,9973.0
11760,0.3651992082595825,23.526870727539062,337,5972.0,29.263866424560547,391,9973.0
11770,0.3640081584453583,36.1114616394043,675,5972.0,26.045669555664062,492,9973.0
11780,0.36446496844291687,34.723751068115234,488,5972.0,18.084257125854492,141,9973.0
11790,0.36572393774986267,15.285958290100098,79,5972.0,-2.1118054389953613,-122,9973.0
11800,0.36652663350105286,-10.156421661376953,-179,5972.0,-29.320167541503906,-633,9973.0
11810,0.3671320080757141,-26.09722137451172,-560,5972.0,-50.81704330444336,-941,9973.0
11820,0.3657861351966858,-39.614749908447266,-657,5972.0,-65.68850708007812,-1044,9973.0
11830,0.36622145771980286,-49.93825149536133,-872,5972.0,-64.10980224609375,-1032,9973.0
11840,0.36633366346359253,-50.83418655395508,-753,5972.0,-47.8251953125,-683,9973.0
11850,0.36615097522735596,-43.36107635498047,-667,5972.0,-26.879619598388672,-422,9973.0
11860,0.36567097902297974,-26.49883270263672,-295,5972.0,-16.317283630371094,-241,9973.0
11870,0.36605069041252136,-2.4666473865509033,-12,5972.0,-6.13315486907959,-87,9973.0
11880,0.3666054308414459,15.671794891357422,394,5972.0,1.959381341934204,111,9973.0
11890,0.3675056993961334,29.84134864807129,455,5972.0,10.147448539733887,127,9973.0
11900,0.36578842997550964,30.845531463623047,525,5972.0,18.744537353515625,471,9973.0
11910,0.36647066473960876,20.070877075195312,205,5972.0,27.71669578552246,376,9973.0
11920,0.3671371340751648,2.840394973754883,38,5972.0,27.804292678833008,436,9973.0
11930,0.3677399754524231,-3.1504063606262207,-94,5972.0,14.12431812286377,90,9973.0
11940,0.36842626333236694,0.7509554028511047,57,5972.0,-0.2678663432598114,26,9973.0
11950,0.36977291107177734,11.559399604797363,237,5972.0,-4.195672988891602,-89,9973.0
11960,0.37020939588546753,18.883756637573242,273,5972.0,-3.235098361968994,90,9973.0
11970,0.3704652786254883,24.236968994140625,484,5972.0,11.022418022155762,278,9973.0
11980,0.37054353952407837,24.222883224487305,285,5972.0,20.005544662475586,436,9973.0
11990,0.37075352668762207,13.513065338134766,198,5972.0,21.934974670410156,327,9973.0
12000,0.3706759810447693,1.6988945007324219,-154,5972.0,14.58604621887207,217,9973.0
12010,0.37047675251960754,-11.61686897277832,-175,5972.0,11.02568244934082,233,9973.0
12020,0.37036994099617004,-10.063541412353516,-192,5972.0,2.7748286724090576,-167,9973.0
12030,0.37020519375801086,-2.4464282989501953,-25,5972.0,-13.413581848144531,-123,9973.0
12040,0.3702857494354248,-5.789400100708008,-185,5972.0,-14.0531587600708,-249,9973.0
12050,0.37012431025505066,-9.426998138427734,-150,5972.0,-10.447744369506836,-110,9973.0
12060,0.3699643909931183,-8.908452987670898,-214,5972.0,-13.410377502441406,-329,9973.0
12070,0.369905024766922,-11.269445419311523,-113,5972.0,-25.812829971313477,-454,9973.0
12080,0.3683522045612335,-20.17490577697754,-519,5972.0,-26.570953369140625,-379,9973.0
12090,0.3683306872844696,-35.97861099243164,-632,5972.0,-15.533013343811035,-198,9973.0
12100,0.36830827593803406,-34.32627868652344,-597,5972.0,-8.5424165725708,-51,9973.0
12110,0.3686372935771942,-7.225307464599609,119,5972.0,-0.4711214005947113,54,9973.0
12120,0.3661644160747528,22.605077743530273,379,5972.0,14.36467170715332,278,9973.0
12130,0.3661423921585083,35.09695816040039,639,5972.0,29.97732162475586,658,9973.0
12140,0.36591875553131104,38.60984802246094,632,5972.0,44.57065200805664,709,9973.0
12150,0.36539337038993835,33.81279754638672,492,5972.0,52.58584213256836,933,9973.0
12160,0.36557453870773315,28.87116050720215,493,5972.0,42.7489128112793,601,9973.0
12170,0.3643440306186676,22.820358276367188,275,5972.0,25.15482521057129,355,9973.0
12180,0.3637444078922272,11.486048698425293,131,5972.0,2.7994120121002197,47,9973.0
12190,0.3633943796157837,0.6252749562263489,-94,5972.0,-24.470857620239258,-591,9973.0
12200,0.3628484010696411,-9.286211967468262,-213,5972.0,-44.53968048095703,-695,9973.0
12210,0.36146631836891174,-21.768972396850586,-384,5972.0,-48.18624496459961,-841,9973.0
12220,0.36101382970809937,-34.263824462890625,-644,5972.0,-42.24967956542969,-569,9973.0
12230,0.3605700731277466,-45.546504974365234,-735,5972.0,-34.799537658691406,-591,9973.0
12240,0.3603527545928955,-46.52935028076172,-778,5972.0,-26.51476287841797,-350,9973.0
12250,0.3601717948913574,-41.539794921875,-561,5972.0,-17.39527130126953,-282,9973.0
12260,0.35842567682266235,-27.460180282592773,-458,5972.0,-18.464115142822266,-283,9973.0
12270,0.3583609461784363,-12.045406341552734,-77,5972.0,-14.902389526367188,-94,9973.0
12280,0.3587244749069214,2.7898831367492676,121,5972.0,1.3330243825912476,-25,9973.0
12290,0.358977347612381,26.504732131958008,492,5972.0,13.234464645385742,410,9973.0
12300,0.35632577538490295,44.23403549194336,855,5972.0,27.98155403137207,398,9973.0
12310,0.35623612999916077,44.58205032348633,615,5972.0,37.74278259277344,697,9973.0
12320,0.3563878536224365,33.80073547363281,549,5972.0,44.67118453979492,816,9973.0
12330,0.3561272621154785,22.285449981689453,250,5972.0,45.67787170410156,549,9973.0
12340,0.35559186339378357,7.131025791168213,31,5972.0,15.243488311767578,194,9973.0
12350,0.3556689918041229,-12.500993728637695,-258,5972.0,-22.25376319885254,-612,9973.0
12360,0.3557094931602478,-27.85552215576172,-558,5972.0,-50.15730285644531,-873,9973.0
12370,0.3556365668773651,-38.215003967285156,-581,5972.0,-57.402034759521484,-905,9973.0
12380,0.35547640919685364,-42.05167770385742,-744,5972.0,-53.34339141845703,-957,9973.0
12390,0.3543429970741272,-38.46080780029297,-517,5972.0,-46.02654266357422,-634,9973.0
12400,0.3547579050064087,-18.42422866821289,-210,5972.0,-37.46630096435547,-645,9973.0
12410,0.3551674485206604,2.0962045192718506,12,5972.0,-24.222949981689453,-279,9973.0
12420,0.35582372546195984,11.924907684326172,342,5972.0,-8.444327354431152,-46,9973.0
12430,0.354232519865036,15.408927917480469,153,5972.0,2.4459264278411865,37,9973.0
12440,0.35487788915634155,9.181763648986816,162,5972.0,6.337936878204346,263,9973.0
12450,0.3556371331214905,0.6780862212181091,-36,5972.0,22.85230255126953,376,9973.0
12460,0.35640668869018555,5.590532302856445,152,5972.0,49.431636810302734,981,9973.0
12470,0.35698163509368896,19.402469635009766,467,5972.0,67.04047393798828,1102,9973.0
12480,0.3568229675292969,33.58573913574219,540,5972.0,65.78330993652344,897,9973.0
12490,0.3571944534778595,37.8012580871582,653,5972.0,45.978816986083984,753,9973.0
12500,0.3576485514640808,28.209665298461914,426,5972.0,24.203264236450195,257,9973.0
12510,0.35804516077041626,14.966938972473145,120,5972.0,0.560392439365387,-148,9973.0
12520,0.35900309681892395,0.9589358568191528,3,5972.0,-20.75653839111328,-269,9973.0
12530,0.3593460023403168,-9.296639442443848,-178,5972.0,-33.73324966430664,-651,9973.0
12540,0.35960403084754944,-16.475391387939453,-367,5972.0,-35.704742431640625,-480,9973.0
12550,0.35978445410728455,-22.609601974487305,-308,5972.0,-30.274166107177734,-502,9973.0
12560,0.36110082268714905,-19.313840866088867,-332,5972.0,-13.856939315795898,-10,9973.0
12570,0.36175698041915894,-18.110004425048828,-230,5972.0,7.942562580108643,178,9973.0
12580,0.3621363937854767,-20.4502010345459,-391,5972.0,20.604957580566406,470,9973.0
12590,0.36273685097694397,-31.870677947998047,-556,5972.0,34.869293212890625,647,9973.0
12600,0.3631149232387543,-44.51959991455078,-790,5972.0,47.95068359375,741,9973.0
12610,0.36431020498275757,-42.56455993652344,-547,5972.0,37.75579071044922,588,9973.0
12620,0.36535122990608215,-25.174577713012695,-246,5972.0,7.570380687713623,-45,9973.0
12630,0.36625537276268005,-3.837113380432129,12,5972.0,-11.620979309082031,-267,9973.0
12640,0.367209792137146,10.348936080932617,246,5972.0,-7.064931869506836,-39,9973.0
12650,0.3691003620624542,25.98337745666504,586,5972.0,4.636650562286377,157,9973.0
12660,0.3700912296772003,44.36798095703125,778,5972.0,11.313103675842285,92,9973.0
12670,0.3708880543708801,58.11832809448242,987,5972.0,8.28699016571045,197,9973.0
12680,0.3715856969356537,48.38505172729492,635,5972.0,-0.5537705421447754,-173,9973.0
12690,0.3722550868988037,22.92219352722168,205,5972.0,-5.029076099395752,-87,9973.0
12700,0.3721589744091034,-8.491205215454102,-297,5972.0,-8.495600700378418,-253,9973.0
12710,0.3724282681941986,-22.879507064819336,-294,5972.0,-16.824420928955078,-351,9973.0
12720,0.37254026532173157,-16.68143081665039,-270,5972.0,-24.51685905456543,-367,9973.0
12730,0.3726710081100464,-7.756271839141846,0,5972.0,-27.3789119720459,-504,9973.0
12740,0.37355664372444153,4.695013999938965,161,5972.0,-24.494274139404297,-348,9973.0
12750,0.3734996020793915,18.479129791259766,367,5972.0,-14.994233131408691,-243,9973.0
12760,0.3738468289375305,27.13067626953125,423,5972.0,1.2344523668289185,199,9973.0
12770,0.3740547299385071,20.476268768310547,246,5972.0,18.99078369140625,234,9973.0
12780,0.37500086426734924,-2.774369716644287,-193,5972.0,26.82111930847168,548,9973.0
12790,0.3753986656665802,-30.322093963623047,-705,5972.0,29.085668563842773,408,9973.0
12800,0.37570157647132874,-44.2939453125,-702,5972.0,18.912086486816406,319,9973.0
12810,0.3762892484664917,-36.952266693115234,-535,5972.0,8.793251991271973,12,9973.0
12820,0.37664905190467834,-13.041545867919922,-198,5972.0,-2.13569974899292,1,9973.0
12830,0.37741294503211975,11.565742492675781,362,5972.0,2.2987022399902344,127,9973.0
12840,0.37765073776245117,35.27605438232422,627,5972.0,9.72421932220459,32,9973.0
12850,0.37782567739486694,43.767459869384766,737,5972.0,13.8230562210083,369,9973.0
12860,0.3779568076133728,40.71973419189453,716,5972.0,16.95855140686035,120,9973.0
12870,0.3784920871257782,38.103328704833984,543,5972.0,8.925163269042969,177,9973.0
12880,0.37845608592033386,27.335546493530273,478,5972.0,0.3339393734931946,-89,9973.0
12890,0.3783020079135895,25.15591812133789,369,5972.0,-12.149836540222168,-207,9973.0
12900,0.37806814908981323,14.555631637573242,239,5972.0,-27.232973098754883,-566,9973.0
12910,0.3777141869068146,5.766733169555664,90,5972.0,-36.98283767700195,-606,9973.0
12920,0.377311110496521,-6.639350891113281,-164,5972.0,-45.859580993652344,-809,9973.0
12930,0.3768448531627655,-11.775501251220703,-106,5972.0,-39.688228607177734,-544,9973.0
12940,0.3765403628349304,-14.179847717285156,-291,5972.0,-24.155885696411133,-311,9973.0
12950,0.37636324763298035,-20.685609817504883,-441,5972.0,-13.498770713806152,-186,9973.0
12960,0.3752772808074951,-43.66642379760742,-752,5972.0,3.6297309398651123,149,9973.0
12970,0.3751588761806488,-59.301963806152344,-1059,5972.0,21.40355682373047,414,9973.0
12980,0.37552717328071594,-47.22388458251953,-627,5972.0,35.62034225463867,723,9973.0
12990,0.37539026141166687,-19.977405548095703,-238,5972.0,40.40768051147461,592,9973.0
13000,0.37568894028663635,5.609899520874023,162,5972.0,40.467811584472656,649,9973.0
13010,0.3761052191257477,28.47593116760254,482,5972.0,31.374643325805664,559,9973.0
13020,0.37620338797569275,26.811229705810547,418,5972.0,14.62308120727539,63,9973.0
13030,0.37620437145233154,22.853042602539062,284,5972.0,0.8673793077468872,-23,9973.0
13040,0.3762184679508209,17.108922958374023,314,5972.0,-17.84954071044922,-367,9973.0
13050,0.3744041323661804,12.990874290466309,200,5972.0,-34.41019058227539,-643,9973.0
13060,0.37406545877456665,14.132943153381348,243,5972.0,-47.0897102355957,-726,9973.0
13070,0.37348219752311707,11.93354606628418,156,5972.0,-47.78425979614258,-754,9973.0
13080,0.3731222450733185,8.304715156555176,166,5972.0,-35.823829650878906,-469,9973.0
13090,0.3720152974128723,8.219162940979004,97,5972.0,-17.397197723388672,-222,9973.0
13100,0.3715759217739105,16.56355857849121,387,5972.0,-6.927829265594482,-88,9973.0
13110,0.3713110089302063,30.30620765686035,535,5972.0,4.855998516082764,221,9973.0
13120,0.3712204694747925,37.107177734375,634,5972.0,19.378456115722656,287,9973.0
13130,0.36984339356422424,32.964744567871094,517,5972.0,32.892738342285156,621,9973.0
13140,0.3700636923313141,17.944915771484375,44,5972.0,34.09422302246094,576,9973.0
13150,0.3701498508453369,-14.11169719696045,-250,5972.0,28.82762336730957,464,9973.0
13160,0.37022292613983154,-24.442642211914062,-478,5972.0,32.24543380737305,622,9973.0
13170,0.3702349066734314,-26.694303512573242,-330,5972.0,32.48912048339844,483,9973.0
13180,0.3696579039096832,-23.3853816986084,-441,5972.0,28.92852020263672,398,9973.0
13190,0.3695622682571411,-21.507266998291016,-316,5972.0,18.886123657226562,344,9973.0
13200,0.36937060952186584,-24.460222244262695,-448,5972.0,8.987293243408203,-56,9973.0
13210,0.3691059648990631,-25.591127395629883,-339,5972.0,-6.658895015716553,-112,9973.0
13220,0.36768296360969543,-16.519943237304688,-212,5972.0,-23.815134048461914,-490,9973.0
13230,0.3672962784767151,-2.691887855529785,-24,5972.0,-33.7437744140625,-536,9973.0
13240,0.3668740689754486,6.478219985961914,255,5972.0,-34.36963653564453,-499,9973.0
13250,0.3668353855609894,18.78361701965332,314,5972.0,-18.222736358642578,-153,9973.0
13260,0.3665902316570282,25.357301712036133,415,5972.0,-4.844892501831055,-75,9973.0
13270,0.36547398567199707,20.983173370361328,309,5972.0,1.22080659866333,122,9973.0
13280,0.3652946650981903,17.253271102905273,259,5972.0,7.588510990142822,78,9973.0
13290,0.36528611183166504,21.2733154296875,514,5972.0,15.887299537658691,396,9973.0
13300,0.3654416501522064,31.781965255737305,444,5972.0,31.737661361694336,622,9973.0
13310,0.3654926121234894,22.776546478271484,329,5972.0,44.04234313964844,717,9973.0
13320,0.36541929841041565,0.29604992270469666,-202,5972.0,51.82768249511719,994,9973.0
13330,0.36543363332748413,-35.75688171386719,-835,5972.0,55.81973648071289,856,9973.0
13340,0.3651263415813446,-64.0838623046875,-1052,5972.0,46.57513427734375,750,9973.0
13350,0.36495351791381836,-58.49017333984375,-771,5972.0,25.16630744934082,172,9973.0
13360,0.3643099069595337,-31.447534561157227,-388,5972.0,-2.613703489303589,-69,9973.0
13370,0.36379650235176086,-8.82282829284668,-12,5972.0,-19.68243980407715,-298,9973.0
13380,0.363328754901886,-1.6858065128326416,-92,5972.0,-29.6763916015625,-511,9973.0
13390,0.36276277899742126,-14.71695613861084,-288,5972.0,-28.44415855407715,-339,9973.0
13400,0.36105626821517944,-28.219552993774414,-486,5972.0,-19.706771850585938,-434,9973.0
13410,0.3604304790496826,-30.821645736694336,-491,5972.0,-22.47610092163086,-273,9973.0
13420,0.35983043909072876,-25.028135299682617,-375,5972.0,-25.55299186706543,-543,9973.0
13430,0.3593817353248596,-8.856682777404785,-53,5972.0,-31.286678314208984,-389,9973.0
13440,0.35886523127555847,13.00832462310791,298,5972.0,-31.733226776123047,-592,9973.0
13450,0.3585328757762909,24.17806053161621,420,5972.0,-27.020998001098633,-298,9973.0
13460,0.35797762870788574,25.6790771484375,365,5972.0,-18.64430809020996,-376,9973.0
13470,0.35776472091674805,21.15174674987793,335,5972.0,-7.964181900024414,23,9973.0
13480,0.3577677607536316,5.113875865936279,-60,5972.0,16.879199981689453,414,9973.0
13490,0.3574601411819458,-17.70294761657715,-318,5972.0,37.183921813964844,634,9973.0
13500,0.3574100136756897,-38.91012954711914,-750,5972.0,41.882808685302734,748,9973.0
13510,0.3572048842906952,-51.19810104370117,-801,5972.0,39.467926025390625,572,9973.0
13520,0.3568541407585144,-44.09089279174805,-690,5972.0,37.649574279785156,548,9973.0
13530,0.3588922619819641,-24.694677352905273,-319,5972.0,31.66111946105957,552,9973.0
13540,0.35853809118270874,-3.242929220199585,116,5972.0,17.4555721282959,183,9973.0
13550,0.3582676351070404,10.685171127319336,158,5972.0,3.310232639312744,-71,9973.0
13560,0.35783374309539795,15.9612398147583,230,5972.0,-8.684297561645508,-139,9973.0
13570,0.36097854375839233,8.822524070739746,184,5972.0,-19.473968505859375,-406,9973.0
13580,0.3607839345932007,0.31604817509651184,-52,5972.0,-24.129941940307617,-378,9973.0
13590,0.36060285568237305,4.231922626495361,146,5972.0,-21.46385955810547,-338,9973.0
13600,0.360453337430954,7.173089027404785,91,5972.0,-27.056934356689453,-597,9973.0
13610,0.360239714384079,5.680238246917725,181,5972.0,-32.29657745361328,-528,9973.0
13620,0.3620021641254425,5.941676139831543,16,5972.0,-31.210195541381836,-443,9973.0
13630,0.3622531592845917,12.553177833557129,323,5972.0,-24.621618270874023,-446,9973.0
13640,0.3624865412712097,22.81892204284668,397,5972.0,-10.688465118408203,19,9973.0
13650,0.36276912689208984,24.960050582885742,393,5972.0,6.972002983093262,58,9973.0
13660,0.3638995289802551,17.84105110168457,249,5972.0,16.920337677001953,308,9973.0
13670,0.3643955886363983,-3.4980552196502686,-238,5972.0,22.27977752685547,456,9973.0
13680,0.3649909794330597,-29.203033447265625,-495,5972.0,27.991491317749023,458,9973.0
13690,0.365336149930954,-30.28379249572754,-474,5972.0,22.737808227539062,353,9973.0
13700,0.3656907379627228,-17.591325759887695,-127,5972.0,18.711536407470703,337,9973.0
13710,0.3671574890613556,1.5742502212524414,-25,5972.0,25.667095184326172,408,9973.0
13720,0.367403119802475,9.047534942626953,254,5972.0,25.266807556152344,386,9973.0
13730,0.36749714612960815,11.87122631072998,188,5972.0,6.449253559112549,-94,9973.0
13740,0.36772578954696655,17.470909118652344,309,5972.0,-20.188800811767578,-412,9973.0
13750,0.36990344524383545,23.889997482299805,374,5972.0,-49.78474807739258,-1012,9973.0
13760,0.37004268169403076,26.210350036621094,412,5972.0,-62.027503967285156,-970,9973.0
13770,0.3701232075691223,11.997066497802734,63,5972.0,-62.248085021972656,-969,9973.0
13780,0.370402067899704,-3.4349119663238525,-91,5972.0,-53.48446273803711,-821,9973.0
13790,0.37122923135757446,-15.929442405700684,-273,5972.0,-31.6717586517334,-381,9973.0
13800,0.3717007040977478,-23.04440689086914,-472,5972.0,-17.08287239074707,-119,9973.0
13810,0.37226152420043945,-28.735136032104492,-458,5972.0,-5.497369766235352,-154,9973.0
13820,0.372596800327301,-31.753416061401367,-479,5972.0,4.22735071182251,157,9973.0
13830,0.37275880575180054,-32.96187973022461,-612,5972.0,14.065515518188477,245,9973.0
13840,0.373492568731308,-32.74153518676758,-419,5972.0,17.552438735961914,243,9973.0
13850,0.37376564741134644,-23.12643051147461,-383,5972.0,18.003816604614258,273,9973.0
13860,0.3740549087524414,-6.668490886688232,89,5972.0,21.084463119506836,437,9973.0
13870,0.37434864044189453,12.821139335632324,247,5972.0,24.084936141967773,301,9973.0
13880,0.3738676905632019,24.02131462097168,444,5972.0,20.932464599609375,395,9973.0
13890,0.37390854954719543,30.00065040588379,574,5972.0,18.254274368286133,299,9973.0
13900,0.37388089299201965,32.93838119506836,542,5972.0,10.393219947814941,-9,9973.0
13910,0.37379705905914307,35.33366394042969,574,5972.0,-2.1147947311401367,-80,9973.0
13920,0.37385138869285583,31.81184196472168,520,5972.0,-21.038331985473633,-554,9973.0
13930,0.3739870488643646,20.974937438964844,241,5972.0,-31.462881088256836,-484,9973.0
13940,0.37369757890701294,6.496234893798828,61,5972.0,-32.220977783203125,-535,9973.0
13950,0.37344181537628174,-8.951507568359375,-311,5972.0,-22.748966217041016,-275,9973.0
13960,0.3731793761253357,-20.981597900390625,-338,5972.0,-11.45301342010498,-190,9973.0
13970,0.37446755170822144,-26.91757583618164,-422,5972.0,-9.997841835021973,-198,9973.0
13980,0.37450936436653137,-19.489185333251953,-365,5972.0,-19.190481185913086,-320,9973.0
13990,0.3743612468242645,-20.025909423828125,-350,5972.0,-22.474824905395508,-417,9973.0
14000,0.3743444085121155,-17.081621170043945,-162,5972.0,-15.455366134643555,-109,9973.0
14010,0.3745083212852478,-1.7767150402069092,16,5972.0,-6.545163154602051,-99,9973.0
14020,0.37677571177482605,22.742557525634766,558,5972.0,-0.4356776475906372,159,9973.0
