timestamp,kalman.stateZ,gyro.x,gyro.xRaw,gyro.xVariance,gyro.y,gyro.yRaw,gyro.yVariance
0,0.28222066164016724,0.008897388353943825,2,5871.0,-0.13957639038562775,-4,9957.0
10,0.28228050470352173,0.07523158192634583,-6,5871.0,-0.17831699550151825,1,9957.0
20,0.28234240412712097,0.06366629153490067,-3,5871.0,-0.3573620915412903,-7,9957.0
30,0.28224122524261475,-0.1306038647890091,-2,5871.0,-0.5066688060760498,-9,9957.0
40,0.2822624146938324,-0.07787596434354782,-1,5871.0,-0.6960238814353943,-4,9957.0
50,0.2823125720024109,-0.2911244332790375,-5,5871.0,-0.7765946984291077,-17,9957.0
60,0.282451868057251,0.2051888406276703,-6,5871.0,-1.1047550439834595,-19,9957.0
70,0.2824869453907013,-0.043341293931007385,-1,5871.0,-1.3295873403549194,-17,9957.0
80,0.28268203139305115,0.14454838633537292,6,5871.0,-1.3121240139007568,-20,9957.0
90,0.28277692198753357,-0.17019988596439362,7,5871.0,-1.124275803565979,-22,9957.0
100,0.28284600377082825,0.24099767208099365,-4,5871.0,-1.4331226348876953,-20,9957.0
110,0.2829096019268036,0.29107505083084106,1,5871.0,-1.4723880290985107,-18,9957.0
120,0.2817502021789551,0.1622210443019867,-4,5871.0,-1.2617628574371338,-18,9957.0
130,0.2817287743091583,-0.027287635952234268,2,5871.0,-1.391449213027954,-18,9957.0
140,0.2817066013813019,0.04056795686483383,8,5871.0,-1.4331763982772827,-20,9957.0
150,0.28168144822120667,0.2683105766773224,4,5871.0,-1.218200445175171,-23,9957.0
160,0.2816544473171234,-0.15563927590847015,9,5871.0,-1.0641813278198242,-21,9957.0
170,0.28256163001060486,0.13825637102127075,-5,5871.0,-0.9996492266654968,-22,9957.0
180,0.28258293867111206,-0.38857951760292053,-7,5871.0,-0.813431978225708,-10,9957.0
190,0.2826067805290222,0.5835950970649719,27,5871.0,-0.614617645740509,-19,9957.0
200,0.28263959288597107,0.5169938206672668,-8,5871.0,-2.4247238636016846,-8,9957.0
210,0.28239402174949646,2.701157331466675,75,5871.0,-1.038812279701233,-54,9957.0
220,0.28244903683662415,3.0294315814971924,130,5871.0,-0.653384268283844,-53,9957.0
230,0.28252941370010376,7.050442695617676,195,5871.0,-1.2245733737945557,-94,9957.0
240,0.28265103697776794,10.823320388793945,208,5871.0,-4.694402694702148,-88,9957.0
250,0.2801932394504547,13.014363288879395,153,5871.0,2.30462646484375,-5,9957.0
260,0.2802434265613556,12.087154388427734,212,5871.0,-0.22638864815235138,63,9957.0
270,0.28030672669410706,10.855462074279785,238,5871.0,2.9950828552246094,-125,9957.0
280,0.28039467334747314,8.877406120300293,218,5871.0,4.3667683601379395,-132,9957.0
290,0.2805335223674774,7.15346097946167,215,5871.0,4.851797103881836,-131,9957.0
300,0.2816409766674042,6.021247863769531,118,5871.0,4.333423137664795,-136,9957.0
310,0.2818872630596161,3.941089391708374,-20,5871.0,2.872967004776001,15,9957.0
320,0.2822304368019104,1.6961132287979126,39,5871.0,1.192893147468567,75,9957.0
330,0.2826305627822876,0.47496652603149414,-75,5871.0,-0.13663582503795624,67,9957.0
340,0.28261250257492065,-2.2078399658203125,67,5871.0,0.7671704292297363,-143,9957.0
350,0.28297650814056396,-1.4788339138031006,-136,5871.0,-1.249497413635254,126,9957.0
360,0.28340473771095276,-2.3302907943725586,42,5871.0,2.0376908779144287,-107,9957.0
370,0.2839023172855377,-0.7472250461578369,-30,5871.0,0.1270039975643158,98,9957.0
380,0.28539031744003296,-0.4188808500766754,-33,5871.0,1.6557896137237549,30,9957.0
390,0.28597474098205566,0.47753891348838806,52,5871.0,2.4344165325164795,-73,9957.0
400,0.286567747592926,0.6173194050788879,-79,5871.0,1.1138538122177124,233,9957.0
410,0.28726625442504883,0.3807132840156555,68,5871.0,3.3985044956207275,-40,9957.0
420,0.2879200577735901,0.37719687819480896,-64,5871.0,4.029246807098389,97,9957.0
430,0.29024890065193176,-1.8166933059692383,-4,5871.0,7.793378829956055,120,9957.0
440,0.2910744845867157,-1.4000674486160278,-94,5871.0,6.037388324737549,197,9957.0
450,0.29182329773902893,-2.4232800006866455,87,5871.0,6.85232400894165,-2,9957.0
460,0.29245245456695557,-3.0761799812316895,-145,5871.0,7.243039131164551,217,9957.0
470,0.2937769889831543,-2.846799612045288,-30,5871.0,7.635794162750244,11,9957.0
480,0.29429492354393005,-1.2047568559646606,23,5871.0,4.9708099365234375,89,9957.0
490,0.29470789432525635,-0.37987181544303894,-7,5871.0,2.8156650066375732,121,9957.0
500,0.2950800061225891,1.0241612195968628,-48,5871.0,4.279101848602295,19,9957.0
510,0.29541975259780884,1.096216082572937,28,5871.0,5.085708141326904,40,9957.0
520,0.2967238426208496,1.9834998846054077,37,5871.0,1.5076251029968262,84,9957.0
530,0.2969900071620941,1.672340989112854,-40,5871.0,3.067498207092285,139,9957.0
540,0.2971510589122772,0.6313261985778809,104,5871.0,5.4261250495910645,-118,9957.0
550,0.2971700131893158,0.7751442193984985,-106,5871.0,2.2595107555389404,190,9957.0
560,0.29748377203941345,-0.4287894070148468,20,5871.0,6.153165817260742,53,9957.0
570,0.2973310351371765,-0.36622798442840576,-9,5871.0,5.411834239959717,114,9957.0
580,0.2970931828022003,0.025526657700538635,97,5871.0,6.2464776039123535,12,9957.0
590,0.2968199849128723,0.7980473041534424,-121,5871.0,4.222614288330078,281,9957.0
600,0.29561665654182434,0.0197832603007555,115,5871.0,4.464998245239258,-137,9957.0
610,0.2953644096851349,0.9943875670433044,-64,5871.0,-0.4541054964065552,47,9957.0
620,0.2951498031616211,0.14636187255382538,55,5871.0,-0.7403876781463623,30,9957.0
630,0.2949088215827942,-0.14388902485370636,-66,5871.0,-0.1982387751340866,134,9957.0
640,0.2946349084377289,-1.2193485498428345,130,5871.0,0.24048441648483276,-207,9957.0
650,0.29254505038261414,-3.619887113571167,-183,5871.0,1.0961477756500244,137,9957.0
660,0.2922739088535309,-1.868670105934143,-7,5871.0,-2.285130500793457,-52,9957.0
670,0.2920401096343994,0.0007579172379337251,-48,5871.0,-4.0539960861206055,38,9957.0
680,0.29187679290771484,0.15424031019210815,96,5871.0,-2.768900156021118,-188,9957.0
690,0.2926333546638489,0.598873496055603,-99,5871.0,-1.2176520824432373,114,9957.0
700,0.29252979159355164,-0.5761740803718567,27,5871.0,0.7644705772399902,15,9957.0
710,0.29245832562446594,0.4460417628288269,-38,5871.0,-1.7494124174118042,102,9957.0
720,0.29238268733024597,-1.6073957681655884,-22,5871.0,2.5312952995300293,-47,9957.0
730,0.29228508472442627,-0.8293848633766174,-81,5871.0,1.5063481330871582,18,9957.0
740,0.29372456669807434,-2.4223811626434326,-11,5871.0,5.777332782745361,82,9957.0
750,0.2937064468860626,1.724586009979248,116,5871.0,2.4773850440979004,58,9957.0
760,0.2936460077762604,2.5955278873443604,59,5871.0,1.8054581880569458,36,9957.0
770,0.29353082180023193,3.878082752227783,41,5871.0,-2.9885642528533936,-60,9957.0
780,0.2948313355445862,2.5132036209106445,-51,5871.0,-0.9314912557601929,13,9957.0
790,0.29475077986717224,1.2988587617874146,-46,5871.0,-3.8619534969329834,-161,9957.0
800,0.2946902811527252,1.5573649406433105,17,5871.0,-5.773834228515625,-23,9957.0
810,0.2946246862411499,1.2426327466964722,-9,5871.0,-2.735701560974121,-2,9957.0
820,0.29452160000801086,-0.8973789215087891,121,5871.0,-2.3719751834869385,-170,9957.0
830,0.29613497853279114,-0.8450857996940613,-122,5871.0,-1.692394733428955,82,9957.0
840,0.2959716022014618,0.3639424443244934,-12,5871.0,-5.4752421379089355,-102,9957.0
850,0.2957756519317627,-0.8934355974197388,-19,5871.0,-2.318277597427368,-45,9957.0
860,0.2955901622772217,-1.549850344657898,89,5871.0,-3.1783108711242676,-110,9957.0
870,0.29513394832611084,-0.8785262107849121,-105,5871.0,-4.7308478355407715,72,9957.0
880,0.29488709568977356,-0.8888068199157715,-38,5871.0,-3.08955717086792,-146,9957.0
890,0.29457542300224304,-1.2283705472946167,-25,5871.0,-1.529167890548706,-77,9957.0
900,0.2942338287830353,-1.5132949352264404,23,5871.0,-0.3871322274208069,-77,9957.0
910,0.2954997718334198,-1.0244494676589966,-70,5871.0,-2.307213068008423,110,9957.0
920,0.29525265097618103,-0.23739653825759888,17,5871.0,-1.8742049932479858,-60,9957.0
930,0.2950168550014496,0.6990455985069275,16,5871.0,-3.030256986618042,-83,9957.0
940,0.29483655095100403,0.6741596460342407,25,5871.0,-3.3909637928009033,12,9957.0
950,0.29464098811149597,1.1612796783447266,-19,5871.0,-0.3301963210105896,38,9957.0
960,0.2949778437614441,0.3176973760128021,5,5871.0,-0.8514236211776733,-55,9957.0
970,0.2947952151298523,0.28254905343055725,1,5871.0,-0.9696696996688843,-128,9957.0
980,0.29468390345573425,-0.35707780718803406,-23,5871.0,2.325181722640991,88,9957.0
990,0.2946193814277649,-0.5192611813545227,44,5871.0,4.718811511993408,132,9957.0
1000,0.29476240277290344,1.5354397296905518,63,5871.0,3.1405670642852783,42,9957.0
1010,0.29476678371429443,1.7436964511871338,33,5871.0,2.4455580711364746,-46,9957.0
1020,0.29474037885665894,0.10507581382989883,-124,5871.0,3.172274351119995,142,9957.0
1030,0.2946948707103729,0.4044394791126251,67,5871.0,1.0685292482376099,-3,9957.0
1040,0.2947739064693451,0.510258138179779,19,5871.0,0.8873352408409119,17,9957.0
1050,0.2947234809398651,-0.5598855018615723,63,5871.0,1.3020747900009155,-140,9957.0
1060,0.2947264313697815,0.824198305606842,-85,5871.0,-1.3353363275527954,91,9957.0
1070,0.2946283221244812,2.3083131313323975,204,5871.0,-3.6353635787963867,-243,9957.0
1080,0.2945489287376404,0.7150824069976807,-40,5871.0,-0.6019508242607117,86,9957.0
1090,0.2945821285247803,0.05471343174576759,-29,5871.0,0.011250500567257404,-75,9957.0
1100,0.2944342792034149,0.9031507968902588,-83,5871.0,-0.257658451795578,92,9957.0
1110,0.29431045055389404,-1.5881332159042358,183,5871.0,-1.7821868658065796,-207,9957.0
1120,0.2942163646221161,-0.5696625709533691,-132,5871.0,-6.07845401763916,140,9957.0
1130,0.29368340969085693,-1.6583092212677002,-6,5871.0,1.9201626777648926,-7,9957.0
1140,0.2935764193534851,-0.665108323097229,-50,5871.0,-1.3341227769851685,6,9957.0
1150,0.2934471368789673,0.6853346228599548,110,5871.0,-3.7438595294952393,-186,9957.0
1160,0.293300062417984,1.303005576133728,-164,5871.0,-3.5066168308258057,102,9957.0
1170,0.29316678643226624,1.0044955015182495,117,5871.0,1.8529746532440186,-148,9957.0
1180,0.29460370540618896,1.5089952945709229,38,5871.0,-0.5895996689796448,34,9957.0
1190,0.29463377594947815,0.47989147901535034,86,5871.0,0.6569074988365173,-17,9957.0
1200,0.29465851187705994,1.2538723945617676,-98,5871.0,-0.5037713646888733,190,9957.0
1210,0.2947167754173279,-0.9454004168510437,77,5871.0,0.8692202568054199,-175,9957.0
1220,0.29613083600997925,-1.8956021070480347,-129,5871.0,0.6108003854751587,40,9957.0
1230,0.29627931118011475,-1.7796088457107544,-18,5871.0,-0.2068309485912323,-25,9957.0
1240,0.29631611704826355,-1.9020779132843018,-83,5871.0,-1.9189517498016357,101,9957.0
1250,0.2964138984680176,-1.4552736282348633,109,5871.0,-1.4672610759735107,-253,9957.0
1260,0.29672694206237793,-1.1620088815689087,-137,5871.0,-6.380500793457031,10,9957.0
1270,0.2968565821647644,-0.7166011333465576,41,5871.0,-5.953706741333008,-110,9957.0
1280,0.29698610305786133,-0.4130593538284302,-37,5871.0,-1.7141919136047363,27,9957.0
1290,0.2970821261405945,-1.6419899463653564,57,5871.0,0.2579176127910614,-203,9957.0
1300,0.297136515378952,-0.990549623966217,-174,5871.0,-1.8226430416107178,198,9957.0
1310,0.2966991364955902,-2.496575355529785,94,5871.0,-2.6113216876983643,6,9957.0
1320,0.29677021503448486,-0.8415421843528748,-44,5871.0,2.820687770843506,81,9957.0
1330,0.2967908978462219,0.7201523780822754,46,5871.0,2.947260618209839,-60,9957.0
1340,0.2968084216117859,1.6251165866851807,-69,5871.0,4.208846092224121,223,9957.0
1350,0.2976900637149811,1.2453432083129883,233,5871.0,4.4414472579956055,-128,9957.0
1360,0.29770034551620483,1.2125425338745117,-48,5871.0,1.8084313869476318,135,9957.0
1370,0.29767853021621704,-1.24286687374115,-30,5871.0,3.051725149154663,19,9957.0
1380,0.2976270318031311,-2.6883010864257812,-1,5871.0,3.0696237087249756,150,9957.0
1390,0.297551691532135,-2.167490243911743,-125,5871.0,-0.5726808905601501,127,9957.0
1400,0.2964436709880829,-0.1582915037870407,16,5871.0,-3.4656453132629395,-44,9957.0
1410,0.2963034510612488,-0.08002028614282608,55,5871.0,-3.2891130447387695,-52,9957.0
1420,0.29615524411201477,2.356616735458374,27,5871.0,-1.8447269201278687,29,9957.0
1430,0.2959956228733063,3.8247034549713135,31,5871.0,-0.8259269595146179,-25,9957.0
1440,0.29579100012779236,5.388200759887695,124,5871.0,-1.309985876083374,-80,9957.0
1450,0.2955421507358551,3.458810329437256,134,5871.0,0.4232560694217682,59,9957.0
1460,0.29537227749824524,2.9549691677093506,48,5871.0,-5.9273223876953125,13,9957.0
1470,0.29516345262527466,0.8025287985801697,0,5871.0,-0.10789142549037933,-15,9957.0
1480,0.2961713671684265,0.726312518119812,39,5871.0,1.4991570711135864,-43,9957.0
1490,0.2960638403892517,0.1831417828798294,-16,5871.0,1.4110063314437866,63,9957.0
1500,0.2959193289279938,0.38029181957244873,-18,5871.0,4.478997230529785,105,9957.0
1510,0.2957310676574707,-0.2335025668144226,34,5871.0,3.3978302478790283,13,9957.0
1520,0.29551762342453003,-0.7738833427429199,11,5871.0,1.6019480228424072,9,9957.0
1530,0.2962983548641205,-1.223666787147522,-6,5871.0,0.812204122543335,59,9957.0
1540,0.2961620092391968,-0.042971763759851456,18,5871.0,1.168682336807251,32,9957.0
1550,0.2960301339626312,-0.0039924876764416695,53,5871.0,2.229093313217163,-101,9957.0
1560,0.2958948016166687,2.7163076400756836,-63,5871.0,-4.081108093261719,-6,9957.0
1570,0.29623937606811523,3.431199789047241,83,5871.0,-4.4041643142700195,-74,9957.0
1580,0.2960719168186188,2.67285418510437,70,5871.0,-2.3117847442626953,28,9957.0
1590,0.2958782911300659,0.5505890846252441,68,5871.0,-2.016892194747925,-86,9957.0
1600,0.2957119047641754,-0.9205784797668457,-129,5871.0,0.2742740213871002,101,9957.0
1610,0.29557183384895325,-1.6627256870269775,-24,5871.0,1.0406403541564941,-76,9957.0
1620,0.2968299686908722,-3.0850296020507812,-44,5871.0,4.692776679992676,81,9957.0
1630,0.2967798113822937,-1.5748798847198486,-14,5871.0,1.5360994338989258,-12,9957.0
1640,0.2966925799846649,-2.36055588722229,-117,5871.0,4.472485065460205,187,9957.0
1650,0.2965865135192871,-2.2111058235168457,112,5871.0,4.09356164932251,-75,9957.0
1660,0.29740434885025024,-0.886665403842926,-21,5871.0,1.8818998336791992,109,9957.0
1670,0.2972913980484009,0.3923628628253937,11,5871.0,0.2786026895046234,-2,9957.0
1680,0.2971968650817871,1.5710325241088867,-53,5871.0,-2.440688133239746,-39,9957.0
1690,0.29709646105766296,1.0755374431610107,115,5871.0,-3.775216579437256,-240,9957.0
1700,0.29622215032577515,-1.3315068483352661,-160,5871.0,-2.6350536346435547,106,9957.0
1710,0.2960030138492584,-2.5881171226501465,81,5871.0,-2.7055513858795166,-66,9957.0
1720,0.29580166935920715,-0.13761185109615326,-35,5871.0,-3.366724729537964,16,9957.0
1730,0.2955581545829773,-1.3230624198913574,43,5871.0,1.8370877504348755,-83,9957.0
1740,0.2953384816646576,-0.5284098982810974,-189,5871.0,2.8555908203125,214,9957.0
1750,0.2945970892906189,-0.5462331771850586,100,5871.0,6.531109809875488,-50,9957.0
1760,0.29436105489730835,-2.1183297634124756,-95,5871.0,2.8557238578796387,69,9957.0
1770,0.29413750767707825,-2.974201202392578,-29,5871.0,5.271050453186035,3,9957.0
1780,0.29390352964401245,-0.7537003755569458,-104,5871.0,1.671129584312439,206,9957.0
1790,0.29506513476371765,-3.0656752586364746,133,5871.0,4.092923164367676,-49,9957.0
1800,0.29502663016319275,-2.214822292327881,-79,5871.0,2.4632484912872314,88,9957.0
1810,0.2949885427951813,1.3311480283737183,-32,5871.0,-0.8754940629005432,-69,9957.0
1820,0.2949675917625427,4.432519912719727,65,5871.0,-4.272575855255127,-58,9957.0
1830,0.2953570783138275,4.293135643005371,164,5871.0,-2.5518746376037598,-111,9957.0
1840,0.2953706979751587,3.4346253871917725,-9,5871.0,-3.9788239002227783,64,9957.0
1850,0.29537853598594666,1.278868556022644,7,5871.0,-2.442422866821289,-46,9957.0
1860,0.29542186856269836,-0.3942430019378662,7,5871.0,-0.6423101425170898,-61,9957.0
1870,0.29547837376594543,-1.1545454263687134,-24,5871.0,0.7105242609977722,-24,9957.0
1880,0.2961597740650177,-4.188237190246582,-161,5871.0,1.5253918170928955,160,9957.0
1890,0.29616743326187134,-4.482553958892822,-75,5871.0,3.3978025913238525,-19,9957.0
1900,0.29614171385765076,-3.910435676574707,5,5871.0,4.93084192276001,84,9957.0
1910,0.29606136679649353,-2.2716622352600098,2,5871.0,6.2142157554626465,117,9957.0
1920,0.2959953248500824,0.12821558117866516,-25,5871.0,3.1321427822113037,136,9957.0
1930,0.29595568776130676,1.3541650772094727,15,5871.0,2.1299245357513428,-52,9957.0
1940,0.2959554195404053,3.667978525161743,57,5871.0,1.6992617845535278,-7,9957.0
1950,0.2959301769733429,1.9630706310272217,1,5871.0,2.909996509552002,7,9957.0
1960,0.29587802290916443,4.353971004486084,118,5871.0,-3.9107744693756104,-89,9957.0
1970,0.29583489894866943,3.4583358764648438,63,5871.0,-4.314589977264404,-103,9957.0
1980,0.2957075834274292,4.010648250579834,43,5871.0,-5.821685791015625,-100,9957.0
1990,0.2955973446369171,2.8010523319244385,-30,5871.0,-2.7512454986572266,-24,9957.0
2000,0.29559391736984253,1.28398597240448,-51,5871.0,-1.4601130485534668,-66,9957.0
2010,0.29659131169319153,-1.193555474281311,-28,5871.0,-0.12394970655441284,32,9957.0
2020,0.29665809869766235,-3.27793025970459,-60,5871.0,1.8927208185195923,58,9957.0
2030,0.29671743512153625,-2.606433868408203,104,5871.0,3.53995943069458,133,9957.0
2040,0.29675397276878357,-1.0076844692230225,-125,5871.0,2.196871042251587,2,9957.0
2050,0.2968624234199524,-1.5567408800125122,16,5871.0,3.247511625289917,-16,9957.0
2060,0.29574018716812134,0.1711702048778534,58,5871.0,3.6740286350250244,21,9957.0
2070,0.2957642674446106,0.9890170693397522,97,5871.0,3.518803358078003,-15,9957.0
2080,0.29579633474349976,0.7084884643554688,-70,5871.0,-0.8824141621589661,74,9957.0
2090,0.29579824209213257,2.6065938472747803,93,5871.0,-0.1902252435684204,-140,9957.0
2100,0.29709184169769287,2.7257769107818604,33,5871.0,-0.8450914621353149,-17,9957.0
2110,0.29715776443481445,3.278589963912964,6,5871.0,-5.632510185241699,-29,9957.0
2120,0.2972128093242645,1.821439266204834,-6,5871.0,-5.60744571685791,-46,9957.0
2130,0.2972814738750458,0.14954079687595367,77,5871.0,-3.995281219482422,-156,9957.0
2140,0.29801416397094727,-1.1992579698562622,-45,5871.0,-3.825732469558716,83,9957.0
2150,0.29812905192375183,-3.4160940647125244,-76,5871.0,4.311761856079102,-30,9957.0
2160,0.2982410192489624,-2.9153096675872803,-54,5871.0,0.8502021431922913,-48,9957.0
2170,0.29834282398223877,-2.470609188079834,-9,5871.0,1.4833904504776,-39,9957.0
2180,0.2984254062175751,-1.270792007446289,-62,5871.0,1.4669486284255981,184,9957.0
2190,0.29716113209724426,-0.3014923632144928,57,5871.0,1.842799425125122,19,9957.0
2200,0.2972240447998047,0.17278827726840973,-19,5871.0,-1.8060927391052246,-11,9957.0
2210,0.29729223251342773,2.280404567718506,7,5871.0,-0.31864121556282043,-2,9957.0
2220,0.29736655950546265,2.705784797668457,28,5871.0,-0.8981857895851135,36,9957.0
2230,0.29653844237327576,3.659486770629883,149,5871.0,-1.965260624885559,-131,9957.0
2240,0.2965632379055023,3.662105083465576,-22,5871.0,-1.9576654434204102,67,9957.0
2250,0.29654741287231445,3.746184825897217,97,5871.0,-2.479884624481201,-64,9957.0
2260,0.29651716351509094,1.472248911857605,36,5871.0,-1.7062784433364868,0,9957.0
2270,0.29753655195236206,-1.9467540979385376,21,5871.0,-0.2753101587295532,-125,9957.0
2280,0.29762697219848633,0.18696221709251404,-150,5871.0,-4.403930187225342,56,9957.0
2290,0.29772675037384033,-2.313948154449463,60,5871.0,-2.8460259437561035,-150,9957.0
2300,0.29781168699264526,-2.9541964530944824,-89,5871.0,-1.3475537300109863,114,9957.0
2310,0.2978786826133728,-1.930379033088684,-38,5871.0,-1.1600100994110107,-59,9957.0
2320,0.29637444019317627,-2.3750033378601074,-144,5871.0,0.21087321639060974,53,9957.0
2330,0.2963322699069977,-3.292912006378174,67,5871.0,-0.27154260873794556,-177,9957.0
2340,0.296343594789505,-1.4871633052825928,-166,5871.0,-1.829891562461853,176,9957.0
2350,0.296356201171875,-1.7241177558898926,16,5871.0,-0.26581600308418274,-44,9957.0
2360,0.29703226685523987,-0.8382788896560669,-30,5871.0,1.5115915536880493,52,9957.0
2370,0.2971305251121521,0.4938642680644989,83,5871.0,-0.24602586030960083,-72,9957.0
2380,0.29722732305526733,1.9173935651779175,-103,5871.0,-0.5735083222389221,154,9957.0
2390,0.29727742075920105,0.6861431002616882,112,5871.0,1.254669189453125,-206,9957.0
2400,0.2972840368747711,0.6031984090805054,-75,5871.0,-1.3847687244415283,26,9957.0
2410,0.2963500916957855,-1.3017677068710327,-44,5871.0,-0.4630330801010132,74,9957.0
2420,0.2964646518230438,-1.7527583837509155,-87,5871.0,-0.7692542672157288,121,9957.0
2430,0.29642102122306824,-2.036391019821167,132,5871.0,1.243087887763977,-189,9957.0
2440,0.2963647246360779,1.3055576086044312,-113,5871.0,1.373728632926941,156,9957.0
2450,0.2965430021286011,3.009451150894165,115,5871.0,-1.3233892917633057,-55,9957.0
2460,0.29644569754600525,1.7955504655838013,25,5871.0,-0.35750457644462585,27,9957.0
2470,0.2963291108608246,1.8436672687530518,121,5871.0,-0.6052228808403015,-141,9957.0
2480,0.2961805462837219,1.8884400129318237,-111,5871.0,-0.44713491201400757,188,9957.0
2490,0.29564622044563293,1.8568568229675293,142,5871.0,-1.3239017724990845,-120,9957.0
2500,0.2955673336982727,0.9056853652000427,-40,5871.0,-2.1734724044799805,17,9957.0
2510,0.29547742009162903,-0.804979145526886,-29,5871.0,1.711840271949768,-42,9957.0
2520,0.2953491806983948,-0.5085850954055786,-119,5871.0,0.540260910987854,115,9957.0
2530,0.2951575219631195,0.07025309652090073,192,5871.0,0.14706751704216003,-133,9957.0
2540,0.2940808832645416,0.899947464466095,-94,5871.0,0.5113328695297241,81,9957.0
2550,0.2938830852508545,-0.9877510070800781,-7,5871.0,-0.29375940561294556,-71,9957.0
2560,0.29367366433143616,-0.009919240139424801,-38,5871.0,-2.6230275630950928,-33,9957.0
2570,0.2934185266494751,-0.15341362357139587,86,5871.0,-0.9316361546516418,-166,9957.0
2580,0.29419007897377014,0.63335120677948,-125,5871.0,-2.768054246902466,153,9957.0
2590,0.2939507067203522,0.18084657192230225,26,5871.0,0.43490391969680786,-70,9957.0
2600,0.29368776082992554,0.3090139627456665,32,5871.0,-2.824489116668701,-47,9957.0
2610,0.29339730739593506,1.4603235721588135,55,5871.0,-0.7186836004257202,-63,9957.0
2620,0.293073445558548,1.5757991075515747,-57,5871.0,-0.6573105454444885,179,9957.0
2630,0.29275399446487427,-0.3699829876422882,80,5871.0,1.9238052368164062,-37,9957.0
2640,0.2924914062023163,0.38498640060424805,-112,5871.0,2.240976572036743,-32,9957.0
2650,0.2922571301460266,-1.7882369756698608,42,5871.0,2.166099786758423,48,9957.0
2660,0.2920072078704834,-2.7267465591430664,-87,5871.0,1.88596773147583,153,9957.0
2670,0.29171308875083923,-2.7238237857818604,83,5871.0,2.6188840866088867,-173,9957.0
2680,0.29141953587532043,0.08174648135900497,-133,5871.0,-0.763415515422821,115,9957.0
2690,0.29115191102027893,-0.3296566307544708,69,5871.0,2.1796982288360596,-16,9957.0
2700,0.2909139394760132,0.1041092798113823,-9,5871.0,1.5151808261871338,51,9957.0
2710,0.2931935489177704,0.10077458620071411,68,5871.0,0.45687100291252136,-114,9957.0
2720,0.29303544759750366,-0.40613171458244324,-112,5871.0,0.3372238576412201,109,9957.0
2730,0.2928188443183899,-3.823030710220337,-9,5871.0,0.42160332202911377,-6,9957.0
2740,0.2925703823566437,-0.10308316349983215,88,5871.0,-0.9923232793807983,-45,9957.0
2750,0.29234376549720764,0.049101684242486954,-9,5871.0,0.0689902976155281,14,9957.0
2760,0.2932436168193817,2.2949275970458984,-63,5871.0,0.1349501758813858,13,9957.0
2770,0.29311954975128174,-0.09663950651884079,-17,5871.0,1.4384132623672485,16,9957.0
2780,0.292982280254364,-1.5406532287597656,115,5871.0,0.31375551223754883,-102,9957.0
2790,0.29274919629096985,-1.1843128204345703,15,5871.0,0.7049801349639893,99,9957.0
2800,0.29463067650794983,-0.3143472671508789,-9,5871.0,1.7800410985946655,23,9957.0
2810,0.29455748200416565,1.1651374101638794,-35,5871.0,-2.0303378105163574,80,9957.0
2820,0.29451629519462585,0.4490510821342468,152,5871.0,1.6929545402526855,-171,9957.0
2830,0.29449570178985596,2.5556747913360596,-77,5871.0,3.1794204711914062,167,9957.0
2840,0.2944682538509369,3.8157968521118164,52,5871.0,2.030071973800659,-20,9957.0
2850,0.2958666682243347,3.983062505722046,-2,5871.0,3.9182634353637695,135,9957.0
2860,0.29585200548171997,3.302354574203491,164,5871.0,4.489883899688721,-94,9957.0
2870,0.29585862159729004,3.9731059074401855,-40,5871.0,0.9559944868087769,324,9957.0
2880,0.29585888981819153,0.6167007088661194,94,5871.0,1.080388069152832,-61,9957.0
2890,0.2955874800682068,1.9447425603866577,11,5871.0,1.540757417678833,-52,9957.0
2900,0.29568034410476685,-1.77949857711792,29,5871.0,-0.6260800361633301,-148,9957.0
2910,0.29571738839149475,-1.6136696338653564,-186,5871.0,-0.9858178496360779,215,9957.0
2920,0.29576820135116577,-4.658222675323486,64,5871.0,3.0068554878234863,-205,9957.0
2930,0.2955452501773834,-0.783882200717926,-48,5871.0,-2.8090691566467285,-54,9957.0
2940,0.29563990235328674,-2.0411548614501953,3,5871.0,-0.7982582449913025,-47,9957.0
2950,0.29575979709625244,-1.2907626628875732,-114,5871.0,-0.8520517349243164,205,9957.0
2960,0.2958754897117615,-2.8496170043945312,82,5871.0,1.3256607055664062,-18,9957.0
2970,0.2959657907485962,-2.5905160903930664,-131,5871.0,-2.2905070781707764,46,9957.0
2980,0.29688480496406555,1.7465424537658691,19,5871.0,-0.10381518304347992,-18,9957.0
2990,0.2970229387283325,2.6255412101745605,18,5871.0,0.9325867891311646,94,9957.0
3000,0.297184020280838,3.4225783348083496,137,5871.0,1.4922490119934082,-66,9957.0
3010,0.2973710596561432,2.2508440017700195,-20,5871.0,1.729694128036499,96,9957.0
3020,0.2970314919948578,0.4440770149230957,21,5871.0,1.8046869039535522,-10,9957.0
3030,0.29719334840774536,-0.7749302387237549,-2,5871.0,2.5362298488616943,129,9957.0
3040,0.29731521010398865,-1.764083743095398,-16,5871.0,-0.6798490881919861,-55,9957.0
3050,0.2974112927913666,-1.474933385848999,-174,5871.0,-3.0117406845092773,55,9957.0
3060,0.2969256043434143,-3.58493709564209,-24,5871.0,-1.6649458408355713,-68,9957.0
3070,0.2970553934574127,-1.771705150604248,70,5871.0,-2.2211780548095703,-2,9957.0
3080,0.2972009479999542,-0.7351827621459961,11,5871.0,-0.9003808498382568,8,9957.0
3090,0.2973606288433075,0.7258054614067078,-38,5871.0,-1.160070776939392,37,9957.0
3100,0.2974935472011566,0.7992004752159119,106,5871.0,0.15698331594467163,-152,9957.0
3110,0.29698458313941956,1.9483946561813354,-12,5871.0,-1.2816544771194458,-24,9957.0
3120,0.2970837652683258,-0.03914164379239082,11,5871.0,-0.5802269577980042,-16,9957.0
3130,0.29715654253959656,2.331080675125122,23,5871.0,-2.5555572509765625,-79,9957.0
3140,0.29726898670196533,0.8363065719604492,95,5871.0,-2.498303174972534,-55,9957.0
3150,0.2960853576660156,1.4205398559570312,-33,5871.0,-0.4413404166698456,71,9957.0
3160,0.2961530089378357,0.6771087646484375,-4,5871.0,0.06248895078897476,-46,9957.0
3170,0.29622653126716614,1.2396292686462402,15,5871.0,-3.879239082336426,-48,9957.0
3180,0.29627400636672974,-0.6247788667678833,-2,5871.0,0.24248282611370087,-21,9957.0
3190,0.29629141092300415,-1.3120061159133911,-86,5871.0,0.6139446496963501,176,9957.0
3200,0.29664337635040283,-2.1282525062561035,10,5871.0,3.2228574752807617,-20,9957.0
3210,0.29676589369773865,-0.9806479811668396,-42,5871.0,-0.35348451137542725,52,9957.0
3220,0.29691147804260254,-0.5768237113952637,-8,5871.0,2.0376126766204834,105,9957.0
3230,0.29708003997802734,-0.1266823410987854,-8,5871.0,2.043067216873169,25,9957.0
3240,0.2976267337799072,0.21089884638786316,96,5871.0,-0.37730488181114197,-147,9957.0
3250,0.29779505729675293,1.7849048376083374,-73,5871.0,-1.4120359420776367,-85,9957.0
3260,0.29794102907180786,-0.31377148628234863,132,5871.0,2.1012794971466064,-132,9957.0
3270,0.2980743944644928,2.849085807800293,-21,5871.0,-3.0574021339416504,-64,9957.0
3280,0.2982003390789032,2.4712958335876465,11,5871.0,-4.423603534698486,-103,9957.0
3290,0.2982538938522339,3.053151845932007,-22,5871.0,-3.610668659210205,74,9957.0
3300,0.29841893911361694,0.0224432572722435,143,5871.0,-1.239276647567749,-193,9957.0
3310,0.2985742688179016,0.2575415074825287,-65,5871.0,-1.2071168422698975,46,9957.0
3320,0.2986374497413635,-2.4913315773010254,-19,5871.0,1.7729367017745972,2,9957.0
3330,0.2967607378959656,-2.9767072200775146,-35,5871.0,1.0195107460021973,87,9957.0
3340,0.2965869605541229,-2.837521553039551,24,5871.0,1.9280483722686768,-133,9957.0
3350,0.2963935434818268,-5.3846001625061035,-186,5871.0,3.287288188934326,106,9957.0
3360,0.2962068021297455,-2.485081434249878,9,5871.0,3.8151402473449707,41,9957.0
3370,0.2967472970485687,-0.2593207061290741,56,5871.0,2.1767423152923584,84,9957.0
3380,0.29663193225860596,1.9524192810058594,101,5871.0,0.9552345871925354,-18,9957.0
3390,0.2964772880077362,2.6066596508026123,-68,5871.0,-0.6869530081748962,114,9957.0
3400,0.29628896713256836,1.20055091381073,112,5871.0,-0.17705531418323517,-94,9957.0
3410,0.29608356952667236,3.218686580657959,-11,5871.0,-2.648427724838257,11,9957.0
3420,0.29623621702194214,2.358191728591919,59,5871.0,-1.6411916017532349,-97,9957.0
3430,0.29606425762176514,3.28220272064209,-70,5871.0,-4.113574028015137,72,9957.0
3440,0.2959156930446625,1.77452552318573,200,5871.0,-0.04789944738149643,-175,9957.0
3450,0.2957952916622162,0.7796425819396973,-24,5871.0,-0.39043861627578735,183,9957.0
3460,0.29532700777053833,0.028088821098208427,12,5871.0,1.1086170673370361,21,9957.0
3470,0.2951301634311676,-0.30880117416381836,-94,5871.0,0.7825577259063721,151,9957.0
3480,0.295133113861084,-0.5165439248085022,132,5871.0,2.0465853214263916,-200,9957.0
3490,0.2949196994304657,-1.2451497316360474,-87,5871.0,-0.3924991488456726,117,9957.0
3500,0.2960679829120636,-1.1614084243774414,18,5871.0,2.5221428871154785,17,9957.0
3510,0.29613128304481506,0.8286628723144531,-29,5871.0,3.188086986541748,110,9957.0
3520,0.29612118005752563,0.9210725426673889,119,5871.0,3.3107452392578125,-148,9957.0
3530,0.2961701452732086,0.408047080039978,-23,5871.0,4.064815998077393,156,9957.0
3540,0.29619425535202026,0.8524644374847412,51,5871.0,4.371666431427002,67,9957.0
3550,0.29574212431907654,-0.16505055129528046,-7,5871.0,-1.726328730583191,-3,9957.0
3560,0.2957566976547241,0.9872981905937195,5,5871.0,-2.0505409240722656,-167,9957.0
3570,0.2958052456378937,-0.47211962938308716,-71,5871.0,-3.8590455055236816,-46,9957.0
3580,0.29583483934402466,-0.2480607032775879,-59,5871.0,-7.282380104064941,-3,9957.0
3590,0.2966514229774475,-1.0965105295181274,12,5871.0,-4.280148983001709,-76,9957.0
3600,0.2966602146625519,-0.8176918029785156,26,5871.0,-0.9952298998832703,-43,9957.0
3610,0.29666075110435486,0.7415708303451538,6,5871.0,-0.5563341379165649,-18,9957.0
3620,0.2967558801174164,1.3810632228851318,21,5871.0,0.5533155202865601,117,9957.0
3630,0.2967657148838043,-0.25094613432884216,83,5871.0,2.1698338985443115,-41,9957.0
3640,0.29756972193717957,-0.16654065251350403,-30,5871.0,0.536644697189331,-20,9957.0
3650,0.2976013422012329,-1.2294468879699707,-36,5871.0,-0.11675696820020676,-73,9957.0
3660,0.2977256774902344,-0.28613126277923584,-85,5871.0,-0.5278937220573425,54,9957.0
3670,0.29783815145492554,-3.585808515548706,96,5871.0,-3.4726710319519043,-70,9957.0
3680,0.2975548803806305,-2.467616558074951,-47,5871.0,-2.167231798171997,1,9957.0
3690,0.2976146936416626,-3.417963743209839,-62,5871.0,-1.5063633918762207,-40,9957.0
3700,0.2977244257926941,0.0598779059946537,-81,5871.0,-3.7380523681640625,75,9957.0
3710,0.29780712723731995,-0.8175249695777893,132,5871.0,-3.2611072063446045,-152,9957.0
3720,0.29792508482933044,-1.859046220779419,-92,5871.0,-3.554121255874634,21,9957.0
3730,0.2975881099700928,0.6030930876731873,-15,5871.0,-1.8227859735488892,-77,9957.0
3740,0.297617107629776,-0.04766242951154709,-45,5871.0,-0.9578638076782227,51,9957.0
3750,0.2976490557193756,0.6818141937255859,167,5871.0,1.3721359968185425,-28,9957.0
3760,0.2976890504360199,0.24792514741420746,-106,5871.0,1.8323767185211182,205,9957.0
3770,0.2986534535884857,-0.9973334670066833,38,5871.0,3.546469211578369,-27,9957.0
3780,0.298774391412735,0.21571855247020721,-8,5871.0,0.4013737738132477,21,9957.0
3790,0.2988509237766266,-0.0028906906954944134,72,5871.0,0.17232882976531982,-100,9957.0
3800,0.29889601469039917,-0.757886528968811,-172,5871.0,-0.17025095224380493,158,9957.0
3810,0.29746389389038086,-1.9730144739151,79,5871.0,2.9456822872161865,-108,9957.0
3820,0.29747629165649414,-1.9858325719833374,-50,5871.0,-1.9742929935455322,-40,9957.0
3830,0.2975088357925415,-2.39449143409729,61,5871.0,-1.074499249458313,-109,9957.0
3840,0.29754236340522766,-0.6845104694366455,22,5871.0,-0.347494512796402,290,9957.0
3850,0.2975723445415497,-1.354520320892334,-1,5871.0,1.5835515260696411,-129,9957.0
3860,0.29692748188972473,2.0463955402374268,14,5871.0,1.0761561393737793,36,9957.0
3870,0.29685646295547485,3.258988618850708,43,5871.0,1.4976463317871094,-16,9957.0
3880,0.2967856824398041,4.291110515594482,115,5871.0,2.1989827156066895,21,9957.0
3890,0.2967449426651001,3.143601179122925,84,5871.0,2.110412120819092,7,9957.0
3900,0.2964397668838501,2.3232479095458984,9,5871.0,2.1860697269439697,75,9957.0
3910,0.29636403918266296,2.528247594833374,22,5871.0,1.5411181449890137,67,9957.0
3920,0.2962384521961212,0.8545528650283813,97,5871.0,2.365250825881958,29,9957.0
3930,0.29604411125183105,1.026399850845337,43,5871.0,1.4207571744918823,-27,9957.0
3940,0.2958613932132721,0.797700047492981,-149,5871.0,1.197684407234192,91,9957.0
3950,0.2962073087692261,0.7743592858314514,8,5871.0,-1.0299142599105835,-36,9957.0
3960,0.2961035668849945,-0.6065806150436401,6,5871.0,0.9461040496826172,36,9957.0
3970,0.2959947884082794,0.42229998111724854,124,5871.0,-0.2598654627799988,-88,9957.0
3980,0.29588544368743896,2.6565654277801514,-59,5871.0,-3.314398765563965,159,9957.0
3990,0.2961837351322174,1.1363966464996338,129,5871.0,-5.588966369628906,-209,9957.0
4000,0.2960187494754791,1.592666506767273,-21,5871.0,-0.972210168838501,43,9957.0
4010,0.29583999514579773,-0.48476117849349976,55,5871.0,0.360192209482193,-56,9957.0
4020,0.2957439422607422,0.5736886858940125,-133,5871.0,-0.807778000831604,177,9957.0
4030,0.29502034187316895,-2.00651478767395,47,5871.0,4.641776084899902,-82,9957.0
4040,0.2948428988456726,-1.3546156883239746,-64,5871.0,1.435752272605896,18,9957.0
4050,0.29463914036750793,-1.2584275007247925,32,5871.0,3.975210666656494,-86,9957.0
4060,0.2943744957447052,-1.5685182809829712,-116,5871.0,3.582895278930664,260,9957.0
4070,0.294114351272583,-1.5816371440887451,18,5871.0,-1.5170772075653076,-69,9957.0
4080,0.2951520085334778,-1.3896316289901733,19,5871.0,-1.3185874223709106,-27,9957.0
4090,0.295057475566864,-0.5951451659202576,0,5871.0,-4.9428510665893555,-120,9957.0
4100,0.29497626423835754,-0.4145456552505493,5,5871.0,-4.665717601776123,-111,9957.0
4110,0.29484736919403076,2.9656150341033936,-79,5871.0,-4.412898540496826,38,9957.0
4120,0.29560014605522156,-0.6576381325721741,59,5871.0,0.1577247679233551,-60,9957.0
4130,0.29560136795043945,-1.6704272031784058,-68,5871.0,3.4879801273345947,-4,9957.0
4140,0.29558902978897095,-1.8215678930282593,26,5871.0,2.760026454925537,-118,9957.0
4150,0.2956458032131195,-1.0833454132080078,-211,5871.0,2.4636998176574707,234,9957.0
4160,0.2961418032646179,-1.3069149255752563,51,5871.0,7.239525318145752,56,9957.0
4170,0.29617419838905334,3.6778042316436768,44,5871.0,1.199546217918396,87,9957.0
4180,0.2962115406990051,2.630566120147705,106,5871.0,4.562454700469971,5,9957.0
4190,0.29625311493873596,4.463647365570068,31,5871.0,3.2791807651519775,30,9957.0
4200,0.29628872871398926,3.999481678009033,51,5871.0,4.3031325340271,80,9957.0
4210,0.297378808259964,3.6899983882904053,79,5871.0,-1.1236425638198853,-53,9957.0
4220,0.29743462800979614,2.601449728012085,30,5871.0,-1.5369511842727661,-36,9957.0
4230,0.297496497631073,2.81872296333313,54,5871.0,-5.214287757873535,-141,9957.0
4240,0.29760465025901794,-0.9042909741401672,-209,5871.0,-2.7172017097473145,148,9957.0
4250,0.29821690917015076,-1.8146746158599854,17,5871.0,-3.883950710296631,-74,9957.0
4260,0.29834413528442383,-2.613487482070923,-10,5871.0,-2.3722808361053467,29,9957.0
4270,0.2984311282634735,-3.2965736389160156,18,5871.0,-1.2869709730148315,-43,9957.0
4280,0.29849591851234436,-4.715144634246826,-200,5871.0,-0.6840735673904419,170,9957.0
4290,0.29859432578086853,-4.785982131958008,-29,5871.0,-0.7949778437614441,-29,9957.0
4300,0.29802531003952026,-3.0676426887512207,-64,5871.0,2.7853269577026367,47,9957.0
4310,0.2980881631374359,-1.3441812992095947,53,5871.0,2.2371115684509277,-49,9957.0
4320,0.29811811447143555,0.3152729272842407,-121,5871.0,3.6070876121520996,222,9957.0
4330,0.29806411266326904,-0.04919711500406265,117,5871.0,7.086043834686279,-72,9957.0
4340,0.2980058789253235,5.0216569900512695,29,5871.0,0.23728956282138824,18,9957.0
4350,0.2979614734649658,5.18809175491333,123,5871.0,2.3698971271514893,-70,9957.0
4360,0.297953724861145,3.270663022994995,-35,5871.0,-1.9587879180908203,203,9957.0
4370,0.2980480194091797,2.953575849533081,125,5871.0,-1.0824247598648071,-17,9957.0
4380,0.2980944514274597,2.979512929916382,-19,5871.0,-1.1889910697937012,-40,9957.0
4390,0.2972596287727356,-1.151162028312683,-20,5871.0,-3.208294630050659,-91,9957.0
4400,0.29718056321144104,-0.40890806913375854,-117,5871.0,-3.052654981613159,43,9957.0
4410,0.2971038222312927,-2.56268048286438,22,5871.0,-2.1354382038116455,-105,9957.0
4420,0.29704102873802185,-1.9463759660720825,-79,5871.0,-1.3034164905548096,-21,9957.0
4430,0.2966090142726898,-1.8233928680419922,-25,5871.0,-0.5177358388900757,-43,9957.0
4440,0.2966259717941284,-0.7869662046432495,-78,5871.0,-0.22291329503059387,80,9957.0
4450,0.29661276936531067,-2.202214479446411,156,5871.0,4.783944129943848,-100,9957.0
4460,0.29677096009254456,0.849785327911377,-51,5871.0,0.14169098436832428,152,9957.0
4470,0.2969338893890381,0.22952492535114288,-6,5871.0,2.9956393241882324,28,9957.0
4480,0.2969784140586853,1.2372270822525024,-62,5871.0,3.0051076412200928,25,9957.0
4490,0.297153502702713,1.2098454236984253,161,5871.0,0.3472321033477783,-160,9957.0
4500,0.29722684621810913,2.174290418624878,-20,5871.0,-2.1417856216430664,-1,9957.0
4510,0.2972804009914398,3.6363608837127686,62,5871.0,-2.597728729248047,6,9957.0
4520,0.29798516631126404,2.912562847137451,34,5871.0,-2.423175573348999,8,9957.0
4530,0.2980287969112396,3.02675724029541,128,5871.0,-2.8342576026916504,-111,9957.0
4540,0.298090398311615,1.3550487756729126,-25,5871.0,-2.9105870723724365,-24,9957.0
4550,0.29815080761909485,1.8109616041183472,30,5871.0,-0.4908031225204468,-79,9957.0
4560,0.29737594723701477,0.6840761303901672,-20,5871.0,-1.0914658308029175,63,9957.0
4570,0.29738885164260864,-0.515887439250946,47,5871.0,1.9581413269042969,-47,9957.0
4580,0.2973822057247162,-1.6997343301773071,-58,5871.0,1.7369656562805176,27,9957.0
4590,0.2973555624485016,-0.22527797520160675,-42,5871.0,-0.1982148289680481,-32,9957.0
4600,0.297199010848999,0.9613081216812134,-1,5871.0,-1.5622822046279907,-34,9957.0
4610,0.29716214537620544,3.5596094131469727,82,5871.0,-1.917283058166504,10,9957.0
4620,0.2971324920654297,2.7916152477264404,132,5871.0,-2.591693639755249,50,9957.0
4630,0.2970418632030487,3.1756064891815186,33,5871.0,-1.9980412721633911,-17,9957.0
4640,0.2970210015773773,1.834241509437561,32,5871.0,1.2936654090881348,1,9957.0
4650,0.2978062033653259,1.2659803628921509,-55,5871.0,-0.48315638303756714,16,9957.0
4660,0.29775184392929077,-2.0948140621185303,50,5871.0,-0.6108546853065491,-170,9957.0
4670,0.2976858913898468,-3.3599154949188232,-80,5871.0,-2.300840377807617,-22,9957.0
4680,0.2976193130016327,-3.299736738204956,-22,5871.0,-1.7414404153823853,-90,9957.0
4690,0.2981605529785156,-2.7012064456939697,-157,5871.0,-1.3382965326309204,165,9957.0
4700,0.29817333817481995,-3.3472163677215576,67,5871.0,0.3443915545940399,-155,9957.0
4710,0.2981850504875183,-3.4817678928375244,-29,5871.0,0.2959589660167694,1,9957.0
4720,0.2981902062892914,-1.4384335279464722,56,5871.0,-1.142762541770935,-129,9957.0
4730,0.29821738600730896,-0.48363810777664185,-159,5871.0,-2.3305187225341797,255,9957.0
4740,0.2981831431388855,-1.2272478342056274,49,5871.0,2.2964203357696533,-13,9957.0
4750,0.29832106828689575,-2.045591354370117,-47,5871.0,5.047361373901367,81,9957.0
4760,0.29839688539505005,-0.030767090618610382,71,5871.0,3.1605422496795654,-135,9957.0
4770,0.29846492409706116,1.9834668636322021,-57,5871.0,3.7266299724578857,126,9957.0
4780,0.29872336983680725,-0.10687366127967834,9,5871.0,2.6157708168029785,1,9957.0
4790,0.2988499402999878,4.097513675689697,73,5871.0,-1.1717597246170044,28,9957.0
4800,0.2990184426307678,2.688941478729248,111,5871.0,-1.3450112342834473,-26,9957.0
4810,0.2991742193698883,1.9312491416931152,56,5871.0,-1.5697615146636963,-66,9957.0
4820,0.2984381914138794,3.9207348823547363,-53,5871.0,-3.636406898498535,3,9957.0
4830,0.2985934913158417,0.3081534206867218,-40,5871.0,0.41450953483581543,-53,9957.0
4840,0.29866161942481995,-1.5116417407989502,-62,5871.0,-1.733746886253357,-20,9957.0
4850,0.2987420856952667,-1.999289631843567,15,5871.0,-2.3766701221466064,-109,9957.0
4860,0.2988673746585846,-3.2424960136413574,-82,5871.0,0.08533867448568344,73,9957.0
4870,0.29904264211654663,-0.29028013348579407,14,5871.0,-2.65872859954834,-24,9957.0
4880,0.29914939403533936,-1.1576662063598633,-75,5871.0,0.44852110743522644,80,9957.0
4890,0.2992505431175232,-1.530975103378296,94,5871.0,4.150496482849121,-98,9957.0
4900,0.2993585169315338,-1.743116855621338,-106,5871.0,0.833130955696106,69,9957.0
4910,0.29966604709625244,-2.2283997535705566,2,5871.0,-0.050650641322135925,5,9957.0
4920,0.2997753322124481,-1.4197312593460083,-136,5871.0,1.030438780784607,141,9957.0
4930,0.29993948340415955,-1.8370798826217651,95,5871.0,2.4715774059295654,-196,9957.0
4940,0.3000183403491974,0.5616500973701477,-74,5871.0,-3.1224892139434814,-18,9957.0
4950,0.3001439571380615,2.5770633220672607,22,5871.0,-2.0061562061309814,-56,9957.0
4960,0.2992740571498871,2.5812249183654785,-48,5871.0,-3.8550608158111572,135,9957.0
4970,0.2991861402988434,-0.149667426943779,143,5871.0,0.05341602489352226,-86,9957.0
4980,0.29908767342567444,1.3874163627624512,29,5871.0,-0.9371653199195862,40,9957.0
4990,0.2989843487739563,1.6766215562820435,68,5871.0,0.7581175565719604,-69,9957.0
5000,0.29814866185188293,0.6193065643310547,-141,5871.0,2.1940395832061768,198,9957.0
5010,0.2979659140110016,-1.7895854711532593,19,5871.0,2.001061201095581,23,9957.0
5020,0.29774317145347595,-1.7401670217514038,-6,5871.0,4.5454607009887695,54,9957.0
5030,0.29752030968666077,0.6007504463195801,35,5871.0,3.969594717025757,8,9957.0
5040,0.2973468005657196,0.6440630555152893,-39,5871.0,2.4691503047943115,122,9957.0
5050,0.2975144684314728,2.520897388458252,-24,5871.0,2.789689302444458,43,9957.0
5060,0.2974459230899811,3.4766762256622314,61,5871.0,-1.4732508659362793,-109,9957.0
5070,0.2973780035972595,4.236559867858887,133,5871.0,-1.1145120859146118,-37,9957.0
5080,0.2972988784313202,3.68001651763916,-22,5871.0,-1.3975903987884521,-159,9957.0
5090,0.29792648553848267,3.0383992195129395,81,5871.0,-1.6915768384933472,205,9957.0
5100,0.29790812730789185,-0.1163821816444397,10,5871.0,3.2070047855377197,-32,9957.0
5110,0.29789167642593384,-0.1294681578874588,-56,5871.0,1.803207516670227,83,9957.0
5120,0.2978473901748657,-0.2501055896282196,3,5871.0,4.268428802490234,-7,9957.0
5130,0.29861387610435486,0.9541783928871155,-99,5871.0,3.5159666538238525,180,9957.0
5140,0.2985701560974121,-3.960256576538086,84,5871.0,5.423789024353027,-29,9957.0
5150,0.29854321479797363,-2.2608022689819336,-26,5871.0,1.5989235639572144,65,9957.0
5160,0.2985401153564453,-2.359119176864624,64,5871.0,0.604714572429657,-92,9957.0
5170,0.29856255650520325,-3.571364641189575,-128,5871.0,-3.878385066986084,54,9957.0
5180,0.29909998178482056,-3.9850785732269287,-44,5871.0,-7.060332298278809,-66,9957.0
5190,0.29913631081581116,0.13639190793037415,33,5871.0,-7.550080299377441,-139,9957.0
5200,0.2991890609264374,3.074291467666626,82,5871.0,-7.098977565765381,-114,9957.0
5210,0.29927489161491394,3.8599393367767334,130,5871.0,-3.40861439704895,-115,9957.0
5220,0.29999709129333496,2.5602450370788574,-41,5871.0,-1.7945002317428589,192,9957.0
5230,0.3001147508621216,3.39457631111145,73,5871.0,2.3086705207824707,19,9957.0
5240,0.30017319321632385,-1.1768211126327515,-99,5871.0,5.702144622802734,159,9957.0
5250,0.3002220690250397,-3.0959229469299316,59,5871.0,6.231853008270264,-141,9957.0
5260,0.30025815963745117,-4.982272624969482,-177,5871.0,7.078171253204346,157,9957.0
5270,0.3010022044181824,-3.4969403743743896,-29,5871.0,3.269639492034912,49,9957.0
5280,0.30101504921913147,-2.557846784591675,-29,5871.0,2.248046875,75,9957.0
5290,0.3010218143463135,0.3319993317127228,43,5871.0,-2.062375068664551,8,9957.0
5300,0.3011232316493988,0.2826347053050995,146,5871.0,-4.777747631072998,-223,9957.0
5310,0.30078303813934326,0.7982958555221558,-44,5871.0,-2.133841037750244,-9,9957.0
5320,0.3007952570915222,-0.899653434753418,7,5871.0,-4.529405117034912,-152,9957.0
5330,0.3007608652114868,-1.2579598426818848,-142,5871.0,-5.752147197723389,69,9957.0
5340,0.3007313311100006,-2.8172030448913574,-24,5871.0,-2.830186128616333,-112,9957.0
5350,0.30083563923835754,-3.3228228092193604,-42,5871.0,0.6575270891189575,-5,9957.0
5360,0.30087336897850037,-1.992875337600708,-10,5871.0,2.468205213546753,38,9957.0
5370,0.300932377576828,-1.712555170059204,-28,5871.0,5.310301780700684,66,9957.0
5380,0.3009333312511444,-0.4546538293361664,-123,5871.0,5.2027692794799805,168,9957.0
5390,0.30097028613090515,3.183737277984619,104,5871.0,4.361579895019531,-36,9957.0
5400,0.300225168466568,1.3501402139663696,-28,5871.0,7.4137067794799805,114,9957.0
5410,0.30024537444114685,0.5383386611938477,104,5871.0,3.5949625968933105,-91,9957.0
5420,0.30034685134887695,2.0078065395355225,-5,5871.0,-1.6380705833435059,100,9957.0
5430,0.3004559576511383,-0.27532416582107544,-4,5871.0,-3.34340500831604,-62,9957.0
5440,0.30116164684295654,2.3627307415008545,57,5871.0,-3.4515085220336914,-21,9957.0
5450,0.30135053396224976,2.3837954998016357,28,5871.0,-4.799306869506836,-62,9957.0
5460,0.30155301094055176,3.4397547245025635,143,5871.0,-3.40788197517395,-206,9957.0
5470,0.30173203349113464,0.4479049742221832,-107,5871.0,-1.7569748163223267,3,9957.0
5480,0.30160021781921387,-1.5456465482711792,8,5871.0,1.1552842855453491,32,9957.0
5490,0.3018193244934082,-2.897810459136963,-124,5871.0,3.8400909900665283,227,9957.0
5500,0.3020341098308563,-4.762070655822754,-16,5871.0,6.804914951324463,2,9957.0
5510,0.3023167848587036,-5.29329252243042,-100,5871.0,7.809606552124023,94,9957.0
5520,0.30252352356910706,-3.7771167755126953,-65,5871.0,7.831333160400391,97,9957.0
5530,0.3024570941925049,-1.4102420806884766,-42,5871.0,7.105119228363037,55,9957.0
5540,0.30265557765960693,0.11953909695148468,-48,5871.0,2.297764778137207,109,9957.0
5550,0.302844375371933,2.147385597229004,237,5871.0,0.6746377944946289,-110,9957.0
5560,0.30302879214286804,3.713714361190796,75,5871.0,-4.034815311431885,77,9957.0
5570,0.3027201294898987,2.165755271911621,93,5871.0,-5.888542175292969,-203,9957.0
5580,0.3027513921260834,0.38788896799087524,-144,5871.0,-8.132414817810059,74,9957.0
5590,0.30278709530830383,-2.1227989196777344,17,5871.0,-8.583133697509766,-135,9957.0
5600,0.3028266429901123,-1.13739812374115,-9,5871.0,-5.367653846740723,-63,9957.0
5610,0.302898108959198,-3.9437694549560547,-5,5871.0,-0.8029313683509827,-90,9957.0
5620,0.3014000654220581,-1.5517499446868896,-22,5871.0,0.16335967183113098,99,9957.0
5630,0.30136415362358093,-0.6738503575325012,-58,5871.0,3.6501128673553467,207,9957.0
5640,0.30131879448890686,-3.0728697776794434,-46,5871.0,6.379420280456543,101,9957.0
5650,0.30127084255218506,-1.6573270559310913,-94,5871.0,6.469549179077148,124,9957.0
5660,0.30075278878211975,-0.12649883329868317,113,5871.0,4.17064905166626,-187,9957.0
5670,0.3007073998451233,0.6525601744651794,-83,5871.0,3.3178822994232178,139,9957.0
5680,0.300624281167984,1.5072882175445557,88,5871.0,2.267915964126587,43,9957.0
5690,0.3005068898200989,3.8073489665985107,79,5871.0,-1.5498501062393188,15,9957.0
5700,0.3003729581832886,3.915210485458374,174,5871.0,-5.731541633605957,-130,9957.0
5710,0.3004728853702545,1.8926697969436646,-120,5871.0,-7.971328258514404,20,9957.0
5720,0.300302118062973,-0.3269849717617035,14,5871.0,-7.640995025634766,-149,9957.0
5730,0.30007728934288025,-1.6981337070465088,-76,5871.0,-5.771798610687256,-20,9957.0
5740,0.2998419404029846,-1.0703917741775513,68,5871.0,-3.7151577472686768,-75,9957.0
5750,0.3014337420463562,0.021076029166579247,76,5871.0,2.2199459075927734,16,9957.0
5760,0.3014358580112457,0.5246210694313049,38,5871.0,4.672520160675049,168,9957.0
5770,0.3014134168624878,2.181882381439209,75,5871.0,6.973150253295898,115,9957.0
5780,0.30136874318122864,3.4394357204437256,-63,5871.0,2.5264415740966797,264,9957.0
5790,0.3012102544307709,3.098475456237793,103,5871.0,4.876617431640625,-35,9957.0
5800,0.30120864510536194,2.1170859336853027,0,5871.0,6.305746555328369,95,9957.0
5810,0.30124354362487793,2.1133224964141846,43,5871.0,-1.2489129304885864,-53,9957.0
5820,0.3013097643852234,0.0502840057015419,-9,5871.0,-3.3488192558288574,-48,9957.0
5830,0.3013768792152405,-0.4371790289878845,-98,5871.0,-8.700551986694336,49,9957.0
5840,0.3025157153606415,-2.019193649291992,57,5871.0,-7.665592670440674,-170,9957.0
5850,0.3027264475822449,-1.062167763710022,-46,5871.0,-8.452106475830078,10,9957.0
5860,0.3029431104660034,0.19030627608299255,168,5871.0,-2.864455461502075,-112,9957.0
5870,0.3031236529350281,-1.2863613367080688,-115,5871.0,1.3169031143188477,123,9957.0
5880,0.30240878462791443,3.9420340061187744,57,5871.0,4.373556137084961,149,9957.0
5890,0.3025498688220978,4.700643539428711,41,5871.0,1.855396032333374,142,9957.0
5900,0.3027399778366089,4.329070568084717,4,5871.0,2.047476053237915,80,9957.0
5910,0.3028915822505951,1.0890945196151733,172,5871.0,-0.19951669871807098,-167,9957.0
5920,0.30409669876098633,2.3573899269104004,-52,5871.0,0.4376187026500702,20,9957.0
5930,0.3041739761829376,-0.22292521595954895,34,5871.0,2.224813222885132,-65,9957.0
5940,0.3042541444301605,-0.2805666923522949,-113,5871.0,-0.888954758644104,143,9957.0
5950,0.3043397068977356,-2.552823305130005,49,5871.0,-2.389875650405884,-95,9957.0
5960,0.3043982982635498,-1.920875072479248,-87,5871.0,-3.1897644996643066,1,9957.0
5970,0.3042469322681427,-3.0905063152313232,-33,5871.0,-2.045410633087158,-90,9957.0
5980,0.3042562007904053,-3.543243885040283,-77,5871.0,-3.869572401046753,-130,9957.0
5990,0.304255872964859,-3.8261959552764893,-235,5871.0,-2.3950388431549072,60,9957.0
6000,0.3042985200881958,-1.2296754121780396,-43,5871.0,-1.4460396766662598,-103,9957.0
6010,0.3037702739238739,1.8241478204727173,-24,5871.0,-2.495060920715332,42,9957.0
6020,0.30367496609687805,3.761409282684326,192,5871.0,2.3922524452209473,-128,9957.0
6030,0.30356675386428833,5.36238431930542,12,5871.0,0.27437150478363037,82,9957.0
6040,0.303494393825531,6.72031831741333,117,5871.0,3.1547317504882812,47,9957.0
6050,0.30344700813293457,2.868124485015869,3,5871.0,2.5322916507720947,71,9957.0
6060,0.3047788739204407,1.2621461153030396,-49,5871.0,2.731606960296631,83,9957.0
6070,0.3047686517238617,-5.092335224151611,-8,5871.0,2.3447201251983643,-107,9957.0
6080,0.30478382110595703,-2.7437424659729004,-103,5871.0,0.9180802702903748,9,9957.0
6090,0.30479001998901367,-3.5718233585357666,-54,5871.0,0.9705353379249573,-104,9957.0
6100,0.30486032366752625,-3.73374342918396,-181,5871.0,-2.2236814498901367,-44,9957.0
6110,0.3047868311405182,-2.422820568084717,-96,5871.0,1.51808762550354,-181,9957.0
6120,0.3046974837779999,-5.307085037231445,-22,5871.0,0.0684787929058075,-65,9957.0
6130,0.3046334683895111,-0.8588112592697144,-52,5871.0,-4.675686359405518,4,9957.0
6140,0.3055446147918701,-1.0369329452514648,104,5871.0,-1.4491040706634521,-230,9957.0
6150,0.30561086535453796,2.350553035736084,-63,5871.0,-0.7304509878158569,131,9957.0
6160,0.3056844174861908,2.891064167022705,82,5871.0,-0.294938325881958,-44,9957.0
6170,0.3057959973812103,1.1133192777633667,-31,5871.0,3.9555084705352783,118,9957.0
6180,0.3059457838535309,-0.5780990719795227,-37,5871.0,5.268154621124268,70,9957.0
6190,0.30692970752716064,-0.7649872303009033,97,5871.0,-0.7321205139160156,-87,9957.0
6200,0.30711236596107483,-3.187682867050171,-106,5871.0,0.5905604958534241,-28,9957.0
6210,0.3072957694530487,-2.3651223182678223,26,5871.0,3.8809213638305664,-110,9957.0
6220,0.3075163662433624,-2.9128851890563965,-140,5871.0,4.553245544433594,49,9957.0
6230,0.3078633248806,-4.850633144378662,-14,5871.0,3.520611047744751,35,9957.0
6240,0.30814412236213684,-2.755173444747925,-19,5871.0,0.828130304813385,4,9957.0
6250,0.308405339717865,-0.3902466893196106,-14,5871.0,2.581294059753418,29,9957.0
6260,0.30879485607147217,0.46115848422050476,148,5871.0,0.5451569557189941,-134,9957.0
6270,0.3092128038406372,1.4938052892684937,-67,5871.0,0.47030770778656006,112,9957.0
6280,0.3104154169559479,5.34871244430542,133,5871.0,-0.3428349494934082,-40,9957.0
6290,0.3109416663646698,4.340670108795166,75,5871.0,-0.01313323900103569,99,9957.0
6300,0.3114878237247467,2.7640457153320312,193,5871.0,-1.0495492219924927,-126,9957.0
6310,0.31206005811691284,0.5502152442932129,-58,5871.0,-0.41379833221435547,-98,9957.0
6320,0.31319287419319153,0.23436704277992249,50,5871.0,-3.112963914871216,-11,9957.0
6330,0.31378811597824097,0.10996481776237488,-69,5871.0,-3.3518333435058594,125,9957.0
6340,0.31434375047683716,-1.2271595001220703,69,5871.0,1.2709158658981323,216,9957.0
6350,0.31486189365386963,3.7311012744903564,82,5871.0,2.456286907196045,4,9957.0
6360,0.3148609697818756,3.6165881156921387,33,5871.0,3.001753091812134,125,9957.0
6370,0.3154064416885376,-4.816574573516846,-114,5871.0,4.688499927520752,54,9957.0
6380,0.31601083278656006,-9.86408519744873,-215,5871.0,2.119572162628174,113,9957.0
6390,0.31668245792388916,-10.589333534240723,-117,5871.0,-0.8435552716255188,-2,9957.0
6400,0.3171882927417755,-11.142394065856934,-153,5871.0,-2.2970409393310547,37,9957.0
6410,0.31886884570121765,-10.851717948913574,-69,5871.0,-1.4215335845947266,-156,9957.0
6420,0.3193640112876892,-6.586845397949219,-299,5871.0,-2.6151974201202393,150,9957.0
6430,0.31984201073646545,-0.5533887147903442,-54,5871.0,-3.623349189758301,-56,9957.0
6440,0.3202899992465973,-0.821927011013031,-44,5871.0,-1.806586742401123,-30,9957.0
6450,0.319616436958313,-0.15197749435901642,73,5871.0,0.23952171206474304,-94,9957.0
6460,0.3198389410972595,-1.758257269859314,-24,5871.0,0.6285737156867981,24,9957.0
6470,0.32009193301200867,0.6322485208511353,43,5871.0,-2.453152894973755,-41,9957.0
6480,0.320239394903183,-0.22645138204097748,-43,5871.0,-0.9474000334739685,-15,9957.0
6490,0.3217385709285736,-0.7066653966903687,-85,5871.0,-3.546212911605835,-24,9957.0
6500,0.32183268666267395,-3.8868119716644287,17,5871.0,-2.7790791988372803,-153,9957.0
6510,0.3218434154987335,-4.302889823913574,-76,5871.0,3.3750226497650146,38,9957.0
6520,0.32179951667785645,-5.1664605140686035,51,5871.0,1.6098512411117554,-62,9957.0
6530,0.3216873109340668,-2.290987968444824,-97,5871.0,2.289184093475342,229,9957.0
6540,0.32124805450439453,0.6416890621185303,-8,5871.0,1.0386136770248413,57,9957.0
6550,0.3209950923919678,-2.123290777206421,-48,5871.0,2.583765983581543,53,9957.0
6560,0.32070767879486084,-3.5402791500091553,-94,5871.0,-0.1846241056919098,49,9957.0
6570,0.3204296827316284,-7.799205780029297,8,5871.0,-0.2848888635635376,-174,9957.0
6580,0.32006165385246277,-5.764151096343994,-138,5871.0,-1.057266116142273,9,9957.0
6590,0.31968605518341064,-6.912102222442627,-44,5871.0,-3.7523722648620605,-158,9957.0
6600,0.3192821145057678,-5.34172248840332,-61,5871.0,-4.594228744506836,-136,9957.0
6610,0.31884291768074036,-5.579717636108398,-174,5871.0,-6.748791694641113,128,9957.0
6620,0.31840330362319946,-2.3774240016937256,11,5871.0,-3.5517361164093018,-32,9957.0
6630,0.3161622881889343,-0.6882871389389038,-61,5871.0,-0.28715193271636963,49,9957.0
6640,0.31562477350234985,1.1901503801345825,21,5871.0,0.08727139979600906,149,9957.0
6650,0.3150806427001953,8.273245811462402,191,5871.0,4.744945526123047,7,9957.0
6660,0.3145459294319153,7.023446559906006,127,5871.0,9.41358757019043,168,9957.0
6670,0.31517720222473145,11.367439270019531,142,5871.0,7.450459003448486,187,9957.0
6680,0.31466060876846313,13.637057304382324,302,5871.0,4.194756507873535,-97,9957.0
6690,0.3142067790031433,11.456964492797852,197,5871.0,4.000732421875,-72,9957.0
6700,0.3137027323246002,7.1900506019592285,57,5871.0,3.6293997764587402,114,9957.0
6710,0.3139205574989319,6.251584529876709,222,5871.0,-0.4276733696460724,-198,9957.0
6720,0.31357046961784363,0.14671574532985687,-23,5871.0,5.083683013916016,-124,9957.0
6730,0.3132167458534241,-3.224705457687378,-70,5871.0,-3.307103157043457,-54,9957.0
6740,0.31288468837738037,-7.024652004241943,-9,5871.0,0.4460156261920929,-140,9957.0
6750,0.3125889003276825,-7.674449443817139,-223,5871.0,-0.4268426299095154,127,9957.0
6760,0.31126150488853455,-8.935730934143066,-52,5871.0,2.8560569286346436,-41,9957.0
6770,0.31096962094306946,-3.9869799613952637,-34,5871.0,5.420675277709961,86,9957.0
6780,0.31067758798599243,-3.549382448196411,-169,5871.0,9.585297584533691,380,9957.0
6790,0.3104206919670105,-2.1268627643585205,69,5871.0,5.011387348175049,42,9957.0
6800,0.31055694818496704,1.0785375833511353,32,5871.0,1.9932811260223389,111,9957.0
6810,0.31037259101867676,1.9999505281448364,-69,5871.0,1.5486249923706055,214,9957.0
6820,0.3102118670940399,4.781198978424072,155,5871.0,0.35548314452171326,-24,9957.0
6830,0.31008145213127136,3.748866558074951,1,5871.0,-0.5641942024230957,137,9957.0
6840,0.309986412525177,3.8791663646698,128,5871.0,-1.1434911489486694,-48,9957.0
6850,0.3098980486392975,3.2947676181793213,155,5871.0,1.71968412399292,-27,9957.0
6860,0.31004682183265686,1.6105854511260986,-22,5871.0,3.529146194458008,206,9957.0
6870,0.3100830018520355,-0.005634793546050787,75,5871.0,3.5138156414031982,61,9957.0
6880,0.3101389408111572,0.9403417110443115,-25,5871.0,2.8347649574279785,64,9957.0
6890,0.3109411299228668,-2.897275447845459,-81,5871.0,5.247222900390625,157,9957.0
6900,0.31109362840652466,-3.955146312713623,-95,5871.0,4.746743202209473,-85,9957.0
6910,0.31123703718185425,-0.5011706948280334,-85,5871.0,0.6607043743133545,86,9957.0
6920,0.3113839626312256,-0.08765847235918045,34,5871.0,-1.6789050102233887,38,9957.0
6930,0.31151968240737915,0.734153151512146,-105,5871.0,3.835925817489624,114,9957.0
6940,0.31145450472831726,-1.3464066982269287,-78,5871.0,4.490952968597412,93,9957.0
6950,0.3115963041782379,-1.9804468154907227,17,5871.0,3.655726432800293,-131,9957.0
6960,0.31174591183662415,1.3921253681182861,-48,5871.0,7.7510175704956055,210,9957.0
6970,0.31188449263572693,0.4487099051475525,96,5871.0,7.998214244842529,10,9957.0
6980,0.3105004131793976,3.344653606414795,22,5871.0,9.388861656188965,89,9957.0
6990,0.31054750084877014,0.7735013961791992,-4,5871.0,6.482539176940918,154,9957.0
7000,0.31063151359558105,3.467740535736084,128,5871.0,4.1710309982299805,-73,9957.0
7010,0.31073713302612305,1.7243322134017944,-15,5871.0,3.2430431842803955,57,9957.0
7020,0.3105466067790985,0.06955365091562271,-18,5871.0,-2.8222148418426514,53,9957.0
7030,0.31055402755737305,-1.9948126077651978,27,5871.0,-1.8246784210205078,-66,9957.0
7040,0.3106008768081665,-2.3533308506011963,-89,5871.0,-1.8367197513580322,152,9957.0
7050,0.31057173013687134,-3.548110246658325,-27,5871.0,-3.4357733726501465,-38,9957.0
7060,0.3104851245880127,-3.938678741455078,-66,5871.0,-3.6989548206329346,-126,9957.0
7070,0.30980923771858215,-3.7963898181915283,-158,5871.0,-0.45782071352005005,165,9957.0
7080,0.3096630573272705,-1.6009184122085571,-30,5871.0,-1.464999794960022,100,9957.0
7090,0.30956798791885376,-1.0690363645553589,-29,5871.0,4.245143890380859,136,9957.0
7100,0.30939778685569763,0.10313176363706589,-40,5871.0,2.745623826980591,106,9957.0
7110,0.3083292841911316,-0.8809857368469238,72,5871.0,7.101670742034912,-29,9957.0
7120,0.3080941140651703,-0.8424902558326721,-53,5871.0,5.535254955291748,164,9957.0
7130,0.3078605532646179,0.6194883584976196,12,5871.0,5.777426719665527,124,9957.0
7140,0.3075650930404663,0.2196516990661621,102,5871.0,6.425682544708252,-51,9957.0
7150,0.30756691098213196,-2.3927571773529053,-109,5871.0,2.665393590927124,148,9957.0
7160,0.3073579668998718,-2.13952898979187,-12,5871.0,-0.08268657326698303,-39,9957.0
7170,0.3071601688861847,-2.2957382202148438,38,5871.0,3.5351157188415527,-110,9957.0
7180,0.30696848034858704,-3.2325332164764404,-28,5871.0,-1.0656157732009888,-217,9957.0
7190,0.30678433179855347,-1.7657709121704102,-146,5871.0,-1.13629150390625,87,9957.0
7200,0.3063046634197235,-1.3868513107299805,48,5871.0,2.542478084564209,-47,9957.0
7210,0.30613595247268677,0.8591768145561218,-9,5871.0,2.2715651988983154,70,9957.0
7220,0.3059789538383484,2.2531867027282715,-31,5871.0,6.3627448081970215,191,9957.0
7230,0.3058374226093292,2.0780272483825684,118,5871.0,-0.8281223773956299,-58,9957.0
7240,0.3062179386615753,2.2160847187042236,-16,5871.0,-0.9260563850402832,40,9957.0
7250,0.3062231242656708,2.30700945854187,-47,5871.0,-1.92974054813385,75,9957.0
7260,0.3062271773815155,3.1143763065338135,100,5871.0,-1.8832957744598389,-146,9957.0
7270,0.3062509596347809,0.35347872972488403,-27,5871.0,-4.866755962371826,-47,9957.0
7280,0.3063409626483917,0.451936811208725,-64,5871.0,0.05355596914887428,100,9957.0
7290,0.30748164653778076,-2.9909543991088867,-15,5871.0,-0.26518234610557556,-36,9957.0
7300,0.3076261579990387,-4.658738613128662,-48,5871.0,4.030543327331543,110,9957.0
7310,0.3077930212020874,-1.3669250011444092,-39,5871.0,0.05002261698246002,115,9957.0
7320,0.3079666793346405,2.2249529361724854,128,5871.0,-2.527667284011841,-144,9957.0
7330,0.3093052804470062,3.3758440017700195,46,5871.0,-3.8329124450683594,-143,9957.0
7340,0.3095375895500183,3.609518051147461,-76,5871.0,-1.469826340675354,109,9957.0
7350,0.30977243185043335,3.01383376121521,98,5871.0,-2.5374114513397217,-148,9957.0
7360,0.3099600672721863,3.868368625640869,51,5871.0,-5.350019454956055,-89,9957.0
7370,0.3116941750049591,1.7988557815551758,-108,5871.0,-4.012471675872803,163,9957.0
7380,0.31198135018348694,-0.5723243951797485,63,5871.0,-6.451883792877197,-121,9957.0
7390,0.312236487865448,-1.5453063249588013,-19,5871.0,-5.5685272216796875,-54,9957.0
7400,0.31254351139068604,-4.020257472991943,-145,5871.0,-3.648930311203003,141,9957.0
7410,0.31279996037483215,-5.395320892333984,13,5871.0,-6.560675144195557,-96,9957.0
7420,0.31436842679977417,-3.3144149780273438,-91,5871.0,-5.548981666564941,-36,9957.0
7430,0.3146964907646179,-3.480053663253784,-104,5871.0,-4.755694389343262,93,9957.0
7440,0.31501659750938416,-3.7263970375061035,99,5871.0,-0.6330114603042603,-170,9957.0
7450,0.3153732717037201,-2.2186615467071533,-109,5871.0,-1.6983319520950317,91,9957.0
7460,0.31618329882621765,-2.853954553604126,-17,5871.0,0.26701125502586365,43,9957.0
7470,0.3164835274219513,-1.6316529512405396,154,5871.0,1.6846017837524414,-205,9957.0
7480,0.31679555773735046,1.6598178148269653,-85,5871.0,-4.490339279174805,-16,9957.0
7490,0.317086786031723,-0.5579401254653931,71,5871.0,-4.440298557281494,-67,9957.0
7500,0.3173674941062927,3.3073954582214355,0,5871.0,-6.248025417327881,-261,9957.0
7510,0.31794941425323486,3.962141990661621,84,5871.0,-7.431029796600342,-87,9957.0
7520,0.31832611560821533,1.7193142175674438,167,5871.0,-1.1298516988754272,-227,9957.0
7530,0.3185913860797882,4.4005279541015625,25,5871.0,-7.603778839111328,-46,9957.0
7540,0.31889745593070984,4.2979865074157715,143,5871.0,-7.5276198387146,-100,9957.0
7550,0.3188045620918274,3.1609346866607666,98,5871.0,-1.7881934642791748,-89,9957.0
7560,0.31906458735466003,4.090674877166748,53,5871.0,-5.576735496520996,54,9957.0
7570,0.3192905783653259,-2.148077964782715,103,5871.0,-0.7387400269508362,-43,9957.0
7580,0.31949812173843384,0.9736586809158325,-5,5871.0,3.763545036315918,158,9957.0
7590,0.31980642676353455,1.3180428743362427,0,5871.0,4.812255859375,169,9957.0
7600,0.31997743248939514,2.459449291229248,101,5871.0,4.296224594116211,3,9957.0
7610,0.3201420307159424,2.9748940467834473,-45,5871.0,1.9363163709640503,109,9957.0
7620,0.3203440010547638,-0.5268080830574036,66,5871.0,0.10738275945186615,-49,9957.0
7630,0.3205166757106781,-2.1614065170288086,23,5871.0,-0.8485546708106995,-80,9957.0
7640,0.32083994150161743,-3.1851024627685547,-150,5871.0,-3.6148886680603027,77,9957.0
7650,0.3209531307220459,-4.3808979988098145,-76,5871.0,-1.8567456007003784,-54,9957.0
7660,0.3210747241973877,-4.664230823516846,-73,5871.0,-3.8423831462860107,-116,9957.0
7670,0.3212050199508667,-3.699512004852295,-107,5871.0,-5.382177829742432,-10,9957.0
7680,0.32237687706947327,-0.12490318715572357,100,5871.0,-2.667349338531494,-70,9957.0
7690,0.32258036732673645,1.1315076351165771,7,5871.0,-3.6411192417144775,36,9957.0
7700,0.3228301703929901,5.341152667999268,28,5871.0,4.347592353820801,179,9957.0
7710,0.32308828830718994,5.5779314041137695,200,5871.0,9.563125610351562,26,9957.0
7720,0.32336264848709106,3.0167040824890137,19,5871.0,12.427553176879883,255,9957.0
7730,0.32267552614212036,4.415342807769775,93,5871.0,9.330970764160156,128,9957.0
7740,0.3229292035102844,2.9245340824127197,114,5871.0,4.54740047454834,-102,9957.0
7750,0.32335108518600464,1.5947284698486328,-50,5871.0,-6.688299179077148,-114,9957.0
7760,0.32357868552207947,1.4405542612075806,-4,5871.0,-2.4580578804016113,72,9957.0
7770,0.3240400552749634,1.2898744344711304,21,5871.0,-10.094346046447754,-211,9957.0
7780,0.32437145709991455,1.8646546602249146,-67,5871.0,-9.445388793945312,-32,9957.0
7790,0.32460933923721313,0.528468132019043,113,5871.0,-4.369570255279541,-127,9957.0
7800,0.3249172568321228,-0.5049935579299927,-51,5871.0,2.7587268352508545,107,9957.0
7810,0.32520848512649536,1.4463049173355103,-1,5871.0,5.629785060882568,152,9957.0
7820,0.3255109190940857,1.2467097043991089,88,5871.0,7.062987804412842,123,9957.0
7830,0.32594558596611023,1.8426644802093506,-37,5871.0,12.76456069946289,336,9957.0
7840,0.32627105712890625,0.16183890402317047,123,5871.0,7.916293144226074,33,9957.0
7850,0.3266288936138153,4.292541027069092,40,5871.0,8.293889999389648,208,9957.0
7860,0.32713383436203003,-2.647336483001709,64,5871.0,8.768263816833496,103,9957.0
7870,0.3276195824146271,-0.3951861262321472,68,5871.0,0.6946139931678772,-60,9957.0
7880,0.32802635431289673,1.0648620128631592,-121,5871.0,-0.7002208828926086,65,9957.0
7890,0.3284161686897278,-1.0140774250030518,36,5871.0,-3.8009114265441895,-133,9957.0
7900,0.3288629353046417,0.4744064509868622,-74,5871.0,-2.2328174114227295,37,9957.0
7910,0.3292023241519928,5.621891498565674,116,5871.0,-0.34924212098121643,-53,9957.0
7920,0.3296198546886444,-0.7181979417800903,29,5871.0,0.9732947945594788,-77,9957.0
7930,0.329997181892395,1.6827725172042847,-14,5871.0,-0.09719270467758179,-12,9957.0
7940,0.33034995198249817,1.2473026514053345,170,5871.0,3.3620688915252686,-200,9957.0
7950,0.33016160130500793,1.7931783199310303,-26,5871.0,0.18789225816726685,51,9957.0
7960,0.33044037222862244,3.3059489727020264,151,5871.0,3.3001575469970703,-46,9957.0
7970,0.3306482136249542,3.130009412765503,21,5871.0,2.805769443511963,71,9957.0
7980,0.3308410048484802,1.0859771966934204,20,5871.0,0.700719952583313,32,9957.0
7990,0.3307238817214966,0.5505328178405762,69,5871.0,2.582581043243408,-22,9957.0
8000,0.3309134244918823,0.7531068325042725,-58,5871.0,-0.20548944175243378,162,9957.0
8010,0.33105283975601196,2.994006872177124,104,5871.0,3.880420207977295,-30,9957.0
8020,0.331195205450058,2.3869173526763916,-61,5871.0,1.4240028858184814,135,9957.0
8030,0.3316182792186737,0.0024191548582166433,55,5871.0,-0.9073972105979919,-67,9957.0
8040,0.3317980468273163,-0.1846778392791748,-16,5871.0,-4.015030860900879,-84,9957.0
8050,0.33194607496261597,-2.6614933013916016,-98,5871.0,-3.8861114978790283,18,9957.0
8060,0.3321076035499573,-2.827040672302246,-2,5871.0,-5.312808513641357,-141,9957.0
8070,0.33231115341186523,-5.14178466796875,-173,5871.0,-2.06356143951416,50,9957.0
8080,0.33199912309646606,-5.103456497192383,-15,5871.0,-3.1815693378448486,-146,9957.0
8090,0.33221104741096497,-3.33799409866333,-141,5871.0,-2.465668201446533,26,9957.0
8100,0.3324683904647827,-3.8842663764953613,-77,5871.0,2.2977683544158936,80,9957.0
8110,0.332763671875,-1.3082304000854492,-96,5871.0,-1.2632170915603638,38,9957.0
8120,0.33346182107925415,0.6960962414741516,45,5871.0,7.969122409820557,212,9957.0
8130,0.3338240087032318,1.437015414237976,51,5871.0,8.675098419189453,-51,9957.0
8140,0.3342018723487854,0.506156861782074,-42,5871.0,3.0480387210845947,128,9957.0
8150,0.3346005976200104,2.381834030151367,85,5871.0,2.2579662799835205,86,9957.0
8160,0.3350248634815216,-0.14157989621162415,-113,5871.0,1.1474250555038452,152,9957.0
8170,0.3366774916648865,-2.6559367179870605,-12,5871.0,-2.1546103954315186,-19,9957.0
8180,0.3371753394603729,-6.605399131774902,-132,5871.0,-3.35825252532959,-16,9957.0
8190,0.337637722492218,-7.643614768981934,-126,5871.0,-4.449304103851318,-60,9957.0
8200,0.3380957543849945,-6.748899459838867,-71,5871.0,-6.130059719085693,-130,9957.0
8210,0.33863934874534607,-5.7736310958862305,-146,5871.0,-4.588186740875244,14,9957.0
8220,0.3392198085784912,-7.789369583129883,21,5871.0,-0.8495023846626282,-98,9957.0
8230,0.33979856967926025,-4.988733291625977,-151,5871.0,0.9067421555519104,109,9957.0
8240,0.34040194749832153,-6.68691349029541,-3,5871.0,7.040428638458252,-97,9957.0
8250,0.34021803736686707,-6.030104637145996,-151,5871.0,6.280092239379883,99,9957.0
8260,0.3408096134662628,-3.466317892074585,-4,5871.0,4.589578628540039,13,9957.0
8270,0.3414248526096344,-1.7145131826400757,-36,5871.0,5.9477338790893555,129,9957.0
8280,0.3420429527759552,-2.922334671020508,2,5871.0,0.9906301498413086,39,9957.0
8290,0.3426626920700073,3.8514983654022217,119,5871.0,-1.1566729545593262,-99,9957.0
8300,0.3414332866668701,4.47496223449707,-3,5871.0,-1.5938661098480225,-13,9957.0
8310,0.3419746458530426,5.766704559326172,210,5871.0,-0.6114911437034607,-79,9957.0
8320,0.3425167202949524,6.78770112991333,90,5871.0,-4.190494537353516,80,9957.0
8330,0.3430451452732086,9.148820877075195,262,5871.0,-0.75138920545578,-103,9957.0
8340,0.3424123525619507,7.209031581878662,81,5871.0,0.3449692130088806,36,9957.0
8350,0.3428662121295929,5.30036735534668,192,5871.0,3.2872369289398193,-105,9957.0
8360,0.3433699309825897,4.382759094238281,-34,5871.0,1.657585620880127,116,9957.0
8370,0.3438781201839447,1.7785305976867676,67,5871.0,4.891407489776611,-87,9957.0
8380,0.34345734119415283,-1.0928804874420166,-88,5871.0,1.4463295936584473,73,9957.0
8390,0.3439139425754547,-1.5475118160247803,9,5871.0,0.9111008048057556,-34,9957.0
8400,0.34432968497276306,-1.2090898752212524,-87,5871.0,0.43464016914367676,113,9957.0
8410,0.3447503447532654,-0.6770814657211304,16,5871.0,-1.0039920806884766,-30,9957.0
8420,0.34517937898635864,-0.21637322008609772,-60,5871.0,-0.8863014578819275,89,9957.0
8430,0.3463290333747864,0.42666298151016235,21,5871.0,-1.5330182313919067,-29,9957.0
8440,0.3467552959918976,0.6014921069145203,-1,5871.0,1.3180714845657349,52,9957.0
8450,0.34713467955589294,0.21431073546409607,-2,5871.0,0.776711106300354,45,9957.0
8460,0.3474830389022827,1.7668527364730835,54,5871.0,1.0814214944839478,-24,9957.0
8470,0.3472253978252411,0.4723651111125946,-10,5871.0,-2.0809319019317627,-13,9957.0
8480,0.3474915027618408,-0.9009062051773071,88,5871.0,-1.580371618270874,-189,9957.0
8490,0.34773290157318115,2.0992019176483154,-37,5871.0,-2.009596824645996,60,9957.0
8500,0.34795722365379333,0.41341933608055115,95,5871.0,-3.2866709232330322,-152,9957.0
8510,0.3481711149215698,0.8824053406715393,-71,5871.0,-2.2733638286590576,72,9957.0
8520,0.3474799692630768,1.2288507223129272,50,5871.0,-2.0992491245269775,-70,9957.0
8530,0.3476431369781494,0.3619815707206726,-127,5871.0,0.659569263458252,145,9957.0
8540,0.3477975130081177,-0.4608538746833801,23,5871.0,4.705631732940674,82,9957.0
8550,0.34795016050338745,-2.0845391750335693,-63,5871.0,2.4507453441619873,102,9957.0
8560,0.3497537076473236,-4.6336469650268555,-65,5871.0,6.054739475250244,137,9957.0
8570,0.35002973675727844,-2.2762935161590576,-22,5871.0,1.2548112869262695,10,9957.0
8580,0.35035714507102966,-2.4538183212280273,-105,5871.0,-0.2021166980266571,84,9957.0
8590,0.35071709752082825,-2.108724594116211,102,5871.0,-3.7495200634002686,-196,9957.0
8600,0.3514596223831177,0.7951583862304688,-28,5871.0,-3.1391115188598633,22,9957.0
8610,0.35190489888191223,1.2117595672607422,98,5871.0,-2.0421206951141357,-90,9957.0
8620,0.3523530662059784,2.152339458465576,34,5871.0,-0.30654191970825195,-7,9957.0
8630,0.3528479337692261,1.474229335784912,55,5871.0,1.332839846611023,35,9957.0
8640,0.35337504744529724,4.497993469238281,127,5871.0,3.402531623840332,-67,9957.0
8650,0.35500070452690125,2.756331443786621,10,5871.0,4.955251216888428,174,9957.0
8660,0.3555970788002014,5.57398796081543,144,5871.0,3.5118906497955322,-21,9957.0
8670,0.35620108246803284,4.107170581817627,-18,5871.0,3.5985031127929688,170,9957.0
8680,0.35692524909973145,3.0108160972595215,71,5871.0,0.7891183495521545,-56,9957.0
8690,0.35682809352874756,-0.09495452046394348,-102,5871.0,3.5202510356903076,109,9957.0
8700,0.35746270418167114,-0.4306366741657257,37,5871.0,4.931642055511475,101,9957.0
8710,0.3580802083015442,2.019331216812134,-15,5871.0,5.982881546020508,176,9957.0
8720,0.3586493134498596,3.138540267944336,53,5871.0,6.879219055175781,68,9957.0
8730,0.35929548740386963,5.076348781585693,63,5871.0,2.32854962348938,87,9957.0
8740,0.35939326882362366,4.288887977600098,176,5871.0,6.207187652587891,65,9957.0
8750,0.35999158024787903,5.007284641265869,143,5871.0,1.815865159034729,21,9957.0
8760,0.3605349063873291,1.9925949573516846,64,5871.0,4.119143486022949,53,9957.0
8770,0.3610360324382782,-0.5191972255706787,-122,5871.0,3.4763216972351074,235,9957.0
8780,0.3610777258872986,-4.3648223876953125,32,5871.0,4.426186561584473,-20,9957.0
8790,0.36156564950942993,-2.1195151805877686,-129,5871.0,-1.789923071861267,-23,9957.0
8800,0.36205583810806274,-3.5890285968780518,0,5871.0,1.9027584791183472,-93,9957.0
8810,0.3626176118850708,-0.24001872539520264,-55,5871.0,-1.0594388246536255,-42,9957.0
8820,0.3622712790966034,-1.5788986682891846,-2,5871.0,-0.6651067137718201,-91,9957.0
8830,0.3626728355884552,-3.017646074295044,-80,5871.0,-6.78145694732666,-73,9957.0
8840,0.36304348707199097,-0.9526186585426331,11,5871.0,-5.3239426612854,-97,9957.0
8850,0.3633889853954315,-1.602031946182251,-72,5871.0,-5.230676651000977,-12,9957.0
8860,0.36375290155410767,-2.6212046146392822,17,5871.0,-2.8545823097229004,-90,9957.0
8870,0.36460793018341064,-0.4923369884490967,9,5871.0,-3.781311511993408,-62,9957.0
8880,0.36499297618865967,1.9034188985824585,36,5871.0,-0.4742693305015564,-40,9957.0
8890,0.3653367757797241,-0.5877752900123596,-14,5871.0,3.064629077911377,-13,9957.0
8900,0.36564239859580994,4.774910926818848,18,5871.0,-3.398202657699585,-11,9957.0
8910,0.3652866780757904,-0.3084353506565094,12,5871.0,2.3272037506103516,4,9957.0
8920,0.3655626177787781,1.1009008884429932,-17,5871.0,0.22877752780914307,95,9957.0
8930,0.36585766077041626,-1.542517066001892,11,5871.0,6.016928672790527,36,9957.0
8940,0.3661770820617676,-0.14258302748203278,-69,5871.0,0.5118646621704102,86,9957.0
8950,0.3664790391921997,0.2244781255722046,49,5871.0,-0.710346519947052,-97,9957.0
8960,0.36621853709220886,2.9577760696411133,13,5871.0,-4.511545181274414,68,9957.0
8970,0.3664732277393341,4.412038326263428,187,5871.0,-3.2985711097717285,-81,9957.0
8980,0.36673852801322937,3.0657129287719727,39,5871.0,1.9304165840148926,-46,9957.0
8990,0.3670229911804199,1.146882176399231,146,5871.0,0.9393649101257324,-188,9957.0
9000,0.3669160306453705,-2.6301589012145996,-156,5871.0,-1.2762610912322998,58,9957.0
9010,0.3671485483646393,-2.691335439682007,6,5871.0,-1.0811580419540405,-103,9957.0
9020,0.3673602342605591,-2.234983444213867,-56,5871.0,1.315735936164856,159,9957.0
9030,0.3675600588321686,-3.4100191593170166,-61,5871.0,0.09558776766061783,8,9957.0
9040,0.3691364824771881,-3.6286144256591797,-115,5871.0,-0.4169851839542389,103,9957.0
9050,0.36946359276771545,-0.08473527431488037,38,5871.0,-8.331391334533691,-88,9957.0
9060,0.3697800040245056,-0.7715075016021729,-38,5871.0,0.4913007318973541,18,9957.0
9070,0.37007370591163635,0.037818677723407745,-30,5871.0,-0.6023438572883606,3,9957.0
9080,0.37035155296325684,-1.3556654453277588,107,5871.0,-2.798063039779663,-142,9957.0
9090,0.3708963096141815,2.507577419281006,-39,5871.0,0.1574520617723465,77,9957.0
9100,0.371212363243103,0.8223334550857544,148,5871.0,3.977454423904419,-110,9957.0
9110,0.3715275824069977,3.616187572479248,3,5871.0,-0.8847736120223999,51,9957.0
9120,0.3718041479587555,1.3269131183624268,94,5871.0,2.2599878311157227,-58,9957.0
9130,0.3729378879070282,2.5329840183258057,-43,5871.0,-0.14512597024440765,38,9957.0
9140,0.3732389211654663,-0.5213193297386169,64,5871.0,7.224277496337891,-40,9957.0
9150,0.37353795766830444,0.29171621799468994,6,5871.0,-1.0534650087356567,6,9957.0
9160,0.37382638454437256,0.290928453207016,-8,5871.0,-4.801055908203125,58,9957.0
9170,0.37405329942703247,0.27104702591896057,-12,5871.0,-2.9676315784454346,-6,9957.0
9180,0.37439221143722534,1.506257176399231,-65,5871.0,2.534869909286499,201,9957.0
9190,0.3746538758277893,-0.08511000126600266,107,5871.0,-3.83357310295105,-159,9957.0
9200,0.3749416470527649,1.2232674360275269,-59,5871.0,-3.4259493350982666,62,9957.0
9210,0.3752351999282837,1.3024674654006958,156,5871.0,-7.979983806610107,-248,9957.0
9220,0.37663519382476807,1.6617518663406372,-32,5871.0,0.25624871253967285,101,9957.0
9230,0.37691134214401245,0.9247997999191284,81,5871.0,3.628854513168335,-6,9957.0
9240,0.37730836868286133,3.2908666133880615,33,5871.0,1.2659940719604492,165,9957.0
9250,0.37773585319519043,2.389021396636963,37,5871.0,7.536032676696777,111,9957.0
9260,0.37935471534729004,2.92802095413208,10,5871.0,5.359550952911377,85,9957.0
9270,0.3797034025192261,-1.9148979187011719,-72,5871.0,5.821869373321533,156,9957.0
9280,0.3800109624862671,-1.8478337526321411,103,5871.0,1.1823294162750244,-252,9957.0
9290,0.38036102056503296,-3.9868383407592773,-94,5871.0,1.3782124519348145,13,9957.0
9300,0.3807178735733032,-2.936380386352539,28,5871.0,0.7749002575874329,-72,9957.0
9310,0.381202757358551,-1.9873007535934448,-97,5871.0,-1.4614869356155396,63,9957.0
9320,0.381524920463562,-2.283458948135376,13,5871.0,-6.388175010681152,-61,9957.0
9330,0.3822363018989563,-0.6688063144683838,33,5871.0,-4.139598369598389,-176,9957.0
9340,0.3825378715991974,0.7391793727874756,75,5871.0,-11.01545524597168,-118,9957.0
9350,0.3815268874168396,-0.4569818675518036,-41,5871.0,-14.762964248657227,-242,9957.0
9360,0.38183629512786865,-0.879279375076294,-20,5871.0,-8.870438575744629,8,9957.0
9370,0.3821095824241638,-2.417630672454834,-36,5871.0,-4.348411560058594,-152,9957.0
9380,0.3822701573371887,-1.3049317598342896,-72,5871.0,-3.311797618865967,12,9957.0
9390,0.38248294591903687,-3.7871453762054443,54,5871.0,-2.256035804748535,-120,9957.0
9400,0.3824276626110077,-6.151727199554443,-161,5871.0,0.7273505330085754,127,9957.0
9410,0.3826608657836914,-8.341477394104004,-33,5871.0,1.6967248916625977,-123,9957.0
9420,0.38286423683166504,-9.24240779876709,-219,5871.0,5.038693904876709,110,9957.0
9430,0.3830021917819977,-8.856709480285645,-70,5871.0,1.988877296447754,-45,9957.0
9440,0.38354694843292236,-6.468655109405518,-134,5871.0,-0.10994189232587814,33,9957.0
9450,0.3837478756904602,-6.103068828582764,-69,5871.0,0.9904617667198181,-15,9957.0
9460,0.38396933674812317,-2.6139883995056152,22,5871.0,-0.6675605177879333,-96,9957.0
9470,0.3841973543167114,0.762994110584259,-48,5871.0,-3.624603748321533,31,9957.0
9480,0.38514167070388794,2.3615574836730957,103,5871.0,0.40778645873069763,-120,9957.0
9490,0.3854416608810425,5.40283203125,2,5871.0,0.41750454902648926,72,9957.0
9500,0.38575392961502075,4.072798252105713,96,5871.0,1.2141989469528198,-16,9957.0
9510,0.3860538899898529,3.245236873626709,84,5871.0,1.2959598302841187,25,9957.0
9520,0.3863263726234436,2.440371036529541,9,5871.0,0.044761065393686295,-26,9957.0
9530,0.38602468371391296,-0.06528837978839874,63,5871.0,-0.13840351998806,-138,9957.0
9540,0.3862403631210327,0.8564539551734924,-99,5871.0,-3.1066513061523438,42,9957.0
9550,0.38644641637802124,-2.539921998977661,18,5871.0,-3.982452392578125,-158,9957.0
9560,0.3866247236728668,-2.8144986629486084,-117,5871.0,-4.45832633972168,2,9957.0
9570,0.38732263445854187,-2.8486406803131104,10,5871.0,-5.116357326507568,-125,9957.0
9580,0.3875257670879364,-2.526695966720581,-25,5871.0,0.6306270360946655,16,9957.0
9590,0.38752830028533936,-2.3822805881500244,-29,5871.0,0.8058189749717712,54,9957.0
9600,0.3879644572734833,0.006647032219916582,89,5871.0,3.550046920776367,-44,9957.0
9610,0.38835909962654114,1.1540489196777344,-102,5871.0,1.3214187622070312,148,9957.0
9620,0.388814777135849,0.1540425568819046,48,5871.0,6.452224254608154,10,9957.0
9630,0.3888961672782898,1.2901538610458374,-13,5871.0,3.62725830078125,93,9957.0
9640,0.3892435133457184,0.16972124576568604,-24,5871.0,2.8740293979644775,81,9957.0
9650,0.38924258947372437,0.437709242105484,28,5871.0,-1.6034899950027466,-100,9957.0
9660,0.38963571190834045,-0.5390349626541138,-119,5871.0,1.1768661737442017,142,9957.0
9670,0.38978344202041626,-0.7906717658042908,77,5871.0,-1.7487586736679077,-119,9957.0
9680,0.3899533450603485,0.9378180503845215,-41,5871.0,-3.333179473876953,26,9957.0
9690,0.39013639092445374,2.413930654525757,58,5871.0,-3.6676061153411865,-40,9957.0
9700,0.39096105098724365,2.4730000495910645,68,5871.0,-1.929094910621643,-79,9957.0
9710,0.3911530077457428,5.046677112579346,26,5871.0,0.43558356165885925,72,9957.0
9720,0.3913450539112091,2.6362464427948,155,5871.0,5.907242774963379,-87,9957.0
9730,0.3917997479438782,2.9037585258483887,-65,5871.0,5.868437767028809,208,9957.0
9740,0.3918229043483734,-0.1790575385093689,41,5871.0,7.04029655456543,45,9957.0
9750,0.3917778730392456,-0.11245103925466537,-5,5871.0,9.312809944152832,97,9957.0
9760,0.39182600378990173,-0.6547727584838867,-41,5871.0,2.218381643295288,100,9957.0
9770,0.39215680956840515,-2.12058687210083,80,5871.0,4.088027477264404,-122,9957.0
9780,0.39215824007987976,-0.7159948945045471,-68,5871.0,-2.2483770847320557,86,9957.0
9790,0.3929593563079834,-0.4222111403942108,65,5871.0,-1.8320509195327759,-64,9957.0
9800,0.39311379194259644,-0.24469801783561707,42,5871.0,-5.25829553604126,-138,9957.0
9810,0.39335376024246216,1.8066976070404053,-22,5871.0,-0.5830896496772766,28,9957.0
9820,0.3936406970024109,2.7295355796813965,167,5871.0,-2.2831625938415527,-191,9957.0
9830,0.3938431739807129,-0.7054812908172607,-61,5871.0,-0.32006025314331055,116,9957.0
9840,0.3923655152320862,0.15960407257080078,76,5871.0,2.5485658645629883,-92,9957.0
9850,0.39244168996810913,0.14556924998760223,-55,5871.0,0.7226963639259338,62,9957.0
9860,0.3924658000469208,0.04542316868901253,12,5871.0,2.3820037841796875,62,9957.0
9870,0.39253538846969604,-0.41430142521858215,59,5871.0,1.2897578477859497,-71,9957.0
9880,0.3924189507961273,-0.0775880217552185,-56,5871.0,1.317274808883667,94,9957.0
9890,0.3924698829650879,0.09835269302129745,102,5871.0,2.6312077045440674,-154,9957.0
9900,0.39253976941108704,1.3777422904968262,-19,5871.0,-1.385951280593872,-57,9957.0
9910,0.3926033079624176,1.0923984050750732,31,5871.0,0.6544212102890015,4,9957.0
9920,0.39166951179504395,1.2811471223831177,89,5871.0,0.6247349381446838,-22,9957.0
9930,0.39169272780418396,2.157172918319702,-23,5871.0,0.5048092007637024,95,9957.0
9940,0.39171069860458374,0.9364280104637146,143,5871.0,0.9621182084083557,-132,9957.0
9950,0.3917275369167328,1.05741286277771,3,5871.0,2.078568458557129,33,9957.0
9960,0.391731321811676,0.2729700207710266,90,5871.0,2.990544557571411,-48,9957.0
9970,0.3902309238910675,2.1957340240478516,-91,5871.0,0.3884274661540985,7,9957.0
9980,0.39015844464302063,0.75639808177948,89,5871.0,1.0403163433074951,97,9957.0
9990,0.3900798559188843,0.8143512010574341,-46,5871.0,-2.466414451599121,46,9957.0
10000,0.39002013206481934,-1.6968337297439575,-20,5871.0,-2.819396734237671,0,9957.0
10010,0.39074942469596863,-2.365987539291382,17,5871.0,-1.693777322769165,-92,9957.0
10020,0.39086493849754333,-2.7407169342041016,-158,5871.0,-2.34712290763855,12,9957.0
10030,0.3909461498260498,-5.1738691329956055,8,5871.0,-2.847599983215332,-184,9957.0
10040,0.3910258114337921,-3.9506444931030273,-120,5871.0,-7.782892227172852,-46,9957.0
10050,0.391112357378006,-3.831963300704956,-38,5871.0,-2.4851698875427246,-65,9957.0
10060,0.39110907912254333,-2.598144292831421,-12,5871.0,0.7976846098899841,-43,9957.0
10070,0.39116373658180237,-2.071370840072632,-56,5871.0,-2.452970027923584,25,9957.0
10080,0.39127030968666077,-1.3335120677947998,92,5871.0,0.16835762560367584,-163,9957.0
10090,0.39143800735473633,0.6179825663566589,-61,5871.0,-1.7209553718566895,28,9957.0
10100,0.39216670393943787,1.5157785415649414,98,5871.0,1.700096845626831,-81,9957.0
10110,0.3923715651035309,1.6660715341567993,15,5871.0,-0.6279411911964417,23,9957.0
10120,0.39258822798728943,2.4789180755615234,50,5871.0,2.3297595977783203,32,9957.0
10130,0.3928421139717102,3.2153637409210205,118,5871.0,3.003269910812378,-34,9957.0
10140,0.39419105648994446,2.399608612060547,-25,5871.0,1.69680655002594,165,9957.0
10150,0.3945309817790985,2.0912551879882812,100,5871.0,0.07538248598575592,-121,9957.0
10160,0.3948739767074585,5.824645519256592,-71,5871.0,0.5029423832893372,132,9957.0
10170,0.3952370882034302,-1.1471055746078491,54,5871.0,2.233652114868164,-72,9957.0
10180,0.3956789970397949,0.44360092282295227,-36,5871.0,1.7565504312515259,62,9957.0
10190,0.3953035771846771,-3.362508773803711,-19,5871.0,8.32426643371582,40,9957.0
10200,0.3956739604473114,-3.200772762298584,-47,5871.0,3.321821928024292,43,9957.0
10210,0.3960297405719757,-2.542574882507324,-48,5871.0,3.457634687423706,72,9957.0
10220,0.39640122652053833,-3.74467396736145,-40,5871.0,1.5753774642944336,-2,9957.0
10230,0.3964782953262329,-2.6037776470184326,-108,5871.0,-0.9074689149856567,90,9957.0
10240,0.3968586027622223,-1.4337446689605713,50,5871.0,-0.5923454761505127,-114,9957.0
10250,0.39721229672431946,-0.6263958215713501,-108,5871.0,-2.882399082183838,96,9957.0
10260,0.3975186049938202,0.6175336837768555,125,5871.0,-2.516946792602539,-149,9957.0
10270,0.3982639014720917,3.2087793350219727,65,5871.0,-6.636651039123535,-51,9957.0
10280,0.3986147940158844,2.298809289932251,129,5871.0,-1.8064388036727905,-83,9957.0
10290,0.3989531397819519,5.453807353973389,4,5871.0,2.9940617084503174,139,9957.0
10300,0.3992619514465332,5.0331244468688965,105,5871.0,1.229875087738037,-31,9957.0
10310,0.399544894695282,2.1171154975891113,2,5871.0,3.916262626647949,104,9957.0
10320,0.3986644446849823,2.227461099624634,85,5871.0,3.9061827659606934,27,9957.0
10330,0.3987913727760315,1.9906750917434692,9,5871.0,2.8738796710968018,80,9957.0
10340,0.3989569842815399,-2.4843029975891113,-9,5871.0,4.347006797790527,19,9957.0
10350,0.399116188287735,-2.1001651287078857,-40,5871.0,0.23866765201091766,6,9957.0
10360,0.4003264605998993,-4.96783971786499,-119,5871.0,-1.5168230533599854,72,9957.0
10370,0.40047821402549744,-3.9466311931610107,27,5871.0,1.2552059888839722,-70,9957.0
10380,0.4005880355834961,-0.9176284670829773,-50,5871.0,-2.2444097995758057,74,9957.0
10390,0.400696724653244,-0.6015974283218384,143,5871.0,-0.4165510833263397,-153,9957.0
10400,0.4007972776889801,3.1236941814422607,-8,5871.0,-2.7978878021240234,23,9957.0
10410,0.3997196555137634,1.1200973987579346,118,5871.0,-1.3383229970932007,-118,9957.0
10420,0.3997248709201813,1.0590085983276367,-19,5871.0,-1.0081877708435059,3,9957.0
10430,0.399699330329895,-0.3210054934024811,37,5871.0,0.1599910408258438,-125,9957.0
10440,0.39968928694725037,-0.2764691412448883,-31,5871.0,-4.007984638214111,5,9957.0
10450,0.3997771143913269,-0.6307053565979004,-1,5871.0,-0.47364750504493713,101,9957.0
10460,0.39975354075431824,0.9161114692687988,45,5871.0,4.673127174377441,32,9957.0
10470,0.3997552692890167,1.0179212093353271,-57,5871.0,3.6766772270202637,103,9957.0
10480,0.39973005652427673,1.0125411748886108,75,5871.0,5.7449951171875,19,9957.0
10490,0.399679571390152,1.8836383819580078,-85,5871.0,7.999564170837402,152,9957.0
10500,0.40094679594039917,-3.262697696685791,6,5871.0,7.287014007568359,18,9957.0
10510,0.4010603129863739,-1.9079654216766357,-52,5871.0,-0.5991535782814026,-21,9957.0
10520,0.40107089281082153,-2.00699520111084,-33,5871.0,-2.9437906742095947,34,9957.0
10530,0.40108466148376465,-2.823512315750122,-69,5871.0,-5.631990909576416,-158,9957.0
10540,0.40067505836486816,-2.1758620738983154,-21,5871.0,-3.9349803924560547,75,9957.0
10550,0.4007021486759186,-0.7988709211349487,9,5871.0,-7.398040294647217,-162,9957.0
10560,0.40072375535964966,0.6039767265319824,-14,5871.0,-5.167527198791504,-32,9957.0
10570,0.4007300138473511,-0.41552841663360596,124,5871.0,-1.0286287069320679,-40,9957.0
10580,0.4004441499710083,-0.06971900910139084,-60,5871.0,-3.357656478881836,-14,9957.0
10590,0.4004681408405304,-0.5128591656684875,67,5871.0,-0.1452559381723404,-103,9957.0
10600,0.40055111050605774,-1.5866750478744507,-68,5871.0,5.8678975105285645,229,9957.0
10610,0.4006335735321045,5.077960968017578,40,5871.0,1.3488491773605347,65,9957.0
10620,0.40071049332618713,2.9495162963867188,113,5871.0,2.3109941482543945,-113,9957.0
10630,0.40129554271698,4.122568130493164,-63,5871.0,-0.17374882102012634,142,9957.0
10640,0.40152883529663086,2.5475878715515137,104,5871.0,1.4313745498657227,-72,9957.0
10650,0.4017449915409088,1.4836859703063965,28,5871.0,1.341080904006958,62,9957.0
10660,0.40197062492370605,2.3950276374816895,55,5871.0,0.18886829912662506,21,9957.0
10670,0.4032829701900482,1.256380319595337,67,5871.0,2.2526257038116455,-51,9957.0
10680,0.4036385118961334,1.1467854976654053,-125,5871.0,0.7355923652648926,214,9957.0
10690,0.4040057361125946,-4.096705913543701,-5,5871.0,-2.35435152053833,-86,9957.0
10700,0.4043629765510559,-5.189157962799072,-121,5871.0,-4.378315448760986,12,9957.0
10710,0.4040486514568329,-2.927414894104004,-8,5871.0,-6.008161544799805,-116,9957.0
10720,0.4043799340724945,-2.440448045730591,12,5871.0,-2.117380380630493,-97,9957.0
10730,0.4048119783401489,0.08422785997390747,-118,5871.0,3.671537399291992,160,9957.0
10740,0.40512824058532715,-0.5314745306968689,71,5871.0,4.761314868927002,21,9957.0
10750,0.40541017055511475,0.22704607248306274,-117,5871.0,7.012679576873779,198,9957.0
10760,0.40657883882522583,-1.1573926210403442,2,5871.0,7.74533224105835,152,9957.0
10770,0.4068617820739746,-1.5283269882202148,-38,5871.0,2.6348140239715576,-5,9957.0
10780,0.40737009048461914,-0.8249902725219727,-167,5871.0,-2.090268611907959,120,9957.0
10790,0.4075869619846344,-0.03896356374025345,61,5871.0,-5.987493515014648,-148,9957.0
10800,0.4083330035209656,3.690807342529297,-26,5871.0,-5.476405620574951,25,9957.0
10810,0.4087607264518738,4.258916854858398,171,5871.0,-0.8607766628265381,-15,9957.0
10820,0.40907514095306396,6.255272388458252,71,5871.0,4.761022090911865,175,9957.0
10830,0.4094170331954956,3.2008094787597656,74,5871.0,10.461326599121094,146,9957.0
10840,0.4096791446208954,3.1752266883850098,84,5871.0,12.293356895446777,136,9957.0
10850,0.40878674387931824,2.8067259788513184,8,5871.0,11.858513832092285,243,9957.0
10860,0.40901732444763184,1.3740663528442383,81,5871.0,10.980422973632812,101,9957.0
10870,0.4092254340648651,-0.24799591302871704,-107,5871.0,9.454972267150879,281,9957.0
10880,0.4094325304031372,-3.3931708335876465,-3,5871.0,0.6933950185775757,-3,9957.0
10890,0.40938085317611694,-4.268002510070801,-82,5871.0,-5.205287933349609,-84,9957.0
10900,0.409568727016449,-4.573933124542236,-92,5871.0,-6.4411492347717285,-76,9957.0
10910,0.4097745418548584,-3.6852006912231445,19,5871.0,-7.03366231918335,-167,9957.0
10920,0.4099310338497162,-2.968794822692871,-144,5871.0,-6.8088226318359375,28,9957.0
10930,0.4096546769142151,-4.15306282043457,39,5871.0,-2.300133228302002,-220,9957.0
10940,0.4097040891647339,-4.716190814971924,-139,5871.0,-2.234168291091919,99,9957.0
10950,0.40975096821784973,-4.552591800689697,51,5871.0,2.5944395065307617,-87,9957.0
10960,0.40979090332984924,-2.1962175369262695,-103,5871.0,0.8805495500564575,130,9957.0
10970,0.40982380509376526,-1.4971736669540405,2,5871.0,6.695559024810791,17,9957.0
10980,0.4098769724369049,-0.6359090805053711,-18,5871.0,5.2726826667785645,90,9957.0
10990,0.40984708070755005,-1.5484493970870972,-57,5871.0,5.329631328582764,162,9957.0
11000,0.4098318815231323,0.6856210827827454,83,5871.0,1.5137044191360474,-65,9957.0
11010,0.409800261259079,0.03526183217763901,-45,5871.0,3.0469777584075928,148,9957.0
11020,0.40831542015075684,1.8513838052749634,101,5871.0,-1.4216288328170776,-83,9957.0
11030,0.4081903398036957,1.2121410369873047,-66,5871.0,-0.3253774046897888,5,9957.0
11040,0.4080454409122467,-0.2856435477733612,34,5871.0,0.040089208632707596,9,9957.0
11050,0.40790483355522156,-1.597590446472168,-27,5871.0,-2.5913021564483643,-95,9957.0
11060,0.4077693819999695,-3.103792190551758,-98,5871.0,-5.086587905883789,-62,9957.0
11070,0.4065483808517456,-3.5760626792907715,-1,5871.0,-6.829978942871094,-206,9957.0
11080,0.40632444620132446,-3.4301605224609375,-144,5871.0,-8.210302352905273,-31,9957.0
11090,0.40610480308532715,-3.9616622924804688,68,5871.0,-9.876108169555664,-254,9957.0
11100,0.4058774411678314,-1.7062733173370361,-101,5871.0,-5.628037452697754,-28,9957.0
11110,0.40619170665740967,-2.0478410720825195,53,5871.0,-2.0555498600006104,-65,9957.0
11120,0.40596288442611694,-0.9154189825057983,-59,5871.0,1.2203081846237183,55,9957.0
11130,0.40571504831314087,-0.5022305846214294,19,5871.0,3.2093472480773926,0,9957.0
11140,0.40549081563949585,0.27527686953544617,13,5871.0,3.3341739177703857,24,9957.0
11150,0.4053145945072174,0.26671239733695984,-19,5871.0,0.44869983196258545,80,9957.0
11160,0.4054785370826721,1.3366152048110962,126,5871.0,0.14671850204467773,-113,9957.0
11170,0.4054083526134491,0.40758752822875977,-35,5871.0,-0.8124458193778992,3,9957.0
11180,0.405348539352417,-0.8862230777740479,25,5871.0,-4.0728840827941895,-164,9957.0
11190,0.4053035080432892,1.879271149635315,-86,5871.0,-8.384142875671387,-21,9957.0
11200,0.4047846496105194,2.2240538597106934,79,5871.0,-4.7191548347473145,-89,9957.0
11210,0.40478119254112244,3.352234125137329,-59,5871.0,-2.5933964252471924,113,9957.0
11220,0.40479418635368347,1.6204276084899902,88,5871.0,-5.02112340927124,-47,9957.0
11230,0.40483754873275757,2.4082694053649902,-37,5871.0,2.265655040740967,128,9957.0
11240,0.4060927629470825,-0.6421565413475037,88,5871.0,4.397221088409424,43,9957.0
11250,0.4062800407409668,1.025678038597107,5,5871.0,6.166137218475342,169,9957.0
11260,0.40650689601898193,0.6189793944358826,2,5871.0,4.710022926330566,76,9957.0
11270,0.40678590536117554,1.2464686632156372,-9,5871.0,4.191610813140869,104,9957.0
11280,0.4070098102092743,0.5640098452568054,-10,5871.0,2.579787492752075,43,9957.0
11290,0.4076085686683655,-0.7958379983901978,143,5871.0,-3.3078835010528564,-161,9957.0
11300,0.40784913301467896,-1.1023914813995361,-38,5871.0,-5.106078147888184,-52,9957.0
11310,0.40814173221588135,-0.4325482249259949,96,5871.0,-5.420408248901367,-240,9957.0
11320,0.4084426760673523,1.0990830659866333,-83,5871.0,-9.12866497039795,-67,9957.0
11330,0.40763482451438904,1.2938671112060547,82,5871.0,-9.362447738647461,-218,9957.0
11340,0.40775999426841736,1.6847975254058838,-115,5871.0,-4.3533406257629395,80,9957.0
11350,0.40787163376808167,-0.7628275752067566,67,5871.0,3.7317090034484863,-37,9957.0
11360,0.40799278020858765,1.5482687950134277,-99,5871.0,-1.3645679950714111,127,9957.0
11370,0.4077019691467285,-0.19697031378746033,93,5871.0,0.4466083347797394,-31,9957.0
11380,0.4078315794467926,0.47391507029533386,-74,5871.0,0.26168033480644226,92,9957.0
11390,0.407958447933197,-0.04614420607686043,104,5871.0,0.903357744216919,-80,9957.0
11400,0.4080082178115845,0.7027398347854614,-16,5871.0,1.1821478605270386,100,9957.0
11410,0.40804523229599,-0.010644081048667431,104,5871.0,1.1036837100982666,-131,9957.0
11420,0.4076251983642578,2.012110471725464,-90,5871.0,0.4398782253265381,53,9957.0
11430,0.40762022137641907,2.3131606578826904,127,5871.0,-1.7563481330871582,-129,9957.0
11440,0.4076572358608246,4.257902145385742,-57,5871.0,-0.40280285477638245,156,9957.0
11450,0.40770143270492554,4.142576217651367,120,5871.0,-1.386173129081726,-41,9957.0
11460,0.40629667043685913,3.297081232070923,-42,5871.0,-1.9136282205581665,90,9957.0
11470,0.4061829745769501,1.0234214067459106,98,5871.0,-2.199650764465332,-135,9957.0
11480,0.4060211479663849,-1.0416849851608276,-62,5871.0,-0.09065721929073334,75,9957.0
11490,0.40585169196128845,-2.4927937984466553,102,5871.0,0.9021201729774475,-101,9957.0
11500,0.4057123363018036,-4.031140327453613,-113,5871.0,4.551636695861816,99,9957.0
11510,0.4057433307170868,-4.643385410308838,-6,5871.0,6.191902160644531,6,9957.0
11520,0.40569373965263367,-3.249966621398926,-121,5871.0,2.006463050842285,55,9957.0
11530,0.4056445360183716,0.13482506573200226,21,5871.0,-2.60016131401062,-36,9957.0
11540,0.405582457780838,-1.5644744634628296,-72,5871.0,3.5264716148376465,115,9957.0
11550,0.40492740273475647,-0.852455735206604,-26,5871.0,4.562572479248047,69,9957.0
11560,0.40489649772644043,-1.4984564781188965,-18,5871.0,4.121399402618408,51,9957.0
11570,0.40489983558654785,-0.55702143907547,-55,5871.0,2.464662790298462,117,9957.0
11580,0.4048977196216583,1.0404469966888428,154,5871.0,-0.01244641374796629,-241,9957.0
11590,0.40608978271484375,-0.5907610058784485,-38,5871.0,1.9007798433303833,49,9957.0
11600,0.4061366319656372,-0.614435613155365,123,5871.0,-0.9874398708343506,-169,9957.0
11610,0.4061814844608307,1.2020835876464844,-32,5871.0,-3.120154619216919,40,9957.0
11620,0.40622758865356445,0.8810203075408936,57,5871.0,1.9199225902557373,-39,9957.0
11630,0.40630292892456055,1.790688395500183,45,5871.0,1.1366081237792969,16,9957.0
11640,0.4057926535606384,0.20550259947776794,-21,5871.0,3.3717563152313232,84,9957.0
11650,0.4058765172958374,0.5513641834259033,41,5871.0,2.696962356567383,23,9957.0
11660,0.4059147536754608,1.0923409461975098,-88,5871.0,0.4792344868183136,245,9957.0
11670,0.405952125787735,1.8169538974761963,124,5871.0,3.0075230598449707,3,9957.0
11680,0.4048041105270386,1.0979701280593872,-50,5871.0,6.227652549743652,119,9957.0
11690,0.40470871329307556,-0.5829111933708191,56,5871.0,2.553598165512085,-39,9957.0
11700,0.40458449721336365,0.9866501092910767,-73,5871.0,-8.202768325805664,-19,9957.0
11710,0.404466837644577,-2.8971197605133057,-61,5871.0,1.1318411827087402,59,9957.0
11720,0.4043544828891754,-1.3238180875778198,47,5871.0,1.4086389541625977,-65,9957.0
11730,0.404066801071167,1.798090934753418,-132,5871.0,2.1484858989715576,254,9957.0
11740,0.4038851261138916,-0.8006954193115234,-3,5871.0,4.469685077667236,23,9957.0
11750,0.4037002623081207,-0.2671215534210205,-95,5871.0,1.1290534734725952,80,9957.0
11760,0.4034993350505829,0.38648155331611633,-16,5871.0,0.8055071234703064,-5,9957.0
11770,0.4027823507785797,-0.8930860757827759,56,5871.0,-0.5621559619903564,-29,9957.0
11780,0.40252360701560974,0.16630353033542633,-76,5871.0,-0.632162868976593,141,9957.0
11790,0.40224769711494446,2.860990285873413,102,5871.0,-2.7031466960906982,-94,9957.0
11800,0.4019787907600403,1.93325674533844,-83,5871.0,-3.5574593544006348,-17,9957.0
11810,0.4016985595226288,1.9057087898254395,85,5871.0,-4.5289835929870605,-51,9957.0
11820,0.4035736918449402,5.449291706085205,45,5871.0,-3.0991671085357666,93,9957.0
11830,0.40342795848846436,3.2865588665008545,38,5871.0,-3.643972158432007,-81,9957.0
11840,0.4033053517341614,1.1478554010391235,52,5871.0,-1.195184588432312,-77,9957.0
11850,0.4031345844268799,0.7263921499252319,-127,5871.0,1.2998571395874023,205,9957.0
11860,0.40298864245414734,0.11397825926542282,113,5871.0,3.7486038208007812,-30,9957.0
11870,0.4028054177761078,4.036763668060303,21,5871.0,1.6717286109924316,99,9957.0
11880,0.40267908573150635,6.465054512023926,139,5871.0,1.1937867403030396,55,9957.0
11890,0.4025445580482483,8.462800979614258,193,5871.0,4.969673156738281,10,9957.0
11900,0.40376538038253784,7.563392162322998,77,5871.0,1.9210199117660522,127,9957.0
11910,0.4036903381347656,5.397404193878174,159,5871.0,6.7438063621521,-22,9957.0
11920,0.40366822481155396,3.6257455348968506,0,5871.0,-2.8805501461029053,-23,9957.0
11930,0.40366435050964355,1.3853424787521362,44,5871.0,-1.3184802532196045,-22,9957.0
11940,0.40367329120635986,0.037317387759685516,71,5871.0,-3.7641048431396484,-154,9957.0
11950,0.4034433364868164,3.0913174152374268,-21,5871.0,-7.116077423095703,-33,9957.0
11960,0.40349727869033813,-0.07650290429592133,133,5871.0,0.49729064106941223,-150,9957.0
11970,0.4035719931125641,3.6566107273101807,-19,5871.0,-0.2593843340873718,19,9957.0
11980,0.4036567509174347,1.183878779411316,73,5871.0,6.549490451812744,68,9957.0
11990,0.4038117825984955,-0.3188401162624359,19,5871.0,6.022233963012695,31,9957.0
12000,0.40384170413017273,1.6423979997634888,-18,5871.0,3.2846615314483643,97,9957.0
12010,0.40390443801879883,-1.0369563102722168,-13,5871.0,-1.1211130619049072,-72,9957.0
12020,0.4039999544620514,-2.3532934188842773,-143,5871.0,-3.586657762527466,167,9957.0
12030,0.40405115485191345,-3.0423309803009033,81,5871.0,-10.084929466247559,-211,9957.0
12040,0.4040854275226593,-1.7806960344314575,-106,5871.0,-7.765522480010986,-27,9957.0
12050,0.40408578515052795,-2.2165801525115967,20,5871.0,-7.622525691986084,-200,9957.0
12060,0.4040818512439728,-3.7566516399383545,-46,5871.0,-4.781027317047119,-56,9957.0
12070,0.40408268570899963,-2.1430177688598633,0,5871.0,-5.789592742919922,-156,9957.0
12080,0.402862548828125,-0.7952555418014526,-22,5871.0,-4.83076286315918,-33,9957.0
12090,0.4027758538722992,-1.2139956951141357,-16,5871.0,1.9721084833145142,55,9957.0
12100,0.4026733338832855,1.0172133445739746,46,5871.0,0.7603544592857361,-12,9957.0
12110,0.40260306000709534,1.419864535331726,-16,5871.0,2.56549334526062,132,9957.0
12120,0.40234482288360596,1.806026816368103,87,5871.0,4.078107833862305,-25,9957.0
12130,0.40231361985206604,4.798229694366455,-97,5871.0,-1.6687648296356201,114,9957.0
12140,0.40225210785865784,1.0228605270385742,42,5871.0,0.10296804457902908,-95,9957.0
12150,0.4021318256855011,-0.8715428113937378,-124,5871.0,-1.0460853576660156,110,9957.0
12160,0.40196681022644043,-3.2826735973358154,-5,5871.0,-4.746764659881592,-111,9957.0
12170,0.4026106894016266,-2.0901284217834473,-111,5871.0,-5.253493785858154,26,9957.0
12180,0.4024985432624817,-5.421864032745361,-90,5871.0,-2.2635388374328613,-40,9957.0
12190,0.4023824632167816,-3.975980520248413,-33,5871.0,-3.8219900131225586,-69,9957.0
12200,0.4022608697414398,-3.0656187534332275,-48,5871.0,1.0282864570617676,43,9957.0
12210,0.40246036648750305,-4.449641227722168,43,5871.0,6.933241844177246,-19,9957.0
12220,0.4023624658584595,-0.16107280552387238,-47,5871.0,6.4501872062683105,198,9957.0
12230,0.40226781368255615,-1.1796060800552368,86,5871.0,3.327941417694092,-125,9957.0
12240,0.4021987318992615,-3.777811288833618,-56,5871.0,3.725977897644043,92,9957.0
12250,0.4016723930835724,-0.7618052959442139,7,5871.0,-1.471065878868103,-57,9957.0
12260,0.40153393149375916,0.10209885984659195,7,5871.0,-2.661142110824585,-42,9957.0
12270,0.4013949930667877,-0.08443377166986465,-77,5871.0,-5.649688243865967,26,9957.0
12280,0.40125349164009094,-1.4534013271331787,39,5871.0,-1.4029747247695923,-55,9957.0
12290,0.4010940194129944,-0.19335676729679108,-136,5871.0,-0.8204141855239868,150,9957.0
12300,0.40089690685272217,-2.000598430633545,50,5871.0,6.3873724937438965,-29,9957.0
12310,0.40076756477355957,-0.3093564808368683,-59,5871.0,3.6707608699798584,143,9957.0
12320,0.4006522297859192,-0.9761987328529358,-11,5871.0,5.879752159118652,83,9957.0
12330,0.40052512288093567,-1.5699998140335083,40,5871.0,3.3151886463165283,-42,9957.0
12340,0.40104782581329346,-1.222226619720459,-93,5871.0,4.388801097869873,170,9957.0
12350,0.4009780287742615,-1.705370545387268,31,5871.0,0.5782341957092285,-48,9957.0
12360,0.40091320872306824,-2.0931122303009033,0,5871.0,-3.394930839538574,-88,9957.0
12370,0.40084683895111084,-1.348581314086914,-11,5871.0,-0.9226613640785217,-70,9957.0
12380,0.4007674753665924,-1.2429039478302002,-6,5871.0,-2.0741727352142334,-142,9957.0
12390,0.4007814824581146,-4.741335868835449,-110,5871.0,0.19636204838752747,54,9957.0
12400,0.40073734521865845,-1.8539406061172485,-33,5871.0,1.3093905448913574,-69,9957.0
12410,0.4007079005241394,-1.0737649202346802,-17,5871.0,2.046405792236328,106,9957.0
12420,0.40065231919288635,0.5558018088340759,114,5871.0,4.198018550872803,-81,9957.0
12430,0.3999394178390503,-0.6520084738731384,-62,5871.0,3.281670331954956,140,9957.0
12440,0.3998250365257263,-0.2987038195133209,13,5871.0,2.381481170654297,79,9957.0
12450,0.39972594380378723,0.3340200185775757,-26,5871.0,0.1974031627178192,57,9957.0
12460,0.3996112644672394,-0.6905776262283325,-26,5871.0,0.47431808710098267,113,9957.0
12470,0.3985128402709961,-2.5194544792175293,120,5871.0,1.1902461051940918,-192,9957.0
12480,0.3982907235622406,-0.955500066280365,-75,5871.0,1.3649497032165527,79,9957.0
12490,0.39808017015457153,0.7595853209495544,80,5871.0,1.7719883918762207,-47,9957.0
12500,0.39785847067832947,1.3967955112457275,-12,5871.0,-0.2509571611881256,-19,9957.0
12510,0.39760473370552063,2.0347862243652344,-6,5871.0,-0.6296312808990479,26,9957.0
12520,0.3979015648365021,-0.823022186756134,32,5871.0,5.319117069244385,-31,9957.0
12530,0.3976956903934479,-3.307922840118408,-199,5871.0,5.731852054595947,169,9957.0
12540,0.39747220277786255,-2.140598773956299,-12,5871.0,3.298273801803589,15,9957.0
12550,0.3972330391407013,-1.3567938804626465,-29,5871.0,-1.7167084217071533,-86,9957.0
12560,0.3981955051422119,0.5582236051559448,-105,5871.0,-8.99736499786377,51,9957.0
12570,0.3980080187320709,-0.48407378792762756,48,5871.0,-10.424283027648926,-156,9957.0
12580,0.3977789580821991,-2.7986762523651123,-62,5871.0,-8.628090858459473,-97,9957.0
12590,0.39751526713371277,-3.8688676357269287,-97,5871.0,-8.494172096252441,-5,9957.0
12600,0.3960328698158264,-3.4611592292785645,20,5871.0,-3.146181344985962,-98,9957.0
12610,0.39573541283607483,-2.9807510375976562,-120,5871.0,-0.5377150177955627,151,9957.0
12620,0.3954274654388428,-0.9483019113540649,38,5871.0,-1.6281774044036865,95,9957.0
12630,0.3951417803764343,-2.205392360687256,-20,5871.0,5.181075572967529,138,9957.0
12640,0.39485058188438416,-2.4811880588531494,-91,5871.0,8.718634605407715,332,9957.0
12650,0.39417895674705505,-1.6894668340682983,20,5871.0,9.034109115600586,131,9957.0
12660,0.39383015036582947,-2.2876975536346436,-37,5871.0,9.47726821899414,181,9957.0
12670,0.39349761605262756,-1.8838227987289429,-144,5871.0,6.962051868438721,224,9957.0
12680,0.3931431174278259,0.3800952136516571,99,5871.0,2.1714019775390625,-40,9957.0
12690,0.3936409056186676,0.5829238295555115,-27,5871.0,-3.001316785812378,-60,9957.0
12700,0.3933056890964508,2.732388496398926,24,5871.0,-2.1070399284362793,61,9957.0
12710,0.39294177293777466,3.274115562438965,161,5871.0,-5.709634780883789,-123,9957.0
12720,0.3925657272338867,3.994560480117798,-14,5871.0,-7.085684299468994,-70,9957.0
12730,0.3921527862548828,1.5651569366455078,-51,5871.0,-5.357355117797852,59,9957.0
12740,0.3917989432811737,-1.6401110887527466,77,5871.0,0.3188352882862091,-83,9957.0
12750,0.39144572615623474,0.16741152107715607,-81,5871.0,3.4767355918884277,139,9957.0
12760,0.39115676283836365,1.7019771337509155,-20,5871.0,2.431443929672241,183,9957.0
12770,0.3909263610839844,-2.5350496768951416,49,5871.0,8.99134349822998,47,9957.0
12780,0.3907929062843323,-2.1804025173187256,-78,5871.0,6.420912265777588,211,9957.0
12790,0.3905974328517914,-0.33909186720848083,34,5871.0,4.940368175506592,35,9957.0
12800,0.3903810679912567,0.3847745656967163,119,5871.0,5.267836570739746,-19,9957.0
12810,0.3901906907558441,2.5241169929504395,-9,5871.0,2.1833863258361816,102,9957.0
12820,0.39039674401283264,3.598742961883545,70,5871.0,-1.071879267692566,-27,9957.0
12830,0.3902345299720764,2.455648899078369,174,5871.0,-0.5174158811569214,-163,9957.0
12840,0.39007237553596497,2.0711824893951416,-46,5871.0,0.8892048001289368,70,9957.0
12850,0.39001014828681946,3.7728617191314697,32,5871.0,-3.409148931503296,-8,9957.0
12860,0.389902800321579,0.6488420367240906,128,5871.0,-3.0636847019195557,-221,9957.0
12870,0.3918294906616211,-0.4631584882736206,-54,5871.0,-4.266580581665039,-93,9957.0
12880,0.3918439447879791,-0.5631980895996094,34,5871.0,-5.329388618469238,-106,9957.0
12890,0.3918952941894531,-2.366537094116211,66,5871.0,-1.976409912109375,-221,9957.0
12900,0.391952246427536,-0.15868744254112244,-68,5871.0,-5.079773902893066,23,9957.0
12910,0.3916110098361969,-0.7586432099342346,97,5871.0,-1.01426362991333,-61,9957.0
12920,0.391669362783432,1.4764466285705566,53,5871.0,0.5063921809196472,-53,9957.0
12930,0.39171886444091797,3.8532023429870605,-46,5871.0,1.3231390714645386,158,9957.0
12940,0.39177098870277405,3.675560235977173,121,5871.0,0.9326969385147095,-121,9957.0
12950,0.39185789227485657,5.068300724029541,33,5871.0,-4.626778602600098,-162,9957.0
12960,0.3907511532306671,1.4200663566589355,-19,5871.0,-2.866112232208252,-60,9957.0
12970,0.3907270133495331,0.2583923637866974,43,5871.0,-3.8315234184265137,-124,9957.0
12980,0.39067763090133667,0.2841832637786865,-162,5871.0,0.006845408584922552,187,9957.0
12990,0.3906247913837433,-4.056295871734619,1,5871.0,-1.8330681324005127,-41,9957.0
13000,0.3895094692707062,-3.4139187335968018,-18,5871.0,-1.3137389421463013,-108,9957.0
13010,0.3893240988254547,0.22333458065986633,-138,5871.0,-6.0997467041015625,16,9957.0
13020,0.3891424536705017,-4.243834495544434,46,5871.0,0.6026323437690735,-189,9957.0
13030,0.3889564275741577,-0.8647515177726746,23,5871.0,-0.15561644732952118,49,9957.0
13040,0.38876503705978394,2.2648162841796875,158,5871.0,-0.06360446661710739,1,9957.0
13050,0.3890812397003174,1.5707716941833496,12,5871.0,-4.821151256561279,-114,9957.0
13060,0.38892507553100586,-0.18882770836353302,7,5871.0,-0.8078922629356384,-53,9957.0
13070,0.38874781131744385,-0.6298034191131592,79,5871.0,-0.5557853579521179,-222,9957.0
13080,0.38853201270103455,0.578491747379303,-22,5871.0,-3.5060625076293945,-74,9957.0
13090,0.38690072298049927,-1.8536137342453003,68,5871.0,-2.9108803272247314,-84,9957.0
13100,0.3865678012371063,0.05736261606216431,62,5871.0,1.46084725856781,-162,9957.0
13110,0.38620758056640625,5.841464996337891,-70,5871.0,-8.678582191467285,148,9957.0
13120,0.38583454489707947,-2.2992632389068604,-21,5871.0,1.0907598733901978,-19,9957.0
13130,0.3864767849445343,-0.9800517559051514,-17,5871.0,1.9061580896377563,74,9957.0
13140,0.3862055540084839,-1.740738868713379,-82,5871.0,3.7582366466522217,187,9957.0
13150,0.3859005868434906,0.7361122369766235,77,5871.0,0.5073670744895935,-21,9957.0
13160,0.38562631607055664,1.855506420135498,-37,5871.0,0.10651153326034546,74,9957.0
13170,0.38535118103027344,-0.9949603080749512,51,5871.0,0.4103214144706726,19,9957.0
13180,0.38375020027160645,1.584900975227356,120,5871.0,-2.321364164352417,-192,9957.0
13190,0.3833872973918915,2.8618593215942383,-29,5871.0,-3.8848257064819336,57,9957.0
13200,0.38300010561943054,1.0229954719543457,51,5871.0,-4.042208671569824,-114,9957.0
13210,0.3826276361942291,0.14567683637142181,50,5871.0,-2.688209056854248,-31,9957.0
13220,0.38292309641838074,-0.21065424382686615,-51,5871.0,-3.238426446914673,58,9957.0
13230,0.38260316848754883,0.045253098011016846,4,5871.0,-1.6404913663864136,-38,9957.0
13240,0.3824480175971985,0.640914797782898,-45,5871.0,-2.0746917724609375,-43,9957.0
13250,0.3821198344230652,1.2622381448745728,-47,5871.0,-1.4798191785812378,104,9957.0
13260,0.38187772035598755,0.49536266922950745,37,5871.0,2.0488526821136475,-3,9957.0
13270,0.3809116780757904,-2.029193878173828,-79,5871.0,5.060555934906006,87,9957.0
13280,0.38076138496398926,-1.2842789888381958,-71,5871.0,3.3954508304595947,169,9957.0
13290,0.3812531530857086,-1.7358145713806152,56,5871.0,0.26001447439193726,-71,9957.0
13300,0.3811437487602234,-0.08356720954179764,-45,5871.0,2.6229443550109863,98,9957.0
13310,0.3810158967971802,0.3085934817790985,-32,5871.0,1.8266328573226929,123,9957.0
13320,0.38102468848228455,-1.0402363538742065,23,5871.0,4.206048488616943,7,9957.0
13330,0.381149023771286,1.2958157062530518,-16,5871.0,2.291656017303467,96,9957.0
13340,0.3811805248260498,1.6947020292282104,42,5871.0,3.0581655502319336,111,9957.0
13350,0.379993200302124,0.2933654487133026,162,5871.0,0.48023509979248047,-40,9957.0
13360,0.38002926111221313,4.4660115242004395,35,5871.0,-2.35363507270813,-22,9957.0
13370,0.3799832761287689,5.593981742858887,189,5871.0,-1.444450855255127,-21,9957.0
13380,0.3799074590206146,7.030361652374268,251,5871.0,-2.2882707118988037,-122,9957.0
13390,0.3798579275608063,9.74797534942627,48,5871.0,-4.3669209480285645,83,9957.0
13400,0.3786526620388031,10.236634254455566,207,5871.0,0.41119062900543213,-15,9957.0
13410,0.378527969121933,8.710622787475586,148,5871.0,2.0514957904815674,-9,9957.0
13420,0.3783996105194092,8.53185749053955,94,5871.0,0.22526337206363678,87,9957.0
13430,0.37825605273246765,6.183681964874268,151,5871.0,1.8114501237869263,-65,9957.0
13440,0.37796443700790405,4.032400608062744,24,5871.0,0.1832180619239807,32,9957.0
13450,0.37777742743492126,1.8145179748535156,61,5871.0,0.23903636634349823,-54,9957.0
13460,0.37761473655700684,0.3042850196361542,20,5871.0,1.6465729475021362,-46,9957.0
13470,0.3774479925632477,0.3026316165924072,-126,5871.0,-0.5843790769577026,77,9957.0
13480,0.378750205039978,-3.1389753818511963,-8,5871.0,-1.3557459115982056,-95,9957.0
13490,0.37863293290138245,-2.4088075160980225,-111,5871.0,0.3516930341720581,66,9957.0
13500,0.3784920871257782,-3.732279062271118,-34,5871.0,-2.4797348976135254,47,9957.0
13510,0.37833070755004883,-0.5158471465110779,26,5871.0,3.0633857250213623,-14,9957.0
13520,0.37812337279319763,2.6758227348327637,-22,5871.0,3.2921721935272217,202,9957.0
13530,0.3757931888103485,2.720072031021118,130,5871.0,0.37701302766799927,-120,9957.0
13540,0.37544167041778564,4.2023844718933105,23,5871.0,-3.4636287689208984,74,9957.0
13550,0.3750564455986023,2.4695980548858643,15,5871.0,0.786465048789978,87,9957.0
13560,0.37466752529144287,0.764828085899353,64,5871.0,-0.07229938358068466,-31,9957.0
13570,0.3749762177467346,-0.43134161829948425,-63,5871.0,-1.5562373399734497,176,9957.0
13580,0.3746781051158905,-0.8377683758735657,85,5871.0,0.8478844165802002,-52,9957.0
13590,0.37435927987098694,-1.9253082275390625,-136,5871.0,-0.7526584267616272,111,9957.0
13600,0.37404048442840576,-6.021060943603516,26,5871.0,0.0004664160660468042,13,9957.0
13610,0.3737553060054779,-6.836380958557129,-210,5871.0,6.5189080238342285,18,9957.0
13620,0.37315383553504944,-7.995611190795898,-97,5871.0,4.5466718673706055,207,9957.0
13630,0.37285569310188293,-6.164566516876221,-88,5871.0,1.460815191268921,27,9957.0
13640,0.3724997341632843,-5.0280280113220215,-142,5871.0,0.4068390727043152,98,9957.0
13650,0.3721562325954437,-6.0535502433776855,26,5871.0,3.492722988128662,-123,9957.0
13660,0.3717104196548462,-5.588742256164551,-122,5871.0,-0.5491230487823486,-1,9957.0
13670,0.37133005261421204,-5.957722187042236,-112,5871.0,2.4120302200317383,8,9957.0
13680,0.3709922134876251,-5.581657409667969,-39,5871.0,2.1163992881774902,-145,9957.0
13690,0.37061774730682373,-4.172117710113525,-166,5871.0,-3.275690793991089,-2,9957.0
13700,0.3693811297416687,-5.4471259117126465,-11,5871.0,-0.2774638235569,-119,9957.0
13710,0.3689984977245331,-5.798053741455078,-140,5871.0,-1.3124034404754639,32,9957.0
13720,0.3685399293899536,-4.822957992553711,-122,5871.0,1.7034991979599,68,9957.0
13730,0.3681226074695587,-3.3377740383148193,34,5871.0,5.3324503898620605,-44,9957.0
13740,0.36778196692466736,-4.4932475090026855,-140,5871.0,6.747276306152344,149,9957.0
13750,0.36667922139167786,-3.9388835430145264,-43,5871.0,6.157003879547119,63,9957.0
13760,0.3662973940372467,-6.294914722442627,-55,5871.0,3.3817780017852783,13,9957.0
13770,0.3659060001373291,-4.7246174812316895,-110,5871.0,1.2605018615722656,85,9957.0
13780,0.36552613973617554,-5.128583908081055,35,5871.0,-0.8380199074745178,-138,9957.0
13790,0.36512574553489685,-5.527229309082031,-128,5871.0,-1.1833676099777222,27,9957.0
13800,0.3647361099720001,-5.4027276039123535,-55,5871.0,-0.15419861674308777,40,9957.0
13810,0.36446288228034973,-4.922335624694824,110,5871.0,1.8996942043304443,-88,9957.0
13820,0.36416390538215637,-1.6831724643707275,-41,5871.0,4.708468437194824,186,9957.0
13830,0.3638482689857483,-2.0426900386810303,29,5871.0,7.113582611083984,100,9957.0
13840,0.3635943830013275,-2.827171564102173,-9,5871.0,9.36678695678711,37,9957.0
13850,0.36329323053359985,-2.222891330718994,-57,5871.0,4.1903581619262695,65,9957.0
13860,0.3630540668964386,-0.26919227838516235,112,5871.0,-1.5851184129714966,-252,9957.0
13870,0.3627716302871704,-0.362800270318985,-41,5871.0,-1.6750454902648926,-48,9957.0
13880,0.3633647561073303,-0.07504875212907791,-12,5871.0,-6.578787326812744,-93,9957.0
13890,0.3631143867969513,-1.5619438886642456,102,5871.0,0.6105387210845947,-198,9957.0
13900,0.36286020278930664,-0.47657907009124756,-34,5871.0,-2.417323112487793,7,9957.0
13910,0.3625863790512085,0.5496624112129211,101,5871.0,-0.4552958011627197,-88,9957.0
13920,0.36336550116539,-0.908033549785614,-20,5871.0,3.9248101711273193,62,9957.0
13930,0.36317580938339233,1.267435908317566,28,5871.0,2.9524567127227783,38,9957.0
13940,0.36301353573799133,1.7622199058532715,102,5871.0,1.6801552772521973,-124,9957.0
13950,0.3628409802913666,2.4888646602630615,-18,5871.0,0.8333249688148499,89,9957.0
13960,0.36261841654777527,-0.35946428775787354,95,5871.0,1.2582589387893677,-141,9957.0
13970,0.3621772229671478,-2.2976770401000977,-92,5871.0,0.03397330641746521,59,9957.0
13980,0.362007200717926,-2.2010042667388916,-18,5871.0,-2.8743040561676025,-97,9957.0
13990,0.3618355691432953,-4.2698974609375,-73,5871.0,-6.2154669761657715,-101,9957.0
14000,0.36163634061813354,-0.7432933449745178,-47,5871.0,-5.986878871917725,-46,9957.0
14010,0.36154112219810486,-2.6163933277130127,72,5871.0,-2.318120241165161,-143,9957.0
14020,0.3613309860229492,-0.5318164229393005,-44,5871.0,-2.659282684326172,62,9957.0
14030,0.36117690801620483,-0.8525212407112122,97,5871.0,1.4301116466522217,-86,9957.0
14040,0.361035019159317,0.04467819258570671,-64,5871.0,1.6048027276992798,81,9957.0
14050,0.36130842566490173,-0.9899500012397766,0,5871.0,2.8399147987365723,2,9957.0
14060,0.36112603545188904,-1.7964354753494263,-51,5871.0,2.185755729675293,98,9957.0
14070,0.3609345853328705,-0.15163394808769226,4,5871.0,0.5695432424545288,45,9957.0
14080,0.3608238995075226,-0.6839883327484131,85,5871.0,-1.7313802242279053,-84,9957.0
14090,0.3607022762298584,1.1566702127456665,-3,5871.0,-8.094630241394043,-10,9957.0
14100,0.35981446504592896,-0.6118573546409607,129,5871.0,-8.10974407196045,-227,9957.0
14110,0.35953977704048157,-0.852261483669281,15,5871.0,-11.054862022399902,-150,9957.0
14120,0.3593541383743286,1.5065792798995972,151,5871.0,-6.8109540939331055,-217,9957.0
14130,0.3591459095478058,2.476724863052368,13,5871.0,-6.801372528076172,-25,9957.0
14140,0.35897353291511536,3.702665328979492,128,5871.0,-3.6941020488739014,-80,9957.0
14150,0.3587668240070343,2.4008266925811768,13,5871.0,-0.48297858238220215,75,9957.0
14160,0.35854262113571167,2.576846122741699,94,5871.0,0.5236765742301941,-33,9957.0
14170,0.35829922556877136,2.1973700523376465,19,5871.0,1.0676698684692383,4,9957.0
14180,0.3580699563026428,-1.829368233680725,12,5871.0,2.9604086875915527,-34,9957.0
14190,0.35661596059799194,-2.8565917015075684,-89,5871.0,2.494443893432617,120,9957.0
