timestamp,kalman.stateZ,gyro.x,gyro.xRaw,gyro.xVariance,gyro.y,gyro.yRaw,gyro.yVariance
0,0.294221431016922,0.5642083883285522,41,9981.0,5.633586406707764,108,5564.0
10,0.29428210854530334,5.615640163421631,118,9981.0,6.753671646118164,120,5564.0
20,0.2936394214630127,8.611422538757324,155,9981.0,7.68157434463501,129,5564.0
30,0.29371869564056396,8.827434539794922,133,9981.0,7.770824909210205,125,5564.0
40,0.2937788665294647,6.952965259552002,106,9981.0,6.80372953414917,111,5564.0
50,0.2938089668750763,5.48673152923584,84,9981.0,5.79899787902832,95,5564.0
60,0.2938643991947174,3.657970905303955,55,9981.0,4.902360439300537,80,5564.0
70,0.2941208779811859,1.3967156410217285,20,9981.0,3.3376317024230957,50,5564.0
80,0.29413625597953796,0.1890050619840622,6,9981.0,2.196112871170044,33,5564.0
90,0.2941853404045105,-0.3139057457447052,-2,9981.0,0.8545340299606323,12,5564.0
100,0.29425397515296936,-0.7301875352859497,-10,9981.0,0.4659268856048584,23,5564.0
110,0.29355743527412415,-0.9627050757408142,-17,9981.0,2.036693811416626,47,5564.0
120,0.29358962178230286,-1.8983275890350342,-36,9981.0,4.803834438323975,96,5564.0
130,0.2936289608478546,-2.3007497787475586,-41,9981.0,8.283202171325684,156,5564.0
140,0.2936350703239441,-1.2722324132919312,-25,9981.0,12.410057067871094,221,5564.0
150,0.2934240400791168,-1.7669503688812256,-37,9981.0,14.821192741394043,249,5564.0
160,0.29334765672683716,-3.74611496925354,-68,9981.0,15.29380989074707,264,5564.0
170,0.2932512164115906,-2.7844467163085938,-33,9981.0,15.644139289855957,264,5564.0
180,0.293273001909256,-1.9886558055877686,-43,9981.0,13.044049263000488,190,5564.0
190,0.2933468818664551,-4.216930866241455,-70,9981.0,7.771492958068848,86,5564.0
200,0.29281431436538696,-4.546868801116943,-76,9981.0,-5.4472761154174805,-166,5564.0
210,0.2930504083633423,-2.541447401046753,-22,9981.0,-21.595460891723633,-419,5564.0
220,0.29334983229637146,0.8815723061561584,69,9981.0,-39.59534454345703,-771,5564.0
230,0.2937234938144684,8.756349563598633,193,9981.0,-63.95182800292969,-1173,5564.0
240,0.2914702296257019,13.76254940032959,270,9981.0,-92.8890609741211,-1726,5564.0
250,0.2913030683994293,18.748624801635742,421,9981.0,-116.60624694824219,-1968,5564.0
260,0.29099440574645996,26.99657440185547,427,9981.0,-126.33666229248047,-2117,5564.0
270,0.29003095626831055,28.181596755981445,461,9981.0,-128.96234130859375,-2114,5564.0
280,0.2918676435947418,26.853153228759766,389,9981.0,-120.52178192138672,-1868,5564.0
290,0.29255223274230957,21.896007537841797,318,9981.0,-98.10640716552734,-1590,5564.0
300,0.2925964891910553,14.595812797546387,217,9981.0,-60.117488861083984,-672,5564.0
310,0.29293060302734375,9.4783935546875,76,9981.0,-12.553404808044434,9,5564.0
320,0.29436275362968445,-2.677403688430786,-144,9981.0,45.72825622558594,996,5564.0
330,0.3003518879413605,-17.188919067382812,-318,9981.0,97.16361999511719,1943,5564.0
340,0.30195727944374084,-24.854076385498047,-421,9981.0,131.754150390625,2265,5564.0
350,0.3029707372188568,-19.64536476135254,-309,9981.0,135.96047973632812,2243,5564.0
360,0.30509406328201294,-3.620396375656128,44,9981.0,114.27387237548828,1509,5564.0
370,0.30342379212379456,10.964025497436523,238,9981.0,65.28614807128906,987,5564.0
380,0.30459290742874146,20.24147605895996,334,9981.0,8.078794479370117,-291,5564.0
390,0.30589213967323303,19.327762603759766,321,9981.0,-51.06134796142578,-947,5564.0
400,0.3073486387729645,14.958149909973145,204,9981.0,-96.6678237915039,-1871,5564.0
410,0.3082408308982849,9.718863487243652,161,9981.0,-127.7052993774414,-2164,5564.0
420,0.3072644770145416,5.263669490814209,87,9981.0,-132.22531127929688,-2002,5564.0
430,0.3073616921901703,-1.4723145961761475,-59,9981.0,-125.06318664550781,-1956,5564.0
440,0.3091092109680176,-10.025232315063477,-166,9981.0,-104.33677673339844,-1674,5564.0
450,0.30909261107444763,-13.928468704223633,-177,9981.0,-80.23440551757812,-1433,5564.0
460,0.31063392758369446,-13.904316902160645,-215,9981.0,-60.63800048828125,-889,5564.0
470,0.3119458854198456,-21.191970825195312,-417,9981.0,-30.944028854370117,-379,5564.0
480,0.31373316049575806,-36.837608337402344,-644,9981.0,7.066995143890381,213,5564.0
490,0.3159741461277008,-46.398258209228516,-716,9981.0,42.89970397949219,830,5564.0
500,0.3181440532207489,-43.96607971191406,-633,9981.0,78.22370910644531,1424,5564.0
510,0.3204365074634552,-39.41811752319336,-631,9981.0,109.0885009765625,2018,5564.0
520,0.32285958528518677,-24.6716251373291,-320,9981.0,131.7196502685547,2132,5564.0
530,0.32428741455078125,-1.747350811958313,198,9981.0,138.04714965820312,2309,5564.0
540,0.32626235485076904,30.660476684570312,591,9981.0,135.7199249267578,2149,5564.0
550,0.32082098722457886,50.77149200439453,877,9981.0,119.21763610839844,1780,5564.0
560,0.32153359055519104,50.51638412475586,715,9981.0,84.48863983154297,1279,5564.0
570,0.3250967264175415,39.623287200927734,669,9981.0,41.1055793762207,312,5564.0
580,0.32645708322525024,28.749805450439453,319,9981.0,-9.912034034729004,-439,5564.0
590,0.3234281837940216,17.851171493530273,267,9981.0,-55.46307373046875,-1118,5564.0
600,0.32463109493255615,10.489439010620117,198,9981.0,-79.93888092041016,-1318,5564.0
610,0.3262626826763153,8.149995803833008,113,9981.0,-83.97376251220703,-1281,5564.0
620,0.32744917273521423,7.320132732391357,100,9981.0,-73.95403289794922,-1190,5564.0
630,0.32890424132347107,6.260509490966797,107,9981.0,-56.33542251586914,-933,5564.0
640,0.32801562547683716,1.55479097366333,52,9981.0,-38.09735870361328,-623,5564.0
650,0.3303820788860321,-7.143069267272949,-154,9981.0,-18.014514923095703,-309,5564.0
660,0.33222517371177673,-28.68825912475586,-489,9981.0,6.812853813171387,254,5564.0
670,0.33454808592796326,-45.630523681640625,-855,9981.0,29.301023483276367,624,5564.0
680,0.3339974284172058,-54.07099914550781,-866,9981.0,54.03931427001953,1012,5564.0
690,0.3360573351383209,-32.77477264404297,-450,9981.0,76.96864318847656,1487,5564.0
700,0.3378102779388428,-7.600599765777588,-82,9981.0,94.17800903320312,1692,5564.0
710,0.3391408920288086,9.677448272705078,293,9981.0,111.09734344482422,1698,5564.0
720,0.3403407037258148,23.147850036621094,356,9981.0,100.99791717529297,1609,5564.0
730,0.33791032433509827,23.981225967407227,363,9981.0,74.22274017333984,1056,5564.0
740,0.33873510360717773,16.149904251098633,261,9981.0,35.81502914428711,399,5564.0
750,0.33883875608444214,13.493404388427734,191,9981.0,-11.733466148376465,-484,5564.0
760,0.340227335691452,16.629642486572266,335,9981.0,-64.31391906738281,-1172,5564.0
770,0.33950236439704895,16.980995178222656,155,9981.0,-102.30461883544922,-1845,5564.0
780,0.33950936794281006,10.674333572387695,163,9981.0,-125.13895416259766,-2107,5564.0
790,0.339336097240448,5.352655410766602,127,9981.0,-121.28052520751953,-1834,5564.0
800,0.33912819623947144,-1.043236494064331,-69,9981.0,-99.94564819335938,-1416,5564.0
810,0.3360098898410797,-8.366280555725098,-206,9981.0,-76.29022216796875,-1013,5564.0
820,0.33574044704437256,-16.849306106567383,-339,9981.0,-49.595516204833984,-708,5564.0
830,0.3360385298728943,-35.3388557434082,-664,9981.0,-25.303417205810547,-280,5564.0
840,0.3361344635486603,-47.07367706298828,-730,9981.0,1.7628464698791504,163,5564.0
850,0.33678701519966125,-39.32562255859375,-485,9981.0,40.51512145996094,685,5564.0
860,0.33490291237831116,-12.729290962219238,-149,9981.0,61.18033981323242,1079,5564.0
870,0.3349565267562866,6.255849361419678,74,9981.0,72.70539855957031,1307,5564.0
880,0.33472591638565063,26.492910385131836,605,9981.0,81.80485534667969,1362,5564.0
890,0.334369957447052,48.392189025878906,815,9981.0,78.77607727050781,1282,5564.0
900,0.331980437040329,52.759220123291016,925,9981.0,55.5617561340332,733,5564.0
910,0.3313547372817993,42.99592971801758,585,9981.0,27.684446334838867,299,5564.0
920,0.33116474747657776,28.628738403320312,404,9981.0,-8.043994903564453,-256,5564.0
930,0.3308727443218231,9.27963924407959,21,9981.0,-47.355445861816406,-950,5564.0
940,0.3310997188091278,-10.435413360595703,-134,9981.0,-90.31745910644531,-1625,5564.0
950,0.3264557719230652,-27.919265747070312,-533,9981.0,-111.5158462524414,-1732,5564.0
960,0.3258189857006073,-34.546112060546875,-570,9981.0,-102.75651550292969,-1735,5564.0
970,0.3248453140258789,-30.010997772216797,-359,9981.0,-79.56653594970703,-1325,5564.0
980,0.32656192779541016,-8.967256546020508,-73,9981.0,-75.33848571777344,-1201,5564.0
990,0.3226640820503235,10.838480949401855,223,9981.0,-66.86219024658203,-953,5564.0
1000,0.3226192593574524,26.893495559692383,509,9981.0,-43.33866500854492,-690,5564.0
1010,0.32259276509284973,33.6047248840332,616,9981.0,-9.788227081298828,-11,5564.0
1020,0.3240908682346344,31.948932647705078,531,9981.0,37.40329360961914,816,5564.0
1030,0.3227303624153137,24.97879981994629,310,9981.0,83.33296966552734,1566,5564.0
1040,0.32278504967689514,8.15644359588623,41,9981.0,110.00917053222656,1925,5564.0
1050,0.3221983015537262,-11.70832347869873,-348,9981.0,110.7137680053711,1698,5564.0
1060,0.32370173931121826,-30.752582550048828,-502,9981.0,91.74077606201172,1479,5564.0
1070,0.3233606517314911,-35.828922271728516,-607,9981.0,65.42976379394531,894,5564.0
1080,0.31987255811691284,-29.92565155029297,-372,9981.0,24.910551071166992,292,5564.0
1090,0.3196879029273987,-17.6409854888916,-215,9981.0,-23.06680679321289,-704,5564.0
1100,0.32063597440719604,-3.9254255294799805,-110,9981.0,-65.11270141601562,-1148,5564.0
1110,0.32074373960494995,0.2629731297492981,83,9981.0,-89.86356353759766,-1542,5564.0
1120,0.31873804330825806,11.161643028259277,217,9981.0,-100.01959991455078,-1593,5564.0
1130,0.3184119462966919,14.986437797546387,229,9981.0,-102.99396514892578,-1755,5564.0
1140,0.3189919590950012,7.8686203956604,100,9981.0,-98.97642517089844,-1637,5564.0
1150,0.31833454966545105,-5.211060047149658,-158,9981.0,-94.14874267578125,-1409,5564.0
1160,0.31751903891563416,-20.755014419555664,-481,9981.0,-70.86439514160156,-879,5564.0
1170,0.3197080194950104,-31.73274040222168,-526,9981.0,-28.34996795654297,-195,5564.0
1180,0.3205699324607849,-20.35179328918457,-308,9981.0,20.14048957824707,515,5564.0
1190,0.32277676463127136,-12.94195556640625,-103,9981.0,73.66158294677734,1382,5564.0
1200,0.3246676027774811,1.1782643795013428,99,9981.0,115.18132781982422,2116,5564.0
1210,0.3260757625102997,12.093676567077637,241,9981.0,139.360595703125,2188,5564.0
1220,0.32778823375701904,22.78003692626953,430,9981.0,137.5376434326172,2170,5564.0
1230,0.32865798473358154,29.62946891784668,464,9981.0,116.44261169433594,1601,5564.0
1240,0.3287857174873352,24.976123809814453,312,9981.0,80.44529724121094,1233,5564.0
1250,0.3235171437263489,8.146377563476562,-5,9981.0,44.00666809082031,455,5564.0
1260,0.32397857308387756,-6.509799957275391,-94,9981.0,5.985567092895508,-36,5564.0
1270,0.32462096214294434,-7.987448692321777,-49,9981.0,-26.427082061767578,-692,5564.0
1280,0.3251628279685974,2.3575730323791504,38,9981.0,-48.616634368896484,-839,5564.0
1290,0.3255003094673157,14.16633129119873,207,9981.0,-62.90898895263672,-1125,5564.0
1300,0.32268744707107544,16.93214225769043,348,9981.0,-64.73674011230469,-954,5564.0
1310,0.3232715427875519,19.489215850830078,244,9981.0,-53.54460525512695,-649,5564.0
1320,0.3235447108745575,15.443657875061035,211,9981.0,-37.437713623046875,-545,5564.0
1330,0.3242356777191162,9.43198299407959,173,9981.0,-26.852231979370117,-339,5564.0
1340,0.322382390499115,2.5550270080566406,23,9981.0,-14.673501968383789,-100,5564.0
1350,0.3235211968421936,-14.042872428894043,-367,9981.0,5.514376163482666,329,5564.0
1360,0.32474538683891296,-25.497173309326172,-448,9981.0,28.411575317382812,605,5564.0
1370,0.32582545280456543,-28.56617546081543,-577,9981.0,48.68145751953125,1037,5564.0
1380,0.3268372714519501,-37.87474060058594,-623,9981.0,65.65760040283203,1046,5564.0
1390,0.3273477256298065,-37.88249969482422,-569,9981.0,78.66057586669922,1348,5564.0
1400,0.3277394473552704,-33.26817321777344,-588,9981.0,82.93486022949219,1380,5564.0
1410,0.32849228382110596,-20.56869125366211,-222,9981.0,79.11758422851562,1110,5564.0
1420,0.32916346192359924,5.422408103942871,174,9981.0,56.83338928222656,907,5564.0
1430,0.32994621992111206,28.049793243408203,623,9981.0,26.8842830657959,288,5564.0
1440,0.33043399453163147,41.628143310546875,608,9981.0,-2.1321184635162354,-176,5564.0
1450,0.33085471391677856,42.100337982177734,751,9981.0,-28.552539825439453,-579,5564.0
1460,0.3311246931552887,39.81920623779297,657,9981.0,-53.468421936035156,-899,5564.0
1470,0.33052271604537964,27.162227630615234,388,9981.0,-73.09719848632812,-1410,5564.0
1480,0.330483615398407,9.66141128540039,116,9981.0,-73.9842758178711,-1216,5564.0
1490,0.33032098412513733,-2.033024787902832,-118,9981.0,-69.675537109375,-1053,5564.0
1500,0.33039671182632446,-6.349915981292725,-174,9981.0,-69.62946319580078,-1100,5564.0
1510,0.33092108368873596,-10.524476051330566,-193,9981.0,-65.4920883178711,-1077,5564.0
1520,0.3296237587928772,-11.221122741699219,-166,9981.0,-40.5612678527832,-611,5564.0
1530,0.3299502432346344,-14.862570762634277,-196,9981.0,-5.817969799041748,-49,5564.0
1540,0.33035993576049805,-9.55322265625,-120,9981.0,28.41583824157715,605,5564.0
1550,0.3307401239871979,2.4532949924468994,55,9981.0,60.69160079956055,1123,5564.0
1560,0.32914531230926514,18.769906997680664,329,9981.0,75.71942901611328,1211,5564.0
1570,0.3284206986427307,26.759347915649414,467,9981.0,81.35562896728516,1231,5564.0
1580,0.3273974657058716,27.816761016845703,381,9981.0,69.59247589111328,1215,5564.0
1590,0.3280927538871765,16.913183212280273,155,9981.0,55.66556167602539,740,5564.0
1600,0.32697445154190063,-1.0391592979431152,-52,9981.0,29.701263427734375,420,5564.0
1610,0.32323840260505676,-14.769824981689453,-318,9981.0,-7.364467144012451,-301,5564.0
1620,0.32310035824775696,-24.405649185180664,-443,9981.0,-48.63428497314453,-888,5564.0
1630,0.3229447305202484,-32.57843780517578,-572,9981.0,-79.65316009521484,-1509,5564.0
1640,0.3225616216659546,-32.89609146118164,-440,9981.0,-91.50211334228516,-1484,5564.0
1650,0.32103070616722107,-20.158935546875,-382,9981.0,-88.2413101196289,-1361,5564.0
1660,0.3211611211299896,-10.213852882385254,-148,9981.0,-74.78903198242188,-1232,5564.0
1670,0.32117247581481934,-1.5375889539718628,56,9981.0,-61.32712936401367,-956,5564.0
1680,0.3222631514072418,10.315546989440918,142,9981.0,-44.84429931640625,-559,5564.0
1690,0.32042738795280457,11.597649574279785,158,9981.0,-23.182964324951172,-275,5564.0
1700,0.3210020959377289,3.858703851699829,3,9981.0,2.596057653427124,50,5564.0
1710,0.3219425678253174,-12.627599716186523,-118,9981.0,29.45318603515625,560,5564.0
1720,0.3224693238735199,-10.9924955368042,-188,9981.0,48.68303298950195,933,5564.0
1730,0.32272103428840637,-5.40061616897583,-85,9981.0,70.21122741699219,1264,5564.0
1740,0.3210889399051666,13.724396705627441,307,9981.0,77.810791015625,1176,5564.0
1750,0.3208776116371155,22.576648712158203,331,9981.0,74.11823272705078,1222,5564.0
1760,0.3210183382034302,23.35995101928711,352,9981.0,68.41102600097656,963,5564.0
1770,0.3212597966194153,23.33103370666504,394,9981.0,49.843116760253906,844,5564.0
1780,0.31796154379844666,14.11704158782959,166,9981.0,19.545866012573242,127,5564.0
1790,0.3178253769874573,2.174551486968994,68,9981.0,-27.514263153076172,-658,5564.0
1800,0.3177870213985443,-1.6890569925308228,-108,9981.0,-71.62657165527344,-1386,5564.0
1810,0.3183351755142212,-5.457901954650879,-71,9981.0,-97.09054565429688,-1691,5564.0
1820,0.3163606822490692,-11.535582542419434,-267,9981.0,-107.52232360839844,-1639,5564.0
1830,0.31586477160453796,-15.314226150512695,-324,9981.0,-108.32318115234375,-1794,5564.0
1840,0.31650105118751526,-19.810014724731445,-285,9981.0,-100.94861602783203,-1663,5564.0
1850,0.3158365488052368,-21.92850685119629,-393,9981.0,-85.07669067382812,-1210,5564.0
1860,0.31433528661727905,-29.501028060913086,-567,9981.0,-49.243141174316406,-469,5564.0
1870,0.3179055452346802,-42.166709899902344,-809,9981.0,-2.360987901687622,290,5564.0
1880,0.31925997138023376,-40.71439743041992,-586,9981.0,33.556278228759766,637,5564.0
1890,0.32060885429382324,-30.701404571533203,-367,9981.0,53.52567672729492,1081,5564.0
1900,0.3218804895877838,-13.810173034667969,-23,9981.0,81.28836059570312,1490,5564.0
1910,0.3204975426197052,15.668776512145996,371,9981.0,95.11722564697266,1447,5564.0
1920,0.32130563259124756,33.84526443481445,733,9981.0,101.67138671875,1626,5564.0
1930,0.3220427930355072,49.98325729370117,762,9981.0,99.78639221191406,1546,5564.0
1940,0.32217156887054443,54.986473083496094,962,9981.0,90.56484985351562,1406,5564.0
1950,0.3224562406539917,55.517181396484375,896,9981.0,67.51536560058594,993,5564.0
1960,0.3208717703819275,42.14846420288086,533,9981.0,40.315040588378906,387,5564.0
1970,0.3209364712238312,11.550690650939941,55,9981.0,9.190584182739258,-58,5564.0
1980,0.32193925976753235,-5.472677707672119,-179,9981.0,-29.47503662109375,-714,5564.0
1990,0.32354143261909485,-18.496440887451172,-313,9981.0,-59.66786193847656,-1117,5564.0
2000,0.32193341851234436,-24.214576721191406,-312,9981.0,-73.78622436523438,-1196,5564.0
2010,0.32309094071388245,-21.271142959594727,-414,9981.0,-76.49776458740234,-1148,5564.0
2020,0.32392704486846924,-16.69319725036621,-283,9981.0,-72.5262222290039,-1117,5564.0
2030,0.32532742619514465,-7.275204181671143,-64,9981.0,-70.32905578613281,-1232,5564.0
2040,0.326259046792984,6.053980350494385,145,9981.0,-63.0743293762207,-971,5564.0
2050,0.3248289227485657,6.001295566558838,105,9981.0,-27.273706436157227,-352,5564.0
2060,0.32614073157310486,-5.901693344116211,-98,9981.0,11.972830772399902,362,5564.0
2070,0.3278052806854248,-15.127877235412598,-267,9981.0,49.56516647338867,932,5564.0
2080,0.3291395604610443,-16.171018600463867,-263,9981.0,72.53742218017578,1308,5564.0
2090,0.32722726464271545,-7.981775760650635,-179,9981.0,89.72164916992188,1618,5564.0
2100,0.3280048966407776,-2.8805930614471436,-14,9981.0,98.87232971191406,1612,5564.0
2110,0.3283393085002899,4.878673553466797,150,9981.0,96.8354263305664,1574,5564.0
2120,0.32899782061576843,8.636613845825195,131,9981.0,85.85417938232422,1306,5564.0
2130,0.32596370577812195,13.237052917480469,223,9981.0,65.2485580444336,910,5564.0
2140,0.3261066973209381,12.689943313598633,164,9981.0,36.1182746887207,551,5564.0
2150,0.32589784264564514,8.32528305053711,198,9981.0,5.817016124725342,-104,5564.0
2160,0.32587701082229614,7.490333557128906,44,9981.0,-19.774093627929688,-373,5564.0
2170,0.3260781764984131,7.454840183258057,143,9981.0,-41.99802780151367,-749,5564.0
2180,0.32294341921806335,4.980099201202393,116,9981.0,-58.08262634277344,-920,5564.0
2190,0.32299983501434326,1.9987727403640747,-56,9981.0,-69.98714447021484,-1226,5564.0
2200,0.32306888699531555,-2.7579965591430664,-17,9981.0,-76.24172973632812,-1334,5564.0
2210,0.3242543041706085,-6.191608428955078,-74,9981.0,-87.41451263427734,-1442,5564.0
2220,0.32232633233070374,-14.717039108276367,-327,9981.0,-88.52161407470703,-1239,5564.0
2230,0.3225390613079071,-30.559091567993164,-619,9981.0,-62.14683151245117,-794,5564.0
2240,0.3237766921520233,-37.22970199584961,-550,9981.0,-20.139434814453125,-195,5564.0
2250,0.3250337243080139,-25.286333084106445,-313,9981.0,21.096059799194336,523,5564.0
2260,0.3237186670303345,-11.619662284851074,-65,9981.0,59.951900482177734,1049,5564.0
2270,0.3243020176887512,2.589930295944214,111,9981.0,84.81977844238281,1462,5564.0
2280,0.32465803623199463,21.95390510559082,403,9981.0,96.56011199951172,1507,5564.0
2290,0.3254571557044983,36.13788986206055,702,9981.0,93.6807632446289,1583,5564.0
2300,0.325294554233551,38.62229919433594,585,9981.0,73.76112365722656,1045,5564.0
2310,0.32175207138061523,27.4739990234375,359,9981.0,39.331993103027344,465,5564.0
2320,0.32140642404556274,7.897711277008057,-3,9981.0,-4.380981922149658,-270,5564.0
2330,0.32210302352905273,-8.335006713867188,-126,9981.0,-44.87718200683594,-809,5564.0
2340,0.3223652243614197,-16.9362850189209,-292,9981.0,-76.49083709716797,-1530,5564.0
2350,0.31923946738243103,-19.228622436523438,-294,9981.0,-99.50059509277344,-1609,5564.0
2360,0.31906062364578247,-17.113882064819336,-346,9981.0,-107.78624725341797,-1733,5564.0
2370,0.3185640871524811,-12.923921585083008,-71,9981.0,-104.18450164794922,-1657,5564.0
2380,0.3200364112854004,-0.24456191062927246,36,9981.0,-100.71527862548828,-1613,5564.0
2390,0.3198034167289734,13.548283576965332,280,9981.0,-93.07105255126953,-1499,5564.0
2400,0.3168538510799408,24.693567276000977,469,9981.0,-69.90293884277344,-1109,5564.0
2410,0.31733274459838867,23.03550910949707,390,9981.0,-36.934879302978516,-429,5564.0
2420,0.31939268112182617,19.50296974182129,279,9981.0,5.695685386657715,313,5564.0
2430,0.32079705595970154,11.479268074035645,72,9981.0,54.847679138183594,1167,5564.0
2440,0.3215872347354889,-5.381627559661865,-203,9981.0,101.13272094726562,1903,5564.0
2450,0.3221125304698944,-13.971741676330566,-248,9981.0,131.05685424804688,2119,5564.0
2460,0.3238738477230072,-15.826071739196777,-244,9981.0,140.77102661132812,2233,5564.0
2470,0.32360681891441345,-7.179097652435303,-155,9981.0,135.45362854003906,2280,5564.0
2480,0.31929251551628113,-2.0825417041778564,-4,9981.0,110.86593627929688,1618,5564.0
2490,0.31882432103157043,5.355532646179199,140,9981.0,66.1109848022461,907,5564.0
2500,0.32084307074546814,6.73698616027832,128,9981.0,18.474132537841797,-12,5564.0
2510,0.3217070698738098,2.1617281436920166,-45,9981.0,-29.154521942138672,-786,5564.0
2520,0.3224741816520691,2.092885732650757,146,9981.0,-75.43244934082031,-1418,5564.0
2530,0.3179096579551697,2.5743889808654785,-78,9981.0,-107.16053771972656,-1915,5564.0
2540,0.318644255399704,-3.2805933952331543,-77,9981.0,-123.66643524169922,-2139,5564.0
2550,0.31856560707092285,-8.212326049804688,-207,9981.0,-124.27893829345703,-1921,5564.0
2560,0.31914862990379333,-15.007376670837402,-292,9981.0,-118.32981872558594,-1833,5564.0
2570,0.3163357377052307,-17.11778450012207,-280,9981.0,-108.74148559570312,-1758,5564.0
2580,0.31944212317466736,-18.391565322875977,-296,9981.0,-91.75224304199219,-1318,5564.0
2590,0.32005637884140015,-20.149166107177734,-284,9981.0,-55.19224166870117,-553,5564.0
2600,0.32198208570480347,-10.06176471710205,-104,9981.0,-12.063918113708496,108,5564.0
2610,0.32348427176475525,3.1461453437805176,94,9981.0,31.629060745239258,866,5564.0
2620,0.3244806230068207,12.1085844039917,147,9981.0,77.92391204833984,1690,5564.0
2630,0.3265521228313446,19.231136322021484,323,9981.0,114.7003402709961,2030,5564.0
2640,0.3275831937789917,24.931232452392578,451,9981.0,145.15704345703125,2404,5564.0
2650,0.32866209745407104,19.794771194458008,356,9981.0,152.06692504882812,2333,5564.0
2660,0.32365578413009644,18.8581600189209,235,9981.0,139.077392578125,2295,5564.0
2670,0.3244636654853821,13.719101905822754,168,9981.0,118.09888458251953,1716,5564.0
2680,0.3247297704219818,11.369719505310059,229,9981.0,83.31084442138672,1343,5564.0
2690,0.32459375262260437,17.023845672607422,273,9981.0,40.4945182800293,373,5564.0
2700,0.32046252489089966,16.16518211364746,247,9981.0,-3.5937538146972656,-257,5564.0
2710,0.3211829960346222,7.450838565826416,4,9981.0,-44.49319076538086,-942,5564.0
2720,0.32225480675697327,-5.695082187652588,-32,9981.0,-81.3154525756836,-1480,5564.0
2730,0.3227003514766693,-13.797499656677246,-250,9981.0,-107.44071197509766,-1767,5564.0
2740,0.32304784655570984,-15.895392417907715,-298,9981.0,-127.14640045166016,-2213,5564.0
2750,0.3217119574546814,-23.81046485900879,-451,9981.0,-132.7329864501953,-2233,5564.0
2760,0.32204943895339966,-35.708011627197266,-601,9981.0,-107.62290954589844,-1543,5564.0
2770,0.3227600157260895,-35.56110763549805,-608,9981.0,-60.76118469238281,-777,5564.0
2780,0.32395124435424805,-34.2598876953125,-557,9981.0,-11.919811248779297,44,5564.0
2790,0.322691410779953,-25.300071716308594,-480,9981.0,36.07370376586914,862,5564.0
2800,0.32374200224876404,-21.016908645629883,-369,9981.0,77.79844665527344,1524,5564.0
2810,0.3250385820865631,-8.186423301696777,11,9981.0,106.1061782836914,1884,5564.0
2820,0.32563987374305725,15.635726928710938,435,9981.0,121.18492126464844,2049,5564.0
2830,0.32683366537094116,33.96937942504883,555,9981.0,119.55035400390625,1834,5564.0
2840,0.3240456283092499,41.22117614746094,737,9981.0,100.8893814086914,1531,5564.0
2850,0.3237743377685547,48.24784851074219,717,9981.0,64.81414794921875,888,5564.0
2860,0.32353144884109497,47.93967056274414,865,9981.0,14.804397583007812,3,5564.0
2870,0.32644274830818176,35.83300018310547,407,9981.0,-32.415626525878906,-683,5564.0
2880,0.3234454393386841,15.744732856750488,191,9981.0,-61.73310852050781,-1155,5564.0
2890,0.3235684931278229,-3.718679428100586,-159,9981.0,-71.23703002929688,-1022,5564.0
2900,0.3242535889148712,-18.760324478149414,-339,9981.0,-73.12220764160156,-1180,5564.0
2910,0.3248264491558075,-24.164161682128906,-404,9981.0,-73.84555053710938,-1424,5564.0
2920,0.32262760400772095,-26.41347312927246,-334,9981.0,-82.42986297607422,-1460,5564.0
2930,0.3231047987937927,-27.589902877807617,-507,9981.0,-78.8246841430664,-1243,5564.0
2940,0.32347190380096436,-29.527315139770508,-491,9981.0,-52.16986846923828,-649,5564.0
2950,0.3249257802963257,-19.9412841796875,-279,9981.0,-18.076377868652344,-26,5564.0
2960,0.3253262937068939,1.4596691131591797,37,9981.0,20.82419776916504,605,5564.0
2970,0.32362571358680725,11.162104606628418,161,9981.0,68.0556869506836,1298,5564.0
2980,0.3237484395503998,15.53066349029541,279,9981.0,94.78832244873047,1646,5564.0
2990,0.32366394996643066,15.31069278717041,349,9981.0,106.74580383300781,1765,5564.0
3000,0.32299989461898804,10.17930793762207,151,9981.0,106.865966796875,1744,5564.0
3010,0.3213064968585968,5.123659610748291,-3,9981.0,88.94725036621094,1264,5564.0
3020,0.3203069865703583,-1.6189992427825928,-25,9981.0,55.687530517578125,801,5564.0
3030,0.31972619891166687,0.18481004238128662,8,9981.0,5.651118755340576,-199,5564.0
3040,0.319693922996521,0.0517456941306591,34,9981.0,-41.37226486206055,-848,5564.0
3050,0.3177438974380493,2.6408491134643555,-24,9981.0,-77.78780364990234,-1414,5564.0
3060,0.3174249231815338,3.883122205734253,175,9981.0,-97.16526794433594,-1625,5564.0
3070,0.3173333406448364,2.7379953861236572,-4,9981.0,-98.49272918701172,-1506,5564.0
3080,0.3182130455970764,-3.913799285888672,-66,9981.0,-89.6650390625,-1504,5564.0
3090,0.3185250461101532,-7.766458034515381,-117,9981.0,-86.03240966796875,-1432,5564.0
3100,0.31626152992248535,-21.461992263793945,-372,9981.0,-71.12487030029297,-1042,5564.0
3110,0.31692489981651306,-31.047197341918945,-606,9981.0,-43.4952507019043,-485,5564.0
3120,0.31791093945503235,-25.204055786132812,-435,9981.0,-7.55708122253418,26,5564.0
3130,0.31874722242355347,-18.632007598876953,-293,9981.0,25.86214828491211,460,5564.0
3140,0.31899261474609375,-15.57248592376709,-152,9981.0,48.007076263427734,810,5564.0
3150,0.3195348083972931,-7.839458465576172,-114,9981.0,68.30786895751953,1265,5564.0
3160,0.3199875056743622,8.549543380737305,136,9981.0,85.87568664550781,1324,5564.0
3170,0.3201373815536499,24.873613357543945,543,9981.0,80.47727966308594,1374,5564.0
3180,0.32031285762786865,35.59699630737305,591,9981.0,64.82283020019531,902,5564.0
3190,0.317560613155365,39.620216369628906,609,9981.0,27.350358963012695,277,5564.0
3200,0.3178088366985321,31.761608123779297,361,9981.0,-10.186845779418945,-399,5564.0
3210,0.3179858922958374,13.577521324157715,129,9981.0,-38.431339263916016,-722,5564.0
3220,0.3181205987930298,-8.136990547180176,-215,9981.0,-55.529296875,-918,5564.0
3230,0.3154456317424774,-23.885908126831055,-455,9981.0,-62.092559814453125,-1115,5564.0
3240,0.31520017981529236,-31.29275131225586,-458,9981.0,-59.1643180847168,-913,5564.0
3250,0.31519603729248047,-25.309064865112305,-438,9981.0,-53.02477264404297,-867,5564.0
3260,0.31540122628211975,-12.609648704528809,-70,9981.0,-53.83906555175781,-906,5564.0
3270,0.31522372364997864,1.6522395610809326,135,9981.0,-59.142452239990234,-908,5564.0
3280,0.31526657938957214,10.518653869628906,173,9981.0,-56.11583709716797,-689,5564.0
3290,0.31574270129203796,15.81875991821289,177,9981.0,-37.70527267456055,-439,5564.0
3300,0.3167695105075836,16.195072174072266,184,9981.0,-7.989471912384033,6,5564.0
3310,0.31767576932907104,8.391565322875977,81,9981.0,28.44377899169922,660,5564.0
3320,0.3177020847797394,-14.782469749450684,-282,9981.0,77.84242248535156,1409,5564.0
3330,0.3189081847667694,-35.401668548583984,-541,9981.0,102.78418731689453,1771,5564.0
3340,0.31927239894866943,-45.731117248535156,-723,9981.0,115.26997375488281,1925,5564.0
3350,0.31931301951408386,-45.40439224243164,-785,9981.0,112.61575317382812,1740,5564.0
3360,0.31672078371047974,-26.362613677978516,-289,9981.0,99.14828491210938,1587,5564.0
3370,0.316596657037735,0.7218312621116638,150,9981.0,78.25079345703125,1147,5564.0
3380,0.31679728627204895,31.571704864501953,652,9981.0,40.966644287109375,466,5564.0
3390,0.3170948326587677,53.860572814941406,915,9981.0,-3.972702741622925,-284,5564.0
3400,0.3175671398639679,52.58010482788086,882,9981.0,-46.95161819458008,-916,5564.0
3410,0.31464502215385437,39.32528305053711,483,9981.0,-75.64474487304688,-1298,5564.0
3420,0.31496161222457886,17.643047332763672,171,9981.0,-92.70474243164062,-1582,5564.0
3430,0.3154548704624176,-5.887688636779785,-108,9981.0,-101.77256774902344,-1683,5564.0
3440,0.3157190680503845,-19.795391082763672,-366,9981.0,-106.58121490478516,-1715,5564.0
3450,0.31541872024536133,-28.2633113861084,-551,9981.0,-103.19329071044922,-1458,5564.0
3460,0.31578463315963745,-38.25306701660156,-619,9981.0,-74.19656372070312,-1005,5564.0
3470,0.3173137903213501,-35.75901794433594,-502,9981.0,-27.68038558959961,-228,5564.0
3480,0.31909099221229553,-17.764005661010742,-103,9981.0,24.552146911621094,597,5564.0
3490,0.32116663455963135,5.549465179443359,308,9981.0,76.00667572021484,1355,5564.0
3500,0.32120561599731445,30.49895477294922,591,9981.0,104.87763977050781,1943,5564.0
3510,0.32208308577537537,45.13229751586914,685,9981.0,128.93463134765625,2273,5564.0
3520,0.32249313592910767,51.99135971069336,942,9981.0,138.12240600585938,2213,5564.0
3530,0.32458359003067017,45.73822784423828,741,9981.0,128.6463623046875,2006,5564.0
3540,0.32266855239868164,33.16156005859375,435,9981.0,92.41018676757812,1164,5564.0
3550,0.3226124942302704,15.646344184875488,199,9981.0,44.90369415283203,550,5564.0
3560,0.32320600748062134,-0.3150550127029419,-153,9981.0,-2.007566213607788,-143,5564.0
3570,0.32434549927711487,-20.797407150268555,-337,9981.0,-38.57557678222656,-827,5564.0
3580,0.32250580191612244,-40.56413650512695,-808,9981.0,-70.13799285888672,-1232,5564.0
3590,0.323333203792572,-47.3652229309082,-757,9981.0,-93.4395751953125,-1641,5564.0
3600,0.32338273525238037,-35.07061767578125,-380,9981.0,-105.79275512695312,-1740,5564.0
3610,0.32528284192085266,-15.622390747070312,-206,9981.0,-111.9200668334961,-1836,5564.0
3620,0.3250015676021576,1.1906992197036743,-46,9981.0,-112.85636138916016,-1841,5564.0
3630,0.32299375534057617,1.6399946212768555,-60,9981.0,-93.4533462524414,-1418,5564.0
3640,0.3230498433113098,-4.602139472961426,-53,9981.0,-47.42008972167969,-559,5564.0
3650,0.3261997401714325,-3.9488463401794434,9,9981.0,5.13602352142334,256,5564.0
3660,0.3267292082309723,-1.4681038856506348,49,9981.0,55.87921905517578,1075,5564.0
3670,0.32472628355026245,-1.3768473863601685,12,9981.0,94.79467010498047,1619,5564.0
3680,0.3255704939365387,-2.953409433364868,-95,9981.0,125.30833435058594,2248,5564.0
3690,0.32635146379470825,-4.4698662757873535,-5,9981.0,138.4578094482422,2424,5564.0
3700,0.32660093903541565,4.992255210876465,67,9981.0,135.22720336914062,1951,5564.0
3710,0.3260643184185028,12.998319625854492,274,9981.0,111.31173706054688,1713,5564.0
3720,0.3221031129360199,18.080347061157227,317,9981.0,65.08409118652344,725,5564.0
3730,0.3225933015346527,16.605987548828125,199,9981.0,4.102404594421387,-192,5564.0
3740,0.32262152433395386,5.890154838562012,41,9981.0,-53.257808685302734,-1062,5564.0
3750,0.3242819905281067,-2.3179759979248047,-12,9981.0,-92.8033447265625,-1685,5564.0
3760,0.32135677337646484,-9.704975128173828,-300,9981.0,-120.44908905029297,-2030,5564.0
3770,0.3213830590248108,-19.27742576599121,-282,9981.0,-134.68695068359375,-2235,5564.0
3780,0.32194048166275024,-18.025991439819336,-261,9981.0,-136.7954559326172,-2151,5564.0
3790,0.32150372862815857,-12.351137161254883,-229,9981.0,-128.74649047851562,-1974,5564.0
3800,0.31903088092803955,-14.29613971710205,-196,9981.0,-117.46691131591797,-1808,5564.0
3810,0.31991320848464966,-10.886661529541016,-44,9981.0,-86.70848083496094,-1301,5564.0
3820,0.32168158888816833,8.487724304199219,338,9981.0,-40.18284606933594,-461,5564.0
3830,0.32224684953689575,24.427228927612305,502,9981.0,17.4111328125,660,5564.0
3840,0.32439741492271423,33.834869384765625,517,9981.0,78.29303741455078,1657,5564.0
3850,0.32440564036369324,28.051969528198242,321,9981.0,130.38365173339844,2342,5564.0
3860,0.3250402808189392,13.924154281616211,46,9981.0,154.12680053710938,2636,5564.0
3870,0.3252924382686615,-2.857250213623047,-48,9981.0,164.13270568847656,2573,5564.0
3880,0.3251509964466095,-8.844340324401855,-234,9981.0,143.0828399658203,2276,5564.0
3890,0.3211188018321991,-12.745699882507324,-86,9981.0,109.49604034423828,1494,5564.0
3900,0.32401174306869507,-3.501251220703125,-73,9981.0,60.8493537902832,656,5564.0
3910,0.32364603877067566,10.571832656860352,350,9981.0,5.108157634735107,-101,5564.0
3920,0.324817419052124,29.851261138916016,509,9981.0,-49.14496994018555,-1307,5564.0
3930,0.32556620240211487,30.199932098388672,419,9981.0,-95.98236083984375,-1717,5564.0
3940,0.3207336962223053,17.290170669555664,103,9981.0,-127.32117462158203,-2218,5564.0
3950,0.3208952844142914,-2.30979585647583,-23,9981.0,-144.94223022460938,-2463,5564.0
3960,0.32065582275390625,-26.46994400024414,-535,9981.0,-145.90570068359375,-2303,5564.0
3970,0.3202846646308899,-45.968544006347656,-882,9981.0,-136.07713317871094,-2037,5564.0
3980,0.31890159845352173,-56.24045181274414,-951,9981.0,-100.2629165649414,-1374,5564.0
3990,0.31867966055870056,-51.12175750732422,-894,9981.0,-50.72037124633789,-570,5564.0
4000,0.31954893469810486,-44.21248245239258,-700,9981.0,-6.946164608001709,47,5564.0
4010,0.3206181228160858,-28.429258346557617,-362,9981.0,30.430387496948242,683,5564.0
4020,0.3220129907131195,-19.291860580444336,-228,9981.0,68.55828094482422,1407,5564.0
4030,0.3232285976409912,-2.5822510719299316,23,9981.0,97.25172424316406,1797,5564.0
4040,0.32430875301361084,24.026094436645508,540,9981.0,108.13484191894531,1581,5564.0
4050,0.32508277893066406,44.36593246459961,765,9981.0,104.63988494873047,1637,5564.0
4060,0.32602810859680176,61.1609001159668,1020,9981.0,87.5833969116211,1379,5564.0
4070,0.32121869921684265,65.81248474121094,1168,9981.0,67.8547592163086,1058,5564.0
4080,0.3214246332645416,67.61304473876953,1001,9981.0,37.54674530029297,449,5564.0
4090,0.3215816915035248,57.26615905761719,934,9981.0,9.942434310913086,42,5564.0
4100,0.3221299648284912,36.37683868408203,407,9981.0,-14.323151588439941,-214,5564.0
4110,0.32061567902565,-1.383888602256775,-191,9981.0,-39.32616424560547,-709,5564.0
4120,0.3213506042957306,-36.08082580566406,-706,9981.0,-58.090370178222656,-1184,5564.0
4130,0.3219742774963379,-57.381282806396484,-936,9981.0,-71.77752685546875,-1307,5564.0
4140,0.3222602307796478,-69.71817016601562,-1192,9981.0,-77.23768615722656,-1234,5564.0
4150,0.3211469054222107,-64.84075164794922,-1089,9981.0,-64.39189910888672,-742,5564.0
4160,0.3217580318450928,-56.810123443603516,-914,9981.0,-33.908111572265625,-333,5564.0
4170,0.32230356335639954,-43.77183151245117,-612,9981.0,0.0006452046800404787,83,5564.0
4180,0.32375866174697876,-15.949400901794434,-107,9981.0,33.90061569213867,610,5564.0
4190,0.32489368319511414,5.297047138214111,175,9981.0,68.83749389648438,1289,5564.0
4200,0.3239092230796814,27.033010482788086,503,9981.0,88.18771362304688,1514,5564.0
4210,0.3246871531009674,45.16912078857422,901,9981.0,92.47437286376953,1425,5564.0
4220,0.32501789927482605,55.19612121582031,928,9981.0,82.8222885131836,1321,5564.0
4230,0.32649707794189453,61.861385345458984,1019,9981.0,58.18239212036133,749,5564.0
4240,0.32428956031799316,58.519962310791016,1004,9981.0,24.044864654541016,289,5564.0
4250,0.32379981875419617,46.245216369628906,674,9981.0,-0.09236462414264679,-63,5564.0
4260,0.3238503932952881,26.12592124938965,189,9981.0,-21.907543182373047,-479,5564.0
4270,0.32469409704208374,-7.497003555297852,-212,9981.0,-33.012550354003906,-578,5564.0
4280,0.32465288043022156,-33.91594314575195,-613,9981.0,-35.56364059448242,-545,5564.0
4290,0.3216799199581146,-52.85609436035156,-878,9981.0,-38.525413513183594,-545,5564.0
4300,0.32160836458206177,-59.64430618286133,-1000,9981.0,-42.97754669189453,-775,5564.0
4310,0.32213008403778076,-52.23054122924805,-761,9981.0,-49.491024017333984,-935,5564.0
4320,0.32236096262931824,-34.03229904174805,-546,9981.0,-49.5522575378418,-680,5564.0
4330,0.3199399709701538,-29.333969116210938,-451,9981.0,-35.7073860168457,-361,5564.0
4340,0.31987184286117554,-22.471349716186523,-290,9981.0,-7.537439823150635,-5,5564.0
4350,0.32028746604919434,-9.466446876525879,31,9981.0,24.49781036376953,447,5564.0
4360,0.32038748264312744,16.852684020996094,266,9981.0,34.367244720458984,586,5564.0
4370,0.31879866123199463,32.94995880126953,603,9981.0,29.784461975097656,355,5564.0
4380,0.3187916874885559,38.94378662109375,663,9981.0,18.626184463500977,420,5564.0
4390,0.3186122179031372,34.35245132446289,466,9981.0,17.579334259033203,243,5564.0
4400,0.31830891966819763,23.18294334411621,352,9981.0,7.686680793762207,-19,5564.0
4410,0.3179877996444702,6.500839710235596,-21,9981.0,-4.311969757080078,-17,5564.0
4420,0.31663084030151367,-5.8864545822143555,-151,9981.0,-7.022139549255371,-100,5564.0
4430,0.31601226329803467,-9.825940132141113,-91,9981.0,-7.390583515167236,-138,5564.0
4440,0.31525716185569763,-13.495073318481445,-206,9981.0,-3.131678342819214,-26,5564.0
4450,0.31445351243019104,-6.1950297355651855,-134,9981.0,-6.999654769897461,-271,5564.0
4460,0.314550518989563,1.4728223085403442,72,9981.0,-19.337892532348633,-303,5564.0
4470,0.31374362111091614,7.912989139556885,176,9981.0,-25.331403732299805,-289,5564.0
4480,0.3130529224872589,11.712142944335938,216,9981.0,-30.847455978393555,-598,5564.0
4490,0.3125140368938446,11.245200157165527,201,9981.0,-44.13846969604492,-974,5564.0
4500,0.3118584156036377,8.020979881286621,101,9981.0,-60.7269172668457,-1120,5564.0
4510,0.3101014494895935,7.01063871383667,-6,9981.0,-77.87739562988281,-1236,5564.0
4520,0.31036245822906494,-3.1013643741607666,-79,9981.0,-76.55948638916016,-1136,5564.0
4530,0.3101043999195099,-11.728848457336426,-233,9981.0,-57.82555389404297,-687,5564.0
4540,0.31117358803749084,-10.061427116394043,-115,9981.0,-8.540393829345703,86,5564.0
4550,0.31288766860961914,-5.572378158569336,-11,9981.0,44.323516845703125,872,5564.0
4560,0.31355181336402893,-5.929152965545654,-158,9981.0,78.12537384033203,1514,5564.0
4570,0.3140488266944885,-15.369851112365723,-356,9981.0,97.4080810546875,1671,5564.0
4580,0.3143444359302521,-12.786918640136719,-247,9981.0,100.10819244384766,1592,5564.0
4590,0.31382817029953003,-4.891907215118408,17,9981.0,92.61465454101562,1534,5564.0
4600,0.314959317445755,3.49824595451355,110,9981.0,69.16667938232422,869,5564.0
4610,0.3147575855255127,16.353355407714844,356,9981.0,35.959598541259766,410,5564.0
4620,0.3145042061805725,25.710145950317383,386,9981.0,3.7948243618011475,-133,5564.0
4630,0.3157491683959961,29.153837203979492,559,9981.0,-17.089454650878906,-390,5564.0
4640,0.31355375051498413,32.97511672973633,531,9981.0,-32.427886962890625,-619,5564.0
4650,0.31327253580093384,29.629337310791016,374,9981.0,-45.501407623291016,-889,5564.0
4660,0.3130885660648346,15.440695762634277,194,9981.0,-63.2692756652832,-1165,5564.0
4670,0.3129369616508484,-3.7609212398529053,-187,9981.0,-87.91436767578125,-1422,5564.0
4680,0.3124476969242096,-24.695545196533203,-565,9981.0,-102.21884155273438,-1648,5564.0
4690,0.312732458114624,-39.21138000488281,-660,9981.0,-87.38751983642578,-1357,5564.0
4700,0.31280606985092163,-44.10614013671875,-610,9981.0,-50.808597564697266,-705,5564.0
4710,0.3131614327430725,-36.290164947509766,-553,9981.0,-5.834936141967773,119,5564.0
4720,0.31461313366889954,-28.96086311340332,-477,9981.0,43.70522689819336,1039,5564.0
4730,0.3156435787677765,-21.785911560058594,-393,9981.0,85.74592590332031,1582,5564.0
4740,0.3162948489189148,-12.098654747009277,-105,9981.0,118.10254669189453,1878,5564.0
4750,0.31690478324890137,2.5052669048309326,105,9981.0,125.611328125,2108,5564.0
4760,0.3177129328250885,13.91323184967041,258,9981.0,121.32231140136719,1779,5564.0
4770,0.31597214937210083,25.03118896484375,419,9981.0,96.8348388671875,1567,5564.0
4780,0.3159046173095703,27.795879364013672,517,9981.0,66.49053955078125,922,5564.0
4790,0.3161066174507141,26.574020385742188,428,9981.0,29.3116455078125,264,5564.0
4800,0.31624552607536316,25.266569137573242,339,9981.0,-13.964332580566406,-409,5564.0
4810,0.3167036175727844,12.420693397521973,122,9981.0,-46.97043228149414,-814,5564.0
4820,0.31690895557403564,1.8699251413345337,-4,9981.0,-71.30974578857422,-1309,5564.0
4830,0.317452609539032,-9.154287338256836,-155,9981.0,-92.65280151367188,-1565,5564.0
4840,0.31775224208831787,-16.059587478637695,-324,9981.0,-102.1918716430664,-1750,5564.0
4850,0.3186010718345642,-17.62075424194336,-260,9981.0,-105.680419921875,-1743,5564.0
4860,0.31786197423934937,-7.738280773162842,-86,9981.0,-79.41000366210938,-1086,5564.0
4870,0.3183686435222626,-2.53208589553833,-6,9981.0,-40.38507080078125,-451,5564.0
4880,0.31918150186538696,7.713176727294922,87,9981.0,-2.5048434734344482,132,5564.0
4890,0.3201933205127716,9.912620544433594,144,9981.0,28.82320785522461,459,5564.0
4900,0.3190145194530487,2.4566142559051514,38,9981.0,54.098270416259766,946,5564.0
4910,0.3192346394062042,-8.745746612548828,-110,9981.0,74.21724700927734,1357,5564.0
4920,0.3190811574459076,-8.326949119567871,-183,9981.0,84.85453033447266,1438,5564.0
4930,0.31928616762161255,-9.607674598693848,-129,9981.0,83.5155029296875,1234,5564.0
4940,0.3168174624443054,-11.817521095275879,-267,9981.0,71.14269256591797,1074,5564.0
4950,0.3160998523235321,-10.553069114685059,-158,9981.0,45.77666091918945,641,5564.0
4960,0.3160814940929413,-9.370248794555664,-109,9981.0,12.000503540039062,102,5564.0
4970,0.31629887223243713,-5.33512020111084,-17,9981.0,-22.349374771118164,-612,5564.0
4980,0.3169533610343933,-0.9324643611907959,-74,9981.0,-52.231224060058594,-909,5564.0
4990,0.3153785467147827,-1.3491805791854858,46,9981.0,-70.36359405517578,-1230,5564.0
5000,0.3155290186405182,1.592272400856018,-7,9981.0,-81.24906158447266,-1320,5564.0
5010,0.31587088108062744,-0.25325289368629456,-15,9981.0,-97.24119567871094,-1653,5564.0
5020,0.3159962296485901,0.6436536312103271,46,9981.0,-109.94751739501953,-1902,5564.0
5030,0.3136310577392578,6.021565914154053,169,9981.0,-94.92176055908203,-1385,5564.0
5040,0.31400853395462036,8.650229454040527,123,9981.0,-54.53858947753906,-698,5564.0
5050,0.3150995075702667,9.824463844299316,64,9981.0,-15.590710639953613,-12,5564.0
5060,0.3161408603191376,7.823279857635498,58,9981.0,28.010530471801758,669,5564.0
5070,0.31685227155685425,1.8654701709747314,-61,9981.0,71.27788543701172,1309,5564.0
5080,0.31842392683029175,-5.742208480834961,-90,9981.0,105.52003479003906,1704,5564.0
5090,0.31862127780914307,-3.5214874744415283,-20,9981.0,121.5663833618164,2070,5564.0
5100,0.3182390034198761,-1.782058835029602,-43,9981.0,118.80638122558594,1903,5564.0
5110,0.3180224895477295,1.0331445932388306,136,9981.0,103.41686248779297,1652,5564.0
5120,0.3141920864582062,9.584951400756836,156,9981.0,74.85265350341797,931,5564.0
5130,0.3144782781600952,10.443323135375977,142,9981.0,23.841075897216797,216,5564.0
5140,0.3150532841682434,4.760165691375732,97,9981.0,-22.50489616394043,-636,5564.0
5150,0.3158925771713257,-6.389573574066162,-205,9981.0,-65.62810516357422,-1240,5564.0
5160,0.31669339537620544,-16.526548385620117,-252,9981.0,-90.83264923095703,-1682,5564.0
5170,0.3132721781730652,-16.88246726989746,-356,9981.0,-108.36540985107422,-1731,5564.0
5180,0.3134484589099884,-16.07712745666504,-199,9981.0,-110.77899169921875,-1819,5564.0
5190,0.3137802481651306,-9.714938163757324,-80,9981.0,-111.64439392089844,-1810,5564.0
5200,0.31353050470352173,-0.06463314592838287,52,9981.0,-110.95781707763672,-1628,5564.0
5210,0.3136312663555145,14.403970718383789,299,9981.0,-75.62642669677734,-1033,5564.0
5220,0.3158229887485504,20.508371353149414,405,9981.0,-23.755868911743164,-114,5564.0
5230,0.3169999122619629,19.283939361572266,334,9981.0,29.497262954711914,840,5564.0
5240,0.3190246522426605,17.291460037231445,337,9981.0,80.31829833984375,1681,5564.0
5250,0.31827613711357117,14.762228965759277,139,9981.0,116.1933822631836,2147,5564.0
5260,0.31906062364578247,8.14258861541748,75,9981.0,140.71124267578125,2370,5564.0
5270,0.3196800649166107,2.8383829593658447,99,9981.0,149.5818328857422,2488,5564.0
5280,0.31953421235084534,6.530081748962402,1,9981.0,134.80850219726562,2136,5564.0
5290,0.32014432549476624,5.3860392570495605,133,9981.0,99.55765533447266,1452,5564.0
5300,0.31655874848365784,2.8304808139801025,46,9981.0,44.02649688720703,406,5564.0
5310,0.31633836030960083,-4.256158828735352,-80,9981.0,-21.551406860351562,-587,5564.0
5320,0.3175385296344757,-8.87033748626709,-176,9981.0,-76.50856018066406,-1440,5564.0
5330,0.3187788724899292,-10.413674354553223,-117,9981.0,-113.8291015625,-1914,5564.0
5340,0.3156494200229645,-5.772184371948242,-106,9981.0,-134.562255859375,-2327,5564.0
5350,0.3160145878791809,-4.609692096710205,-61,9981.0,-145.22055053710938,-2432,5564.0
5360,0.31662407517433167,-6.883217811584473,-142,9981.0,-150.54953002929688,-2421,5564.0
5370,0.3161226212978363,-7.503382682800293,-140,9981.0,-153.71109008789062,-2443,5564.0
5380,0.3185294270515442,5.443019866943359,156,9981.0,-135.4463653564453,-2084,5564.0
5390,0.3162744343280792,22.134258270263672,393,9981.0,-88.72830963134766,-1260,5564.0
5400,0.317606657743454,10.81402587890625,70,9981.0,-27.178264617919922,-145,5564.0
5410,0.320059210062027,-11.261270523071289,-283,9981.0,50.82682800292969,1138,5564.0
5420,0.32430487871170044,-26.18643569946289,-495,9981.0,118.13384246826172,2116,5564.0
5430,0.3243177533149719,-29.41080093383789,-399,9981.0,168.35699462890625,2805,5564.0
5440,0.3256740868091583,-20.613937377929688,-324,9981.0,199.86473083496094,3306,5564.0
5450,0.32658708095550537,-12.986811637878418,-98,9981.0,207.981689453125,3530,5564.0
5460,0.326569139957428,4.6191253662109375,136,9981.0,201.59449768066406,3073,5564.0
5470,0.323112815618515,16.55463218688965,297,9981.0,162.40802001953125,2477,5564.0
5480,0.3221842646598816,27.316326141357422,517,9981.0,102.14808654785156,1368,5564.0
5490,0.3224720358848572,25.986570358276367,399,9981.0,34.15753936767578,274,5564.0
5500,0.32366257905960083,16.069734573364258,226,9981.0,-28.607437133789062,-701,5564.0
5510,0.32519882917404175,6.9332427978515625,81,9981.0,-76.98812866210938,-1350,5564.0
5520,0.3219371736049652,-3.2570691108703613,-83,9981.0,-107.06964111328125,-2001,5564.0
5530,0.32267099618911743,-11.785179138183594,-229,9981.0,-122.32392120361328,-1898,5564.0
5540,0.323251336812973,-14.03465461730957,-262,9981.0,-124.13898468017578,-1994,5564.0
5550,0.3244841396808624,-10.824361801147461,-95,9981.0,-127.23428344726562,-2181,5564.0
5560,0.32150471210479736,-0.7192176580429077,152,9981.0,-122.2047348022461,-1959,5564.0
5570,0.3219541013240814,12.97393798828125,300,9981.0,-93.05289459228516,-1312,5564.0
5580,0.3226272761821747,22.142681121826172,311,9981.0,-53.5477180480957,-612,5564.0
5590,0.3247454762458801,15.084525108337402,184,9981.0,-3.349903106689453,241,5564.0
5600,0.3259207010269165,3.6249611377716064,-33,9981.0,47.682682037353516,1127,5564.0
5610,0.32337790727615356,-6.7230448722839355,-223,9981.0,92.54762268066406,1809,5564.0
5620,0.3236774206161499,-10.399970054626465,-266,9981.0,125.91069030761719,2246,5564.0
5630,0.3243415355682373,-14.933788299560547,-205,9981.0,149.85194396972656,2561,5564.0
5640,0.32386064529418945,-17.453170776367188,-210,9981.0,158.17010498046875,2594,5564.0
5650,0.3179066777229309,-9.649185180664062,-134,9981.0,140.54551696777344,1950,5564.0
5660,0.3181450068950653,5.9584126472473145,168,9981.0,85.32563781738281,1156,5564.0
5670,0.31931400299072266,20.487621307373047,363,9981.0,27.070781707763672,2,5564.0
5680,0.31933459639549255,24.60064125061035,435,9981.0,-41.3039665222168,-878,5564.0
5690,0.317916601896286,22.407690048217773,329,9981.0,-81.206298828125,-1637,5564.0
5700,0.3178342580795288,9.53618335723877,45,9981.0,-115.31573486328125,-1809,5564.0
5710,0.3176543414592743,-6.850260257720947,-173,9981.0,-125.75159454345703,-2142,5564.0
5720,0.3177734315395355,-20.81410026550293,-343,9981.0,-121.88058471679688,-1934,5564.0
5730,0.3178139626979828,-29.076093673706055,-537,9981.0,-122.17806243896484,-1852,5564.0
5740,0.3157194256782532,-30.826128005981445,-538,9981.0,-109.95286560058594,-1734,5564.0
5750,0.31801509857177734,-31.109214782714844,-497,9981.0,-81.1368408203125,-1319,5564.0
5760,0.31879502534866333,-26.522560119628906,-363,9981.0,-45.11088562011719,-519,5564.0
5770,0.31985658407211304,-25.739421844482422,-356,9981.0,6.712383270263672,441,5564.0
5780,0.3202171325683594,-22.095474243164062,-403,9981.0,63.274349212646484,1237,5564.0
5790,0.3206947147846222,-15.423787117004395,-234,9981.0,96.68315124511719,1738,5564.0
5800,0.3217798173427582,-1.039726972579956,125,9981.0,124.2988052368164,2036,5564.0
5810,0.3220917284488678,19.281566619873047,346,9981.0,124.19590759277344,2028,5564.0
5820,0.3218802213668823,36.97594451904297,786,9981.0,105.1417236328125,1550,5564.0
5830,0.31788763403892517,46.38875961303711,744,9981.0,67.95291900634766,786,5564.0
5840,0.31898385286331177,46.04551696777344,741,9981.0,22.949495315551758,128,5564.0
5850,0.3188164234161377,34.91971206665039,444,9981.0,-19.78425407409668,-619,5564.0
5860,0.31966763734817505,17.18716049194336,224,9981.0,-52.54347229003906,-939,5564.0
5870,0.3176174759864807,0.1318734586238861,-140,9981.0,-78.8176040649414,-1469,5564.0
5880,0.3175342381000519,-12.506331443786621,-258,9981.0,-87.84224700927734,-1490,5564.0
5890,0.31743040680885315,-19.939254760742188,-384,9981.0,-92.2068099975586,-1410,5564.0
5900,0.3169724643230438,-18.196569442749023,-264,9981.0,-101.2918930053711,-1566,5564.0
5910,0.31401705741882324,-12.156368255615234,-72,9981.0,-99.49101257324219,-1605,5564.0
5920,0.3148864507675171,-6.340753555297852,-91,9981.0,-73.37174987792969,-1097,5564.0
5930,0.315653920173645,-3.675551652908325,-113,9981.0,-37.971126556396484,-358,5564.0
5940,0.3162511885166168,-7.401618480682373,-179,9981.0,11.383428573608398,532,5564.0
5950,0.3181428611278534,-5.444647789001465,-93,9981.0,57.47867202758789,1211,5564.0
5960,0.3179332911968231,-1.1383781433105469,45,9981.0,101.21637725830078,1814,5564.0
5970,0.31868091225624084,-0.6481287479400635,24,9981.0,132.978515625,2285,5564.0
5980,0.31908974051475525,6.968156814575195,121,9981.0,135.72512817382812,2146,5564.0
5990,0.3187274932861328,15.54958724975586,349,9981.0,128.0516815185547,1976,5564.0
6000,0.31663015484809875,27.95879364013672,479,9981.0,101.2700424194336,1351,5564.0
6010,0.31604138016700745,42.905643463134766,731,9981.0,52.550777435302734,764,5564.0
6020,0.3157070577144623,40.08274459838867,654,9981.0,-4.372044563293457,-322,5564.0
6030,0.31610727310180664,15.817209243774414,61,9981.0,-50.08186721801758,-987,5564.0
6040,0.3147282898426056,-11.375030517578125,-281,9981.0,-82.18864440917969,-1541,5564.0
6050,0.3152293562889099,-19.908466339111328,-371,9981.0,-107.59848022460938,-1715,5564.0
6060,0.3155895173549652,-24.48482894897461,-410,9981.0,-117.83935546875,-1918,5564.0
6070,0.3156227767467499,-26.791141510009766,-417,9981.0,-116.09880065917969,-1901,5564.0
6080,0.3172088861465454,-20.736858367919922,-280,9981.0,-109.34677124023438,-1643,5564.0
6090,0.31497323513031006,-7.322336196899414,-168,9981.0,-84.25077819824219,-1200,5564.0
6100,0.3157401382923126,-1.7302510738372803,-35,9981.0,-45.742958068847656,-597,5564.0
6110,0.31696683168411255,-4.249118804931641,-27,9981.0,5.142873764038086,251,5564.0
6120,0.31913653016090393,-4.183348655700684,-48,9981.0,57.738990783691406,1126,5564.0
6130,0.31942084431648254,-5.47137975692749,-173,9981.0,99.29175567626953,1697,5564.0
6140,0.32048746943473816,-2.546299934387207,-90,9981.0,115.02054595947266,1963,5564.0
6150,0.3211289644241333,10.630094528198242,224,9981.0,132.10903930664062,2049,5564.0
6160,0.32105565071105957,24.332679748535156,459,9981.0,125.04484558105469,1945,5564.0
6170,0.3245527446269989,25.09328269958496,353,9981.0,93.11702728271484,1321,5564.0
6180,0.31899866461753845,14.79990291595459,284,9981.0,50.38254165649414,671,5564.0
6190,0.3195495903491974,2.0689268112182617,-11,9981.0,12.15674114227295,53,5564.0
6200,0.31981161236763,-6.0085601806640625,-153,9981.0,-14.920343399047852,-433,5564.0
6210,0.3202979266643524,-9.541309356689453,-168,9981.0,-35.60945510864258,-463,5564.0
6220,0.3181893229484558,-13.766316413879395,-264,9981.0,-47.29026794433594,-912,5564.0
6230,0.31851083040237427,-16.184186935424805,-234,9981.0,-63.31159973144531,-1125,5564.0
6240,0.3188507854938507,-17.428985595703125,-382,9981.0,-76.46829986572266,-1201,5564.0
6250,0.3196732997894287,-16.370136260986328,-229,9981.0,-85.86468505859375,-1433,5564.0
6260,0.3175003230571747,-8.341795921325684,-32,9981.0,-84.52790069580078,-1344,5564.0
6270,0.31779050827026367,0.9978011250495911,70,9981.0,-66.10677337646484,-1007,5564.0
6280,0.3181040287017822,2.086099147796631,30,9981.0,-42.6319580078125,-454,5564.0
6290,0.31899601221084595,3.6687893867492676,-41,9981.0,0.26031699776649475,327,5564.0
6300,0.31998878717422485,-4.110541343688965,-132,9981.0,49.22821044921875,974,5564.0
6310,0.3189239203929901,-8.197925567626953,-124,9981.0,79.8876724243164,1309,5564.0
6320,0.31880488991737366,-14.896590232849121,-189,9981.0,100.39328002929688,1636,5564.0
6330,0.3190464973449707,-13.38318157196045,-180,9981.0,106.36032104492188,1651,5564.0
6340,0.3183489441871643,-5.602477073669434,-127,9981.0,93.96935272216797,1371,5564.0
6350,0.3167441487312317,5.175342082977295,156,9981.0,70.17924499511719,1187,5564.0
6360,0.3162250220775604,16.273048400878906,366,9981.0,39.177371978759766,390,5564.0
6370,0.316234290599823,24.837190628051758,317,9981.0,-0.7845289707183838,-159,5564.0
6380,0.31614935398101807,25.128725051879883,454,9981.0,-30.44827651977539,-567,5564.0
6390,0.3162725567817688,22.353586196899414,359,9981.0,-50.181644439697266,-871,5564.0
6400,0.3153727650642395,13.84874439239502,206,9981.0,-68.18738555908203,-1256,5564.0
6410,0.31528735160827637,-7.211544513702393,-227,9981.0,-84.7858657836914,-1362,5564.0
6420,0.31563201546669006,-20.816795349121094,-402,9981.0,-91.6803970336914,-1682,5564.0
6430,0.31602776050567627,-30.924043655395508,-563,9981.0,-97.4655532836914,-1576,5564.0
6440,0.3159196376800537,-44.70684814453125,-842,9981.0,-84.03982543945312,-1215,5564.0
6450,0.3170665204524994,-47.83885955810547,-782,9981.0,-54.425907135009766,-778,5564.0
6460,0.31809765100479126,-32.90720748901367,-357,9981.0,-23.686368942260742,-260,5564.0
6470,0.31902915239334106,-11.642518043518066,-121,9981.0,12.341403007507324,475,5564.0
6480,0.3163382411003113,5.294044494628906,126,9981.0,49.07685089111328,1077,5564.0
6490,0.3170282244682312,16.80744743347168,335,9981.0,76.47588348388672,1269,5564.0
6500,0.3172425627708435,15.50610637664795,296,9981.0,85.9969482421875,1471,5564.0
6510,0.3173120617866516,16.093862533569336,239,9981.0,80.24560546875,1095,5564.0
6520,0.31711021065711975,14.292929649353027,227,9981.0,64.79078674316406,1009,5564.0
6530,0.31568899750709534,13.045350074768066,203,9981.0,41.9186897277832,513,5564.0
6540,0.3157147467136383,14.409661293029785,298,9981.0,17.37654685974121,176,5564.0
6550,0.31542205810546875,16.755245208740234,303,9981.0,-19.08643341064453,-649,5564.0
6560,0.31606072187423706,17.74441909790039,269,9981.0,-56.297367095947266,-997,5564.0
6570,0.31285932660102844,14.42261028289795,266,9981.0,-87.27750396728516,-1604,5564.0
6580,0.31295034289360046,7.305869102478027,103,9981.0,-102.98736572265625,-1722,5564.0
6590,0.3129512071609497,-2.226271390914917,-108,9981.0,-116.60954284667969,-1861,5564.0
6600,0.3133929669857025,-20.65268325805664,-499,9981.0,-111.61660766601562,-1825,5564.0
6610,0.3132447898387909,-37.764957427978516,-596,9981.0,-96.62416076660156,-1453,5564.0
6620,0.3148759603500366,-37.3016471862793,-506,9981.0,-66.83041381835938,-989,5564.0
6630,0.3151126503944397,-21.54734230041504,-293,9981.0,-14.979080200195312,116,5564.0
6640,0.31641748547554016,-9.633220672607422,-214,9981.0,46.109642028808594,1113,5564.0
6650,0.3192537724971771,-4.622983932495117,-45,9981.0,101.8530044555664,1727,5564.0
6660,0.31926921010017395,8.101492881774902,262,9981.0,129.68682861328125,2196,5564.0
6670,0.3201557397842407,18.82445526123047,280,9981.0,136.67820739746094,2253,5564.0
6680,0.320573091506958,27.64513397216797,514,9981.0,122.36590576171875,1855,5564.0
6690,0.3206581771373749,27.698400497436523,369,9981.0,97.03644561767578,1465,5564.0
6700,0.31698378920555115,23.892688751220703,493,9981.0,60.947303771972656,836,5564.0
6710,0.31736648082733154,26.458953857421875,419,9981.0,14.993915557861328,-49,5564.0
6720,0.3175708055496216,33.538909912109375,582,9981.0,-34.688446044921875,-729,5564.0
6730,0.31852906942367554,24.65227699279785,271,9981.0,-64.28075408935547,-1141,5564.0
6740,0.31916821002960205,-1.2022572755813599,-69,9981.0,-77.03270721435547,-1300,5564.0
6750,0.3170354664325714,-29.350303649902344,-574,9981.0,-80.51519775390625,-1177,5564.0
6760,0.3176155090332031,-45.816070556640625,-825,9981.0,-76.5224380493164,-1273,5564.0
6770,0.31838351488113403,-49.87410354614258,-760,9981.0,-73.18490600585938,-1174,5564.0
6780,0.31964534521102905,-49.51017379760742,-793,9981.0,-55.14579391479492,-732,5564.0
6790,0.31757116317749023,-36.58491134643555,-550,9981.0,-25.253122329711914,-334,5564.0
6800,0.31835702061653137,-14.452378273010254,-111,9981.0,4.066867828369141,120,5564.0
6810,0.320072203874588,12.861701011657715,375,9981.0,35.878318786621094,792,5564.0
6820,0.32191240787506104,35.19956970214844,570,9981.0,70.23348236083984,1343,5564.0
6830,0.32269516587257385,40.59382247924805,619,9981.0,97.05656433105469,1681,5564.0
6840,0.3201519250869751,31.827255249023438,519,9981.0,113.55476379394531,1940,5564.0
6850,0.3200027048587799,24.98974609375,407,9981.0,108.46858978271484,1763,5564.0
6860,0.3193662464618683,21.012664794921875,372,9981.0,90.32462310791016,1256,5564.0
6870,0.3208770751953125,17.401395797729492,178,9981.0,64.06779479980469,1020,5564.0
6880,0.3184622824192047,6.571936130523682,163,9981.0,34.903011322021484,394,5564.0
6890,0.31786656379699707,-2.0318052768707275,-124,9981.0,0.23134364187717438,-176,5564.0
6900,0.319031685590744,-9.342524528503418,-153,9981.0,-37.45812225341797,-820,5564.0
6910,0.3192371428012848,-7.496655464172363,-145,9981.0,-69.55599975585938,-1153,5564.0
6920,0.3169419765472412,-10.679381370544434,-154,9981.0,-86.99307250976562,-1583,5564.0
6930,0.31724292039871216,-16.27098846435547,-334,9981.0,-97.91879272460938,-1532,5564.0
6940,0.317433625459671,-21.6947078704834,-430,9981.0,-101.01093292236328,-1775,5564.0
6950,0.31897857785224915,-26.18217658996582,-410,9981.0,-98.35084533691406,-1616,5564.0
6960,0.3190898001194,-34.85921859741211,-677,9981.0,-65.82789611816406,-796,5564.0
6970,0.3176462948322296,-39.56993103027344,-712,9981.0,-31.476924896240234,-327,5564.0
6980,0.3182607591152191,-31.236770629882812,-379,9981.0,-1.2793035507202148,19,5564.0
6990,0.319755882024765,-9.290742874145508,-2,9981.0,29.86470603942871,642,5564.0
7000,0.32071202993392944,15.918285369873047,314,9981.0,45.5446662902832,795,5564.0
7010,0.31802693009376526,36.30622863769531,708,9981.0,49.670406341552734,790,5564.0
7020,0.3180944323539734,42.866153717041016,652,9981.0,46.77411651611328,823,5564.0
7030,0.3185406029224396,47.404361724853516,830,9981.0,43.300018310546875,580,5564.0
7040,0.31818920373916626,40.08320999145508,560,9981.0,36.085899353027344,592,5564.0
7050,0.3177061975002289,23.415178298950195,320,9981.0,21.528697967529297,241,5564.0
7060,0.3129477798938751,6.695818901062012,54,9981.0,-1.8461761474609375,9,5564.0
7070,0.31309306621551514,-14.32731819152832,-367,9981.0,-19.365129470825195,-412,5564.0
7080,0.3127111494541168,-29.571331024169922,-434,9981.0,-35.21406555175781,-710,5564.0
7090,0.31239068508148193,-34.978515625,-623,9981.0,-51.62353515625,-964,5564.0
7100,0.3112160563468933,-24.664894104003906,-218,9981.0,-62.44458770751953,-1205,5564.0
7110,0.3122459650039673,1.7693768739700317,168,9981.0,-68.10413360595703,-1143,5564.0
7120,0.3130001127719879,28.67011260986328,509,9981.0,-75.09317779541016,-1345,5564.0
7130,0.3133911192417145,41.600074768066406,645,9981.0,-79.89305877685547,-1387,5564.0
7140,0.3128892779350281,29.881866455078125,405,9981.0,-65.53041076660156,-777,5564.0
7150,0.31456857919692993,15.573079109191895,148,9981.0,-27.10593032836914,-127,5564.0
7160,0.31656041741371155,1.1321203708648682,-85,9981.0,12.6497802734375,598,5564.0
7170,0.3184255361557007,-14.916060447692871,-415,9981.0,64.33684539794922,1458,5564.0
7180,0.31987616419792175,-23.982206344604492,-543,9981.0,106.27281951904297,1926,5564.0
7190,0.3190627098083496,-28.489280700683594,-397,9981.0,131.07559204101562,2209,5564.0
7200,0.32023873925209045,-28.277690887451172,-395,9981.0,137.9486541748047,2279,5564.0
7210,0.31989577412605286,-15.553106307983398,-151,9981.0,121.93843841552734,1797,5564.0
7220,0.3207261562347412,-1.8556257486343384,87,9981.0,91.5749282836914,1254,5564.0
7230,0.31582513451576233,19.46858024597168,393,9981.0,48.205692291259766,466,5564.0
7240,0.3171291947364807,36.743656158447266,662,9981.0,1.126001000404358,-115,5564.0
7250,0.3172611594200134,44.536521911621094,688,9981.0,-39.67694091796875,-849,5564.0
7260,0.31778615713119507,30.916072845458984,396,9981.0,-63.887725830078125,-974,5564.0
7270,0.31863507628440857,6.250664710998535,-54,9981.0,-75.34105682373047,-1274,5564.0
7280,0.31583282351493835,-13.357479095458984,-244,9981.0,-78.9375228881836,-1235,5564.0
7290,0.31620073318481445,-25.46407127380371,-490,9981.0,-76.8169937133789,-1228,5564.0
7300,0.3165954649448395,-32.58086395263672,-482,9981.0,-76.3639907836914,-1311,5564.0
7310,0.31700003147125244,-34.642208099365234,-581,9981.0,-69.19825744628906,-1070,5564.0
7320,0.31381258368492126,-34.679630279541016,-596,9981.0,-61.93147277832031,-817,5564.0
7330,0.31422746181488037,-33.26340103149414,-495,9981.0,-41.9708137512207,-639,5564.0
7340,0.31493306159973145,-24.125864028930664,-213,9981.0,-13.906343460083008,-122,5564.0
7350,0.3166675269603729,-2.295367479324341,3,9981.0,25.966278076171875,769,5564.0
7360,0.3190550208091736,12.59608268737793,167,9981.0,74.73724365234375,1358,5564.0
7370,0.31980085372924805,21.588611602783203,443,9981.0,105.45846557617188,1872,5564.0
7380,0.32024717330932617,25.70937156677246,422,9981.0,122.27161407470703,2102,5564.0
7390,0.31995877623558044,30.521167755126953,655,9981.0,114.86872863769531,1782,5564.0
7400,0.3216904401779175,34.746055603027344,550,9981.0,89.08352661132812,1339,5564.0
7410,0.31795740127563477,41.608253479003906,690,9981.0,58.39189910888672,783,5564.0
7420,0.3170601427555084,34.88238525390625,476,9981.0,20.212392807006836,107,5564.0
7430,0.3172498643398285,21.767383575439453,306,9981.0,-20.06077003479004,-475,5564.0
7440,0.31704574823379517,1.1209392547607422,-143,9981.0,-51.019447326660156,-883,5564.0
7450,0.3159058690071106,-14.515854835510254,-178,9981.0,-64.3550033569336,-1054,5564.0
7460,0.31574416160583496,-21.423189163208008,-461,9981.0,-71.98731994628906,-1196,5564.0
7470,0.31555473804473877,-32.143218994140625,-521,9981.0,-72.48961639404297,-1279,5564.0
7480,0.31641101837158203,-39.411102294921875,-661,9981.0,-74.81266021728516,-1235,5564.0
7490,0.3163008689880371,-43.978172302246094,-805,9981.0,-65.65377807617188,-1044,5564.0
7500,0.31437116861343384,-45.85100173950195,-755,9981.0,-56.42352294921875,-916,5564.0
7510,0.31400710344314575,-36.91456604003906,-480,9981.0,-36.95537185668945,-468,5564.0
7520,0.31496500968933105,-9.587788581848145,-31,9981.0,-9.299972534179688,-46,5564.0
7530,0.3165278732776642,19.741405487060547,459,9981.0,21.239620208740234,496,5564.0
7540,0.3167295753955841,41.16777420043945,713,9981.0,56.632381439208984,1124,5564.0
7550,0.3170183598995209,56.79242706298828,967,9981.0,86.07650756835938,1339,5564.0
7560,0.3168582320213318,62.20877456665039,1044,9981.0,99.8400650024414,1621,5564.0
7570,0.31684747338294983,54.892433166503906,782,9981.0,99.61588287353516,1561,5564.0
7580,0.3156225383281708,45.55647659301758,677,9981.0,89.13995361328125,1385,5564.0
7590,0.3149970471858978,28.77053451538086,343,9981.0,66.41316986083984,1016,5564.0
7600,0.31473657488822937,9.93395709991455,139,9981.0,29.454130172729492,313,5564.0
7610,0.3150874078273773,-7.340460777282715,-247,9981.0,-6.926882743835449,-269,5564.0
7620,0.3154994249343872,-23.605661392211914,-382,9981.0,-38.17948913574219,-649,5564.0
7630,0.315700501203537,-39.76942825317383,-718,9981.0,-64.52601623535156,-1318,5564.0
7640,0.31562310457229614,-45.17247772216797,-670,9981.0,-85.18698120117188,-1460,5564.0
7650,0.315778523683548,-40.568180084228516,-693,9981.0,-97.62401580810547,-1751,5564.0
7660,0.3159428834915161,-35.0931282043457,-523,9981.0,-107.98788452148438,-1791,5564.0
7670,0.31502825021743774,-28.263935089111328,-442,9981.0,-111.72186279296875,-1858,5564.0
7680,0.3154977560043335,-16.228147506713867,-163,9981.0,-99.66224670410156,-1587,5564.0
7690,0.3173430860042572,3.2172017097473145,125,9981.0,-72.62102508544922,-1019,5564.0
7700,0.31774595379829407,17.5562686920166,280,9981.0,-33.37154769897461,-259,5564.0
7710,0.31698077917099,20.505117416381836,308,9981.0,18.478567123413086,466,5564.0
7720,0.31844329833984375,21.820226669311523,439,9981.0,64.58966064453125,1193,5564.0
7730,0.31907713413238525,24.672021865844727,459,9981.0,104.19174194335938,1875,5564.0
7740,0.31942349672317505,13.91723346710205,44,9981.0,121.51840209960938,2093,5564.0
7750,0.3193944990634918,-4.146220684051514,-175,9981.0,126.18717956542969,1915,5564.0
7760,0.3170199394226074,-24.217639923095703,-472,9981.0,108.8806381225586,1572,5564.0
7770,0.31882229447364807,-29.05157470703125,-489,9981.0,80.15289306640625,992,5564.0
7780,0.31884047389030457,-22.022232055664062,-351,9981.0,42.56986999511719,547,5564.0
7790,0.31900012493133545,-9.062827110290527,17,9981.0,1.9943759441375732,-103,5564.0
7800,0.315631240606308,3.8226161003112793,36,9981.0,-35.32052993774414,-905,5564.0
7810,0.3156663775444031,4.876047611236572,57,9981.0,-61.471923828125,-1060,5564.0
7820,0.31592273712158203,6.303874969482422,94,9981.0,-75.02960968017578,-1306,5564.0
7830,0.31612807512283325,-0.35062554478645325,-42,9981.0,-85.06922149658203,-1314,5564.0
7840,0.31631332635879517,-5.381561279296875,-143,9981.0,-88.20305633544922,-1506,5564.0
7850,0.3149817883968353,-13.320228576660156,-244,9981.0,-86.69357299804688,-1397,5564.0
7860,0.314951092004776,-20.22178840637207,-405,9981.0,-78.99665069580078,-1107,5564.0
7870,0.31498420238494873,-23.226024627685547,-349,9981.0,-57.69682312011719,-909,5564.0
7880,0.3154684603214264,-15.957876205444336,-154,9981.0,-40.775333404541016,-604,5564.0
7890,0.3144040107727051,-1.5264499187469482,35,9981.0,-20.640361785888672,-54,5564.0
7900,0.3147294819355011,7.200484752655029,101,9981.0,14.683279991149902,424,5564.0
7910,0.3155386447906494,7.5927510261535645,173,9981.0,60.691429138183594,1099,5564.0
7920,0.31623879075050354,11.37920093536377,292,9981.0,94.33672332763672,1706,5564.0
7930,0.31637218594551086,19.225343704223633,308,9981.0,110.60494232177734,1787,5564.0
7940,0.3163168728351593,29.435144424438477,576,9981.0,110.9433364868164,1775,5564.0
7950,0.3158496618270874,43.860618591308594,722,9981.0,89.67263793945312,1174,5564.0
7960,0.3153056502342224,45.022186279296875,696,9981.0,60.939640045166016,974,5564.0
7970,0.31502240896224976,30.790555953979492,404,9981.0,36.1229133605957,372,5564.0
7980,0.3131527602672577,16.236560821533203,179,9981.0,10.359293937683105,140,5564.0
7990,0.3132320046424866,1.980916142463684,36,9981.0,-15.564225196838379,-397,5564.0
8000,0.3136311173439026,-6.2526631355285645,-146,9981.0,-32.339595794677734,-497,5564.0
8010,0.31416985392570496,-16.70014190673828,-249,9981.0,-51.6478385925293,-942,5564.0
8020,0.31361639499664307,-27.241132736206055,-464,9981.0,-65.99510955810547,-1032,5564.0
8030,0.3140980899333954,-40.291358947753906,-671,9981.0,-73.84727478027344,-1345,5564.0
8040,0.31428927183151245,-47.929603576660156,-787,9981.0,-77.78215789794922,-1153,5564.0
8050,0.3146155774593353,-55.50520324707031,-972,9981.0,-63.62347412109375,-957,5564.0
8060,0.3171331584453583,-60.2589225769043,-874,9981.0,-42.83827209472656,-583,5564.0
8070,0.31467241048812866,-44.29074478149414,-656,9981.0,-17.460063934326172,-91,5564.0
8080,0.3153023421764374,-20.11362075805664,-187,9981.0,8.198488235473633,39,5564.0
8090,0.31619757413864136,5.758378505706787,227,9981.0,25.671730041503906,518,5564.0
8100,0.316743940114975,33.412532806396484,623,9981.0,40.982234954833984,569,5564.0
8110,0.31644394993782043,50.888038635253906,852,9981.0,53.92750549316406,986,5564.0
8120,0.31643468141555786,63.83808517456055,1074,9981.0,64.8277587890625,1033,5564.0
8130,0.315990149974823,73.48982238769531,1243,9981.0,56.771793365478516,941,5564.0
8140,0.31514230370521545,70.90303039550781,1111,9981.0,52.92945098876953,824,5564.0
8150,0.3157595098018646,56.650333404541016,879,9981.0,50.34798812866211,871,5564.0
8160,0.31489241123199463,32.183143615722656,386,9981.0,36.97642135620117,457,5564.0
8170,0.3149409294128418,0.9784242510795593,-145,9981.0,20.234933853149414,269,5564.0
8180,0.31458571553230286,-28.623634338378906,-572,9981.0,0.1832231879234314,-129,5564.0
8190,0.3151170313358307,-49.793296813964844,-863,9981.0,-21.505531311035156,-262,5564.0
8200,0.31462255120277405,-61.27777099609375,-959,9981.0,-34.53215026855469,-642,5564.0
8210,0.31451332569122314,-58.93994903564453,-875,9981.0,-48.83359146118164,-759,5564.0
8220,0.3147645592689514,-46.647560119628906,-689,9981.0,-66.3005142211914,-1238,5564.0
8230,0.3156551718711853,-31.887849807739258,-400,9981.0,-72.53482818603516,-1196,5564.0
8240,0.3145486116409302,-6.5856122970581055,37,9981.0,-69.51700592041016,-1136,5564.0
8250,0.31500446796417236,20.270103454589844,433,9981.0,-44.54867935180664,-531,5564.0
8260,0.31559133529663086,34.89250564575195,530,9981.0,-7.3868727684021,66,5564.0
8270,0.3167332708835602,33.6550178527832,602,9981.0,33.6500358581543,717,5564.0
8280,0.31817626953125,30.651512145996094,469,9981.0,71.56404113769531,1354,5564.0
8290,0.31842780113220215,21.647823333740234,308,9981.0,97.44590759277344,1735,5564.0
8300,0.3181787431240082,21.145099639892578,395,9981.0,104.96202850341797,1729,5564.0
8310,0.3192576766014099,34.05852127075195,649,9981.0,89.61019134521484,1433,5564.0
8320,0.31925761699676514,44.48048400878906,676,9981.0,55.86658477783203,614,5564.0
8330,0.3167720437049866,38.43622970581055,629,9981.0,16.216970443725586,151,5564.0
8340,0.3167057931423187,22.677589416503906,175,9981.0,-14.292123794555664,-395,5564.0
8350,0.3163071572780609,-5.421578407287598,-222,9981.0,-47.44833755493164,-976,5564.0
8360,0.3166572153568268,-42.936614990234375,-891,9981.0,-74.5514907836914,-1113,5564.0
8370,0.3146926164627075,-75.05418395996094,-1337,9981.0,-85.58662414550781,-1419,5564.0
8380,0.3136242628097534,-86.90414428710938,-1341,9981.0,-85.37676239013672,-1358,5564.0
8390,0.31494686007499695,-81.06458282470703,-1276,9981.0,-82.1705322265625,-1270,5564.0
8400,0.31339600682258606,-65.58617401123047,-923,9981.0,-74.49567413330078,-1288,5564.0
8410,0.31556928157806396,-47.64978790283203,-680,9981.0,-62.09506607055664,-794,5564.0
8420,0.31487056612968445,-24.209213256835938,-140,9981.0,-30.132606506347656,-544,5564.0
8430,0.3160681128501892,14.278857231140137,430,9981.0,-15.392745018005371,-50,5564.0
8440,0.31697654724121094,41.95878982543945,828,9981.0,7.965749740600586,274,5564.0
8450,0.317433625459671,53.220619201660156,900,9981.0,34.855552673339844,854,5564.0
8460,0.31809568405151367,50.339752197265625,777,9981.0,62.6508674621582,1123,5564.0
8470,0.3182423710823059,34.979225158691406,492,9981.0,83.5521011352539,1566,5564.0
8480,0.3182605504989624,22.746517181396484,331,9981.0,98.791748046875,1530,5564.0
8490,0.3183816373348236,17.58236312866211,316,9981.0,96.53361511230469,1641,5564.0
8500,0.316183477640152,16.03799057006836,251,9981.0,83.64794158935547,1108,5564.0
8510,0.31713640689849854,15.18111801147461,196,9981.0,53.434791564941406,779,5564.0
8520,0.31651821732521057,10.849678039550781,251,9981.0,20.246374130249023,171,5564.0
8530,0.31671762466430664,6.742923736572266,90,9981.0,-11.435527801513672,-413,5564.0
8540,0.31672176718711853,4.509725570678711,12,9981.0,-38.415409088134766,-739,5564.0
8550,0.3144969046115875,-10.250066757202148,-282,9981.0,-58.547882080078125,-912,5564.0
8560,0.3145487606525421,-26.55878257751465,-454,9981.0,-67.32327270507812,-1184,5564.0
8570,0.31465280055999756,-32.32410430908203,-533,9981.0,-85.45423889160156,-1340,5564.0
8580,0.3147798776626587,-31.688037872314453,-536,9981.0,-97.46882629394531,-1562,5564.0
8590,0.3154137432575226,-36.34016799926758,-565,9981.0,-86.2204818725586,-1293,5564.0
8600,0.31677573919296265,-33.423885345458984,-516,9981.0,-66.64537048339844,-879,5564.0
8610,0.31716692447662354,-24.076826095581055,-301,9981.0,-33.076988220214844,-364,5564.0
8620,0.31732213497161865,-12.267009735107422,-177,9981.0,12.36164379119873,494,5564.0
8630,0.31797176599502563,0.39152079820632935,103,9981.0,52.92983627319336,952,5564.0
8640,0.31843993067741394,22.84359359741211,527,9981.0,77.90834045410156,1438,5564.0
8650,0.3183920681476593,44.99425506591797,767,9981.0,88.57679748535156,1353,5564.0
8660,0.31813353300094604,53.8661994934082,897,9981.0,90.1775131225586,1578,5564.0
8670,0.31741419434547424,52.383060455322266,826,9981.0,85.37186431884766,1278,5564.0
8680,0.3158029615879059,40.14248275756836,506,9981.0,70.72503662109375,1080,5564.0
8690,0.3152892589569092,18.813947677612305,308,9981.0,37.4183235168457,488,5564.0
8700,0.31500521302223206,-2.5436320304870605,-197,9981.0,2.703962564468384,-175,5564.0
8710,0.3159068524837494,-22.75276756286621,-456,9981.0,-28.57899284362793,-462,5564.0
8720,0.3149384558200836,-32.94321060180664,-481,9981.0,-58.02681350708008,-1072,5564.0
8730,0.3149968385696411,-39.82954788208008,-700,9981.0,-74.78203582763672,-1233,5564.0
8740,0.3150154650211334,-44.73004913330078,-671,9981.0,-83.5854721069336,-1449,5564.0
8750,0.3148126006126404,-39.91627502441406,-647,9981.0,-83.480224609375,-1332,5564.0
8760,0.31720805168151855,-37.8940544128418,-562,9981.0,-69.89163208007812,-1179,5564.0
8770,0.3164346218109131,-29.020631790161133,-385,9981.0,-53.71731185913086,-708,5564.0
8780,0.3169512152671814,-5.630242347717285,11,9981.0,-30.410205841064453,-505,5564.0
8790,0.31778714060783386,14.660901069641113,340,9981.0,-3.025421142578125,220,5564.0
8800,0.3188405930995941,22.94611930847168,348,9981.0,33.04141616821289,750,5564.0
8810,0.31868454813957214,21.463661193847656,417,9981.0,61.4342155456543,1063,5564.0
8820,0.3187786042690277,24.655927658081055,393,9981.0,78.50558471679688,1397,5564.0
8830,0.3183802664279938,26.68672752380371,464,9981.0,85.98661804199219,1351,5564.0
8840,0.3189047574996948,30.875720977783203,537,9981.0,87.1135482788086,1479,5564.0
8850,0.31695792078971863,29.568702697753906,405,9981.0,76.79669952392578,1069,5564.0
8860,0.3173273801803589,11.804525375366211,71,9981.0,62.391197204589844,1007,5564.0
8870,0.31796157360076904,-6.122191429138184,-103,9981.0,39.76079177856445,442,5564.0
8880,0.3191375136375427,-7.308325290679932,-163,9981.0,3.6821746826171875,-96,5564.0
8890,0.32125726342201233,-0.830535352230072,58,9981.0,-36.07161331176758,-598,5564.0
8900,0.32210496068000793,-3.1654322147369385,-76,9981.0,-65.94670104980469,-1291,5564.0
8910,0.32430699467658997,-1.7447996139526367,-20,9981.0,-87.15079498291016,-1455,5564.0
8920,0.3261738121509552,-3.154954671859741,-70,9981.0,-99.21220397949219,-1782,5564.0
8930,0.32837268710136414,-6.989087104797363,-112,9981.0,-100.08879852294922,-1605,5564.0
8940,0.33013275265693665,-9.937532424926758,-165,9981.0,-87.69780731201172,-1359,5564.0
8950,0.33186349272727966,-0.14782209694385529,95,9981.0,-60.63469314575195,-918,5564.0
8960,0.3334905207157135,12.959927558898926,279,9981.0,-30.77226448059082,-371,5564.0
8970,0.33674654364585876,23.770553588867188,436,9981.0,1.162331461906433,255,5564.0
8980,0.3380107283592224,24.404335021972656,359,9981.0,33.23370361328125,663,5564.0
8990,0.3417353332042694,16.415637969970703,182,9981.0,57.9437255859375,986,5564.0
9000,0.34224891662597656,11.217416763305664,197,9981.0,81.84111022949219,1406,5564.0
9010,0.3424963653087616,4.464951992034912,-24,9981.0,103.0539321899414,1732,5564.0
9020,0.34204262495040894,-3.4705615043640137,-115,9981.0,98.32490539550781,1458,5564.0
9030,0.34221112728118896,-13.912970542907715,-272,9981.0,74.75904846191406,1095,5564.0
9040,0.34257423877716064,-19.158245086669922,-204,9981.0,33.913997650146484,165,5564.0
9050,0.3421814441680908,-23.653711318969727,-567,9981.0,-15.041400909423828,-616,5564.0
9060,0.3427596986293793,-29.01529312133789,-421,9981.0,-57.745147705078125,-964,5564.0
9070,0.3399425446987152,-24.442041397094727,-368,9981.0,-79.62995910644531,-1373,5564.0
9080,0.3391929566860199,-16.984416961669922,-165,9981.0,-92.78707885742188,-1539,5564.0
9090,0.3390587866306305,-6.805987358093262,-50,9981.0,-105.03020477294922,-1969,5564.0
9100,0.33825185894966125,8.300241470336914,282,9981.0,-120.16441345214844,-2001,5564.0
9110,0.3370169997215271,22.114408493041992,401,9981.0,-129.79824829101562,-2160,5564.0
9120,0.336076945066452,28.031400680541992,415,9981.0,-127.93589782714844,-2086,5564.0
9130,0.3368922472000122,5.828151226043701,-23,9981.0,-104.1127700805664,-1380,5564.0
9140,0.3371509611606598,-18.628379821777344,-433,9981.0,-51.23127746582031,-369,5564.0
9150,0.33659806847572327,-32.598358154296875,-623,9981.0,5.594955921173096,410,5564.0
9160,0.3427761197090149,-33.21149826049805,-473,9981.0,62.137916564941406,1239,5564.0
9170,0.3439830541610718,-26.698890686035156,-323,9981.0,106.65264129638672,1931,5564.0
9180,0.3437306582927704,-11.970650672912598,-90,9981.0,136.68768310546875,2333,5564.0
9190,0.34471073746681213,4.847346305847168,177,9981.0,153.7433319091797,2520,5564.0
9200,0.3457401990890503,19.59195327758789,418,9981.0,152.8565673828125,2327,5564.0
9210,0.3416772782802582,29.807971954345703,482,9981.0,134.4355926513672,2052,5564.0
9220,0.3438110649585724,38.91140365600586,658,9981.0,93.20529174804688,1456,5564.0
9230,0.3449121415615082,36.08971405029297,604,9981.0,38.92915725708008,405,5564.0
9240,0.3470923602581024,24.44942283630371,268,9981.0,-9.765673637390137,-397,5564.0
9250,0.33858081698417664,7.199960708618164,87,9981.0,-41.92042541503906,-779,5564.0
9260,0.34040552377700806,-9.801410675048828,-233,9981.0,-58.41657638549805,-1091,5564.0
9270,0.3422011733055115,-22.057762145996094,-416,9981.0,-70.68080139160156,-1134,5564.0
9280,0.34401172399520874,-32.53030014038086,-609,9981.0,-78.15338134765625,-1293,5564.0
9290,0.33871057629585266,-30.893884658813477,-354,9981.0,-85.2551498413086,-1500,5564.0
9300,0.3403399586677551,-11.888046264648438,-116,9981.0,-75.57437133789062,-1035,5564.0
9310,0.34152767062187195,1.1870980262756348,-7,9981.0,-43.49424743652344,-494,5564.0
9320,0.34380072355270386,10.911015510559082,242,9981.0,-0.06815405935049057,89,5564.0
9330,0.3455771803855896,11.46992301940918,202,9981.0,35.2489013671875,708,5564.0
9340,0.3427891135215759,2.0359303951263428,55,9981.0,77.65596008300781,1514,5564.0
9350,0.34440940618515015,2.056575059890747,-26,9981.0,116.50225830078125,2159,5564.0
9360,0.3450543284416199,6.004976272583008,171,9981.0,143.3423309326172,2301,5564.0
9370,0.34516456723213196,4.8290252685546875,94,9981.0,153.17605590820312,2556,5564.0
9380,0.3423252999782562,5.880947589874268,100,9981.0,148.8349151611328,2307,5564.0
9390,0.34149375557899475,13.144655227661133,284,9981.0,126.61712646484375,2038,5564.0
9400,0.34002894163131714,26.551450729370117,574,9981.0,76.7656478881836,876,5564.0
9410,0.34047701954841614,36.611568450927734,499,9981.0,9.439654350280762,-240,5564.0
9420,0.33758366107940674,26.227842330932617,360,9981.0,-46.275245666503906,-778,5564.0
9430,0.3381921350955963,-1.1408768892288208,-150,9981.0,-75.3205337524414,-1296,5564.0
9440,0.33781009912490845,-33.58135223388672,-642,9981.0,-85.99984741210938,-1366,5564.0
9450,0.3380887806415558,-53.340518951416016,-929,9981.0,-93.86331939697266,-1657,5564.0
9460,0.33761510252952576,-57.820648193359375,-910,9981.0,-93.16259002685547,-1477,5564.0
9470,0.3350662589073181,-56.012577056884766,-843,9981.0,-79.76143646240234,-1425,5564.0
9480,0.33499816060066223,-40.16322708129883,-568,9981.0,-63.275489807128906,-918,5564.0
9490,0.3352942168712616,-9.345457077026367,-8,9981.0,-50.48357391357422,-857,5564.0
9500,0.3359980583190918,27.21355438232422,570,9981.0,-36.45951843261719,-489,5564.0
9510,0.33513888716697693,57.957740783691406,1078,9981.0,-9.517942428588867,-11,5564.0
9520,0.3351277709007263,67.94596862792969,1078,9981.0,17.030790328979492,455,5564.0
9530,0.33455032110214233,61.46388626098633,993,9981.0,42.611549377441406,762,5564.0
9540,0.3337221145629883,41.883209228515625,535,9981.0,59.49586486816406,1104,5564.0
9550,0.3328193426132202,13.901281356811523,140,9981.0,64.35564422607422,933,5564.0
9560,0.331572949886322,-5.3858795166015625,-157,9981.0,51.635894775390625,755,5564.0
9570,0.330523818731308,-17.760665893554688,-330,9981.0,24.796695709228516,223,5564.0
9580,0.3300049901008606,-22.740497589111328,-390,9981.0,-5.389715194702148,-354,5564.0
9590,0.33012956380844116,-18.97166633605957,-346,9981.0,-36.63735580444336,-770,5564.0
9600,0.32914456725120544,-11.779911994934082,-155,9981.0,-71.3490219116211,-1244,5564.0
9610,0.3291676640510559,-7.595404624938965,-146,9981.0,-99.49503326416016,-1791,5564.0
9620,0.3285074234008789,-12.860773086547852,-282,9981.0,-120.2276382446289,-1919,5564.0
9630,0.3285081088542938,-19.44497299194336,-309,9981.0,-124.82716369628906,-2059,5564.0
9640,0.3292525112628937,-23.54391860961914,-453,9981.0,-122.12606048583984,-1834,5564.0
9650,0.32852938771247864,-26.324993133544922,-348,9981.0,-108.23191833496094,-1701,5564.0
9660,0.3281770646572113,-10.740668296813965,-31,9981.0,-84.88833618164062,-1167,5564.0
9670,0.3292655348777771,12.087957382202148,213,9981.0,-48.21318817138672,-574,5564.0
9680,0.3283112943172455,26.120174407958984,486,9981.0,-0.4525342881679535,164,5564.0
9690,0.3344220817089081,40.531105041503906,715,9981.0,49.18869400024414,1034,5564.0
9700,0.336224764585495,35.59742736816406,466,9981.0,89.88275146484375,1620,5564.0
9710,0.3360051214694977,17.31956672668457,218,9981.0,120.42708587646484,2142,5564.0
9720,0.33699527382850647,-1.0600324869155884,-107,9981.0,134.40614318847656,2185,5564.0
9730,0.3339768052101135,-9.728270530700684,-78,9981.0,115.15788269042969,1645,5564.0
9740,0.3343642055988312,-11.94739818572998,-222,9981.0,81.41968536376953,1072,5564.0
9750,0.33536121249198914,-8.528796195983887,-86,9981.0,41.73828125,526,5564.0
9760,0.3355853855609894,-5.257440567016602,-119,9981.0,4.9324493408203125,-120,5564.0
9770,0.33631640672683716,-7.273256301879883,-206,9981.0,-22.136760711669922,-402,5564.0
9780,0.32697415351867676,-8.877494812011719,-122,9981.0,-38.36162567138672,-749,5564.0
9790,0.32736217975616455,-15.307316780090332,-321,9981.0,-50.09104537963867,-862,5564.0
9800,0.327408105134964,-10.332775115966797,-114,9981.0,-62.153968811035156,-1171,5564.0
9810,0.32731887698173523,-12.282074928283691,-267,9981.0,-68.40313720703125,-948,5564.0
9820,0.32067903876304626,-23.61627960205078,-405,9981.0,-51.077362060546875,-785,5564.0
9830,0.319715291261673,-22.83308219909668,-274,9981.0,-24.362085342407227,-234,5564.0
9840,0.31921032071113586,-13.384305953979492,-169,9981.0,6.703442096710205,494,5564.0
9850,0.3201168179512024,-1.9721935987472534,-7,9981.0,50.72547149658203,938,5564.0
9860,0.3193295896053314,5.503931999206543,142,9981.0,83.8548355102539,1422,5564.0
9870,0.31543782353401184,10.363076210021973,113,9981.0,97.78129577636719,1722,5564.0
9880,0.31422802805900574,16.154294967651367,369,9981.0,106.23487854003906,1694,5564.0
9890,0.3130936324596405,33.50883102416992,591,9981.0,103.53382110595703,1655,5564.0
9900,0.3115653097629547,50.176429748535156,912,9981.0,100.21000671386719,1583,5564.0
9910,0.3036079704761505,57.749515533447266,925,9981.0,71.9188232421875,847,5564.0
9920,0.30333757400512695,48.207374572753906,649,9981.0,31.09307289123535,365,5564.0
9930,0.3012560307979584,29.565135955810547,463,9981.0,-6.092310428619385,-160,5564.0
9940,0.2990094721317291,11.283921241760254,18,9981.0,-27.751089096069336,-662,5564.0
9950,0.29279813170433044,-13.658541679382324,-289,9981.0,-40.868953704833984,-634,5564.0
9960,0.28998300433158875,-34.78379821777344,-708,9981.0,-42.75244140625,-721,5564.0
9970,0.28783881664276123,-54.13277816772461,-893,9981.0,-28.299772262573242,-328,5564.0
9980,0.28547921776771545,-65.07466888427734,-1172,9981.0,-8.209366798400879,-158,5564.0
9990,0.2834903299808502,-71.79525756835938,-1148,9981.0,4.456989288330078,167,5564.0
10000,0.2791822850704193,-68.31869506835938,-1066,9981.0,11.135226249694824,64,5564.0
10010,0.2776090204715729,-51.88065719604492,-847,9981.0,6.530308246612549,85,5564.0
10020,0.2767157554626465,-30.629850387573242,-332,9981.0,-8.137552261352539,-80,5564.0
10030,0.27529144287109375,-5.5705060958862305,92,9981.0,-14.380611419677734,-190,5564.0
10040,0.27309736609458923,15.251505851745605,278,9981.0,-1.1360455751419067,-25,5564.0
10050,0.27354076504707336,24.26828384399414,404,9981.0,18.802663803100586,527,5564.0
10060,0.2732715606689453,18.58495330810547,336,9981.0,47.00591278076172,825,5564.0
10070,0.2733581066131592,12.708292961120605,164,9981.0,66.78057098388672,1118,5564.0
10080,0.2729858160018921,11.443490982055664,200,9981.0,74.85476684570312,1294,5564.0
10090,0.27275747060775757,9.339064598083496,155,9981.0,73.91117095947266,1235,5564.0
10100,0.2723718285560608,9.06760025024414,57,9981.0,68.91341400146484,1059,5564.0
10110,0.2722742259502411,5.315427780151367,92,9981.0,58.32295608520508,937,5564.0
10120,0.27185454964637756,1.983967661857605,134,9981.0,40.43668746948242,608,5564.0
10130,0.270747572183609,10.59538745880127,218,9981.0,20.026376724243164,61,5564.0
10140,0.26929786801338196,17.402130126953125,283,9981.0,-5.371283054351807,-218,5564.0
10150,0.26921316981315613,19.43062400817871,318,9981.0,-24.265344619750977,-511,5564.0
10160,0.2677074372768402,18.852657318115234,343,9981.0,-45.06138610839844,-809,5564.0
10170,0.2678261995315552,13.069530487060547,82,9981.0,-53.06279373168945,-934,5564.0
10180,0.2661895453929901,1.475960373878479,19,9981.0,-51.743675231933594,-745,5564.0
10190,0.26599860191345215,-10.510787010192871,-249,9981.0,-46.69221496582031,-864,5564.0
10200,0.2645931541919708,-22.358728408813477,-371,9981.0,-45.17641067504883,-678,5564.0
10210,0.26480475068092346,-30.058189392089844,-568,9981.0,-35.10279083251953,-484,5564.0
10220,0.2643931806087494,-27.13325309753418,-375,9981.0,-13.427247047424316,-37,5564.0
10230,0.2638539969921112,-17.27250099182129,-321,9981.0,13.986079216003418,285,5564.0
10240,0.26334092020988464,-11.497415542602539,-131,9981.0,35.6419792175293,732,5564.0
10250,0.26118069887161255,-1.7947757244110107,-93,9981.0,56.19171905517578,983,5564.0
10260,0.2632349729537964,7.1073126792907715,162,9981.0,66.42012786865234,1203,5564.0
10270,0.26120632886886597,11.451509475708008,234,9981.0,59.20156478881836,909,5564.0
10280,0.2611559331417084,9.295072555541992,62,9981.0,38.65143966674805,524,5564.0
10290,0.25915807485580444,-1.9957324266433716,-124,9981.0,11.70467472076416,127,5564.0
10300,0.25959134101867676,-25.55736541748047,-512,9981.0,-14.004154205322266,-343,5564.0
10310,0.2565915882587433,-41.53432083129883,-778,9981.0,-32.07498550415039,-603,5564.0
10320,0.2564586400985718,-48.85283279418945,-706,9981.0,-49.87971115112305,-857,5564.0
10330,0.2538869082927704,-37.00136184692383,-543,9981.0,-64.52919006347656,-1195,5564.0
10340,0.25345563888549805,-12.842560768127441,-179,9981.0,-70.32828521728516,-993,5564.0
10350,0.25236234068870544,2.54524302482605,82,9981.0,-52.9302864074707,-742,5564.0
10360,0.2506442964076996,10.216571807861328,127,9981.0,-23.534372329711914,-120,5564.0
10370,0.24907658994197845,11.690408706665039,265,9981.0,7.57377290725708,257,5564.0
10380,0.24821288883686066,15.595146179199219,231,9981.0,27.084054946899414,521,5564.0
10390,0.24524882435798645,19.47002410888672,401,9981.0,27.699329376220703,384,5564.0
10400,0.24522799253463745,22.756690979003906,379,9981.0,13.242465019226074,18,5564.0
10410,0.243865966796875,25.104557037353516,463,9981.0,3.1957924365997314,185,5564.0
10420,0.2428060919046402,27.72049903869629,394,9981.0,2.6022183895111084,52,5564.0
10430,0.24152863025665283,19.35517692565918,298,9981.0,4.605877876281738,143,5564.0
10440,0.24054862558841705,7.408230781555176,-65,9981.0,13.521130561828613,226,5564.0
10450,0.23908303678035736,-12.37432861328125,-294,9981.0,27.39085578918457,594,5564.0
10460,0.2380635142326355,-26.190078735351562,-548,9981.0,38.450294494628906,591,5564.0
10470,0.23739992082118988,-34.62269973754883,-506,9981.0,40.88115692138672,657,5564.0
10480,0.23675969243049622,-33.94570541381836,-460,9981.0,35.20762252807617,537,5564.0
10490,0.23542854189872742,-24.778152465820312,-371,9981.0,25.079998016357422,239,5564.0
10500,0.23392999172210693,-15.462325096130371,-203,9981.0,9.038320541381836,60,5564.0
10510,0.23278139531612396,-6.82011079788208,-92,9981.0,-9.092376708984375,-311,5564.0
10520,0.23099897801876068,-2.516469955444336,-73,9981.0,-28.78965187072754,-572,5564.0
10530,0.22954896092414856,4.082271099090576,151,9981.0,-38.776641845703125,-469,5564.0
10540,0.2279304563999176,10.202779769897461,229,9981.0,-38.360313415527344,-680,5564.0
10550,0.22654035687446594,10.371003150939941,132,9981.0,-31.855236053466797,-533,5564.0
10560,0.225208580493927,8.64884090423584,208,9981.0,-25.301010131835938,-360,5564.0
10570,0.2241910696029663,7.772693634033203,107,9981.0,-16.39375114440918,-353,5564.0
10580,0.22326140105724335,6.443265438079834,67,9981.0,-7.758027076721191,4,5564.0
10590,0.22239434719085693,4.0365424156188965,57,9981.0,5.852958679199219,116,5564.0
10600,0.22218315303325653,5.451264381408691,105,9981.0,23.116872787475586,520,5564.0
10610,0.22570250928401947,1.102544903755188,3,9981.0,36.18758010864258,624,5564.0
10620,0.2248532921075821,-6.707088947296143,-188,9981.0,43.63224411010742,781,5564.0
10630,0.22453369200229645,-8.93272876739502,-149,9981.0,49.94468307495117,909,5564.0
10640,0.22420820593833923,-10.153133392333984,-154,9981.0,52.22194290161133,703,5564.0
10650,0.22148455679416656,-1.935295820236206,21,9981.0,50.903045654296875,782,5564.0
10660,0.22095176577568054,13.957788467407227,262,9981.0,36.6673583984375,666,5564.0
10670,0.2202356904745102,18.190807342529297,286,9981.0,13.940068244934082,114,5564.0
10680,0.21940189599990845,16.368757247924805,196,9981.0,-6.019487380981445,-181,5564.0
10690,0.21832579374313354,14.229422569274902,279,9981.0,-23.558984756469727,-381,5564.0
10700,0.22136808931827545,10.8085298538208,138,9981.0,-32.925018310546875,-651,5564.0
10710,0.22060225903987885,12.406973838806152,253,9981.0,-36.797454833984375,-500,5564.0
10720,0.22003094851970673,12.544219970703125,203,9981.0,-32.40023422241211,-572,5564.0
10730,0.21989254653453827,7.192234992980957,36,9981.0,-20.192148208618164,-207,5564.0
10740,0.21781647205352783,-0.36583924293518066,-15,9981.0,-8.833870887756348,-160,5564.0
10750,0.2173691987991333,-6.629297733306885,-102,9981.0,-0.7647103667259216,89,5564.0
10760,0.21685819327831268,-7.19501256942749,-123,9981.0,2.8438475131988525,36,5564.0
10770,0.21773673593997955,-8.59841251373291,-161,9981.0,6.9566168785095215,245,5564.0
10780,0.21885547041893005,-12.201288223266602,-222,9981.0,12.854764938354492,117,5564.0
10790,0.21913449466228485,-14.459744453430176,-276,9981.0,17.527854919433594,336,5564.0
10800,0.21910451352596283,-10.770733833312988,-46,9981.0,21.27340316772461,357,5564.0
10810,0.21922320127487183,4.458830833435059,51,9981.0,23.793947219848633,346,5564.0
10820,0.21939559280872345,8.77411937713623,211,9981.0,16.170551300048828,310,5564.0
10830,0.21680890023708344,11.876245498657227,175,9981.0,7.662400722503662,-15,5564.0
10840,0.21668772399425507,6.600539684295654,17,9981.0,3.0159990787506104,30,5564.0
10850,0.21645495295524597,-5.9784440994262695,-35,9981.0,-7.185063362121582,-148,5564.0
10860,0.21621443331241608,-14.447827339172363,-321,9981.0,-12.455619812011719,-218,5564.0
10870,0.2151567041873932,-20.363143920898438,-257,9981.0,-23.778064727783203,-396,5564.0
10880,0.21462006866931915,-11.994924545288086,-148,9981.0,-33.14958572387695,-749,5564.0
10890,0.21389570832252502,-7.11767578125,-34,9981.0,-38.784423828125,-545,5564.0
10900,0.21381807327270508,2.0536694526672363,135,9981.0,-29.83576202392578,-558,5564.0
10910,0.21259436011314392,10.112574577331543,118,9981.0,-21.634729385375977,-300,5564.0
10920,0.2121819704771042,16.866031646728516,315,9981.0,-11.204550743103027,-146,5564.0
10930,0.21195277571678162,21.395938873291016,252,9981.0,-2.9378867149353027,-50,5564.0
10940,0.21165509521961212,19.301559448242188,280,9981.0,0.636542022228241,92,5564.0
10950,0.21131281554698944,15.450013160705566,177,9981.0,1.9636024236679077,-43,5564.0
10960,0.21155542135238647,11.352225303649902,227,9981.0,3.5760178565979004,157,5564.0
10970,0.21141673624515533,9.591167449951172,140,9981.0,10.437772750854492,175,5564.0
10980,0.2112756073474884,3.2121355533599854,57,9981.0,20.68062400817871,479,5564.0
10990,0.21116946637630463,2.0712437629699707,8,9981.0,26.078060150146484,368,5564.0
11000,0.21096567809581757,4.374229431152344,100,9981.0,25.220857620239258,390,5564.0
11010,0.21085993945598602,3.773285150527954,61,9981.0,23.924205780029297,312,5564.0
11020,0.2107115387916565,-1.0323333740234375,-64,9981.0,17.224843978881836,282,5564.0
11030,0.21056559681892395,-6.398142337799072,-68,9981.0,4.559194564819336,-71,5564.0
11040,0.2103807032108307,-13.149935722351074,-330,9981.0,-11.513555526733398,-262,5564.0
11050,0.21262745559215546,-17.008316040039062,-242,9981.0,-19.977933883666992,-313,5564.0
11060,0.21254853904247284,-12.115837097167969,-206,9981.0,-29.48542594909668,-574,5564.0
11070,0.21213853359222412,-9.010611534118652,-44,9981.0,-33.34669876098633,-482,5564.0
11080,0.21158376336097717,-0.5513690114021301,42,9981.0,-30.267074584960938,-578,5564.0
11090,0.2108895629644394,4.919639587402344,191,9981.0,-22.426624298095703,-269,5564.0
11100,0.21038104593753815,9.636578559875488,141,9981.0,-13.193282127380371,-240,5564.0
11110,0.21029384434223175,11.4015531539917,235,9981.0,-4.178488731384277,27,5564.0
11120,0.20992334187030792,13.223909378051758,110,9981.0,5.0168304443359375,30,5564.0
11130,0.2091655731201172,8.190086364746094,111,9981.0,8.428529739379883,182,5564.0
11140,0.20899741351604462,1.3806856870651245,-79,9981.0,8.569918632507324,194,5564.0
11150,0.20892071723937988,-9.878669738769531,-116,9981.0,14.48781681060791,306,5564.0
11160,0.20892298221588135,-17.048402786254883,-324,9981.0,25.369163513183594,540,5564.0
11170,0.20911481976509094,-21.76946258544922,-325,9981.0,25.89180564880371,315,5564.0
11180,0.21030782163143158,-22.88909149169922,-423,9981.0,25.06696128845215,396,5564.0
11190,0.21042364835739136,-20.987960815429688,-252,9981.0,18.943862915039062,309,5564.0
11200,0.21046766638755798,-21.514461517333984,-426,9981.0,15.137428283691406,205,5564.0
11210,0.21036358177661896,-19.37584114074707,-246,9981.0,9.792242050170898,325,5564.0
11220,0.21078523993492126,-9.467960357666016,-89,9981.0,6.287825584411621,44,5564.0
11230,0.21076850593090057,1.3909872770309448,58,9981.0,3.3351659774780273,-29,5564.0
11240,0.21055670082569122,13.619711875915527,320,9981.0,-4.612813472747803,-6,5564.0
11250,0.21029287576675415,21.57883644104004,352,9981.0,-14.315383911132812,-332,5564.0
11260,0.2117752730846405,20.9768123626709,248,9981.0,-21.652063369750977,-278,5564.0
11270,0.21179501712322235,18.126327514648438,316,9981.0,-19.008827209472656,-225,5564.0
11280,0.21157336235046387,13.082232475280762,105,9981.0,-13.372620582580566,-241,5564.0
11290,0.21131464838981628,4.6557135581970215,87,9981.0,-6.247135162353516,31,5564.0
11300,0.2111857533454895,2.152703046798706,-36,9981.0,0.9529471397399902,-40,5564.0
11310,0.21072280406951904,-5.255904674530029,-71,9981.0,6.327515602111816,266,5564.0
11320,0.21038895845413208,-8.70716667175293,-132,9981.0,14.579000473022461,252,5564.0
11330,0.2108522355556488,-9.524308204650879,-173,9981.0,22.051759719848633,415,5564.0
11340,0.21114613115787506,-3.9861714839935303,-10,9981.0,23.418319702148438,420,5564.0
11350,0.21034611761569977,5.101113319396973,62,9981.0,25.971389770507812,333,5564.0
11360,0.21024762094020844,12.45824146270752,228,9981.0,23.79932403564453,422,5564.0
11370,0.2106088101863861,9.341464042663574,153,9981.0,19.349897384643555,195,5564.0
11380,0.210561603307724,4.699257850646973,-43,9981.0,13.341340065002441,220,5564.0
11390,0.20768529176712036,-3.509303569793701,-27,9981.0,8.857510566711426,192,5564.0
11400,0.20718446373939514,-8.085295677185059,-228,9981.0,4.060972213745117,-11,5564.0
11410,0.2068713903427124,-12.984442710876465,-259,9981.0,-2.562922239303589,5,5564.0
11420,0.20649196207523346,-14.065123558044434,-173,9981.0,-8.421592712402344,-143,5564.0
11430,0.20613576471805573,-9.063718795776367,-165,9981.0,-11.63864803314209,-334,5564.0
11440,0.2053176909685135,-0.6589741110801697,11,9981.0,-19.068262100219727,-269,5564.0
11450,0.2046406865119934,5.9652485847473145,153,9981.0,-20.894317626953125,-446,5564.0
11460,0.20427390933036804,12.453779220581055,141,9981.0,-20.37299919128418,-333,5564.0
11470,0.20382601022720337,13.359420776367188,241,9981.0,-18.77566146850586,-153,5564.0
11480,0.20068123936653137,8.259198188781738,82,9981.0,-7.665770053863525,-191,5564.0
11490,0.20036830008029938,-0.7570520043373108,-42,9981.0,3.781505823135376,184,5564.0
11500,0.19965079426765442,-8.58242416381836,-167,9981.0,13.96645450592041,265,5564.0
11510,0.19979111850261688,-14.839374542236328,-276,9981.0,24.648204803466797,434,5564.0
11520,0.19938023388385773,-16.180015563964844,-188,9981.0,36.542076110839844,772,5564.0
11530,0.19726260006427765,-7.958696365356445,-4,9981.0,41.49440383911133,619,5564.0
11540,0.19722551107406616,6.42009162902832,208,9981.0,33.566871643066406,383,5564.0
11550,0.19716866314411163,16.547739028930664,367,9981.0,29.1102237701416,449,5564.0
11560,0.19684326648712158,26.86672592163086,518,9981.0,13.832880973815918,219,5564.0
11570,0.19737505912780762,31.707504272460938,545,9981.0,0.3841857612133026,-101,5564.0
11580,0.19737780094146729,28.1644344329834,352,9981.0,-4.737120151519775,-125,5564.0
11590,0.19695445895195007,22.720462799072266,402,9981.0,-9.387460708618164,-15,5564.0
11600,0.19719049334526062,17.27821159362793,259,9981.0,-10.808451652526855,-230,5564.0
11610,0.1975325644016266,9.751875877380371,90,9981.0,-12.958514213562012,-227,5564.0
11620,0.19746816158294678,4.8677778244018555,65,9981.0,-15.479469299316406,-295,5564.0
11630,0.19766736030578613,-0.3353091776371002,-91,9981.0,-14.849363327026367,-147,5564.0
11640,0.19766156375408173,-5.28649377822876,-62,9981.0,-10.421942710876465,-50,5564.0
11650,0.19762742519378662,-8.016764640808105,-211,9981.0,-6.1455793380737305,-149,5564.0
11660,0.19853715598583221,-12.171148300170898,-240,9981.0,1.1927814483642578,161,5564.0
11670,0.1986883580684662,-21.211563110351562,-336,9981.0,6.995298862457275,103,5564.0
11680,0.19930312037467957,-27.947206497192383,-516,9981.0,13.641365051269531,266,5564.0
11690,0.19971677660942078,-23.846389770507812,-328,9981.0,16.970197677612305,342,5564.0
11700,0.1984267383813858,-14.757133483886719,-175,9981.0,15.338324546813965,231,5564.0
11710,0.19898557662963867,-5.10664701461792,-95,9981.0,17.151718139648438,197,5564.0
11720,0.1995287984609604,4.628313064575195,142,9981.0,11.501248359680176,113,5564.0
11730,0.19998767971992493,14.290754318237305,223,9981.0,-8.714431762695312,-69,5564.0
11740,0.20023517310619354,18.2335262298584,316,9981.0,-22.650972366333008,-484,5564.0
11750,0.20103920996189117,22.056747436523438,341,9981.0,-28.62128448486328,-449,5564.0
11760,0.20143206417560577,29.141754150390625,594,9981.0,-23.844087600708008,-288,5564.0
11770,0.20167875289916992,39.264896392822266,647,9981.0,-10.349252700805664,-167,5564.0
11780,0.20154017210006714,38.244041442871094,695,9981.0,3.3047683238983154,157,5564.0
11790,0.2036515474319458,25.82917594909668,340,9981.0,8.599309921264648,56,5564.0
11800,0.2044699490070343,9.22443962097168,82,9981.0,10.953374862670898,262,5564.0
11810,0.20493145287036896,-7.290768623352051,-159,9981.0,11.283907890319824,67,5564.0
11820,0.20552921295166016,-15.624021530151367,-327,9981.0,6.470970153808594,178,5564.0
11830,0.20598766207695007,-21.443767547607422,-335,9981.0,0.6968859434127808,-43,5564.0
11840,0.206438347697258,-23.46170997619629,-419,9981.0,-3.685636520385742,-109,5564.0
11850,0.2070191204547882,-24.93239974975586,-366,9981.0,-6.416870594024658,12,5564.0
11860,0.20766472816467285,-21.461650848388672,-356,9981.0,-6.514395236968994,-140,5564.0
11870,0.2082344889640808,-21.923433303833008,-386,9981.0,-2.563518524169922,-59,5564.0
11880,0.20969101786613464,-21.807321548461914,-288,9981.0,-4.174896717071533,26,5564.0
11890,0.2103324681520462,-19.402393341064453,-321,9981.0,-1.631848692893982,-145,5564.0
11900,0.2110740840435028,-17.304834365844727,-309,9981.0,-0.4059520363807678,-85,5564.0
11910,0.21165207028388977,-12.996886253356934,-124,9981.0,-2.272402048110962,48,5564.0
11920,0.21468213200569153,-5.258754253387451,11,9981.0,-8.45364761352539,-239,5564.0
11930,0.21524806320667267,4.99251651763916,88,9981.0,-13.528838157653809,-294,5564.0
11940,0.2158031463623047,11.170595169067383,264,9981.0,-17.710979461669922,-225,5564.0
11950,0.21624939143657684,17.41448211669922,371,9981.0,-18.86089515686035,-350,5564.0
11960,0.2167445570230484,21.939401626586914,259,9981.0,-15.490626335144043,-234,5564.0
11970,0.21648873388767242,20.055137634277344,350,9981.0,-10.8921480178833,-72,5564.0
11980,0.2169181853532791,14.7218599319458,170,9981.0,-8.330810546875,-266,5564.0
11990,0.21726153790950775,9.110430717468262,132,9981.0,-7.796921253204346,-99,5564.0
12000,0.21754895150661469,5.981060028076172,101,9981.0,-5.208806991577148,-165,5564.0
12010,0.21912331879138947,6.062605381011963,132,9981.0,3.125810384750366,115,5564.0
12020,0.21982653439044952,8.812471389770508,199,9981.0,17.549108505249023,305,5564.0
12030,0.2204461246728897,6.011089324951172,58,9981.0,27.561588287353516,458,5564.0
12040,0.22107990086078644,-1.3328474760055542,-56,9981.0,32.51498794555664,568,5564.0
12050,0.22218739986419678,-8.885848999023438,-251,9981.0,33.075927734375,567,5564.0
12060,0.22305266559123993,-15.628665924072266,-235,9981.0,27.80058479309082,464,5564.0
12070,0.22357435524463654,-14.446191787719727,-197,9981.0,11.341233253479004,78,5564.0
12080,0.2257383167743683,-9.019744873046875,-167,9981.0,-8.27176570892334,-291,5564.0
12090,0.22607223689556122,-1.4920203685760498,9,9981.0,-20.481592178344727,-332,5564.0
12100,0.2224237024784088,6.408322334289551,207,9981.0,-25.7164363861084,-435,5564.0
12110,0.22258836030960083,9.712775230407715,158,9981.0,-31.252464294433594,-580,5564.0
12120,0.22247359156608582,8.675084114074707,160,9981.0,-29.63114356994629,-405,5564.0
12130,0.22231727838516235,7.813652515411377,114,9981.0,-24.049793243408203,-418,5564.0
12140,0.22382132709026337,6.157542705535889,2,9981.0,-17.243335723876953,-236,5564.0
12150,0.22388634085655212,5.058901309967041,63,9981.0,-7.445924282073975,-26,5564.0
12160,0.22429758310317993,4.589666843414307,77,9981.0,1.3860061168670654,-34,5564.0
12170,0.22452425956726074,9.304157257080078,77,9981.0,8.43445873260498,125,5564.0
12180,0.22221793234348297,12.937969207763672,266,9981.0,12.422890663146973,271,5564.0
12190,0.22254543006420135,13.562342643737793,176,9981.0,17.27266502380371,172,5564.0
12200,0.22291508316993713,11.1725492477417,149,9981.0,27.863189697265625,662,5564.0
12210,0.22316552698612213,7.190260887145996,220,9981.0,38.809181213378906,644,5564.0
12220,0.2243979573249817,4.8553147315979,76,9981.0,43.27571105957031,664,5564.0
12230,0.2268432378768921,6.619330406188965,59,9981.0,41.17024230957031,703,5564.0
12240,0.2270057648420334,4.615152835845947,93,9981.0,27.623231887817383,312,5564.0
12250,0.22813495993614197,5.087430477142334,69,9981.0,4.460816860198975,-124,5564.0
12260,0.22872550785541534,4.480019569396973,30,9981.0,-19.153411865234375,-344,5564.0
12270,0.22724485397338867,-0.19171971082687378,66,9981.0,-35.74409103393555,-494,5564.0
12280,0.2274496704339981,1.8145413398742676,21,9981.0,-41.8675422668457,-828,5564.0
12290,0.22753484547138214,2.291311502456665,-45,9981.0,-48.71939468383789,-779,5564.0
12300,0.22816815972328186,-1.614731788635254,-9,9981.0,-39.89552307128906,-506,5564.0
12310,0.2305126190185547,-4.597904205322266,-142,9981.0,-28.625688552856445,-453,5564.0
12320,0.23087850213050842,-6.54876708984375,-139,9981.0,-11.696402549743652,-47,5564.0
12330,0.23122577369213104,-11.371485710144043,-184,9981.0,4.276547431945801,69,5564.0
12340,0.23184369504451752,-8.042222023010254,-185,9981.0,12.783003807067871,252,5564.0
12350,0.23246882855892181,-6.187567710876465,-41,9981.0,18.50241470336914,483,5564.0
12360,0.2308058887720108,-5.120506763458252,-45,9981.0,32.616912841796875,472,5564.0
12370,0.23144187033176422,-1.115450143814087,2,9981.0,42.53126525878906,676,5564.0
12380,0.2320227324962616,7.064740180969238,176,9981.0,37.76231002807617,634,5564.0
12390,0.23343214392662048,11.68836498260498,278,9981.0,18.446414947509766,134,5564.0
12400,0.23235388100147247,13.30526351928711,201,9981.0,-2.470047950744629,-231,5564.0
12410,0.23275013267993927,17.516027450561523,335,9981.0,-12.891322135925293,-220,5564.0
12420,0.23331643640995026,16.59583854675293,290,9981.0,-19.629520416259766,-409,5564.0
12430,0.2338862270116806,6.948392391204834,-1,9981.0,-25.16701889038086,-387,5564.0
12440,0.23414397239685059,-9.426667213439941,-167,9981.0,-26.82559585571289,-435,5564.0
12450,0.23476901650428772,-19.504993438720703,-384,9981.0,-21.555696487426758,-300,5564.0
12460,0.23496823012828827,-28.168169021606445,-430,9981.0,-14.223146438598633,-264,5564.0
12470,0.23567822575569153,-26.812047958374023,-464,9981.0,-9.986536979675293,-254,5564.0
12480,0.2360703945159912,-26.28627586364746,-427,9981.0,-6.441815376281738,-4,5564.0
12490,0.23700812458992004,-24.98198699951172,-368,9981.0,-1.515260100364685,-51,5564.0
12500,0.23739922046661377,-14.963821411132812,-234,9981.0,0.24547669291496277,25,5564.0
12510,0.23823752999305725,-4.957557678222656,22,9981.0,-1.7525012493133545,92,5564.0
12520,0.23898552358150482,6.136101245880127,141,9981.0,-2.1678054332733154,-139,5564.0
12530,0.2396060973405838,18.252580642700195,242,9981.0,0.44832727313041687,51,5564.0
12540,0.24053889513015747,20.04238510131836,363,9981.0,10.208816528320312,342,5564.0
12550,0.24146080017089844,11.774438858032227,99,9981.0,31.152769088745117,428,5564.0
12560,0.24281013011932373,3.7598721981048584,-10,9981.0,35.95209503173828,632,5564.0
12570,0.24367618560791016,-4.9675798416137695,-11,9981.0,40.609458923339844,636,5564.0
12580,0.24448876082897186,-7.08345365524292,-175,9981.0,42.07244873046875,534,5564.0
12590,0.2457749992609024,-11.027077674865723,-219,9981.0,33.24122619628906,589,5564.0
12600,0.2468326985836029,-9.960248947143555,-33,9981.0,26.488698959350586,447,5564.0
12610,0.24744094908237457,-1.4108154773712158,-58,9981.0,8.039588928222656,-36,5564.0
12620,0.24921627342700958,-1.9170570373535156,-100,9981.0,-13.69466495513916,-342,5564.0
12630,0.24988070130348206,-3.3281075954437256,-22,9981.0,-32.21529006958008,-456,5564.0
12640,0.2507554590702057,-9.472697257995605,-197,9981.0,-43.35700607299805,-861,5564.0
12650,0.2514331340789795,-13.505875587463379,-251,9981.0,-52.295074462890625,-864,5564.0
12660,0.25191056728363037,-9.316256523132324,-111,9981.0,-51.09784698486328,-769,5564.0
12670,0.254090279340744,-2.858368396759033,-27,9981.0,-35.77933883666992,-562,5564.0
12680,0.254732221364975,6.624586582183838,173,9981.0,-20.125282287597656,-240,5564.0
12690,0.25550219416618347,10.853535652160645,242,9981.0,-10.405567169189453,-105,5564.0
12700,0.2563740909099579,10.739052772521973,130,9981.0,5.7339324951171875,124,5564.0
12710,0.2565456032752991,11.05172061920166,246,9981.0,19.16188621520996,344,5564.0
12720,0.25754496455192566,15.787467956542969,256,9981.0,31.26272201538086,467,5564.0
12730,0.25850680470466614,11.483559608459473,107,9981.0,41.43816375732422,712,5564.0
12740,0.259570449590683,5.1256232261657715,74,9981.0,40.038612365722656,790,5564.0
12750,0.261609822511673,-9.136816024780273,-209,9981.0,28.771390914916992,254,5564.0
12760,0.26260870695114136,-14.084586143493652,-247,9981.0,7.090374946594238,-42,5564.0
12770,0.2638704478740692,-16.66034507751465,-284,9981.0,-18.685163497924805,-254,5564.0
12780,0.26485759019851685,-24.978015899658203,-296,9981.0,-30.099950790405273,-592,5564.0
12790,0.26561111211776733,-15.454050064086914,-208,9981.0,-48.69579315185547,-964,5564.0
12800,0.2663438022136688,-3.2939634323120117,-4,9981.0,-56.53035354614258,-851,5564.0
12810,0.26727938652038574,12.1256742477417,299,9981.0,-50.97797393798828,-721,5564.0
12820,0.26834622025489807,21.38764762878418,311,9981.0,-30.538532257080078,-441,5564.0
12830,0.2695092260837555,23.25779914855957,383,9981.0,-11.389252662658691,-13,5564.0
12840,0.27071359753608704,19.76856231689453,282,9981.0,7.183948993682861,61,5564.0
12850,0.27183160185813904,15.290350914001465,235,9981.0,14.152862548828125,339,5564.0
12860,0.273049920797348,4.329102993011475,7,9981.0,22.833133697509766,382,5564.0
12870,0.2743738293647766,-9.175995826721191,-239,9981.0,23.81197166442871,496,5564.0
12880,0.27505916357040405,-19.74077033996582,-312,9981.0,34.68446350097656,672,5564.0
12890,0.2764422297477722,-24.443803787231445,-446,9981.0,40.434288024902344,595,5564.0
12900,0.27769455313682556,-20.46508026123047,-359,9981.0,37.359092712402344,514,5564.0
12910,0.2793412208557129,-1.2008925676345825,109,9981.0,19.05457878112793,309,5564.0
12920,0.280748188495636,22.46307373046875,506,9981.0,1.9813398122787476,-36,5564.0
12930,0.28403788805007935,40.26509475708008,756,9981.0,-19.505373001098633,-584,5564.0
12940,0.285367488861084,50.643619537353516,819,9981.0,-47.85249328613281,-931,5564.0
12950,0.2863170802593231,50.10306167602539,828,9981.0,-62.2770881652832,-915,5564.0
12960,0.28769075870513916,46.88450241088867,692,9981.0,-62.407127380371094,-952,5564.0
12970,0.2909834086894989,39.771121978759766,629,9981.0,-47.92176818847656,-525,5564.0
12980,0.29228758811950684,34.87144470214844,485,9981.0,-28.323148727416992,-309,5564.0
12990,0.29324662685394287,26.263282775878906,406,9981.0,-2.0269200801849365,45,5564.0
13000,0.2949705123901367,11.92585277557373,40,9981.0,20.460485458374023,473,5564.0
13010,0.2963555157184601,-4.18943452835083,-108,9981.0,36.571590423583984,717,5564.0
13020,0.29852935671806335,-24.932891845703125,-584,9981.0,43.80747604370117,851,5564.0
13030,0.30005550384521484,-40.04972457885742,-758,9981.0,47.113670349121094,699,5564.0
13040,0.3014410436153412,-59.23556900024414,-1165,9981.0,41.30506896972656,657,5564.0
13050,0.30224981904029846,-74.14309692382812,-1151,9981.0,29.46180534362793,379,5564.0
13060,0.30477017164230347,-65.78119659423828,-918,9981.0,5.47100830078125,-122,5564.0
13070,0.3061656951904297,-41.13050079345703,-476,9981.0,-10.074976921081543,-343,5564.0
13080,0.3073483109474182,-9.117506980895996,38,9981.0,-19.630834579467773,-288,5564.0
13090,0.30881646275520325,23.168521881103516,550,9981.0,-27.172414779663086,-388,5564.0
13100,0.3103733956813812,39.43934631347656,706,9981.0,-37.48045349121094,-733,5564.0
13110,0.31127360463142395,44.75654602050781,712,9981.0,-43.21933364868164,-696,5564.0
13120,0.31270694732666016,41.540122985839844,702,9981.0,-38.19092559814453,-597,5564.0
13130,0.31375840306282043,32.72303009033203,524,9981.0,-24.01495933532715,-309,5564.0
13140,0.3150268793106079,25.502588272094727,383,9981.0,-7.401299476623535,-152,5564.0
13150,0.31523799896240234,16.94285011291504,272,9981.0,7.782980918884277,343,5564.0
13160,0.3165535628795624,4.796700477600098,-41,9981.0,25.829919815063477,388,5564.0
13170,0.31789928674697876,-10.565649032592773,-209,9981.0,28.564559936523438,567,5564.0
13180,0.31940239667892456,-15.827134132385254,-334,9981.0,32.83456802368164,448,5564.0
13190,0.32205066084861755,-23.217199325561523,-386,9981.0,28.902677536010742,547,5564.0
13200,0.32360321283340454,-29.27902603149414,-491,9981.0,23.589014053344727,377,5564.0
13210,0.32519322633743286,-30.940467834472656,-607,9981.0,23.57871437072754,347,5564.0
13220,0.32676008343696594,-27.3001651763916,-369,9981.0,10.756634712219238,204,5564.0
13230,0.32826510071754456,-21.788593292236328,-346,9981.0,-4.033767223358154,-152,5564.0
13240,0.3293956220149994,-25.313724517822266,-536,9981.0,-8.277310371398926,-64,5564.0
13250,0.33067262172698975,-31.288347244262695,-463,9981.0,-1.3773504495620728,117,5564.0
13260,0.33186203241348267,-33.37129211425781,-544,9981.0,6.068224906921387,146,5564.0
13270,0.3331921696662903,-34.34130096435547,-581,9981.0,18.245784759521484,205,5564.0
13280,0.333539754152298,-21.27519989013672,-280,9981.0,17.29679298400879,160,5564.0
13290,0.33475062251091003,-8.181944847106934,-62,9981.0,3.8231472969055176,71,5564.0
13300,0.3359454572200775,4.743478298187256,159,9981.0,-12.538619995117188,-307,5564.0
13310,0.3372458219528198,15.0576171875,293,9981.0,-30.668729782104492,-610,5564.0
13320,0.339030921459198,25.283737182617188,387,9981.0,-42.0577392578125,-784,5564.0
13330,0.34001612663269043,33.83275604248047,628,9981.0,-41.0743522644043,-532,5564.0
13340,0.3409906327724457,41.84941101074219,777,9981.0,-28.95698356628418,-380,5564.0
13350,0.3417906165122986,46.800682067871094,766,9981.0,-11.408467292785645,-172,5564.0
13360,0.34290215373039246,54.1965446472168,900,9981.0,6.554161071777344,290,5564.0
13370,0.344420850276947,43.56196594238281,659,9981.0,16.506406784057617,252,5564.0
13380,0.3453996479511261,26.034948348999023,299,9981.0,21.902257919311523,303,5564.0
13390,0.34638524055480957,3.2020699977874756,-64,9981.0,20.050947189331055,291,5564.0
13400,0.34749332070350647,-20.024837493896484,-407,9981.0,21.427894592285156,293,5564.0
13410,0.3487890362739563,-31.478897094726562,-479,9981.0,18.10561752319336,320,5564.0
13420,0.35007089376449585,-24.45867919921875,-357,9981.0,12.406682968139648,380,5564.0
13430,0.3511595129966736,-5.55558967590332,62,9981.0,5.998123645782471,11,5564.0
13440,0.3525444567203522,27.239805221557617,524,9981.0,-2.4978344440460205,-125,5564.0
13450,0.35378026962280273,48.768985748291016,825,9981.0,6.027627468109131,-28,5564.0
13460,0.35263872146606445,55.50304412841797,847,9981.0,3.297982692718506,56,5564.0
13470,0.35350969433784485,46.97266387939453,811,9981.0,-4.015828609466553,6,5564.0
13480,0.35409870743751526,35.33713912963867,605,9981.0,-9.585901260375977,-232,5564.0
13490,0.35475555062294006,26.163585662841797,358,9981.0,-10.544039726257324,-91,5564.0
13500,0.35501042008399963,12.123615264892578,194,9981.0,-15.01613712310791,-244,5564.0
13510,0.35547909140586853,2.928819417953491,-58,9981.0,-23.942859649658203,-484,5564.0
13520,0.35606786608695984,-15.369867324829102,-300,9981.0,-22.93382453918457,-269,5564.0
13530,0.35657769441604614,-36.04827880859375,-602,9981.0,-20.02971649169922,-334,5564.0
13540,0.35807371139526367,-56.54862594604492,-1046,9981.0,-19.900924682617188,-347,5564.0
13550,0.3585251569747925,-76.10588073730469,-1245,9981.0,-13.714217185974121,-113,5564.0
13560,0.35882240533828735,-79.96427154541016,-1270,9981.0,-6.901747226715088,-95,5564.0
13570,0.35942167043685913,-66.14209747314453,-1044,9981.0,0.17548750340938568,46,5564.0
13580,0.3604988753795624,-36.556941986083984,-414,9981.0,9.941072463989258,155,5564.0
13590,0.3633028268814087,12.405470848083496,362,9981.0,19.604110717773438,275,5564.0
13600,0.36433759331703186,51.85942077636719,989,9981.0,20.19038200378418,333,5564.0
13610,0.36525067687034607,71.1207275390625,1148,9981.0,16.569461822509766,297,5564.0
13620,0.366181343793869,69.9617691040039,1168,9981.0,14.824835777282715,305,5564.0
13630,0.36737439036369324,65.25962829589844,1028,9981.0,8.742881774902344,206,5564.0
13640,0.3681681454181671,56.914432525634766,794,9981.0,-3.9374916553497314,-252,5564.0
13650,0.36911526322364807,43.497901916503906,532,9981.0,-24.726364135742188,-496,5564.0
13660,0.3701111674308777,19.519298553466797,89,9981.0,-25.23285484313965,-284,5564.0
13670,0.3707914650440216,-19.136688232421875,-539,9981.0,0.20990115404129028,77,5564.0
13680,0.37164855003356934,-44.37912368774414,-817,9981.0,14.257628440856934,227,5564.0
13690,0.37234994769096375,-55.85931396484375,-939,9981.0,1.4397927522659302,1,5564.0
13700,0.3732771873474121,-61.18175506591797,-1021,9981.0,-14.283695220947266,-447,5564.0
13710,0.3740484118461609,-58.61613082885742,-960,9981.0,-33.10721969604492,-624,5564.0
13720,0.3764793276786804,-53.24858474731445,-828,9981.0,-39.521644592285156,-560,5564.0
13730,0.3773069679737091,-49.811248779296875,-764,9981.0,-30.532604217529297,-310,5564.0
13740,0.3791004717350006,-39.99537658691406,-512,9981.0,-16.545854568481445,-195,5564.0
13750,0.38006916642189026,-16.283924102783203,-166,9981.0,5.085509300231934,174,5564.0
13760,0.3814200162887573,9.572927474975586,331,9981.0,21.300655364990234,442,5564.0
13770,0.3827183246612549,38.982051849365234,867,9981.0,33.67512512207031,605,5564.0
13780,0.3837043344974518,61.583641052246094,1010,9981.0,34.20056915283203,543,5564.0
13790,0.38460811972618103,65.93685913085938,972,9981.0,37.82796859741211,507,5564.0
13800,0.3853819966316223,61.05637741088867,1026,9981.0,23.973312377929688,401,5564.0
13810,0.3869224786758423,56.364933013916016,960,9981.0,0.13865691423416138,-109,5564.0
13820,0.3881230056285858,50.64092254638672,670,9981.0,-17.090604782104492,-347,5564.0
13830,0.38893941044807434,14.562152862548828,54,9981.0,-20.84019660949707,-282,5564.0
13840,0.3896399140357971,-23.613758087158203,-601,9981.0,-22.636859893798828,-485,5564.0
13850,0.392101913690567,-41.7774543762207,-802,9981.0,-26.42687225341797,-390,5564.0
13860,0.3930089771747589,-55.21418762207031,-907,9981.0,-35.98048400878906,-598,5564.0
13870,0.3939104974269867,-62.44624328613281,-1168,9981.0,-30.835376739501953,-565,5564.0
13880,0.39485153555870056,-71.14901733398438,-1143,9981.0,-32.12693786621094,-306,5564.0
13890,0.3958837389945984,-74.00848388671875,-1112,9981.0,-16.377079010009766,-247,5564.0
13900,0.3978992700576782,-60.48438262939453,-883,9981.0,3.202451467514038,97,5564.0
13910,0.39979663491249084,-21.318819046020508,-165,9981.0,24.32796287536621,468,5564.0
13920,0.4012978672981262,16.3691349029541,475,9981.0,33.52157974243164,597,5564.0
13930,0.4029924273490906,49.269596099853516,941,9981.0,35.11701202392578,566,5564.0
13940,0.40422531962394714,63.88627243041992,1048,9981.0,39.38028335571289,604,5564.0
13950,0.40569138526916504,59.588043212890625,826,9981.0,35.32632064819336,491,5564.0
13960,0.4067894518375397,42.158592224121094,643,9981.0,13.401830673217773,187,5564.0
13970,0.40787628293037415,25.721073150634766,422,9981.0,-14.998016357421875,-461,5564.0
13980,0.41064488887786865,19.727985382080078,284,9981.0,-43.583744049072266,-840,5564.0
13990,0.4116622507572174,8.152113914489746,83,9981.0,-50.931392669677734,-738,5564.0
14000,0.41283223032951355,-16.99806022644043,-437,9981.0,-39.75788116455078,-626,5564.0
14010,0.41430795192718506,-43.68745422363281,-791,9981.0,-22.47753143310547,-257,5564.0
