timestamp,kalman.stateZ,gyro.x,gyro.xRaw,gyro.xVariance,gyro.y,gyro.yRaw,gyro.yVariance
0,0.2950354814529419,-0.2175813913345337,-6,6524.0,2.025379180908203,40,9961.0
10,0.29508113861083984,-0.11226318031549454,0,6524.0,2.710273504257202,46,9961.0
20,0.29390469193458557,0.14461082220077515,2,6524.0,3.3554346561431885,58,9961.0
30,0.29388272762298584,0.11335880309343338,3,6524.0,4.115780830383301,73,9961.0
40,0.2938542068004608,0.13995280861854553,2,6524.0,5.073829650878906,87,9961.0
50,0.293822705745697,-0.14011335372924805,3,6524.0,5.615106105804443,98,9961.0
60,0.293042927980423,-0.01716299168765545,-1,6524.0,5.593131065368652,98,9961.0
70,0.2929929494857788,-0.08568526059389114,-3,6524.0,6.044731616973877,104,9961.0
80,0.2929385304450989,-0.030961710959672928,-2,6524.0,6.321033954620361,108,9961.0
90,0.2928645610809326,0.08210732042789459,-1,6524.0,6.44359827041626,101,9961.0
100,0.29278284311294556,0.0685635507106781,6,6524.0,6.498631954193115,105,9961.0
110,0.2931404709815979,-0.019467785954475403,3,6524.0,6.063354015350342,100,9961.0
120,0.29308032989501953,-0.011737062595784664,2,6524.0,5.863214492797852,95,9961.0
130,0.2930687963962555,0.13421063125133514,3,6524.0,5.597422122955322,90,9961.0
140,0.29301023483276367,0.13152605295181274,7,6524.0,5.0454206466674805,78,9961.0
150,0.2929075360298157,0.03294985368847847,1,6524.0,4.525516986846924,69,9961.0
160,0.2928934097290039,-0.029715701937675476,7,6524.0,3.589526414871216,52,9961.0
170,0.29286715388298035,-0.21167202293872833,3,6524.0,3.0396230220794678,48,9961.0
180,0.2929479777812958,-0.1661498099565506,3,6524.0,2.077428102493286,38,9961.0
191,0.2929236888885498,-0.1909099966287613,3,6524.0,0.9121115803718567,15,9961.0
200,0.29289305210113525,-0.328166663646698,-4,6524.0,0.07434547692537308,-13,9961.0
210,0.2929055988788605,-0.3862593173980713,-10,6524.0,-1.7178122997283936,-27,9961.0
220,0.29287877678871155,0.9127686023712158,29,6524.0,-2.3829963207244873,-41,9961.0
230,0.2928903102874756,2.779797077178955,40,6524.0,-6.76936674118042,-125,9961.0
240,0.2940906584262848,1.5756257772445679,61,6524.0,-7.041475296020508,-125,9961.0
250,0.2942676842212677,4.1858696937561035,68,6524.0,-11.464531898498535,-199,9961.0
260,0.2943595349788666,5.192859172821045,70,6524.0,-14.206460952758789,-229,9961.0
270,0.2944512963294983,6.841231822967529,61,6524.0,-18.477325439453125,-246,9961.0
280,0.2951014041900635,6.226602077484131,39,6524.0,-20.380023956298828,-269,9961.0
290,0.29527872800827026,5.091548919677734,7,6524.0,-20.562772750854492,-231,9961.0
300,0.2953760027885437,3.6494219303131104,-36,6524.0,-18.574613571166992,-164,9961.0
310,0.29564809799194336,1.4944528341293335,-49,6524.0,-14.311450004577637,-135,9961.0
320,0.29580751061439514,-3.4182076454162598,50,6524.0,-5.842836380004883,-204,9961.0
330,0.2968209385871887,-0.6513177752494812,31,6524.0,-6.96751594543457,-171,9961.0
340,0.29701411724090576,4.9603142738342285,-18,6524.0,-3.566999912261963,65,9961.0
350,0.29719671607017517,2.317528009414673,130,6524.0,6.089179515838623,119,9961.0
360,0.29741373658180237,1.8659294843673706,0,6524.0,6.556893348693848,178,9961.0
370,0.29617011547088623,1.2304742336273193,62,6524.0,11.658032417297363,110,9961.0
380,0.29630377888679504,2.1455769538879395,3,6524.0,10.727787971496582,287,9961.0
390,0.2964411675930023,1.5467031002044678,37,6524.0,12.472990036010742,128,9961.0
400,0.29658061265945435,2.1215410232543945,29,6524.0,9.189727783203125,236,9961.0
410,0.29643890261650085,1.7993443012237549,42,6524.0,6.936201095581055,82,9961.0
420,0.2965627610683441,1.684714674949646,-3,6524.0,5.526705741882324,-4,9961.0
430,0.29670554399490356,1.7457293272018433,4,6524.0,-0.6992913484573364,137,9961.0
440,0.29692545533180237,0.5617482662200928,59,6524.0,-4.819023132324219,-79,9961.0
450,0.297071248292923,0.10066479444503784,34,6524.0,-5.071034908294678,-355,9961.0
460,0.2963932752609253,1.093286395072937,-30,6524.0,-7.348820686340332,-196,9961.0
470,0.29649627208709717,1.4770358800888062,-38,6524.0,-10.892435073852539,70,9961.0
480,0.296599805355072,1.6053615808486938,-31,6524.0,-12.803657531738281,-17,9961.0
490,0.29673099517822266,-0.3229405879974365,71,6524.0,-8.18552017211914,-270,9961.0
500,0.2965069115161896,-2.3404712677001953,65,6524.0,-3.1803290843963623,-367,9961.0
510,0.2966463565826416,-1.6109267473220825,-28,6524.0,0.2378392517566681,-149,9961.0
520,0.2967382073402405,-1.4462647438049316,-165,6524.0,1.2066560983657837,144,9961.0
530,0.29687198996543884,-1.4552098512649536,-199,6524.0,2.60056734085083,273,9961.0
540,0.2969397306442261,-1.6228152513504028,-124,6524.0,6.023834705352783,173,9961.0
550,0.2965904176235199,-0.5750477313995361,-69,6524.0,9.183319091796875,190,9961.0
560,0.29656049609184265,0.27579939365386963,15,6524.0,9.014852523803711,112,9961.0
570,0.29649630188941956,-0.6278865933418274,92,6524.0,9.032732009887695,65,9961.0
580,0.2964226305484772,-2.1316072940826416,94,6524.0,9.330628395080566,82,9961.0
590,0.2970515489578247,2.419316053390503,127,6524.0,5.333876609802246,63,9961.0
600,0.2971356511116028,-0.11796289682388306,87,6524.0,1.8448494672775269,24,9961.0
610,0.29723241925239563,2.790867567062378,115,6524.0,0.7757582664489746,-31,9961.0
620,0.29737693071365356,1.4345953464508057,95,6524.0,-5.2209153175354,-99,9961.0
630,0.2957392632961273,-0.5731315612792969,52,6524.0,-6.002131462097168,-44,9961.0
640,0.29573217034339905,-0.8179497718811035,-12,6524.0,-7.184011936187744,16,9961.0
650,0.29576098918914795,1.178595781326294,14,6524.0,-10.263707160949707,-16,9961.0
660,0.2958516478538513,-0.4015195071697235,-56,6524.0,-9.645706176757812,43,9961.0
670,0.2959960699081421,0.9722064733505249,-91,6524.0,-10.095792770385742,155,9961.0
680,0.29696452617645264,1.0793012380599976,-70,6524.0,-8.402180671691895,215,9961.0
690,0.2972275912761688,1.0204294919967651,-50,6524.0,-6.02674674987793,157,9961.0
700,0.29749828577041626,-0.33150404691696167,-116,6524.0,-2.1207079887390137,160,9961.0
710,0.29779893159866333,0.34167206287384033,-118,6524.0,0.6381882429122925,245,9961.0
720,0.29806026816368103,0.22335542738437653,-137,6524.0,2.883673906326294,240,9961.0
730,0.29840049147605896,1.1164684295654297,-149,6524.0,4.327788829803467,245,9961.0
740,0.29884272813796997,-0.2142098993062973,-89,6524.0,4.6152167320251465,285,9961.0
750,0.2992318570613861,1.0133723020553589,-98,6524.0,7.541443347930908,162,9961.0
761,0.29889145493507385,0.9840936064720154,-88,6524.0,6.845767974853516,27,9961.0
770,0.29895851016044617,0.4526357650756836,-114,6524.0,5.504312038421631,151,9961.0
780,0.2989937365055084,-1.2232306003570557,26,6524.0,3.5967113971710205,202,9961.0
790,0.2989477217197418,-2.3402624130249023,-60,6524.0,-1.4291231632232666,127,9961.0
800,0.29891157150268555,-0.15127186477184296,-5,6524.0,-4.966724395751953,-32,9961.0
810,0.29890167713165283,-0.8202276229858398,6,6524.0,-5.485095977783203,37,9961.0
820,0.298844575881958,-1.7825065851211548,-103,6524.0,-5.16642951965332,-155,9961.0
830,0.29893848299980164,2.094616413116455,37,6524.0,-7.543323993682861,-145,9961.0
840,0.29919639229774475,2.55287766456604,123,6524.0,-6.873056411743164,-256,9961.0
850,0.29932332038879395,0.7202901244163513,129,6524.0,-2.3795995712280273,-295,9961.0
860,0.29963815212249756,1.0709357261657715,145,6524.0,-2.2992172241210938,-158,9961.0
871,0.2998960018157959,1.0953357219696045,121,6524.0,0.1201835572719574,70,9961.0
880,0.3001156747341156,-1.5661945343017578,-37,6524.0,2.6361584663391113,148,9961.0
890,0.30031096935272217,-0.8870230913162231,-53,6524.0,3.1572349071502686,264,9961.0
900,0.29993507266044617,-3.3811585903167725,-66,6524.0,8.50407886505127,80,9961.0
910,0.3000011742115021,-2.141793966293335,-89,6524.0,7.413992881774902,265,9961.0
920,0.29992949962615967,-2.5447046756744385,-206,6524.0,7.133951663970947,181,9961.0
930,0.2998906075954437,0.8196772933006287,-182,6524.0,8.383926391601562,178,9961.0
940,0.29839637875556946,-0.21541543304920197,-63,6524.0,4.3217878341674805,39,9961.0
950,0.29852306842803955,0.4548794627189636,35,6524.0,-0.2967231273651123,-219,9961.0
960,0.2986503839492798,-0.5145517587661743,133,6524.0,-1.5062735080718994,-173,9961.0
970,0.2987273037433624,0.3740805387496948,57,6524.0,-4.0543718338012695,35,9961.0
980,0.2987954914569855,1.9927963018417358,-32,6524.0,-8.089642524719238,69,9961.0
990,0.29891252517700195,3.4030685424804688,-71,6524.0,-7.632829189300537,-110,9961.0
1000,0.2989226281642914,2.7603631019592285,35,6524.0,-8.085050582885742,-165,9961.0
1011,0.2989911139011383,0.9043570756912231,113,6524.0,-5.498720169067383,-220,9961.0
1020,0.29911142587661743,0.8591131567955017,100,6524.0,-2.1950972080230713,-228,9961.0
1030,0.2992624342441559,-2.925849199295044,78,6524.0,-3.07852840423584,-85,9961.0
1040,0.2993365526199341,-1.274954080581665,57,6524.0,2.3220584392547607,-77,9961.0
1050,0.2991996109485626,-1.6224499940872192,-27,6524.0,1.300978183746338,150,9961.0
1060,0.2989318072795868,-1.0971267223358154,-177,6524.0,5.196976661682129,304,9961.0
1070,0.29998183250427246,-0.9437002539634705,-44,6524.0,5.3768205642700195,-54,9961.0
1080,0.29984644055366516,1.2265334129333496,129,6524.0,5.606950759887695,-23,9961.0
1090,0.29977476596832275,2.9260008335113525,88,6524.0,0.3931637108325958,118,9961.0
1100,0.29965370893478394,3.1826391220092773,-51,6524.0,0.5441572666168213,99,9961.0
1110,0.29950058460235596,2.209561347961426,52,6524.0,-0.7752336263656616,-93,9961.0
1120,0.29834988713264465,1.0790436267852783,111,6524.0,-1.1524807214736938,-76,9961.0
1130,0.29823926091194153,2.3332836627960205,-71,6524.0,-5.885532379150391,21,9961.0
1140,0.29826003313064575,1.9663810729980469,-80,6524.0,-4.600043773651123,34,9961.0
1150,0.29844480752944946,-1.0428128242492676,-120,6524.0,-3.0388166904449463,-77,9961.0
1160,0.29937654733657837,-0.24698199331760406,92,6524.0,-4.057688236236572,-227,9961.0
1170,0.2998310625553131,-2.495023250579834,-3,6524.0,-2.508179187774658,171,9961.0
1180,0.30033281445503235,-0.44390222430229187,-145,6524.0,-0.5007756352424622,2,9961.0
1190,0.3008517622947693,-1.351888656616211,56,6524.0,2.934007406234741,-78,9961.0
1200,0.3004092872142792,-0.04492473602294922,28,6524.0,2.301852226257324,101,9961.0
1210,0.30079662799835205,0.7731826305389404,-12,6524.0,2.2041544914245605,60,9961.0
1220,0.30116719007492065,1.7866603136062622,93,6524.0,2.473768472671509,-45,9961.0
1230,0.3014810383319855,-0.9916336536407471,31,6524.0,5.674793720245361,40,9961.0
1240,0.3017151355743408,0.20285940170288086,68,6524.0,0.7239938378334045,127,9961.0
1250,0.3008214831352234,-1.0393927097320557,-93,6524.0,2.211026906967163,56,9961.0
1260,0.30095770955085754,-1.5898693799972534,86,6524.0,3.50394868850708,-147,9961.0
1270,0.3011414408683777,-0.6294279098510742,6,6524.0,-1.2560573816299438,183,9961.0
1280,0.30137380957603455,0.04955818131566048,-111,6524.0,-0.6598843932151794,-101,9961.0
1290,0.30097153782844543,-0.1160898208618164,123,6524.0,-0.9856694936752319,-61,9961.0
1300,0.3012154996395111,1.6685293912887573,-44,6524.0,-3.4595842361450195,22,9961.0
1310,0.30147191882133484,1.850600242614746,62,6524.0,-2.698683977127075,-121,9961.0
1320,0.301742285490036,1.7774031162261963,40,6524.0,-2.8720364570617676,-38,9961.0
1330,0.302101194858551,2.2637791633605957,21,6524.0,-1.4232139587402344,76,9961.0
1340,0.30336514115333557,3.296590805053711,44,6524.0,-2.0331013202667236,-150,9961.0
1350,0.3040193021297455,1.6128644943237305,59,6524.0,-2.5156960487365723,84,9961.0
1360,0.3047347664833069,0.47997111082077026,-111,6524.0,0.5185532569885254,-20,9961.0
1370,0.30547431111335754,-1.3993947505950928,105,6524.0,-1.0339791774749756,-16,9961.0
1380,0.30369067192077637,-2.7600226402282715,-146,6524.0,0.7136614322662354,94,9961.0
1390,0.3043520450592041,-3.2540268898010254,-30,6524.0,2.6331772804260254,-26,9961.0
1400,0.3050664961338043,-3.3767635822296143,-49,6524.0,4.206928730010986,73,9961.0
1410,0.30585727095603943,-3.2315902709960938,-65,6524.0,6.254088878631592,218,9961.0
1421,0.3036887049674988,-3.0263020992279053,-26,6524.0,7.250317573547363,-78,9961.0
1430,0.3044401705265045,1.7603473663330078,74,6524.0,0.40217325091362,122,9961.0
1440,0.305205762386322,0.4709726870059967,-54,6524.0,0.7904320359230042,-68,9961.0
1450,0.3059134781360626,1.0636372566223145,135,6524.0,-0.8468831777572632,-6,9961.0
1461,0.3065946698188782,1.8946149349212646,-71,6524.0,-1.7853080034255981,-5,9961.0
1470,0.3062019348144531,2.841670036315918,116,6524.0,-3.2568881511688232,-169,9961.0
1480,0.30682334303855896,0.9710039496421814,4,6524.0,-4.531425476074219,2,9961.0
1490,0.3074645400047302,1.7215710878372192,-18,6524.0,-3.77207088470459,-48,9961.0
1500,0.30815330147743225,0.10291998833417892,25,6524.0,-2.259066581726074,-121,9961.0
1510,0.30488941073417664,-1.9049484729766846,114,6524.0,-0.4038325250148773,122,9961.0
1520,0.3053733706474304,-0.403529554605484,-157,6524.0,-1.0787932872772217,-31,9961.0
1530,0.30581772327423096,-3.4482336044311523,93,6524.0,1.1356900930404663,-93,9961.0
1540,0.30628931522369385,-2.394831418991089,-89,6524.0,1.5098474025726318,245,9961.0
1550,0.3068094551563263,-1.9091640710830688,-40,6524.0,2.298065662384033,-107,9961.0
1560,0.3046281635761261,-1.2175928354263306,39,6524.0,3.135436534881592,69,9961.0
1570,0.3051590919494629,-0.1772405058145523,-23,6524.0,1.7125256061553955,48,9961.0
1580,0.3058561682701111,0.8177255392074585,27,6524.0,1.4473985433578491,-31,9961.0
1590,0.3065846860408783,2.28179669380188,84,6524.0,1.1641303300857544,-8,9961.0
1600,0.30438271164894104,3.3723318576812744,-34,6524.0,-0.36033451557159424,57,9961.0
1610,0.30505865812301636,4.027283668518066,146,6524.0,0.42409250140190125,-109,9961.0
1620,0.30569520592689514,1.8602252006530762,190,6524.0,-0.04827692359685898,98,9961.0
1630,0.30629289150238037,1.8077185153961182,-65,6524.0,-0.3354688286781311,-104,9961.0
1640,0.3068777024745941,-0.611327052116394,-11,6524.0,-0.9493324756622314,13,9961.0
1650,0.30504071712493896,-1.207558035850525,-3,6524.0,-1.4621996879577637,29,9961.0
1660,0.30561375617980957,0.9324567914009094,-57,6524.0,-1.587227463722229,31,9961.0
1670,0.30626025795936584,-2.3487298488616943,-70,6524.0,0.14253652095794678,-94,9961.0
1680,0.30698564648628235,-2.2630867958068848,34,6524.0,-0.08876488357782364,44,9961.0
1690,0.3045599162578583,-1.9828428030014038,-122,6524.0,0.874025821685791,95,9961.0
1700,0.30523571372032166,-2.1690096855163574,26,6524.0,3.2860679626464844,-124,9961.0
1710,0.30593371391296387,-0.08545612543821335,4,6524.0,1.6411093473434448,123,9961.0
1720,0.3066537380218506,0.7173511981964111,-36,6524.0,1.2467286586761475,-24,9961.0
1730,0.30605176091194153,0.9597092270851135,92,6524.0,-1.4832561016082764,-37,9961.0
1740,0.3068068027496338,0.2792605459690094,-15,6524.0,-0.9263898730278015,2,9961.0
1750,0.30766481161117554,2.8000128269195557,47,6524.0,-2.417921781539917,-74,9961.0
1760,0.3086458146572113,1.8356846570968628,128,6524.0,-4.246402740478516,-105,9961.0
1770,0.3097243010997772,4.27215051651001,5,6524.0,-5.804100513458252,140,9961.0
1780,0.3069945275783539,1.8973981142044067,-41,6524.0,-2.8317816257476807,-176,9961.0
1790,0.3080301880836487,1.4854466915130615,157,6524.0,-2.7205731868743896,-44,9961.0
1800,0.30910050868988037,0.9565036296844482,-87,6524.0,-2.661219596862793,111,9961.0
1810,0.31017351150512695,-0.7022416591644287,10,6524.0,0.02560725435614586,-133,9961.0
1820,0.307254821062088,-2.082414150238037,8,6524.0,-1.3868430852890015,33,9961.0
1830,0.3081403076648712,-1.8791210651397705,-56,6524.0,-0.9572568535804749,74,9961.0
1840,0.3089911937713623,-2.2825913429260254,-92,6524.0,3.2482564449310303,19,9961.0
1850,0.309856116771698,-2.2046422958374023,65,6524.0,0.7688961625099182,-86,9961.0
1860,0.3081151843070984,-1.2161471843719482,-46,6524.0,2.4000604152679443,192,9961.0
1870,0.30888646841049194,0.10718078911304474,-74,6524.0,2.1084771156311035,-22,9961.0
1880,0.3097052276134491,-0.20247355103492737,109,6524.0,2.458932876586914,0,9961.0
1890,0.31051111221313477,1.9782580137252808,-6,6524.0,-0.8274474740028381,113,9961.0
1900,0.31135907769203186,2.368216037750244,-13,6524.0,-0.27525460720062256,-62,9961.0
1910,0.30754750967025757,1.8901804685592651,86,6524.0,-2.3084020614624023,-39,9961.0
1920,0.308022677898407,0.9633678197860718,-10,6524.0,-2.264939069747925,26,9961.0
1930,0.3084167540073395,2.0654892921447754,-2,6524.0,-3.792799949645996,-79,9961.0
1940,0.3086629807949066,2.3668112754821777,68,6524.0,-2.0422513484954834,-135,9961.0
1950,0.30615878105163574,2.190919876098633,35,6524.0,-2.996272087097168,59,9961.0
1960,0.30603229999542236,1.1418861150741577,-97,6524.0,-2.7092981338500977,6,9961.0
1970,0.30585774779319763,-0.8556374311447144,78,6524.0,-2.6381375789642334,-200,9961.0
1980,0.30569902062416077,-1.2106963396072388,-67,6524.0,-2.8682477474212646,111,9961.0
1990,0.30555903911590576,-1.0507668256759644,-42,6524.0,-1.2109565734863281,-109,9961.0
2000,0.30395588278770447,-1.1853110790252686,30,6524.0,-1.3069754838943481,-1,9961.0
2010,0.30379337072372437,-0.08423525840044022,-38,6524.0,-0.9550109505653381,103,9961.0
2020,0.30370795726776123,0.7064308524131775,-20,6524.0,0.44826212525367737,-113,9961.0
2030,0.3036889433860779,1.843353033065796,154,6524.0,-0.5038459897041321,80,9961.0
2040,0.3029724955558777,2.0654335021972656,-125,6524.0,2.0892410278320312,123,9961.0
2050,0.30284321308135986,1.6155788898468018,133,6524.0,2.1061811447143555,-163,9961.0
2060,0.30269142985343933,2.0177741050720215,-6,6524.0,1.929250717163086,167,9961.0
2070,0.30255189538002014,1.4575482606887817,48,6524.0,0.9995161890983582,-94,9961.0
2080,0.3010771870613098,1.0429728031158447,15,6524.0,0.6578243970870972,119,9961.0
2090,0.30092963576316833,1.4871259927749634,-38,6524.0,0.20734725892543793,18,9961.0
2100,0.30067017674446106,0.32742124795913696,53,6524.0,1.003554344177246,-113,9961.0
2110,0.3003405034542084,0.1308230310678482,-10,6524.0,0.0259182658046484,223,9961.0
2120,0.2999885678291321,0.5886963605880737,-55,6524.0,1.0997751951217651,-158,9961.0
2130,0.29998335242271423,-0.9283846616744995,51,6524.0,0.10735981166362762,137,9961.0
2140,0.29958075284957886,-1.201927900314331,-77,6524.0,-0.0334777794778347,-64,9961.0
2150,0.2991284132003784,-1.941394329071045,24,6524.0,-0.34331846237182617,76,9961.0
2160,0.29864928126335144,-1.393174171447754,-67,6524.0,-1.4638054370880127,1,9961.0
2170,0.3003026247024536,-2.306638479232788,-24,6524.0,0.3883747160434723,-73,9961.0
2180,0.29999393224716187,-1.3958176374435425,-10,6524.0,-0.026807386428117752,119,9961.0
2190,0.2997620403766632,0.30187779664993286,27,6524.0,0.82306969165802,-165,9961.0
2200,0.2995544373989105,-0.37945646047592163,20,6524.0,2.202777624130249,231,9961.0
2210,0.29936522245407104,1.7035146951675415,-23,6524.0,1.3380136489868164,-197,9961.0
2220,0.2990261912345886,2.16105318069458,55,6524.0,3.116138458251953,121,9961.0
2231,0.29887399077415466,0.8565273880958557,43,6524.0,2.763202667236328,24,9961.0
2241,0.2987135052680969,-0.2211855947971344,37,6524.0,5.01350212097168,0,9961.0
2250,0.29852932691574097,-0.09874788671731949,-44,6524.0,2.7182400226593018,134,9961.0
2260,0.29969900846481323,-1.6689954996109009,95,6524.0,4.318253993988037,-92,9961.0
2270,0.2995067834854126,-2.33925724029541,76,6524.0,3.594813108444214,116,9961.0
2280,0.2993110716342926,-2.2027430534362793,-119,6524.0,3.3402326107025146,-35,9961.0
2290,0.29912006855010986,-1.8850525617599487,46,6524.0,-0.17103177309036255,83,9961.0
2300,0.30094024538993835,-1.5933657884597778,-104,6524.0,1.3317698240280151,-64,9961.0
2310,0.3008323311805725,-0.4167473614215851,80,6524.0,-0.7834176421165466,-65,9961.0
2320,0.30078205466270447,1.0982728004455566,20,6524.0,-0.47394800186157227,39,9961.0
2330,0.3008030354976654,3.3990485668182373,94,6524.0,-2.6927649974823,-130,9961.0
2340,0.3007732331752777,3.2361652851104736,-13,6524.0,-1.0337908267974854,154,9961.0
2350,0.30236199498176575,2.8537497520446777,81,6524.0,-1.0891072750091553,-178,9961.0
2360,0.30225884914398193,2.929424524307251,-1,6524.0,-0.8962411880493164,120,9961.0
2370,0.30211150646209717,-0.4036344885826111,70,6524.0,0.1710973083972931,-139,9961.0
2380,0.3019193112850189,-0.1224762573838234,-39,6524.0,0.9585665464401245,158,9961.0
2390,0.30170804262161255,-1.6084750890731812,-67,6524.0,1.5360748767852783,-14,9961.0
2400,0.3014352321624756,-1.337467074394226,42,6524.0,0.0782872661948204,-55,9961.0
2410,0.3011724054813385,-0.6684410572052002,-104,6524.0,0.26421865820884705,35,9961.0
2420,0.30094078183174133,-1.96193265914917,122,6524.0,-1.2073222398757935,-73,9961.0
2430,0.3020169734954834,-1.6379566192626953,-139,6524.0,-0.8647430539131165,64,9961.0
2440,0.30189424753189087,-2.487621545791626,91,6524.0,0.46660491824150085,-57,9961.0
2450,0.3017784655094147,0.36979207396507263,-105,6524.0,-2.593149185180664,14,9961.0
2460,0.3017023205757141,1.4769233465194702,84,6524.0,-1.4739359617233276,-102,9961.0
2470,0.3016519844532013,2.654284954071045,60,6524.0,-0.3192325532436371,64,9961.0
2480,0.3016866445541382,2.980353593826294,16,6524.0,1.091227650642395,-88,9961.0
2490,0.30156373977661133,1.6423215866088867,86,6524.0,-1.9630321264266968,130,9961.0
2500,0.30147844552993774,1.0451260805130005,-72,6524.0,0.10886064916849136,-136,9961.0
2510,0.3014608323574066,-0.8142945170402527,64,6524.0,-0.9326575994491577,128,9961.0
2520,0.3016258180141449,0.0903264582157135,-94,6524.0,1.758510947227478,-60,9961.0
2530,0.30159133672714233,-1.520025610923767,48,6524.0,1.6433593034744263,74,9961.0
2540,0.3015967309474945,-0.38659054040908813,-47,6524.0,1.1059077978134155,129,9961.0
2550,0.3016177713871002,-1.3492989540100098,32,6524.0,1.5146074295043945,-80,9961.0
2560,0.30160102248191833,2.8601763248443604,9,6524.0,-3.410782814025879,-41,9961.0
2570,0.3016623258590698,-0.3272046446800232,121,6524.0,-0.8655077815055847,-190,9961.0
2580,0.30153888463974,0.31142672896385193,-56,6524.0,-5.193767070770264,108,9961.0
2590,0.3013964891433716,-2.0626161098480225,30,6524.0,-5.737285137176514,-259,9961.0
2600,0.30123698711395264,-1.1481322050094604,-85,6524.0,-5.822495937347412,100,9961.0
2610,0.3017537593841553,-1.0305683612823486,1,6524.0,-4.962942123413086,-156,9961.0
2620,0.30160483717918396,-0.6782936453819275,15,6524.0,-4.170113563537598,-67,9961.0
2630,0.30148541927337646,0.6217877268791199,-39,6524.0,-2.3414363861083984,-47,9961.0
2640,0.3014669716358185,0.3963622748851776,116,6524.0,-0.05472950637340546,98,9961.0
2651,0.30363214015960693,2.6399056911468506,-146,6524.0,0.6100835204124451,-1,9961.0
2660,0.3036515712738037,0.8454762101173401,165,6524.0,-0.08478352427482605,10,9961.0
2670,0.3036783039569855,0.8802701234817505,-102,6524.0,0.08851420134305954,13,9961.0
2680,0.30370330810546875,-0.08698663860559464,82,6524.0,-0.5893629193305969,27,9961.0
2690,0.30371034145355225,0.5420529246330261,0,6524.0,0.1282792091369629,20,9961.0
2700,0.30376315116882324,-0.07775301486253738,-16,6524.0,-0.34707480669021606,-92,9961.0
2710,0.3037048280239105,0.32465097308158875,-20,6524.0,-2.6362054347991943,144,9961.0
2720,0.30370843410491943,-1.1326804161071777,9,6524.0,-0.6115555167198181,-242,9961.0
2730,0.30373862385749817,-1.9127198457717896,-47,6524.0,-0.9192001223564148,152,9961.0
2740,0.30269527435302734,-0.12113306671380997,-22,6524.0,-2.805935859680176,-164,9961.0
2750,0.3026880919933319,-0.7130030393600464,-6,6524.0,-1.7658884525299072,79,9961.0
2760,0.30268946290016174,0.7116662859916687,28,6524.0,-0.9501942992210388,-71,9961.0
2770,0.30268481373786926,0.7816957235336304,41,6524.0,-0.8163895606994629,24,9961.0
2780,0.3025955259799957,0.9814249873161316,-43,6524.0,-1.0332759618759155,-58,9961.0
2790,0.30168142914772034,2.4307475090026855,192,6524.0,-0.7321366667747498,-21,9961.0
2800,0.30134499073028564,0.3257949948310852,-139,6524.0,1.7210732698440552,163,9961.0
2810,0.30101966857910156,0.7749969363212585,143,6524.0,2.18878173828125,1,9961.0
2820,0.30070680379867554,-0.3518868088722229,-123,6524.0,1.125386357307434,69,9961.0
2830,0.3013789653778076,-0.7680529356002808,58,6524.0,2.256072759628296,41,9961.0
2840,0.30123820900917053,-0.9761825203895569,-42,6524.0,3.3435328006744385,106,9961.0
2850,0.3011620342731476,-0.49880173802375793,-4,6524.0,2.302067995071411,-95,9961.0
2860,0.3011067509651184,-0.028099266812205315,15,6524.0,1.5716887712478638,174,9961.0
2870,0.3010185658931732,0.9553230404853821,30,6524.0,1.106111764907837,-157,9961.0
2880,0.30170369148254395,0.18842674791812897,-11,6524.0,-0.05548552796244621,163,9961.0
2890,0.3015519380569458,0.3816097378730774,-122,6524.0,0.10082102566957474,16,9961.0
2900,0.30137917399406433,1.2393718957901,85,6524.0,-4.052407264709473,-11,9961.0
2910,0.3011762499809265,0.7988544702529907,-57,6524.0,-1.7334535121917725,-64,9961.0
2920,0.30212464928627014,-1.186923623085022,22,6524.0,2.1713850498199463,-7,9961.0
2930,0.3020431399345398,-0.30917051434516907,-43,6524.0,0.8959165215492249,139,9961.0
2940,0.3019946813583374,-0.36149296164512634,100,6524.0,2.4175901412963867,-81,9961.0
2950,0.30192577838897705,-0.4042016863822937,-109,6524.0,3.2558140754699707,205,9961.0
2960,0.3018380403518677,-1.0323975086212158,112,6524.0,1.474838376045227,63,9961.0
2970,0.3017038106918335,0.5946433544158936,-121,6524.0,2.643558979034424,111,9961.0
2980,0.30154258012771606,0.649716317653656,65,6524.0,3.672672986984253,-20,9961.0
2990,0.30132991075515747,1.5027518272399902,21,6524.0,3.0014536380767822,92,9961.0
3000,0.30111241340637207,2.310305595397949,34,6524.0,-0.1281709372997284,-25,9961.0
3010,0.30217382311820984,2.4089512825012207,11,6524.0,1.552451491355896,178,9961.0
3020,0.30215850472450256,1.3423736095428467,65,6524.0,-0.22779859602451324,-172,9961.0
3030,0.3021206557750702,1.1884372234344482,-47,6524.0,-1.1733218431472778,182,9961.0
3040,0.3020247220993042,-0.32371222972869873,74,6524.0,0.718549907207489,-129,9961.0
3050,0.3018816113471985,-1.2189754247665405,-82,6524.0,-0.7877944111824036,40,9961.0
3060,0.30170807242393494,-1.2220276594161987,67,6524.0,-0.13356135785579681,-12,9961.0
3070,0.3015027940273285,-0.06272970139980316,-18,6524.0,1.0047653913497925,143,9961.0
3080,0.30130207538604736,0.19752824306488037,-47,6524.0,1.912446141242981,-123,9961.0
3090,0.30181053280830383,1.5509315729141235,19,6524.0,-2.769658088684082,157,9961.0
3100,0.30169814825057983,-1.3583526611328125,-18,6524.0,4.31131649017334,-141,9961.0
3110,0.30158108472824097,-2.4754865169525146,-69,6524.0,5.6252121925354,278,9961.0
3120,0.3014494478702545,-0.059088874608278275,-20,6524.0,2.8829455375671387,-69,9961.0
3130,0.30144941806793213,-1.0468143224716187,-37,6524.0,3.53533935546875,119,9961.0
3140,0.30143266916275024,1.1074703931808472,37,6524.0,0.45680132508277893,-7,9961.0
3150,0.30144891142845154,2.2399392127990723,22,6524.0,-1.600540041923523,40,9961.0
3160,0.30112534761428833,2.6152267456054688,25,6524.0,-2.063854455947876,-227,9961.0
3170,0.30112478137016296,3.9643003940582275,129,6524.0,-4.088457107543945,101,9961.0
3180,0.3029865026473999,0.7255098819732666,16,6524.0,-2.689645290374756,-184,9961.0
3190,0.30298691987991333,1.0703983306884766,-82,6524.0,-4.464466571807861,164,9961.0
3200,0.3029947876930237,-0.802872359752655,4,6524.0,0.8991185426712036,-129,9961.0
3210,0.3029944896697998,-1.4571126699447632,-79,6524.0,-2.0441782474517822,53,9961.0
3220,0.30282095074653625,-0.6830130815505981,-7,6524.0,-0.2471640408039093,-44,9961.0
3230,0.30209803581237793,-1.1179264783859253,19,6524.0,0.8897745609283447,108,9961.0
3240,0.30179065465927124,-0.5458021759986877,-28,6524.0,2.730329751968384,-252,9961.0
3250,0.30179205536842346,0.7768100500106812,59,6524.0,1.3620837926864624,214,9961.0
3260,0.30155229568481445,-2.056694746017456,-56,6524.0,6.7652130126953125,-62,9961.0
3270,0.3019810914993286,-0.1481950432062149,-76,6524.0,2.3073973655700684,238,9961.0
3280,0.3019789159297943,-2.2748653888702393,29,6524.0,1.3889211416244507,-239,9961.0
3290,0.3016989827156067,-0.5490604639053345,-10,6524.0,-2.0664865970611572,-22,9961.0
3300,0.301702618598938,0.9911834001541138,29,6524.0,-5.1177239418029785,-88,9961.0
3310,0.3028191924095154,-0.28891539573669434,16,6524.0,-4.9410176277160645,30,9961.0
3320,0.30281928181648254,0.329549640417099,-17,6524.0,-4.783300399780273,-291,9961.0
3330,0.3028251826763153,0.6146618723869324,-5,6524.0,-5.80422306060791,136,9961.0
3340,0.30283617973327637,-1.333347201347351,-20,6524.0,-1.9086763858795166,-187,9961.0
3350,0.3027215003967285,0.17437744140625,-68,6524.0,-4.1266093254089355,3,9961.0
3360,0.30443111062049866,-1.1641416549682617,80,6524.0,-0.28459253907203674,-83,9961.0
3370,0.3044489920139313,0.7018605470657349,15,6524.0,0.25860583782196045,82,9961.0
3380,0.3044491708278656,1.3802666664123535,-1,6524.0,0.15029771625995636,-101,9961.0
3390,0.30460888147354126,0.4477062225341797,46,6524.0,1.8222861289978027,130,9961.0
3400,0.3053467869758606,-0.22594299912452698,8,6524.0,1.1736400127410889,-189,9961.0
3410,0.3055190443992615,-1.9027936458587646,-68,6524.0,1.35946786403656,253,9961.0
3420,0.3055213689804077,-0.4402706027030945,-1,6524.0,1.6041702032089233,-17,9961.0
3430,0.30571821331977844,-3.59771728515625,-90,6524.0,-1.037852168083191,51,9961.0
3440,0.30582842230796814,-2.6431636810302734,-6,6524.0,-0.8301299214363098,-61,9961.0
3450,0.30723080039024353,-1.5105711221694946,-20,6524.0,-2.915623188018799,46,9961.0
3460,0.3072367012500763,1.7580478191375732,-3,6524.0,-6.381579399108887,-211,9961.0
3470,0.3073297441005707,1.7834457159042358,29,6524.0,-6.363138675689697,0,9961.0
3480,0.30740389227867126,0.8879809379577637,72,6524.0,-3.932298421859741,-188,9961.0
3490,0.30729034543037415,-0.6830145716667175,-90,6524.0,-3.3273301124572754,351,9961.0
3500,0.3072757124900818,-1.1096947193145752,-10,6524.0,0.7677481174468994,-46,9961.0
3510,0.30719640851020813,0.28480660915374756,92,6524.0,-1.256522536277771,32,9961.0
3520,0.30721527338027954,2.1336286067962646,36,6524.0,-0.0578588992357254,-9,9961.0
3530,0.30632883310317993,3.2165820598602295,106,6524.0,1.6786296367645264,-9,9961.0
3540,0.3062104284763336,3.7993574142456055,-6,6524.0,2.703305721282959,124,9961.0
3550,0.30614030361175537,4.03890323638916,204,6524.0,-0.15053191781044006,-4,9961.0
3560,0.30610930919647217,1.9747494459152222,-175,6524.0,2.761981725692749,112,9961.0
3570,0.3060992658138275,-1.4694398641586304,111,6524.0,3.5111539363861084,39,9961.0
3580,0.30447205901145935,-2.3656625747680664,-114,6524.0,4.117828845977783,-38,9961.0
3590,0.3043314516544342,-3.1183412075042725,36,6524.0,1.0327070951461792,28,9961.0
3600,0.3041823208332062,-1.522802710533142,-31,6524.0,-1.5452253818511963,-19,9961.0
3610,0.30401375889778137,0.3885897696018219,56,6524.0,-2.5568113327026367,-39,9961.0
3620,0.303574800491333,3.3927485942840576,-55,6524.0,-7.532855033874512,-29,9961.0
3630,0.3034972548484802,0.8272448778152466,180,6524.0,-1.1952677965164185,-65,9961.0
3640,0.3034124970436096,-0.5287622213363647,-158,6524.0,1.2461175918579102,4,9961.0
3650,0.30330130457878113,0.20255087316036224,114,6524.0,2.019388437271118,90,9961.0
3660,0.3027072846889496,-1.1927132606506348,-45,6524.0,4.625943660736084,-38,9961.0
3670,0.30245688557624817,-0.5237592458724976,22,6524.0,3.883958101272583,131,9961.0
3680,0.30219393968582153,-0.44070127606391907,-57,6524.0,4.695757865905762,124,9961.0
3690,0.3019216060638428,0.8800248503684998,113,6524.0,3.43450927734375,34,9961.0
3700,0.3016776442527771,0.8332962989807129,-135,6524.0,4.416316509246826,-72,9961.0
3710,0.30207359790802,0.40445005893707275,91,6524.0,1.4665721654891968,132,9961.0
3720,0.30184563994407654,-0.2714630365371704,-21,6524.0,1.0404016971588135,-168,9961.0
3730,0.3015870451927185,0.02512233704328537,1,6524.0,-0.7747772932052612,177,9961.0
3740,0.30131882429122925,1.053568959236145,65,6524.0,-2.067338466644287,-119,9961.0
3750,0.3029369115829468,-0.5264981389045715,-15,6524.0,-0.9092748761177063,6,9961.0
3760,0.3028315305709839,0.3907471299171448,7,6524.0,-0.7385246157646179,-15,9961.0
3770,0.3027558922767639,0.000680274679325521,-48,6524.0,1.6455751657485962,246,9961.0
3780,0.3026539981365204,0.04766552522778511,70,6524.0,3.125955104827881,-19,9961.0
3790,0.30251216888427734,2.8456597328186035,-103,6524.0,-1.0516561269760132,16,9961.0
3800,0.3034248352050781,-0.2518502175807953,196,6524.0,-1.5691245794296265,-162,9961.0
3810,0.30337581038475037,1.7587798833847046,-76,6524.0,-1.6352436542510986,-55,9961.0
3820,0.3033173382282257,-2.6892035007476807,40,6524.0,0.9688296318054199,89,9961.0
3830,0.3032552897930145,-2.0429158210754395,-49,6524.0,2.091148614883423,-9,9961.0
3840,0.3046353757381439,-1.4265153408050537,27,6524.0,-1.2593343257904053,-9,9961.0
3850,0.30459147691726685,0.3185270130634308,-83,6524.0,-1.4979634284973145,-108,9961.0
3860,0.3045271933078766,-0.3540874421596527,72,6524.0,-1.8607673645019531,134,9961.0
3870,0.30447274446487427,0.7103398442268372,-40,6524.0,0.024388348683714867,-189,9961.0
3880,0.3057645261287689,0.4152175784111023,-14,6524.0,-1.6647380590438843,165,9961.0
3890,0.3057582974433899,-2.5154671669006348,81,6524.0,1.676180362701416,-170,9961.0
3900,0.30570682883262634,0.36489346623420715,-43,6524.0,2.6160244941711426,55,9961.0
3910,0.3056294620037079,0.2533056139945984,68,6524.0,4.148399353027344,73,9961.0
3920,0.30553239583969116,1.0244821310043335,-5,6524.0,3.946227788925171,156,9961.0
3930,0.3060701787471771,2.108257293701172,100,6524.0,3.2377707958221436,-17,9961.0
3940,0.3060687780380249,2.909320116043091,-123,6524.0,1.8560572862625122,143,9961.0
3950,0.30609697103500366,1.9494014978408813,197,6524.0,-0.8181639909744263,-14,9961.0
3960,0.30608686804771423,0.5722382664680481,-182,6524.0,-0.43188801407814026,-13,9961.0
3970,0.30604586005210876,-0.1649402379989624,35,6524.0,0.03291838988661766,98,9961.0
3980,0.3060363233089447,0.7583825588226318,-21,6524.0,-1.6877853870391846,-117,9961.0
3990,0.30602672696113586,-0.3042207360267639,21,6524.0,0.23398444056510925,1,9961.0
4000,0.3060515820980072,1.2714706659317017,-21,6524.0,-0.3402152359485626,23,9961.0
4010,0.3060954809188843,0.42219847440719604,88,6524.0,-0.18379350006580353,120,9961.0
4020,0.30726978182792664,2.4732251167297363,-98,6524.0,0.5392548441886902,-71,9961.0
4030,0.30729126930236816,-3.0402450561523438,7,6524.0,4.986729621887207,237,9961.0
4040,0.3073192238807678,-2.3554418087005615,-15,6524.0,8.01682186126709,-142,9961.0
4050,0.30733582377433777,-4.333822250366211,-75,6524.0,2.6709561347961426,192,9961.0
4060,0.3072432577610016,-1.1577708721160889,-8,6524.0,-1.5809037685394287,-51,9961.0
4070,0.30725908279418945,-1.4651389122009277,-10,6524.0,-1.4716472625732422,-49,9961.0
4080,0.3072565495967865,0.18052715063095093,59,6524.0,-2.779778480529785,-123,9961.0
4090,0.30721428990364075,0.4394817650318146,-8,6524.0,-2.6262381076812744,58,9961.0
4101,0.3074747323989868,3.5326082706451416,134,6524.0,-7.960506916046143,-112,9961.0
4110,0.3074672818183899,2.0555460453033447,-154,6524.0,-5.598942279815674,-38,9961.0
4120,0.30748841166496277,-0.9068257212638855,152,6524.0,-1.1685951948165894,-235,9961.0
4130,0.3074752688407898,1.2911590337753296,-56,6524.0,-2.050189256668091,188,9961.0
4140,0.3074153959751129,1.1779226064682007,104,6524.0,0.052958935499191284,-6,9961.0
4150,0.3064105808734894,0.3159870207309723,-31,6524.0,2.163278341293335,28,9961.0
4160,0.3062220513820648,0.036853428930044174,20,6524.0,5.608181953430176,124,9961.0
4170,0.3060150742530823,-0.1736930012702942,-16,6524.0,3.568265676498413,117,9961.0
4180,0.3058091402053833,1.528689980506897,120,6524.0,3.8093950748443604,54,9961.0
4190,0.3061211109161377,1.4941045045852661,-163,6524.0,1.0228861570358276,20,9961.0
4200,0.3059050738811493,-0.34199291467666626,134,6524.0,-0.12783248722553253,16,9961.0
4210,0.3057038187980652,-2.003080129623413,-19,6524.0,0.0933169424533844,-232,9961.0
4220,0.30553534626960754,-2.29960560798645,-17,6524.0,-2.5711236000061035,90,9961.0
4230,0.3053383529186249,-0.5963497757911682,48,6524.0,-2.9171254634857178,-65,9961.0
4240,0.30747291445732117,0.7056991457939148,-16,6524.0,-2.790303945541382,19,9961.0
4250,0.3073994815349579,0.6770511269569397,19,6524.0,-2.0720279216766357,-145,9961.0
4260,0.30729320645332336,0.9260507225990295,-48,6524.0,1.2671031951904297,110,9961.0
4270,0.30718061327934265,0.06466595083475113,146,6524.0,-0.3921377658843994,-96,9961.0
4280,0.3078240156173706,-0.4974220395088196,-173,6524.0,-1.7269442081451416,-7,9961.0
4290,0.3078019917011261,-1.6398779153823853,79,6524.0,1.5655030012130737,152,9961.0
4300,0.30776655673980713,-0.6688984036445618,-60,6524.0,2.4160385131835938,-184,9961.0
4310,0.307699978351593,0.29920899868011475,-13,6524.0,0.41069138050079346,66,9961.0
4320,0.30700409412384033,0.06108645722270012,20,6524.0,3.311131000518799,-18,9961.0
4330,0.30685219168663025,1.8061691522598267,72,6524.0,-1.6933425664901733,67,9961.0
4340,0.30672788619995117,2.2601406574249268,66,6524.0,-3.5431764125823975,-155,9961.0
4350,0.3066028952598572,2.817396402359009,-73,6524.0,-2.413750171661377,98,9961.0
4360,0.3064338266849518,-1.0955780744552612,158,6524.0,-2.707031726837158,-57,9961.0
4370,0.30654776096343994,0.08597631007432938,-176,6524.0,-1.7660750150680542,-29,9961.0
4380,0.3064180910587311,-4.272033214569092,-3,6524.0,-5.260878086090088,172,9961.0
4390,0.3062897324562073,-5.237398624420166,-102,6524.0,2.1743428707122803,-4,9961.0
4400,0.3061651587486267,-5.568859577178955,-59,6524.0,3.2239294052124023,0,9961.0
4410,0.3067695200443268,-2.0232858657836914,-52,6524.0,-2.18481183052063,-212,9961.0
4420,0.3066536486148834,-0.027542563155293465,5,6524.0,-1.5011138916015625,20,9961.0
4430,0.3065890967845917,2.8758888244628906,201,6524.0,-1.9325505495071411,-86,9961.0
4440,0.3065991699695587,4.75187873840332,-62,6524.0,-2.003140687942505,-98,9961.0
4450,0.30661261081695557,2.4755070209503174,124,6524.0,1.1494725942611694,181,9961.0
4460,0.3075340986251831,3.597156524658203,-19,6524.0,0.995405912399292,-224,9961.0
4470,0.3075322210788727,2.93105149269104,7,6524.0,2.068324565887451,108,9961.0
4480,0.30752500891685486,2.454753875732422,52,6524.0,2.4956982135772705,64,9961.0
4490,0.3076057732105255,0.7910546064376831,4,6524.0,2.343524932861328,116,9961.0
4500,0.3085957169532776,1.3420066833496094,67,6524.0,-2.4565937519073486,-15,9961.0
4510,0.3087003529071808,-2.494169235229492,-172,6524.0,1.6698540449142456,-36,9961.0
4520,0.30880215764045715,-3.1111767292022705,78,6524.0,-2.990432024002075,20,9961.0
4530,0.30896317958831787,-4.8264899253845215,-105,6524.0,-2.1917734146118164,-165,9961.0
4540,0.30871763825416565,-7.108409404754639,-90,6524.0,-4.536242485046387,163,9961.0
4550,0.30891236662864685,-2.1005263328552246,17,6524.0,-1.225715160369873,-149,9961.0
4560,0.30909258127212524,-1.2471613883972168,-30,6524.0,-2.141889810562134,-24,9961.0
4570,0.30924683809280396,0.8070627450942993,50,6524.0,-2.0318710803985596,-97,9961.0
4580,0.30942586064338684,0.7473912835121155,34,6524.0,-1.1313737630844116,56,9961.0
4590,0.3085556924343109,2.8751747608184814,151,6524.0,0.13230794668197632,-1,9961.0
4600,0.30865517258644104,3.9618959426879883,-173,6524.0,1.6020365953445435,21,9961.0
4610,0.3086950182914734,1.085527777671814,133,6524.0,-0.17526791989803314,154,9961.0
4620,0.3087119162082672,0.13655175268650055,-19,6524.0,-2.361454963684082,-166,9961.0
4630,0.3088289201259613,-0.07068051397800446,-6,6524.0,3.8475401401519775,143,9961.0
4640,0.30885523557662964,-0.2727242410182953,-1,6524.0,5.835163593292236,29,9961.0
4650,0.3088982105255127,-0.30459603667259216,3,6524.0,3.349452257156372,153,9961.0
4660,0.30894070863723755,0.8051421642303467,-5,6524.0,1.4541057348251343,-98,9961.0
4670,0.30898427963256836,-1.634196400642395,-60,6524.0,-0.0967523381114006,15,9961.0
4680,0.3082224428653717,0.102972112596035,155,6524.0,-2.44674015045166,-81,9961.0
4690,0.3082447648048401,-0.13569723069667816,-156,6524.0,-2.853163242340088,-61,9961.0
4700,0.3082832396030426,-0.09838486462831497,18,6524.0,-3.113785982131958,82,9961.0
4710,0.30831554532051086,0.08148375898599625,-109,6524.0,0.9276692271232605,-131,9961.0
4720,0.30659881234169006,-0.01300045195966959,-55,6524.0,0.05955849215388298,82,9961.0
4730,0.3065450191497803,-0.5851315855979919,45,6524.0,2.915006637573242,-44,9961.0
4740,0.3065054416656494,1.8070106506347656,65,6524.0,-1.6127960681915283,94,9961.0
4750,0.3065090775489807,-0.7304779291152954,-49,6524.0,1.4780770540237427,-118,9961.0
4760,0.30591219663619995,0.420207679271698,48,6524.0,-4.3552632331848145,145,9961.0
4770,0.3058323264122009,0.5076369047164917,61,6524.0,-2.2124602794647217,-187,9961.0
4780,0.30574825406074524,0.6931827068328857,-174,6524.0,-2.9459776878356934,15,9961.0
4790,0.30568253993988037,-0.9021692276000977,143,6524.0,-0.02707473747432232,47,9961.0
4800,0.30561137199401855,0.6401718854904175,-51,6524.0,-2.9483067989349365,-64,9961.0
4811,0.305764764547348,0.9179152250289917,0,6524.0,-1.0302780866622925,52,9961.0
4820,0.3056407570838928,0.11636943370103836,-31,6524.0,3.6307730674743652,-67,9961.0
4830,0.30550146102905273,1.3790556192398071,85,6524.0,1.3479607105255127,63,9961.0
4840,0.305387407541275,0.04968718811869621,143,6524.0,1.6823821067810059,-82,9961.0
4850,0.30670037865638733,-0.3776758909225464,-147,6524.0,0.9745065569877625,47,9961.0
4860,0.306657075881958,-2.489781141281128,153,6524.0,-1.1305112838745117,77,9961.0
4870,0.30659013986587524,-1.0480659008026123,-21,6524.0,4.3134660720825195,-186,9961.0
4880,0.3065407872200012,-1.0255094766616821,-39,6524.0,-1.824941635131836,63,9961.0
4890,0.3077777624130249,-1.379583716392517,20,6524.0,-0.9243848919868469,-64,9961.0
4900,0.30777400732040405,-0.1659066081047058,2,6524.0,-2.939840793609619,-15,9961.0
4910,0.3077518045902252,2.481210231781006,149,6524.0,-2.6587424278259277,-75,9961.0
4920,0.30773261189460754,2.9743828773498535,-41,6524.0,1.6923707723617554,-2,9961.0
4930,0.3077614903450012,1.1776593923568726,18,6524.0,-0.7223753929138184,179,9961.0
4940,0.30827099084854126,0.7755231857299805,7,6524.0,5.078351974487305,-184,9961.0
4950,0.30836057662963867,-0.396087646484375,-116,6524.0,6.119884014129639,110,9961.0
4960,0.3083973526954651,-0.875963032245636,65,6524.0,3.723104238510132,56,9961.0
4970,0.3084547817707062,-0.9777876138687134,-39,6524.0,5.58036470413208,19,9961.0
4980,0.30908095836639404,-1.9882968664169312,-14,6524.0,1.1344704627990723,50,9961.0
4990,0.3091878890991211,-1.577325701713562,-61,6524.0,-0.6106600165367126,-110,9961.0
5000,0.309268593788147,0.6988729238510132,14,6524.0,-3.619019031524658,105,9961.0
5010,0.30931413173675537,0.13428078591823578,87,6524.0,-8.36585807800293,-197,9961.0
5020,0.30936768651008606,-0.798234224319458,-123,6524.0,-2.8579843044281006,-64,9961.0
5030,0.310415118932724,-2.8095104694366455,133,6524.0,2.247368335723877,84,9961.0
5040,0.3104389011859894,1.7070118188858032,-22,6524.0,2.082569122314453,-120,9961.0
5050,0.3103978633880615,1.5410641431808472,8,6524.0,-2.246297836303711,119,9961.0
5060,0.31034719944000244,0.818877100944519,59,6524.0,2.3156533241271973,44,9961.0
5070,0.3101768493652344,1.2737700939178467,16,6524.0,1.737107515335083,95,9961.0
5080,0.31013625860214233,0.7570469975471497,67,6524.0,1.804199457168579,-77,9961.0
5090,0.310057669878006,4.376652240753174,-69,6524.0,-1.7302590608596802,32,9961.0
5100,0.3099465072154999,2.715087890625,220,6524.0,-1.1227574348449707,-5,9961.0
5111,0.3103031516075134,1.8192216157913208,-12,6524.0,0.5513878464698792,-184,9961.0
5120,0.31027713418006897,0.4657123386859894,-33,6524.0,-1.5664268732070923,194,9961.0
5130,0.31026551127433777,-0.12283387780189514,69,6524.0,1.0692695379257202,29,9961.0
5140,0.3102361857891083,-0.48978883028030396,-30,6524.0,0.5101680755615234,125,9961.0
5151,0.31017574667930603,-0.3762260377407074,43,6524.0,-0.1835571974515915,-27,9961.0
5160,0.31126970052719116,0.6052716970443726,-141,6524.0,0.901742160320282,111,9961.0
5170,0.3112935423851013,2.2115931510925293,142,6524.0,0.054979752749204636,59,9961.0
5180,0.31127211451530457,0.051290664821863174,-81,6524.0,-1.3360227346420288,-133,9961.0
5190,0.31121453642845154,-1.721981167793274,-43,6524.0,-1.383730411529541,228,9961.0
5200,0.3107190728187561,-4.163588047027588,29,6524.0,6.245676040649414,-31,9961.0
5210,0.3107004463672638,-2.7372350692749023,-106,6524.0,0.5927321910858154,56,9961.0
5220,0.3107266426086426,-2.0729079246520996,-31,6524.0,2.0460164546966553,71,9961.0
5230,0.31074953079223633,-1.7323271036148071,-121,6524.0,0.3586195409297943,18,9961.0
5240,0.31072717905044556,0.8948311805725098,132,6524.0,-1.012858271598816,55,9961.0
5250,0.311222642660141,3.0216598510742188,19,6524.0,-3.0296998023986816,-244,9961.0
5260,0.3112574517726898,2.6900711059570312,44,6524.0,-3.8236162662506104,30,9961.0
5270,0.31129249930381775,3.8592758178710938,159,6524.0,1.138077735900879,90,9961.0
5280,0.3113056719303131,4.8100786209106445,-23,6524.0,2.1081769466400146,45,9961.0
5290,0.31076931953430176,2.8407108783721924,71,6524.0,3.005146026611328,97,9961.0
5300,0.3107093572616577,2.5636799335479736,-18,6524.0,2.374156951904297,86,9961.0
5310,0.3107019066810608,1.0634164810180664,76,6524.0,4.534503936767578,235,9961.0
5320,0.3107178509235382,1.0099529027938843,-92,6524.0,0.44243380427360535,-201,9961.0
5331,0.3112145960330963,-3.470949649810791,-160,6524.0,2.4014828205108643,158,9961.0
5340,0.3112274706363678,-6.665434837341309,12,6524.0,1.503325343132019,-155,9961.0
5350,0.31123703718185425,-4.693582057952881,-151,6524.0,-2.7112019062042236,0,9961.0
5360,0.3112650215625763,-5.584113121032715,-55,6524.0,-4.381765842437744,-94,9961.0
5370,0.3113081753253937,-2.4162869453430176,-17,6524.0,-5.533310890197754,53,9961.0
5380,0.31160297989845276,1.0005710124969482,143,6524.0,-7.931824684143066,-128,9961.0
5390,0.31163254380226135,2.8786888122558594,-143,6524.0,-4.114002227783203,-52,9961.0
5400,0.3116806149482727,2.4349632263183594,168,6524.0,0.269474595785141,143,9961.0
5410,0.3117266893386841,2.7701401710510254,51,6524.0,1.669586420059204,-135,9961.0
5420,0.3114843964576721,2.751690626144409,39,6524.0,2.3951351642608643,105,9961.0
5430,0.31153491139411926,1.0491942167282104,38,6524.0,4.811155319213867,21,9961.0
5440,0.31158220767974854,1.5331922769546509,-52,6524.0,2.9482383728027344,135,9961.0
5450,0.3116547167301178,-1.218442678451538,128,6524.0,1.280484914779663,64,9961.0
5460,0.3117212653160095,0.8313890099525452,-188,6524.0,2.3634989261627197,33,9961.0
5470,0.31066229939460754,-1.6642916202545166,-58,6524.0,-1.955572485923767,227,9961.0
5480,0.31058207154273987,-5.055651664733887,-33,6524.0,1.953921914100647,-75,9961.0
5490,0.3104964792728424,-2.4869930744171143,-108,6524.0,0.8829742670059204,28,9961.0
5500,0.31042903661727905,-2.496724843978882,5,6524.0,-0.1882343292236328,-99,9961.0
5510,0.3114146590232849,2.2568023204803467,-15,6524.0,-5.211674213409424,-127,9961.0
5520,0.3114042282104492,0.9029671549797058,175,6524.0,-5.212678909301758,96,9961.0
5530,0.31138911843299866,1.8225823640823364,34,6524.0,-1.3505820035934448,-246,9961.0
5540,0.3113948404788971,3.294921875,-39,6524.0,-0.02313615381717682,117,9961.0
5550,0.31239113211631775,7.723364353179932,137,6524.0,-3.974365711212158,60,9961.0
5560,0.3124496042728424,1.0940190553665161,-11,6524.0,5.553461074829102,21,9961.0
5570,0.3124855160713196,-0.27857446670532227,40,6524.0,4.1319451332092285,107,9961.0
5580,0.3125344216823578,-1.7153756618499756,-151,6524.0,2.5151774883270264,-156,9961.0
5590,0.3126014173030853,-1.7214545011520386,-55,6524.0,3.912379741668701,154,9961.0
5600,0.3132393956184387,-5.293325901031494,160,6524.0,2.1817984580993652,-72,9961.0
5610,0.3133677840232849,-3.5795702934265137,-57,6524.0,-2.976435661315918,-152,9961.0
5620,0.31350138783454895,-1.6768532991409302,-81,6524.0,-5.5401740074157715,56,9961.0
5630,0.3136623501777649,-2.4374492168426514,-4,6524.0,-0.0644167885184288,-30,9961.0
5640,0.31350448727607727,-1.0860342979431152,-23,6524.0,-1.619594693183899,38,9961.0
5650,0.3136681914329529,-0.12991659343242645,124,6524.0,-3.456789016723633,-20,9961.0
5660,0.31381410360336304,0.22432155907154083,-107,6524.0,3.170457363128662,-175,9961.0
5670,0.31397128105163574,4.333033084869385,41,6524.0,-5.0933051109313965,121,9961.0
5680,0.3141310513019562,3.5816445350646973,216,6524.0,-4.947788238525391,-67,9961.0
5690,0.3142405152320862,3.9511871337890625,-53,6524.0,-3.4287819862365723,-131,9961.0
5700,0.3143933117389679,-1.2484532594680786,53,6524.0,-2.879110336303711,33,9961.0
5710,0.3145553469657898,-1.3715449571609497,-49,6524.0,2.5652451515197754,37,9961.0
5720,0.3146635591983795,-1.7474769353866577,-2,6524.0,1.8041043281555176,157,9961.0
5730,0.3132706582546234,-3.061367988586426,24,6524.0,3.2851288318634033,-13,9961.0
5740,0.3133118152618408,-0.6510170102119446,-198,6524.0,1.096634864807129,-13,9961.0
5750,0.31339648365974426,-0.0038845143280923367,103,6524.0,-4.337540626525879,109,9961.0
5760,0.31349122524261475,-1.9389644861221313,22,6524.0,-1.9347457885742188,-184,9961.0
5771,0.313352108001709,-1.3755487203598022,-32,6524.0,-1.4775009155273438,-10,9961.0
5780,0.3134162425994873,1.545324444770813,70,6524.0,-4.028573513031006,-46,9961.0
5790,0.3134945333003998,0.9174036979675293,-18,6524.0,-2.4519498348236084,-16,9961.0
5800,0.3135831356048584,3.419607162475586,114,6524.0,-2.0006637573242188,210,9961.0
5810,0.31364986300468445,4.934829235076904,66,6524.0,-3.9579670429229736,-208,9961.0
5820,0.3134355843067169,5.150595664978027,-118,6524.0,-6.979907989501953,-47,9961.0
5830,0.31350088119506836,0.7207944393157959,215,6524.0,-1.3245161771774292,-12,9961.0
5840,0.3135613799095154,1.0706794261932373,-27,6524.0,1.513545274734497,-43,9961.0
5850,0.3135930299758911,-1.1040000915527344,7,6524.0,1.8341810703277588,57,9961.0
5860,0.3121970593929291,-2.8507981300354004,-35,6524.0,2.6634068489074707,-107,9961.0
5870,0.3121313154697418,-1.911431908607483,-92,6524.0,0.9507539868354797,80,9961.0
5880,0.31206294894218445,-1.1658118963241577,192,6524.0,1.9098398685455322,78,9961.0
5890,0.3120218813419342,-2.012420654296875,-135,6524.0,4.742798328399658,-72,9961.0
5900,0.31195223331451416,2.9794933795928955,1,6524.0,-9.323320388793945,90,9961.0
5910,0.3123302459716797,1.1883094310760498,51,6524.0,-11.721835136413574,-52,9961.0
5920,0.3123539090156555,0.2886991500854492,-6,6524.0,-3.814519166946411,-20,9961.0
5930,0.31233322620391846,3.3837594985961914,152,6524.0,-1.139955759048462,-40,9961.0
5940,0.31248295307159424,5.093953609466553,4,6524.0,-1.7208012342453003,-185,9961.0
5950,0.3123230040073395,1.7442138195037842,9,6524.0,0.039116814732551575,159,9961.0
5960,0.3123910129070282,1.1420236825942993,161,6524.0,1.4492796659469604,90,9961.0
5970,0.31243187189102173,0.18166200816631317,-9,6524.0,2.7554149627685547,50,9961.0
5980,0.312455415725708,-0.12318842113018036,-22,6524.0,3.9148569107055664,22,9961.0
5990,0.3124692142009735,-0.06222935765981674,-94,6524.0,4.914719581604004,164,9961.0
6000,0.31308239698410034,-10.176445960998535,-26,6524.0,9.645282745361328,191,9961.0
6010,0.3131338059902191,-1.2161507606506348,-54,6524.0,-4.9944329261779785,-260,9961.0
6020,0.3131370544433594,-1.2427177429199219,-95,6524.0,0.6376619338989258,-7,9961.0
6030,0.3131502568721771,-3.341219425201416,0,6524.0,-0.9501224160194397,-20,9961.0
6040,0.3150787055492401,-1.318320393562317,-95,6524.0,1.3223350048065186,45,9961.0
6050,0.31516551971435547,0.19597958028316498,133,6524.0,-3.458857774734497,132,9961.0
6060,0.31528523564338684,1.3980451822280884,63,6524.0,0.45069608092308044,-93,9961.0
6070,0.3153962790966034,2.4596188068389893,-198,6524.0,4.155874252319336,100,9961.0
6080,0.3156795799732208,3.1640307903289795,81,6524.0,-1.0693011283874512,129,9961.0
6090,0.31573647260665894,5.069964408874512,92,6524.0,-3.839982271194458,-103,9961.0
6100,0.31576621532440186,1.8420425653457642,43,6524.0,-2.5594520568847656,8,9961.0
6110,0.3158465623855591,4.785564422607422,135,6524.0,-4.95944881439209,-110,9961.0
6120,0.31588858366012573,4.133312225341797,-126,6524.0,-2.538193702697754,-200,9961.0
6130,0.3167286515235901,1.2920182943344116,98,6524.0,-2.3167037963867188,3,9961.0
6140,0.3168635368347168,0.4725096523761749,16,6524.0,0.9449876546859741,-2,9961.0
6150,0.31692448258399963,-0.7321206331253052,-58,6524.0,1.445860743522644,125,9961.0
6160,0.31697842478752136,-1.4179130792617798,122,6524.0,1.7906608581542969,73,9961.0
6170,0.3173897862434387,-2.1546823978424072,-97,6524.0,4.151478290557861,-65,9961.0
6180,0.3174883723258972,-0.18555498123168945,-75,6524.0,5.683566093444824,294,9961.0
6190,0.3178175985813141,-2.369006395339966,-22,6524.0,5.354101181030273,11,9961.0
6200,0.3179088532924652,1.3652271032333374,-104,6524.0,1.526498556137085,77,9961.0
6210,0.31793197989463806,-0.6556034684181213,104,6524.0,-0.13769541680812836,62,9961.0
6220,0.3179614841938019,3.644244909286499,16,6524.0,-3.8537585735321045,-290,9961.0
6230,0.31810325384140015,-0.6194672584533691,-57,6524.0,3.2983016967773438,31,9961.0
6240,0.31815803050994873,0.7715117931365967,69,6524.0,0.10339043289422989,-15,9961.0
6250,0.3181309401988983,1.815239667892456,-35,6524.0,1.130621314048767,-59,9961.0
6260,0.31822994351387024,0.6790860295295715,29,6524.0,0.32242658734321594,234,9961.0
6270,0.31828320026397705,-2.2441165447235107,90,6524.0,7.27254056930542,96,9961.0
6280,0.31831544637680054,-0.11250066757202148,-75,6524.0,3.7101993560791016,-44,9961.0
6290,0.31829261779785156,-1.3975579738616943,-39,6524.0,-1.4637140035629272,128,9961.0
6300,0.31776630878448486,-1.0607905387878418,-58,6524.0,0.3260636329650879,-66,9961.0
6310,0.31763264536857605,-0.3656039535999298,-154,6524.0,-5.727267265319824,18,9961.0
6320,0.31748032569885254,-7.748908996582031,-5,6524.0,-1.064656138420105,95,9961.0
6330,0.31730273365974426,-9.341354370117188,5,6524.0,0.2497546374797821,-190,9961.0
6340,0.3171622157096863,-1.6086680889129639,-168,6524.0,-3.3781514167785645,-139,9961.0
6350,0.3185313642024994,-2.9632909297943115,-3,6524.0,-3.7002620697021484,-44,9961.0
6360,0.3184448778629303,-0.3164466917514801,-41,6524.0,-2.4042842388153076,-171,9961.0
6370,0.3183751404285431,0.9539170265197754,-41,6524.0,-2.933842182159424,131,9961.0
6380,0.3183232247829437,0.6289252042770386,202,6524.0,0.722993791103363,110,9961.0
6390,0.3181762397289276,2.037578582763672,-45,6524.0,-1.264381766319275,-127,9961.0
6400,0.31814318895339966,-1.2686395645141602,-208,6524.0,8.193033218383789,101,9961.0
6410,0.31812727451324463,-2.787571668624878,15,6524.0,6.1301422119140625,92,9961.0
6420,0.3180983364582062,1.497176170349121,-52,6524.0,4.9665093421936035,17,9961.0
6430,0.31843113899230957,2.528510570526123,-4,6524.0,-0.7694377899169922,171,9961.0
6440,0.31844383478164673,3.2505106925964355,200,6524.0,-1.3045263290405273,-21,9961.0
6450,0.3184814155101776,0.046581968665122986,-38,6524.0,-2.4836671352386475,-206,9961.0
6460,0.3184920847415924,-0.9040473103523254,-53,6524.0,-4.299233436584473,37,9961.0
6470,0.3184632658958435,0.6429850459098816,-2,6524.0,-6.788572311401367,-9,9961.0
6480,0.3186851739883423,-0.5945351123809814,-94,6524.0,0.19675835967063904,46,9961.0
6490,0.31871330738067627,0.12534019351005554,121,6524.0,0.49595537781715393,174,9961.0
6500,0.3187447786331177,0.7041018009185791,-37,6524.0,1.4998751878738403,-48,9961.0
6510,0.31883546710014343,1.9687161445617676,-129,6524.0,4.7375688552856445,13,9961.0
6520,0.31976377964019775,-1.0900577306747437,-12,6524.0,6.457610130310059,113,9961.0
6530,0.3199160397052765,-2.240600824356079,-54,6524.0,4.767241954803467,-90,9961.0
6541,0.3200770318508148,-1.2139604091644287,24,6524.0,4.0887603759765625,234,9961.0
6550,0.32024091482162476,-0.14709046483039856,286,6524.0,1.854767084121704,-97,9961.0
6560,0.32040202617645264,-3.7432267665863037,-90,6524.0,1.1404359340667725,-131,9961.0
6570,0.3204179108142853,0.7347275018692017,-67,6524.0,3.5391414165496826,170,9961.0
6580,0.320521742105484,0.6146726012229919,-20,6524.0,-1.8974831104278564,-118,9961.0
6590,0.3205943703651428,1.1813502311706543,-34,6524.0,-0.32311421632766724,167,9961.0
6600,0.32077062129974365,4.494758129119873,17,6524.0,-2.5623109340667725,-314,9961.0
6610,0.31929874420166016,-0.3741675317287445,-62,6524.0,6.747468948364258,133,9961.0
6620,0.3193034827709198,-0.9307747483253479,35,6524.0,7.675620079040527,95,9961.0
6630,0.319246768951416,-1.211924433708191,-91,6524.0,6.884667873382568,118,9961.0
6640,0.3191624581813812,-0.37218114733695984,99,6524.0,9.386751174926758,226,9961.0
6650,0.32019153237342834,-2.604769229888916,-41,6524.0,8.40361213684082,-165,9961.0
6660,0.32012975215911865,-3.75148868560791,-194,6524.0,3.822483539581299,45,9961.0
6670,0.32008102536201477,-4.816765308380127,22,6524.0,0.8560560345649719,9,9961.0
6680,0.32006895542144775,-1.225671410560608,-35,6524.0,-4.015846252441406,-181,9961.0
6690,0.3200797736644745,-2.2813994884490967,41,6524.0,-3.20798397064209,-49,9961.0
6700,0.32045477628707886,3.8118276596069336,201,6524.0,-5.937868118286133,-169,9961.0
6710,0.3205302655696869,7.380796432495117,2,6524.0,-6.364625930786133,-289,9961.0
6720,0.32059359550476074,3.3075525760650635,57,6524.0,-0.3832804560661316,74,9961.0
6730,0.3205556273460388,3.057871103286743,76,6524.0,-0.2912718951702118,19,9961.0
6740,0.32196739315986633,0.4937344491481781,-62,6524.0,1.8550525903701782,86,9961.0
6750,0.32201412320137024,-3.078963279724121,114,6524.0,0.6888257265090942,102,9961.0
6760,0.3220376670360565,-5.699145793914795,-139,6524.0,4.900869369506836,-161,9961.0
6770,0.3220236897468567,-5.134573936462402,-169,6524.0,6.892299175262451,90,9961.0
6780,0.3220731019973755,-7.206923484802246,-49,6524.0,2.41231632232666,75,9961.0
6790,0.3224007189273834,-3.5652377605438232,-79,6524.0,1.5109037160873413,-32,9961.0
6800,0.3225651979446411,-1.8713829517364502,-5,6524.0,0.626377522945404,109,9961.0
6810,0.3230231702327728,-1.992090106010437,175,6524.0,-5.910587787628174,-125,9961.0
6820,0.3231375217437744,0.4289650619029999,-99,6524.0,-5.646884441375732,-309,9961.0
6830,0.3231746256351471,2.843078136444092,-35,6524.0,-8.532169342041016,-4,9961.0
6840,0.3232113718986511,-2.975895643234253,91,6524.0,-7.007729530334473,-79,9961.0
6850,0.3233236074447632,1.1155437231063843,-22,6524.0,-6.071174621582031,-91,9961.0
6860,0.3236355185508728,2.4697988033294678,74,6524.0,-3.9393112659454346,228,9961.0
6870,0.32353565096855164,1.4963511228561401,71,6524.0,-0.09446705132722855,-84,9961.0
6880,0.3236110508441925,-3.0510730743408203,-154,6524.0,3.454524278640747,28,9961.0
6890,0.32368648052215576,0.18597234785556793,14,6524.0,3.5225393772125244,111,9961.0
6900,0.32364821434020996,1.0769764184951782,-11,6524.0,8.939470291137695,3,9961.0
6910,0.3242526352405548,4.961991786956787,-58,6524.0,9.267431259155273,180,9961.0
6920,0.3253035843372345,2.033857583999634,127,6524.0,6.340290546417236,246,9961.0
6930,0.32549700140953064,0.11070755869150162,76,6524.0,-1.3891791105270386,-13,9961.0
6940,0.32556140422821045,1.870291829109192,-104,6524.0,-3.281926393508911,-158,9961.0
6950,0.32562509179115295,-2.5131826400756836,-19,6524.0,-1.6250855922698975,40,9961.0
6960,0.3237675130367279,-2.678194522857666,-88,6524.0,-4.290605068206787,-179,9961.0
6970,0.32394203543663025,-3.898033618927002,-195,6524.0,-3.695992946624756,-126,9961.0
6980,0.3237905502319336,-3.3584327697753906,14,6524.0,-8.0719575881958,76,9961.0
6990,0.32365500926971436,-0.8757732510566711,118,6524.0,-9.472845077514648,-205,9961.0
7001,0.32405129075050354,-0.24480974674224854,-124,6524.0,-8.492432594299316,-204,9961.0
7010,0.32395321130752563,0.3056257963180542,66,6524.0,-0.5412777066230774,100,9961.0
7020,0.3239845335483551,5.199637413024902,164,6524.0,2.239161252975464,-9,9961.0
7030,0.32405662536621094,7.441081523895264,23,6524.0,6.5873332023620605,-84,9961.0
7040,0.3239990472793579,3.712937831878662,108,6524.0,12.273445129394531,158,9961.0
7050,0.326151579618454,2.2153797149658203,186,6524.0,0.8409717679023743,65,9961.0
7060,0.3263164758682251,-3.4192938804626465,-108,6524.0,-0.5734691619873047,-78,9961.0
7070,0.32622474431991577,-3.7960891723632812,-71,6524.0,2.1988282203674316,112,9961.0
7080,0.32637953758239746,-0.22701159119606018,89,6524.0,2.3614180088043213,248,9961.0
7090,0.3274194002151489,0.7907525300979614,-33,6524.0,8.407267570495605,5,9961.0
7100,0.32766619324684143,5.120485782623291,-10,6524.0,12.90811538696289,239,9961.0
7110,0.3277680277824402,4.115357875823975,92,6524.0,11.748453140258789,358,9961.0
7120,0.3279799520969391,1.8787083625793457,-47,6524.0,15.630326271057129,184,9961.0
7130,0.3281359076499939,1.1588248014450073,-36,6524.0,14.6858491897583,207,9961.0
7140,0.3289678692817688,-0.779370903968811,101,6524.0,11.203166007995605,253,9961.0
7150,0.3291585445404053,1.9758538007736206,101,6524.0,6.099318027496338,-262,9961.0
7160,0.3292725086212158,0.4287274181842804,-290,6524.0,-3.361330270767212,-253,9961.0
7170,0.3293592631816864,-2.974821090698242,28,6524.0,-5.7881011962890625,-36,9961.0
7180,0.3296487033367157,1.7297890186309814,99,6524.0,-7.601682662963867,-138,9961.0
7190,0.32972514629364014,2.4236440658569336,-41,6524.0,-2.1949820518493652,-170,9961.0
7200,0.3297615051269531,1.6571099758148193,83,6524.0,-8.536942481994629,5,9961.0
7210,0.3297872543334961,2.0537047386169434,96,6524.0,-3.746469497680664,-10,9961.0
7220,0.32981353998184204,0.20132654905319214,-91,6524.0,-7.379075527191162,18,9961.0
7230,0.3298788070678711,1.2856404781341553,154,6524.0,1.3615049123764038,-29,9961.0
7240,0.32983219623565674,-3.4272162914276123,-59,6524.0,5.197254657745361,-48,9961.0
7250,0.32977938652038574,-1.2739511728286743,-3,6524.0,1.0258710384368896,108,9961.0
7260,0.3297136127948761,-6.073081970214844,94,6524.0,1.405350685119629,10,9961.0
7270,0.33174383640289307,-5.564655780792236,-111,6524.0,-0.6649753451347351,-309,9961.0
7280,0.33183905482292175,-3.9253270626068115,-188,6524.0,-0.48316335678100586,-88,9961.0
7290,0.331930011510849,-5.859632968902588,-4,6524.0,-4.870289325714111,-16,9961.0
7300,0.33201828598976135,-2.841794729232788,-24,6524.0,-4.7266645431518555,-150,9961.0
7310,0.331288605928421,3.071410894393921,-15,6524.0,-2.94657301902771,-74,9961.0
7320,0.3313722610473633,6.745842933654785,170,6524.0,-6.6540703773498535,143,9961.0
7330,0.3314724266529083,8.14089584350586,257,6524.0,-0.41510558128356934,-113,9961.0
7340,0.3316075801849365,7.7552008628845215,66,6524.0,1.887702226638794,-33,9961.0
7350,0.33182045817375183,9.07522964477539,126,6524.0,6.891211032867432,111,9961.0
7360,0.33162158727645874,7.73067569732666,127,6524.0,0.0870991125702858,-50,9961.0
7370,0.33171555399894714,9.037957191467285,-26,6524.0,0.30505141615867615,-93,9961.0
7380,0.3317359387874603,4.708680152893066,36,6524.0,-4.199560642242432,111,9961.0
7390,0.33174750208854675,3.3972036838531494,222,6524.0,-4.5257158279418945,-81,9961.0
7400,0.3314749300479889,2.7221405506134033,9,6524.0,-3.118598699569702,-140,9961.0
7410,0.33150193095207214,2.2495179176330566,52,6524.0,-8.273524284362793,-115,9961.0
7420,0.33174026012420654,-8.41656494140625,-74,6524.0,-7.392077445983887,-263,9961.0
7430,0.33191579580307007,-7.304312705993652,-308,6524.0,-11.81428337097168,-290,9961.0
7440,0.33207017183303833,-12.805919647216797,-193,6524.0,-10.471573829650879,-119,9961.0
7450,0.33185985684394836,-19.125699996948242,-328,6524.0,-8.187744140625,-309,9961.0
7460,0.33264705538749695,-26.784883499145508,-496,6524.0,-3.0186097621917725,10,9961.0
7470,0.3326070010662079,-30.4472599029541,-353,6524.0,-5.670485496520996,-58,9961.0
7480,0.33188843727111816,-28.47941017150879,-499,6524.0,1.0281989574432373,-53,9961.0
7490,0.33349210023880005,-22.588083267211914,-224,6524.0,3.084486484527588,149,9961.0
7500,0.3333362638950348,-20.457061767578125,-237,6524.0,4.523548603057861,-19,9961.0
7510,0.3330429494380951,-25.3070068359375,-507,6524.0,2.227220058441162,16,9961.0
7520,0.33202242851257324,-24.572690963745117,-351,6524.0,8.998565673828125,182,9961.0
7530,0.3328529894351959,-26.27179718017578,-434,6524.0,3.9029245376586914,-123,9961.0
7540,0.3332242965698242,-27.51380729675293,-515,6524.0,0.328032523393631,50,9961.0
7550,0.33262473344802856,-23.234094619750977,-278,6524.0,-1.4448378086090088,18,9961.0
7560,0.3323154151439667,-26.996110916137695,-459,6524.0,2.0138814449310303,-45,9961.0
7570,0.3317563831806183,-29.120708465576172,-468,6524.0,3.343156337738037,126,9961.0
7580,0.3315095603466034,-32.9322395324707,-422,6524.0,-4.929875373840332,-159,9961.0
7590,0.3322092592716217,-37.772247314453125,-666,6524.0,-2.161456823348999,-249,9961.0
7600,0.33146095275878906,-40.956905364990234,-597,6524.0,-6.652085304260254,-68,9961.0
7610,0.33194318413734436,-37.34868240356445,-533,6524.0,-9.053014755249023,-212,9961.0
7620,0.3323080241680145,-34.974021911621094,-668,6524.0,-10.312541007995605,-279,9961.0
7630,0.33194878697395325,-27.6286563873291,-417,6524.0,-8.099754333496094,9,9961.0
7640,0.33151644468307495,-25.736068725585938,-319,6524.0,-3.021232843399048,-8,9961.0
7650,0.331257700920105,-26.37978172302246,-377,6524.0,3.006990909576416,-59,9961.0
7660,0.3334083557128906,-17.66851234436035,-273,6524.0,8.569623947143555,183,9961.0
7670,0.3334060311317444,-8.320255279541016,-31,6524.0,1.1642519235610962,161,9961.0
7680,0.33319079875946045,2.145667791366577,15,6524.0,2.2786290645599365,-191,9961.0
7690,0.3331577181816101,4.83466100692749,31,6524.0,13.296599388122559,-30,9961.0
7701,0.3354603350162506,7.740955829620361,185,6524.0,11.655386924743652,242,9961.0
7710,0.3353957235813141,15.307156562805176,322,6524.0,8.74262523651123,13,9961.0
7720,0.3353656232357025,15.954416275024414,177,6524.0,7.513887882232666,-112,9961.0
7730,0.33538442850112915,14.194969177246094,268,6524.0,-4.596466064453125,-1,9961.0
7740,0.33561599254608154,7.974477291107178,153,6524.0,3.387641191482544,194,9961.0
7750,0.3354865312576294,10.051162719726562,0,6524.0,-12.309526443481445,-129,9961.0
7760,0.3355076313018799,3.441753387451172,84,6524.0,-7.295004367828369,64,9961.0
7770,0.33548030257225037,7.638980388641357,162,6524.0,-1.2507274150848389,-155,9961.0
7780,0.3354990780353546,7.917325973510742,36,6524.0,-7.572124481201172,28,9961.0
7790,0.3342277407646179,6.5920820236206055,280,6524.0,1.1339054107666016,50,9961.0
7800,0.3341929316520691,9.25256061553955,155,6524.0,3.363948345184326,-111,9961.0
7810,0.3340788781642914,9.910022735595703,294,6524.0,0.1280796229839325,124,9961.0
7820,0.3341326415538788,12.487812995910645,159,6524.0,2.5191805362701416,-103,9961.0
7830,0.3342289328575134,11.597036361694336,260,6524.0,-0.08982177823781967,3,9961.0
7840,0.3319394886493683,13.026776313781738,290,6524.0,-1.4414691925048828,-164,9961.0
7850,0.3318413496017456,15.352783203125,153,6524.0,-3.903416872024536,-41,9961.0
7860,0.33175596594810486,20.688697814941406,407,6524.0,-5.838566303253174,49,9961.0
7870,0.3317142128944397,19.341976165771484,271,6524.0,-1.7370357513427734,-205,9961.0
7880,0.32887744903564453,20.535675048828125,364,6524.0,-3.8389086723327637,62,9961.0
7890,0.3285153806209564,20.769912719726562,388,6524.0,-1.859757661819458,-73,9961.0
7900,0.32860320806503296,21.4957332611084,282,6524.0,-0.22220337390899658,-134,9961.0
7910,0.3284231424331665,17.325611114501953,380,6524.0,-3.191828489303589,165,9961.0
7920,0.3282717764377594,21.766502380371094,217,6524.0,1.6111572980880737,-69,9961.0
7930,0.3248356282711029,15.097827911376953,223,6524.0,1.6244980096817017,-12,9961.0
7940,0.3243730068206787,15.584735870361328,346,6524.0,4.502822399139404,87,9961.0
7950,0.3243892192840576,14.438480377197266,161,6524.0,6.320088863372803,-38,9961.0
7960,0.3241231441497803,15.323335647583008,74,6524.0,4.540191173553467,138,9961.0
7970,0.32006901502609253,10.455350875854492,268,6524.0,4.646518707275391,172,9961.0
7980,0.3194734752178192,5.961164951324463,120,6524.0,3.6693551540374756,12,9961.0
7990,0.3190937936306,11.287118911743164,126,6524.0,4.17258882522583,129,9961.0
8000,0.31851115822792053,15.425946235656738,304,6524.0,-1.2728803157806396,88,9961.0
8010,0.3169163167476654,17.010522842407227,466,6524.0,-4.5525898933410645,-8,9961.0
8020,0.3163958787918091,17.487285614013672,216,6524.0,-5.323874473571777,-306,9961.0
8030,0.31595379114151,14.9197998046875,215,6524.0,-1.0269256830215454,-233,9961.0
8040,0.31537577509880066,15.36544132232666,256,6524.0,-2.2229349613189697,33,9961.0
8050,0.3154328465461731,26.013763427734375,485,6524.0,-0.11237093806266785,23,9961.0
8060,0.3156823515892029,22.967567443847656,349,6524.0,7.384305477142334,33,9961.0
8070,0.3155285120010376,23.375972747802734,292,6524.0,7.881850242614746,161,9961.0
8080,0.31555643677711487,22.874496459960938,417,6524.0,9.445148468017578,382,9961.0
8090,0.3156343698501587,16.677711486816406,407,6524.0,5.6960954666137695,-45,9961.0
8100,0.3168202340602875,15.551843643188477,159,6524.0,8.99972152709961,-118,9961.0
8110,0.3168707489967346,12.034363746643066,81,6524.0,8.27647876739502,176,9961.0
8120,0.317510187625885,15.150893211364746,288,6524.0,0.3418717086315155,185,9961.0
8130,0.3179781436920166,15.020442008972168,301,6524.0,-0.785419762134552,72,9961.0
8141,0.3176637887954712,16.06805419921875,208,6524.0,-3.4155898094177246,-191,9961.0
8150,0.318073034286499,18.862672805786133,60,6524.0,-5.988376617431641,-218,9961.0
8160,0.3188863694667816,13.114567756652832,283,6524.0,-0.09900134056806564,64,9961.0
8170,0.31947317719459534,22.042634963989258,432,6524.0,1.5816518068313599,36,9961.0
8180,0.31989040970802307,15.865790367126465,166,6524.0,2.2852625846862793,-57,9961.0
8190,0.3199569284915924,13.78388500213623,188,6524.0,2.951688289642334,203,9961.0
8200,0.3207974433898926,8.124137878417969,322,6524.0,7.7827301025390625,78,9961.0
8210,0.3214908540248871,4.482688903808594,22,6524.0,0.4082573354244232,-176,9961.0
8220,0.3221644163131714,-0.23745763301849365,-146,6524.0,0.386453777551651,38,9961.0
8230,0.3236427307128906,-8.185636520385742,-52,6524.0,0.9195976853370667,59,9961.0
8240,0.3242911696434021,-4.312603950500488,-82,6524.0,-2.928334951400757,-83,9961.0
8250,0.3249860107898712,1.0110541582107544,-121,6524.0,1.441882848739624,-27,9961.0
8260,0.3259838819503784,1.816281795501709,14,6524.0,-2.8035082817077637,130,9961.0
8270,0.3268637955188751,3.5468971729278564,269,6524.0,4.600100994110107,135,9961.0
8280,0.3269902765750885,-1.2890421152114868,-28,6524.0,13.457740783691406,-155,9961.0
8290,0.3277578055858612,2.252963066101074,-97,6524.0,7.095463275909424,35,9961.0
8300,0.328396737575531,2.8099870681762695,31,6524.0,7.455290794372559,188,9961.0
8310,0.32931965589523315,1.3764313459396362,1,6524.0,5.490768909454346,15,9961.0
8320,0.32975417375564575,-1.1826943159103394,-76,6524.0,3.9647772312164307,135,9961.0
8330,0.33037158846855164,0.46954190731048584,86,6524.0,1.5491902828216553,105,9961.0
8340,0.33094656467437744,-1.0296423435211182,161,6524.0,-1.7654534578323364,-105,9961.0
8350,0.33166998624801636,6.543649196624756,-90,6524.0,-0.9899184703826904,-174,9961.0
8361,0.3325670063495636,3.929029941558838,-26,6524.0,-3.6944706439971924,26,9961.0
8370,0.33313262462615967,0.730340301990509,184,6524.0,-2.225085735321045,36,9961.0
8380,0.3336968421936035,3.8375537395477295,59,6524.0,-5.370354652404785,-182,9961.0
8390,0.33422407507896423,-0.9872381091117859,-209,6524.0,0.2721365690231323,-1,9961.0
8401,0.334699422121048,-3.927320957183838,-82,6524.0,2.1856577396392822,171,9961.0
8410,0.3335174322128296,-4.033289909362793,-90,6524.0,4.419861793518066,51,9961.0
8420,0.33385127782821655,-4.764227867126465,-176,6524.0,3.8901004791259766,165,9961.0
8431,0.3341594934463501,-5.550464153289795,-3,6524.0,0.7821281552314758,179,9961.0
8440,0.3344426453113556,-5.008774280548096,-175,6524.0,-4.13507080078125,-137,9961.0
8450,0.33514174818992615,-5.324437618255615,-163,6524.0,-7.857458591461182,-266,9961.0
8460,0.3355204463005066,-6.595176696777344,20,6524.0,-11.133151054382324,14,9961.0
8470,0.335929274559021,-7.302635669708252,-137,6524.0,-12.33813762664795,-312,9961.0
8480,0.33618202805519104,-1.122341275215149,-276,6524.0,-7.119343280792236,-134,9961.0
8490,0.3362951874732971,-1.7423468828201294,-26,6524.0,-4.311103820800781,3,9961.0
8500,0.336982786655426,-0.016177993267774582,15,6524.0,-2.0057260990142822,-92,9961.0
8510,0.3371908664703369,1.9162929058074951,-29,6524.0,3.075085163116455,99,9961.0
8520,0.3373734652996063,6.307490348815918,203,6524.0,1.2032164335250854,187,9961.0
8530,0.33745259046554565,6.832291603088379,244,6524.0,1.1773267984390259,67,9961.0
8540,0.3365529179573059,2.9991345405578613,-124,6524.0,3.8713674545288086,-67,9961.0
8550,0.3366585969924927,-0.6991356015205383,-73,6524.0,2.439872980117798,225,9961.0
8560,0.3366982340812683,-4.174803733825684,31,6524.0,4.728738784790039,133,9961.0
8570,0.3367282450199127,-5.563440322875977,-113,6524.0,-2.625643491744995,-67,9961.0
8580,0.33673596382141113,-6.140161037445068,-160,6524.0,-4.144781589508057,10,9961.0
8590,0.3367800712585449,-5.891726493835449,-23,6524.0,-3.0592873096466064,-22,9961.0
8600,0.33676761388778687,-1.5581516027450562,-62,6524.0,-6.571991920471191,-154,9961.0
8610,0.336778461933136,-6.183326721191406,-157,6524.0,0.36540713906288147,-67,9961.0
8620,0.33681198954582214,-2.220975875854492,-55,6524.0,-2.8394176959991455,210,9961.0
8630,0.3381061851978302,-2.703563928604126,107,6524.0,2.138824701309204,6,9961.0
8640,0.33818721771240234,-5.213161945343018,-78,6524.0,8.534810066223145,-261,9961.0
8650,0.33824723958969116,-7.223127365112305,-161,6524.0,-0.19004569947719574,45,9961.0
8660,0.33832114934921265,-3.919724702835083,7,6524.0,3.4392645359039307,78,9961.0
8670,0.33905211091041565,-1.8540619611740112,-51,6524.0,2.498190402984619,-14,9961.0
8680,0.3392079174518585,-0.4143975079059601,-52,6524.0,-1.0726242065429688,-15,9961.0
8690,0.3394039571285248,-2.3667259216308594,79,6524.0,-3.96388578414917,23,9961.0
8700,0.3395874500274658,0.580406129360199,61,6524.0,-4.254645824432373,-193,9961.0
8710,0.3397514522075653,1.498542308807373,-123,6524.0,-2.9395480155944824,-160,9961.0
8720,0.3412257730960846,-1.2911640405654907,-92,6524.0,-2.4148290157318115,219,9961.0
8730,0.3414052128791809,-3.7965593338012695,102,6524.0,0.7701987624168396,50,9961.0
8740,0.3415689170360565,-6.996865272521973,-188,6524.0,2.260448694229126,-144,9961.0
8750,0.34176626801490784,-2.8743534088134766,11,6524.0,4.5821146965026855,90,9961.0
8760,0.34119337797164917,-2.7686567306518555,50,6524.0,2.7740859985351562,-14,9961.0
8770,0.3413194417953491,-0.9549579620361328,-85,6524.0,3.9701051712036133,-73,9961.0
8780,0.3414369523525238,-4.9320387840271,-118,6524.0,0.2621821463108063,221,9961.0
8790,0.34171104431152344,-9.432989120483398,87,6524.0,-1.4321452379226685,-131,9961.0
8800,0.34193161129951477,-10.617424011230469,-178,6524.0,-3.5247628688812256,-352,9961.0
8810,0.34209442138671875,-11.991888999938965,-251,6524.0,-8.951949119567871,-78,9961.0
8820,0.3422253429889679,-11.264968872070312,-147,6524.0,-2.686469078063965,-117,9961.0
8830,0.34239593148231506,-9.084495544433594,-197,6524.0,-3.686734914779663,-157,9961.0
8840,0.34257787466049194,-7.599630355834961,-41,6524.0,-4.13128662109375,-19,9961.0
8850,0.3438018262386322,-5.606847286224365,30,6524.0,-2.4026379585266113,-75,9961.0
8860,0.34409579634666443,-5.223006248474121,-179,6524.0,4.038332462310791,-90,9961.0
8870,0.34440168738365173,-4.427277088165283,-121,6524.0,4.536298751831055,122,9961.0
8880,0.344755619764328,-0.5390588641166687,139,6524.0,-2.543321371078491,-1,9961.0
8890,0.3452104330062866,-1.987306833267212,-19,6524.0,-1.1722979545593262,-188,9961.0
8900,0.34554269909858704,0.16882039606571198,-76,6524.0,0.40650996565818787,-61,9961.0
8910,0.34586867690086365,0.2719282805919647,62,6524.0,-2.799382448196411,-49,9961.0
8920,0.3461920917034149,-0.30076342821121216,-20,6524.0,-0.1736438274383545,-45,9961.0
8930,0.34644436836242676,-0.7849707007408142,10,6524.0,-4.0615363121032715,35,9961.0
8940,0.3452049791812897,2.380730628967285,146,6524.0,-0.664426863193512,-65,9961.0
8950,0.3453887104988098,4.137218475341797,33,6524.0,-3.996678352355957,-115,9961.0
8960,0.3455737829208374,0.7053216695785522,-34,6524.0,-1.5059415102005005,59,9961.0
8970,0.34578442573547363,3.601407289505005,156,6524.0,2.2790334224700928,-9,9961.0
8980,0.3452852666378021,3.4498047828674316,32,6524.0,0.43546414375305176,-182,9961.0
8990,0.3455016016960144,-2.1734254360198975,-19,6524.0,0.09375590085983276,46,9961.0
9000,0.34569814801216125,-0.4165205657482147,10,6524.0,-1.496512770652771,-96,9961.0
9010,0.34586361050605774,-1.218944787979126,-162,6524.0,0.6046504974365234,-5,9961.0
9020,0.34600892663002014,-3.6788196563720703,45,6524.0,0.023899322375655174,116,9961.0
9030,0.3474150002002716,-1.1736739873886108,-28,6524.0,0.656637966632843,-166,9961.0
9040,0.34754452109336853,-1.0058661699295044,-132,6524.0,-1.6549344062805176,-25,9961.0
9050,0.3476684093475342,-1.3538362979888916,39,6524.0,3.142932653427124,63,9961.0
9060,0.34779390692710876,3.3820419311523438,20,6524.0,2.746936082839966,-65,9961.0
9070,0.3471594750881195,3.3350183963775635,136,6524.0,-1.3654186725616455,46,9961.0
9080,0.34721559286117554,5.488861083984375,13,6524.0,-0.1557406485080719,-18,9961.0
9090,0.34727761149406433,2.5852153301239014,-68,6524.0,-1.2493350505828857,104,9961.0
9100,0.34723907709121704,-3.464754819869995,155,6524.0,-1.6932533979415894,121,9961.0
9110,0.34753620624542236,-4.209226131439209,-72,6524.0,3.965097665786743,-150,9961.0
9120,0.347767174243927,-3.2262330055236816,-127,6524.0,-9.848093032836914,-312,9961.0
9130,0.34803506731987,-7.077378273010254,-77,6524.0,-1.6211786270141602,-101,9961.0
9140,0.34805378317832947,-11.57236099243164,-204,6524.0,-0.9379726052284241,-103,9961.0
9150,0.347983717918396,-11.457324981689453,-160,6524.0,-1.0057580471038818,163,9961.0
9160,0.3476582467556,-9.844888687133789,-56,6524.0,1.2052054405212402,-34,9961.0
9170,0.34766465425491333,-6.265603542327881,-132,6524.0,1.0765039920806885,-206,9961.0
9180,0.3476492166519165,-5.9658122062683105,-154,6524.0,4.260237693786621,24,9961.0
9190,0.3476628065109253,-4.815051555633545,94,6524.0,7.270727157592773,118,9961.0
9200,0.34747499227523804,-1.3263442516326904,28,6524.0,-0.13714605569839478,-156,9961.0
9210,0.34754589200019836,2.195448875427246,-100,6524.0,0.8409758806228638,12,9961.0
9220,0.34763553738594055,3.0872302055358887,96,6524.0,-1.659987449645996,-21,9961.0
9230,0.34772810339927673,2.514798641204834,-4,6524.0,-2.142798900604248,-233,9961.0
9240,0.34712159633636475,5.148610591888428,-4,6524.0,-3.389817237854004,43,9961.0
9250,0.3471658229827881,1.785743236541748,214,6524.0,-2.6424813270568848,80,9961.0
9260,0.3472082018852234,5.667883396148682,86,6524.0,-4.1369194984436035,-202,9961.0
9270,0.3472849428653717,-3.287097930908203,-166,6524.0,5.331188678741455,141,9961.0
9280,0.3473336398601532,-3.2712466716766357,1,6524.0,9.919368743896484,180,9961.0
9290,0.3472466468811035,-0.30530035495758057,-31,6524.0,8.193412780761719,46,9961.0
9300,0.34734079241752625,2.245460271835327,13,6524.0,7.111286163330078,176,9961.0
9310,0.34743213653564453,-0.25489500164985657,157,6524.0,5.991831302642822,175,9961.0
9320,0.3474183976650238,-2.260554552078247,-53,6524.0,-3.466740608215332,-252,9961.0
9330,0.34864866733551025,0.5609033107757568,-217,6524.0,-4.554249286651611,-20,9961.0
9340,0.3486514091491699,1.0904370546340942,145,6524.0,-5.545981407165527,22,9961.0
9350,0.3489089608192444,6.269901752471924,113,6524.0,-9.388014793395996,-205,9961.0
9360,0.34892144799232483,7.091166973114014,104,6524.0,-5.400816440582275,7,9961.0
9370,0.3492213487625122,3.390803813934326,154,6524.0,-1.9861817359924316,-29,9961.0
9380,0.34797239303588867,7.110257625579834,-13,6524.0,1.1712833642959595,-107,9961.0
9390,0.3482062518596649,7.790010929107666,146,6524.0,3.6330208778381348,293,9961.0
9400,0.3481909930706024,8.211952209472656,312,6524.0,3.4448933601379395,71,9961.0
9410,0.3484236001968384,6.097753047943115,42,6524.0,5.9772515296936035,63,9961.0
9420,0.34941041469573975,5.024894714355469,77,6524.0,5.416075229644775,180,9961.0
9430,0.3496287167072296,3.029405355453491,42,6524.0,5.488644599914551,-76,9961.0
9441,0.3496808409690857,1.9222708940505981,-142,6524.0,1.0643765926361084,-48,9961.0
9450,0.3497195243835449,0.9260414242744446,101,6524.0,-0.2672942280769348,134,9961.0
9460,0.3506549000740051,1.6604503393173218,34,6524.0,0.37913528084754944,-107,9961.0
9470,0.3506767153739929,3.889282464981079,-123,6524.0,-3.8941240310668945,-97,9961.0
9480,0.3507925570011139,0.35166579484939575,29,6524.0,-1.2076935768127441,65,9961.0
9490,0.35081174969673157,6.703028678894043,93,6524.0,4.084979057312012,42,9961.0
9500,0.3508371114730835,5.984100341796875,26,6524.0,6.390649318695068,196,9961.0
9510,0.34970223903656006,6.0206098556518555,179,6524.0,6.718979835510254,258,9961.0
9520,0.34960731863975525,-0.7909889221191406,-16,6524.0,7.0156025886535645,-39,9961.0
9530,0.34960296750068665,-1.2431851625442505,-168,6524.0,4.102513313293457,16,9961.0
9540,0.3496108055114746,-4.121212005615234,-9,6524.0,-2.90221905708313,93,9961.0
9550,0.3505508601665497,-5.778029918670654,-93,6524.0,-4.088718414306641,-103,9961.0
9560,0.3505558371543884,-6.3011298179626465,-128,6524.0,-4.996596336364746,-24,9961.0
9570,0.3505612909793854,-7.4949493408203125,6,6524.0,-5.087855339050293,39,9961.0
9580,0.35041478276252747,0.49299076199531555,-3,6524.0,-6.819602012634277,-310,9961.0
9590,0.3510119318962097,-0.9974544644355774,-282,6524.0,-3.8419127464294434,10,9961.0
9600,0.3508625328540802,-2.45455002784729,-6,6524.0,-4.607562065124512,85,9961.0
9610,0.35085776448249817,-2.704127311706543,153,6524.0,-4.033034801483154,-58,9961.0
9620,0.35077592730522156,-2.1056034564971924,-39,6524.0,4.986340045928955,-15,9961.0
9630,0.3507217764854431,1.0119521617889404,40,6524.0,4.114814281463623,171,9961.0
9640,0.35080865025520325,2.6839399337768555,166,6524.0,6.98032283782959,6,9961.0
9650,0.35076525807380676,2.5052545070648193,-103,6524.0,0.3888445496559143,-15,9961.0
9660,0.35073113441467285,0.5118383169174194,-10,6524.0,3.1151959896087646,144,9961.0
9670,0.3507276475429535,-4.289003849029541,136,6524.0,-1.1698853969573975,34,9961.0
9680,0.3512153625488281,-2.0145444869995117,-2,6524.0,-2.519097089767456,-107,9961.0
9690,0.35122907161712646,-0.047338228672742844,14,6524.0,-3.215777635574341,54,9961.0
9700,0.3512648344039917,1.266121506690979,-12,6524.0,-1.5995393991470337,-46,9961.0
9710,0.35131359100341797,3.3177337646484375,26,6524.0,-4.257687091827393,44,9961.0
9720,0.3513440191745758,2.9795889854431152,-44,6524.0,2.012979745864868,234,9961.0
9730,0.3516087234020233,4.92502498626709,162,6524.0,3.993600606918335,-30,9961.0
9740,0.3515862822532654,5.475830078125,-84,6524.0,2.727484703063965,-53,9961.0
9750,0.35151830315589905,3.082717180252075,70,6524.0,4.080111026763916,215,9961.0
9760,0.3514995872974396,1.4010908603668213,30,6524.0,-0.8345365524291992,-64,9961.0
9770,0.35279813408851624,-0.3678692877292633,-120,6524.0,-0.0291703213006258,91,9961.0
9780,0.35280826687812805,-1.0323079824447632,97,6524.0,-0.043417517095804214,116,9961.0
9790,0.35284388065338135,-5.113927364349365,-67,6524.0,1.4855728149414062,-142,9961.0
9800,0.3529200255870819,-2.275841236114502,-182,6524.0,-0.14117741584777832,63,9961.0
9810,0.351521760225296,-1.4131993055343628,-36,6524.0,2.300574779510498,90,9961.0
9820,0.35153454542160034,-2.1685779094696045,-16,6524.0,1.487432837486267,-117,9961.0
9830,0.3515569865703583,0.8893104791641235,-37,6524.0,1.8440287113189697,115,9961.0
9840,0.35158392786979675,4.271337032318115,185,6524.0,-1.2021311521530151,124,9961.0
9850,0.35160696506500244,0.6831178069114685,55,6524.0,-0.28524109721183777,-189,9961.0
9860,0.3521732985973358,4.409960746765137,-146,6524.0,-0.13614687323570251,85,9961.0
9870,0.35228559374809265,-2.92339825630188,23,6524.0,1.844114899635315,120,9961.0
9880,0.35244059562683105,-2.4384307861328125,-29,6524.0,-2.4502956867218018,-87,9961.0
9890,0.35258790850639343,-0.753182053565979,-36,6524.0,0.21762321889400482,33,9961.0
9900,0.35245373845100403,1.9898641109466553,109,6524.0,-3.7317914962768555,-14,9961.0
9910,0.3525920808315277,2.381819009780884,-45,6524.0,-2.971946954727173,-227,9961.0
9920,0.35271358489990234,0.7564568519592285,-91,6524.0,0.47494831681251526,172,9961.0
9930,0.3527877926826477,-0.45634281635284424,106,6524.0,-1.7111068964004517,26,9961.0
9940,0.3528481423854828,-3.8859899044036865,-47,6524.0,2.5363986492156982,-27,9961.0
9950,0.35256582498550415,-3.3407022953033447,-49,6524.0,3.0973567962646484,162,9961.0
9960,0.3525947630405426,0.15989989042282104,22,6524.0,0.1299399882555008,-71,9961.0
9970,0.3526324927806854,0.8303917646408081,-145,6524.0,0.9227093458175659,34,9961.0
9980,0.35271334648132324,-2.098756790161133,16,6524.0,1.8552350997924805,262,9961.0
9990,0.3524841070175171,-5.37082052230835,-26,6524.0,2.556692123413086,-51,9961.0
10000,0.35248735547065735,-5.05726432800293,-199,6524.0,4.103595733642578,69,9961.0
10010,0.35254520177841187,-4.941757678985596,-29,6524.0,0.3612637221813202,43,9961.0
10020,0.35261270403862,-5.967959403991699,-190,6524.0,0.4172021150588989,-160,9961.0
10030,0.35239893198013306,-2.0205156803131104,-96,6524.0,-3.27237868309021,77,9961.0
10040,0.35243141651153564,-5.144097328186035,127,6524.0,-2.3024709224700928,-49,9961.0
10050,0.35251331329345703,-2.736348867416382,-99,6524.0,1.3058123588562012,-119,9961.0
10060,0.35257646441459656,-3.3795838356018066,-98,6524.0,-1.3796807527542114,152,9961.0
10070,0.35261091589927673,-2.276106595993042,-10,6524.0,-1.4509366750717163,-37,9961.0
10080,0.3523711562156677,-1.604231834411621,-114,6524.0,1.2545912265777588,88,9961.0
10090,0.3524042069911957,-1.5761287212371826,58,6524.0,1.5472391843795776,152,9961.0
10100,0.35242772102355957,-1.0022732019424438,0,6524.0,3.7353813648223877,-183,9961.0
10110,0.35242587327957153,-4.108298301696777,-222,6524.0,3.738187074661255,175,9961.0
10120,0.3534230887889862,-5.012980937957764,5,6524.0,5.933908939361572,152,9961.0
10130,0.35351163148880005,-6.425699234008789,-116,6524.0,3.4207141399383545,-72,9961.0
10140,0.35365593433380127,-2.6256766319274902,-45,6524.0,-2.80285906791687,47,9961.0
10150,0.35376158356666565,-3.3857877254486084,56,6524.0,-4.0030598640441895,-105,9961.0
10160,0.3538609445095062,0.898129403591156,91,6524.0,-5.931876182556152,-232,9961.0
10170,0.35519081354141235,-0.4812077283859253,7,6524.0,-4.803586483001709,154,9961.0
10180,0.3553217947483063,-0.5171392560005188,202,6524.0,-1.495815396308899,-101,9961.0
10190,0.355503112077713,-3.0244061946868896,-44,6524.0,-2.4031472206115723,-84,9961.0
10200,0.3556397259235382,4.264008045196533,22,6524.0,2.6083624362945557,84,9961.0
10210,0.3558417856693268,1.548382043838501,40,6524.0,4.5945210456848145,16,9961.0
10220,0.35591375827789307,0.748231053352356,-65,6524.0,1.9621349573135376,133,9961.0
10230,0.3559938669204712,1.6675935983657837,138,6524.0,6.855172157287598,186,9961.0
10240,0.3561069667339325,0.9140806794166565,-77,6524.0,3.855426073074341,-146,9961.0
10250,0.3549751043319702,0.215855672955513,-90,6524.0,0.5857000350952148,183,9961.0
10260,0.35495537519454956,-0.8104255795478821,111,6524.0,6.652779579162598,-46,9961.0
10270,0.354916512966156,-2.2905938625335693,-83,6524.0,-7.289650917053223,-191,9961.0
10280,0.35477012395858765,-7.880195140838623,-66,6524.0,-5.47800350189209,-102,9961.0
10290,0.35494673252105713,-4.868733882904053,-59,6524.0,-7.280699253082275,-177,9961.0
10300,0.35572484135627747,-2.8562004566192627,-114,6524.0,-11.45539379119873,-143,9961.0
10310,0.3556666672229767,1.3944122791290283,122,6524.0,-14.19618034362793,-267,9961.0
10320,0.35559043288230896,-1.4129031896591187,-15,6524.0,-3.9911274909973145,-40,9961.0
10330,0.35552656650543213,-0.5577556490898132,-2,6524.0,1.5604337453842163,234,9961.0
10340,0.35529208183288574,-9.31950569152832,-24,6524.0,2.4670228958129883,33,9961.0
10350,0.35526156425476074,-4.575472354888916,-143,6524.0,4.686633586883545,161,9961.0
10360,0.35523203015327454,-4.020759105682373,39,6524.0,4.672237873077393,102,9961.0
10370,0.355187326669693,-1.9723368883132935,-108,6524.0,5.252799987792969,-22,9961.0
10380,0.35524657368659973,-3.110189199447632,-92,6524.0,2.762479066848755,273,9961.0
10390,0.3563583791255951,-5.05739688873291,117,6524.0,2.668301582336426,37,9961.0
10400,0.35646793246269226,-5.534084796905518,-155,6524.0,-4.724294662475586,-456,9961.0
10410,0.35656100511550903,0.3945532441139221,-107,6524.0,-7.19673490524292,-125,9961.0
10420,0.35663652420043945,-2.3265457153320312,68,6524.0,-8.234759330749512,-44,9961.0
10430,0.3552797734737396,2.327697515487671,4,6524.0,-8.213729858398438,-148,9961.0
10440,0.3551883399486542,2.2293648719787598,87,6524.0,-4.5012078285217285,87,9961.0
10450,0.3551023602485657,5.583399295806885,120,6524.0,-4.509722709655762,-192,9961.0
10460,0.3549765944480896,8.875651359558105,-26,6524.0,-3.742642879486084,-44,9961.0
10470,0.3571305572986603,6.237976551055908,244,6524.0,1.632993221282959,195,9961.0
10480,0.35714098811149597,5.8356523513793945,69,6524.0,3.4305107593536377,-71,9961.0
10490,0.3571511507034302,0.3527895510196686,-81,6524.0,7.2047600746154785,89,9961.0
10500,0.3571993410587311,1.1806176900863647,78,6524.0,-0.34598308801651,-35,9961.0
10510,0.35724252462387085,1.0693391561508179,-37,6524.0,-0.43890562653541565,-70,9961.0
10520,0.3575421869754791,2.178673505783081,27,6524.0,-1.3166595697402954,119,9961.0
10530,0.3575429320335388,2.711937189102173,216,6524.0,-2.588170051574707,-133,9961.0
10540,0.3576326072216034,5.926951885223389,-72,6524.0,-5.781506538391113,-210,9961.0
10550,0.3576616644859314,3.319789171218872,58,6524.0,-9.45072078704834,128,9961.0
10560,0.358953595161438,3.351733446121216,90,6524.0,-4.337383270263672,-93,9961.0
10570,0.35903504490852356,4.37961483001709,20,6524.0,-1.33249831199646,-32,9961.0
10580,0.35914114117622375,5.096689701080322,162,6524.0,-1.372420310974121,-70,9961.0
10590,0.35922643542289734,5.807341575622559,65,6524.0,-0.47198984026908875,-168,9961.0
10600,0.36067575216293335,6.983942985534668,93,6524.0,-4.779300689697266,84,9961.0
10610,0.360860139131546,3.076531410217285,211,6524.0,-3.252924680709839,-68,9961.0
10620,0.36104604601860046,2.277074098587036,-196,6524.0,0.31702983379364014,-64,9961.0
10630,0.3611806333065033,0.7547855973243713,13,6524.0,1.5917102098464966,100,9961.0
10640,0.361403226852417,-1.999576449394226,45,6524.0,1.272596836090088,-9,9961.0
10650,0.36133095622062683,2.918536901473999,15,6524.0,0.5019539594650269,-2,9961.0
10660,0.3615226447582245,4.311795234680176,181,6524.0,4.6288251876831055,58,9961.0
10670,0.3616710603237152,8.083662033081055,60,6524.0,-0.4848904013633728,-71,9961.0
10680,0.36179259419441223,4.865279674530029,107,6524.0,-2.2232484817504883,160,9961.0
10690,0.3623286187648773,7.588354587554932,177,6524.0,-1.5810683965682983,-132,9961.0
10700,0.3624348044395447,8.376653671264648,12,6524.0,-2.617568254470825,-84,9961.0
10710,0.3624742925167084,2.8676955699920654,118,6524.0,-0.21088974177837372,188,9961.0
10720,0.36253735423088074,3.987635374069214,36,6524.0,3.1647427082061768,-26,9961.0
10730,0.36257416009902954,5.53763484954834,117,6524.0,1.7877188920974731,133,9961.0
10740,0.3627658188343048,7.360358715057373,184,6524.0,-0.8775695562362671,-137,9961.0
10750,0.3627696633338928,5.84345817565918,-32,6524.0,3.0997023582458496,-17,9961.0
10760,0.36275994777679443,3.6572132110595703,79,6524.0,5.019083499908447,163,9961.0
10770,0.3627428412437439,2.6126534938812256,56,6524.0,5.630080223083496,-104,9961.0
10780,0.36358723044395447,0.9954976439476013,-18,6524.0,7.501708984375,146,9961.0
10790,0.36356180906295776,0.9131795763969421,31,6524.0,6.189994812011719,106,9961.0
10800,0.36355361342430115,-0.34755125641822815,-74,6524.0,4.672184944152832,67,9961.0
10811,0.36347684264183044,-0.8548649549484253,80,6524.0,-0.9900091886520386,152,9961.0
10821,0.3635973036289215,2.0366857051849365,56,6524.0,-6.647618770599365,-218,9961.0
10830,0.3634650409221649,3.2188518047332764,-84,6524.0,-4.629896640777588,75,9961.0
10840,0.3633960783481598,2.0927021503448486,183,6524.0,7.666701316833496,91,9961.0
10850,0.36326485872268677,5.699363708496094,50,6524.0,5.600149631500244,35,9961.0
10861,0.3631441295146942,4.161649227142334,87,6524.0,6.379768371582031,214,9961.0
10870,0.3637618124485016,5.9473652839660645,51,6524.0,3.0564935207366943,-27,9961.0
10880,0.36359500885009766,3.389371871948242,-26,6524.0,8.621705055236816,94,9961.0
10890,0.36346787214279175,2.2991280555725098,82,6524.0,4.629178047180176,197,9961.0
10900,0.3633521795272827,4.0605998039245605,-108,6524.0,4.792616367340088,-153,9961.0
10910,0.3627353310585022,0.4181891977787018,87,6524.0,6.497872829437256,127,9961.0
10920,0.3625677824020386,1.8483250141143799,70,6524.0,-0.016651341691613197,67,9961.0
10930,0.3624380826950073,-0.29933497309684753,-22,6524.0,1.6398295164108276,-12,9961.0
10940,0.3623132109642029,-0.18465574085712433,44,6524.0,2.9788551330566406,-6,9961.0
10950,0.3621852695941925,-0.31223270297050476,1,6524.0,-0.07870004326105118,-186,9961.0
10960,0.36242422461509705,1.9848560094833374,12,6524.0,-2.2751028537750244,81,9961.0
10970,0.3623213768005371,2.221273183822632,178,6524.0,-3.528745174407959,-22,9961.0
10980,0.3621986508369446,2.564944267272949,-44,6524.0,4.37891960144043,-242,9961.0
10990,0.3620690107345581,-0.2924647927284241,-103,6524.0,-1.1122170686721802,117,9961.0
11000,0.36234599351882935,-1.6092697381973267,96,6524.0,-3.3026978969573975,-44,9961.0
11010,0.3622593581676483,-2.1499814987182617,-29,6524.0,-0.021788522601127625,11,9961.0
11020,0.3621819317340851,-2.7508373260498047,-27,6524.0,1.848396897315979,126,9961.0
11030,0.36213529109954834,-2.5383059978485107,-11,6524.0,-0.8153246641159058,-77,9961.0
11040,0.3624270558357239,-1.0609790086746216,-156,6524.0,-1.2620964050292969,-48,9961.0
11050,0.3624092936515808,-1.8002278804779053,0,6524.0,1.7582249641418457,303,9961.0
11060,0.36238616704940796,2.0823190212249756,130,6524.0,2.046751022338867,-113,9961.0
11070,0.3623921871185303,3.0427920818328857,-43,6524.0,0.46262165904045105,-74,9961.0
11080,0.3624224364757538,2.7810988426208496,78,6524.0,1.582141399383545,26,9961.0
11090,0.3618547320365906,1.4051741361618042,2,6524.0,-1.3800212144851685,-105,9961.0
11100,0.36180850863456726,-2.2521698474884033,-132,6524.0,-0.302513986825943,33,9961.0
11110,0.3617693781852722,-3.8462624549865723,81,6524.0,-3.6886138916015625,28,9961.0
11120,0.36170464754104614,-5.248336315155029,-101,6524.0,-3.2854526042938232,-299,9961.0
11130,0.3617230951786041,-6.083536148071289,-212,6524.0,-4.498998641967773,19,9961.0
11140,0.36157020926475525,-6.244256019592285,-57,6524.0,3.3104114532470703,-2,9961.0
11150,0.3614310026168823,-3.652913808822632,-103,6524.0,2.7654614448547363,14,9961.0
11160,0.3612484037876129,2.4363934993743896,72,6524.0,0.8887715935707092,253,9961.0
11170,0.3610612750053406,-4.417670249938965,23,6524.0,4.426662921905518,88,9961.0
11180,0.35968875885009766,-5.701540946960449,-277,6524.0,10.30167007446289,31,9961.0
11190,0.35950279235839844,0.8625013828277588,-34,6524.0,7.342761516571045,253,9961.0
11200,0.35924839973449707,-0.3341587781906128,14,6524.0,3.8312888145446777,6,9961.0
11210,0.3589421510696411,-0.47886261343955994,-39,6524.0,-0.2393992692232132,32,9961.0
11220,0.35961389541625977,-3.2866036891937256,19,6524.0,-1.3417603969573975,24,9961.0
11230,0.359380304813385,-0.4406614899635315,-35,6524.0,-2.6127119064331055,-169,9961.0
11240,0.3591323792934418,-0.6608034372329712,-199,6524.0,-2.084462881088257,79,9961.0
11250,0.35888805985450745,0.15465055406093597,-25,6524.0,-6.581392765045166,-72,9961.0
11261,0.35877344012260437,-4.637631416320801,96,6524.0,-7.023906707763672,-300,9961.0
11270,0.3584551215171814,-4.129247188568115,-171,6524.0,-4.019873142242432,103,9961.0
11280,0.35811367630958557,-2.819458246231079,40,6524.0,1.5077173709869385,91,9961.0
11290,0.35780617594718933,-0.11450627446174622,-152,6524.0,2.0366790294647217,-64,9961.0
11300,0.3575127124786377,-0.27151158452033997,-74,6524.0,1.0682095289230347,211,9961.0
11310,0.3579496741294861,-3.7081820964813232,179,6524.0,6.393881320953369,250,9961.0
11320,0.3577663004398346,-0.27390527725219727,-9,6524.0,4.782841682434082,8,9961.0
11330,0.35759854316711426,-1.3016210794448853,-14,6524.0,4.540515899658203,109,9961.0
11340,0.3573981821537018,-0.711033821105957,68,6524.0,-1.515349268913269,-81,9961.0
11350,0.35865285992622375,-1.5895010232925415,-224,6524.0,-0.6870943307876587,-179,9961.0
11361,0.3585338890552521,-1.3706114292144775,-25,6524.0,2.546729326248169,93,9961.0
11370,0.3584207594394684,-4.9391303062438965,56,6524.0,-9.758294105529785,-68,9961.0
11380,0.3583168685436249,-3.90096116065979,-127,6524.0,-6.154374599456787,-60,9961.0
11390,0.35828840732574463,-2.863429307937622,13,6524.0,-1.8815470933914185,105,9961.0
11400,0.3581402897834778,-3.526127338409424,-32,6524.0,-1.2408132553100586,-196,9961.0
11410,0.3581496775150299,-1.8560872077941895,-308,6524.0,-3.770636796951294,40,9961.0
11420,0.3581974506378174,-5.817929744720459,12,6524.0,0.9146705865859985,117,9961.0
11430,0.3582466244697571,-2.0411429405212402,-54,6524.0,3.871105909347534,53,9961.0
11440,0.3589673936367035,-1.4249284267425537,-30,6524.0,5.931060314178467,172,9961.0
11450,0.35895130038261414,1.434694766998291,183,6524.0,-0.19905732572078705,21,9961.0
11460,0.358912855386734,-0.1910761445760727,-166,6524.0,0.6103672385215759,-431,9961.0
11470,0.35886505246162415,-5.219583511352539,-98,6524.0,-1.1416815519332886,-61,9961.0
11481,0.35925909876823425,0.6812936067581177,126,6524.0,-12.01050853729248,-155,9961.0
11490,0.35918962955474854,1.9125844240188599,-32,6524.0,-11.24854850769043,-222,9961.0
11500,0.35915738344192505,0.3827686905860901,105,6524.0,-11.094135284423828,-79,9961.0
11510,0.3591308295726776,-0.3454506993293762,-10,6524.0,-4.843570709228516,-107,9961.0
11520,0.3591364324092865,-2.7873218059539795,-91,6524.0,-8.655829429626465,-20,9961.0
11530,0.35907453298568726,-3.6042988300323486,-20,6524.0,0.9351659417152405,-73,9961.0
11540,0.35911625623703003,-2.34023118019104,-59,6524.0,2.9040162563323975,215,9961.0
11550,0.3591900169849396,-3.4027597904205322,74,6524.0,5.172615051269531,147,9961.0
11560,0.359229177236557,-0.07838524878025055,-90,6524.0,12.338191986083984,52,9961.0
11570,0.361461341381073,-2.502659320831299,-93,6524.0,9.372243881225586,280,9961.0
11580,0.36162349581718445,-5.7513041496276855,-105,6524.0,6.272044658660889,-46,9961.0
11590,0.3618006408214569,-3.8658249378204346,-156,6524.0,0.6083750128746033,18,9961.0
11600,0.36197906732559204,-8.077376365661621,99,6524.0,-2.4889602661132812,-9,9961.0
11610,0.3621889352798462,-8.300841331481934,-137,6524.0,0.5159269571304321,-261,9961.0
11620,0.36073821783065796,-6.594857215881348,-135,6524.0,-7.859106063842773,-70,9961.0
11630,0.3608449399471283,-1.19182550907135,69,6524.0,-3.089510440826416,-127,9961.0
11640,0.3608706295490265,1.3820359706878662,-67,6524.0,-3.4240739345550537,-53,9961.0
11650,0.3608776926994324,4.027350902557373,150,6524.0,-3.0004429817199707,118,9961.0
11660,0.3605403006076813,3.2660045623779297,106,6524.0,2.3280961513519287,-183,9961.0
11670,0.36048415303230286,4.507401466369629,-114,6524.0,1.5748602151870728,104,9961.0
11680,0.3603498339653015,4.32934045791626,194,6524.0,2.8393945693969727,97,9961.0
11690,0.3601597547531128,1.9325346946716309,41,6524.0,1.1094619035720825,45,9961.0
11700,0.3604090213775635,2.674647092819214,106,6524.0,0.6346065998077393,31,9961.0
11710,0.36023199558258057,3.177504777908325,61,6524.0,2.595215082168579,-179,9961.0
11720,0.3599843382835388,-2.2249317169189453,-191,6524.0,-5.09561014175415,-27,9961.0
11730,0.35973894596099854,2.1444361209869385,132,6524.0,-4.684129238128662,58,9961.0
11740,0.35944247245788574,-1.7542849779129028,-52,6524.0,1.604254126548767,-39,9961.0
11750,0.35946741700172424,0.6931169629096985,62,6524.0,-0.31552034616470337,131,9961.0
11760,0.3591552972793579,-1.3070833683013916,-12,6524.0,4.752189636230469,-101,9961.0
11770,0.35887062549591064,0.11170392483472824,-192,6524.0,6.29592752456665,64,9961.0
11780,0.35860657691955566,-2.442139148712158,90,6524.0,6.689188480377197,126,9961.0
11790,0.35786259174346924,-2.4022433757781982,-25,6524.0,0.5577858090400696,-151,9961.0
11800,0.3576113283634186,-1.9738625288009644,-59,6524.0,-3.3507795333862305,-65,9961.0
11810,0.3573492467403412,-0.73454350233078,-34,6524.0,-5.516580104827881,-113,9961.0
11820,0.3570996820926666,-1.7478127479553223,-106,6524.0,-6.981277942657471,-118,9961.0
11830,0.3568248152732849,2.0330543518066406,73,6524.0,-3.4435267448425293,131,9961.0
11840,0.3558025062084198,2.5002686977386475,108,6524.0,-4.346226215362549,-167,9961.0
11850,0.3554997444152832,2.579583168029785,-151,6524.0,3.048142433166504,-19,9961.0
11860,0.3552437424659729,1.7659658193588257,102,6524.0,2.848702907562256,109,9961.0
11870,0.35498833656311035,4.116479396820068,51,6524.0,3.1912381649017334,13,9961.0
11880,0.3560006320476532,3.757882833480835,26,6524.0,1.5438024997711182,137,9961.0
11890,0.3558093309402466,4.002708911895752,192,6524.0,0.7689543962478638,-15,9961.0
11900,0.35566484928131104,0.621899425983429,-91,6524.0,0.3821352422237396,-220,9961.0
11910,0.3555605113506317,-2.769157886505127,-62,6524.0,2.0570085048675537,218,9961.0
11921,0.3560749590396881,-3.8474178314208984,124,6524.0,-4.191152095794678,-122,9961.0
11930,0.3560371994972229,-3.789102792739868,-102,6524.0,-2.225752592086792,-89,9961.0
11940,0.3560103476047516,1.607946753501892,-29,6524.0,-4.440242767333984,60,9961.0
11950,0.3559786379337311,-1.0069199800491333,-3,6524.0,-2.112593650817871,-115,9961.0
11960,0.35594797134399414,-0.2657092809677124,-89,6524.0,-2.6749632358551025,93,9961.0
11970,0.355974942445755,0.473699688911438,136,6524.0,1.5043785572052002,133,9961.0
11980,0.3559935688972473,1.690922737121582,-48,6524.0,1.876226782798767,-159,9961.0
11990,0.35603129863739014,0.6199219226837158,-46,6524.0,3.151305913925171,174,9961.0
12000,0.35609784722328186,0.8820196986198425,124,6524.0,6.737007141113281,103,9961.0
12010,0.3561272621154785,-0.9966579079627991,-66,6524.0,5.949575424194336,17,9961.0
12020,0.3562125861644745,-1.212095022201538,9,6524.0,4.540827751159668,126,9961.0
12030,0.35629698634147644,-0.8531696200370789,-49,6524.0,0.3355199992656708,-145,9961.0
12040,0.3564075827598572,-0.40040430426597595,-140,6524.0,-4.970491886138916,-18,9961.0
12050,0.35654786229133606,-1.5716623067855835,119,6524.0,-3.2137575149536133,-26,9961.0
12060,0.3556612432003021,-2.356494665145874,-127,6524.0,-4.530038833618164,-285,9961.0
12070,0.3557681739330292,-7.8976006507873535,-87,6524.0,-0.04871682450175285,21,9961.0
12080,0.3558817505836487,-3.262345552444458,40,6524.0,3.596872091293335,6,9961.0
12090,0.3560352623462677,-3.2979469299316406,-89,6524.0,-1.1823179721832275,25,9961.0
12100,0.3552558124065399,-0.10602403432130814,6,6524.0,0.19796179234981537,116,9961.0
12110,0.35521838068962097,1.3242924213409424,27,6524.0,0.5588911771774292,-77,9961.0
12120,0.35516342520713806,2.8754069805145264,43,6524.0,2.977510452270508,148,9961.0
12130,0.35512325167655945,4.483326435089111,202,6524.0,-0.12078645825386047,-68,9961.0
12141,0.35466521978378296,6.1304450035095215,-21,6524.0,0.6573262214660645,-100,9961.0
12150,0.354624480009079,6.075507164001465,107,6524.0,-2.3561649322509766,87,9961.0
12160,0.35460931062698364,5.727786540985107,-68,6524.0,1.805400013923645,-90,9961.0
12170,0.3546102046966553,5.999791145324707,91,6524.0,-0.9360535144805908,117,9961.0
12180,0.3546346426010132,4.409245491027832,57,6524.0,3.511784553527832,-16,9961.0
12190,0.3559468984603882,1.7571967840194702,46,6524.0,4.095730304718018,190,9961.0
12200,0.3560176491737366,0.001462371670641005,87,6524.0,3.8990306854248047,5,9961.0
12210,0.356110543012619,0.3141466975212097,-167,6524.0,7.107369422912598,59,9961.0
12221,0.3561888039112091,-3.09287428855896,44,6524.0,8.228707313537598,327,9961.0
12230,0.3576764762401581,-2.4043734073638916,-13,6524.0,9.57093620300293,2,9961.0
12240,0.3577689230442047,-0.8734786510467529,-30,6524.0,10.097134590148926,125,9961.0
12250,0.35793012380599976,-0.6907403469085693,29,6524.0,8.118969917297363,89,9961.0
12260,0.3580538332462311,1.2782264947891235,-37,6524.0,4.547244071960449,33,9961.0
12270,0.358232319355011,1.2728166580200195,93,6524.0,-3.7550101280212402,48,9961.0
12280,0.35829538106918335,3.5714728832244873,8,6524.0,-6.519347190856934,-290,9961.0
12290,0.3584718108177185,1.5010675191879272,-81,6524.0,-6.928848743438721,-26,9961.0
12300,0.3586575388908386,-1.8068495988845825,127,6524.0,-4.8744893074035645,-57,9961.0
12310,0.3588067591190338,0.19060206413269043,-160,6524.0,-5.271067142486572,-209,9961.0
12320,0.3593755066394806,-2.318075180053711,-16,6524.0,0.34156668186187744,56,9961.0
12330,0.3596089780330658,0.44336000084877014,-20,6524.0,0.9406231045722961,-14,9961.0
12340,0.359828382730484,1.4733330011367798,67,6524.0,3.5547800064086914,169,9961.0
12350,0.3600269556045532,2.155211925506592,92,6524.0,2.5025105476379395,-91,9961.0
12360,0.36164385080337524,3.4521596431732178,-104,6524.0,2.0465128421783447,112,9961.0
12370,0.3619360327720642,3.101954936981201,221,6524.0,1.5550851821899414,81,9961.0
12380,0.36219850182533264,4.657582759857178,4,6524.0,-4.771871089935303,-183,9961.0
12390,0.3624461591243744,2.960643768310547,2,6524.0,-5.052090167999268,50,9961.0
12400,0.3626525402069092,1.3338623046875,8,6524.0,-5.1202921867370605,-160,9961.0
12410,0.36373817920684814,-0.771369457244873,26,6524.0,-4.391345024108887,56,9961.0
12420,0.36393848061561584,-2.030592679977417,14,6524.0,-3.543976068496704,-296,9961.0
12430,0.3641799986362457,-2.2059719562530518,-120,6524.0,-7.1556220054626465,83,9961.0
12440,0.36442863941192627,-5.043156623840332,52,6524.0,-4.098488807678223,-85,9961.0
12450,0.3651539087295532,-2.257028818130493,-43,6524.0,-4.095241546630859,-85,9961.0
12460,0.3653327524662018,-1.3912321329116821,27,6524.0,0.4524889290332794,-34,9961.0
12470,0.36547228693962097,1.9340550899505615,-82,6524.0,3.3141939640045166,125,9961.0
12480,0.3656247854232788,3.0264298915863037,217,6524.0,3.1735963821411133,140,9961.0
12490,0.3657648265361786,4.646773815155029,-38,6524.0,2.2166850566864014,-45,9961.0
12500,0.36556923389434814,4.573334217071533,62,6524.0,2.5425143241882324,128,9961.0
12510,0.36561477184295654,4.154694080352783,74,6524.0,1.073781132698059,-65,9961.0
12520,0.3655993640422821,2.6441779136657715,99,6524.0,-2.576672315597534,8,9961.0
12530,0.3655849099159241,3.412734031677246,2,6524.0,-8.093391418457031,-294,9961.0
12541,0.3653414845466614,3.1138525009155273,47,6524.0,-3.066864490509033,59,9961.0
12550,0.3652956783771515,-1.9147604703903198,3,6524.0,-3.835191249847412,-192,9961.0
12560,0.36524295806884766,-3.7821836471557617,-42,6524.0,-4.84574556350708,-21,9961.0
12570,0.3651411533355713,-1.8958492279052734,-21,6524.0,-2.867330312728882,-180,9961.0
12580,0.36458495259284973,-3.260530471801758,-65,6524.0,-0.889992356300354,151,9961.0
12590,0.3643167018890381,-2.4056990146636963,43,6524.0,1.058780312538147,-15,9961.0
12600,0.3639678955078125,-4.928196430206299,-113,6524.0,-0.19747769832611084,102,9961.0
12610,0.3637787699699402,-6.750784397125244,-127,6524.0,-1.326291561126709,-154,9961.0
12620,0.3635331988334656,-9.1349515914917,-220,6524.0,-3.7471141815185547,167,9961.0
12630,0.3626548945903778,-13.145377159118652,-94,6524.0,-5.884306907653809,-178,9961.0
12640,0.3622865676879883,-12.553557395935059,-236,6524.0,-7.663818836212158,-138,9961.0
12650,0.36189699172973633,-11.470433235168457,-197,6524.0,-7.039198398590088,-231,9961.0
12660,0.3614816963672638,-13.088541030883789,-300,6524.0,-8.4509859085083,17,9961.0
12670,0.3619256317615509,-9.108838081359863,45,6524.0,-9.710002899169922,-131,9961.0
12680,0.3616297245025635,-10.367422103881836,-209,6524.0,-10.361945152282715,-108,9961.0
12690,0.361287385225296,-6.761907577514648,-43,6524.0,-0.49167266488075256,93,9961.0
12700,0.3609590232372284,-2.9426567554473877,-99,6524.0,-1.08234441280365,37,9961.0
12710,0.3605995774269104,0.7995046973228455,146,6524.0,3.7030539512634277,168,9961.0
12720,0.3595633804798126,3.3461828231811523,-38,6524.0,2.235412359237671,-49,9961.0
12730,0.3591917157173157,0.5100507140159607,-12,6524.0,7.3452887535095215,218,9961.0
12740,0.3588655889034271,0.06687010079622269,-27,6524.0,10.892570495605469,91,9961.0
12750,0.3585584759712219,-1.7473618984222412,-14,6524.0,9.214653968811035,352,9961.0
12760,0.3593871295452118,-2.9869441986083984,14,6524.0,6.783233642578125,48,9961.0
12770,0.3591562807559967,-6.09370756149292,-216,6524.0,4.683872222900391,-51,9961.0
12780,0.358935683965683,-3.0547916889190674,5,6524.0,-1.9597190618515015,-58,9961.0
12790,0.3587919771671295,-3.043468952178955,-28,6524.0,-4.648196697235107,-52,9961.0
12800,0.3591778576374054,-1.9310636520385742,57,6524.0,-7.6166791915893555,-224,9961.0
12810,0.3590884506702423,-0.21104314923286438,-183,6524.0,-4.50625467300415,-21,9961.0
12820,0.3590427339076996,-1.3182612657546997,83,6524.0,-1.9935165643692017,88,9961.0
12830,0.35904428362846375,-1.1353144645690918,-71,6524.0,1.778760313987732,-63,9961.0
12840,0.35912981629371643,0.5853243470191956,29,6524.0,6.695446491241455,160,9961.0
12850,0.35915607213974,2.834697723388672,24,6524.0,6.079928398132324,-97,9961.0
12860,0.3593287467956543,3.442986249923706,68,6524.0,5.053282260894775,242,9961.0
12870,0.3594667613506317,1.414785623550415,97,6524.0,9.196288108825684,-71,9961.0
12880,0.35965603590011597,2.7914066314697266,-106,6524.0,2.7761993408203125,20,9961.0
12890,0.35991573333740234,-0.6058007478713989,62,6524.0,-0.8685396313667297,1,9961.0
12900,0.36017611622810364,-1.7173432111740112,-64,6524.0,-4.269114017486572,-103,9961.0
12910,0.3604351878166199,-0.23493808507919312,49,6524.0,-8.304594993591309,-51,9961.0
12920,0.3606664538383484,1.1262562274932861,-67,6524.0,-5.697404861450195,-287,9961.0
12930,0.36129629611968994,1.6241816282272339,15,6524.0,-8.48629093170166,121,9961.0
12940,0.3615841865539551,2.099379062652588,99,6524.0,-1.0256884098052979,-132,9961.0
12950,0.36190319061279297,5.053781509399414,15,6524.0,-3.6890740394592285,-12,9961.0
12960,0.362178236246109,2.4866702556610107,84,6524.0,0.027293089777231216,-55,9961.0
12970,0.36238548159599304,3.14078950881958,-12,6524.0,2.9962661266326904,212,9961.0
12980,0.3615805506706238,1.5174223184585571,165,6524.0,2.2282800674438477,-42,9961.0
12990,0.3617323637008667,3.6958792209625244,-80,6524.0,1.409829020500183,-60,9961.0
13000,0.36187848448753357,1.4744417667388916,127,6524.0,-0.21142202615737915,85,9961.0
13010,0.36197707056999207,0.9413788318634033,35,6524.0,4.8038105964660645,-67,9961.0
13020,0.3616204559803009,2.387882947921753,40,6524.0,5.531984806060791,159,9961.0
13030,0.3615950644016266,4.938986301422119,70,6524.0,6.913788795471191,63,9961.0
13040,0.3615783452987671,8.030477523803711,158,6524.0,6.785367488861084,299,9961.0
13050,0.36155539751052856,7.101076602935791,206,6524.0,7.148200988769531,-15,9961.0
13060,0.36149275302886963,6.209179401397705,-89,6524.0,3.0178868770599365,38,9961.0
13070,0.3608287274837494,4.913790225982666,252,6524.0,7.4764404296875,86,9961.0
13080,0.3606421649456024,7.939427852630615,37,6524.0,7.540806293487549,-114,9961.0
13090,0.3605201542377472,8.838929176330566,79,6524.0,-0.009262497536838055,113,9961.0
13100,0.36032408475875854,6.593445301055908,131,6524.0,-1.1790285110473633,-42,9961.0
13110,0.3604073226451874,5.938018798828125,48,6524.0,-0.7093188166618347,31,9961.0
13120,0.36022162437438965,6.712679862976074,169,6524.0,-2.568505048751831,-169,9961.0
13130,0.3600117862224579,9.269536018371582,42,6524.0,-4.656796455383301,58,9961.0
13140,0.35979610681533813,6.8356451988220215,276,6524.0,-3.3304970264434814,8,9961.0
13150,0.3598017394542694,5.096927165985107,-48,6524.0,-5.865274429321289,-149,9961.0
13160,0.3595971167087555,6.0557637214660645,132,6524.0,-3.6466329097747803,81,9961.0
13170,0.3593628406524658,4.515858173370361,73,6524.0,2.35269832611084,-24,9961.0
13180,0.3591481149196625,2.076575756072998,58,6524.0,3.873723268508911,105,9961.0
13190,0.3589266538619995,0.598781406879425,-56,6524.0,5.078256607055664,-97,9961.0
13200,0.35956403613090515,-0.9224756956100464,5,6524.0,3.236377000808716,264,9961.0
13210,0.35940974950790405,-3.6173129081726074,2,6524.0,7.224818229675293,-106,9961.0
13220,0.3592509627342224,-3.1302428245544434,-221,6524.0,5.7757062911987305,169,9961.0
13230,0.35911428928375244,-3.177765130996704,58,6524.0,-6.093675136566162,38,9961.0
13240,0.36019420623779297,-2.059783458709717,-106,6524.0,-5.5621747970581055,-113,9961.0
13250,0.3601367473602295,-2.0447797775268555,-26,6524.0,-8.060674667358398,-53,9961.0
13260,0.3603392243385315,0.20946335792541504,-44,6524.0,-8.989896774291992,-145,9961.0
13270,0.3602955639362335,1.2314479351043701,90,6524.0,-4.6184539794921875,50,9961.0
13280,0.360398530960083,0.45980438590049744,37,6524.0,-1.9978649616241455,-129,9961.0
13290,0.36169540882110596,0.10347295552492142,-104,6524.0,0.014102157205343246,82,9961.0
13300,0.3619038164615631,-0.12724386155605316,131,6524.0,6.089417457580566,70,9961.0
13310,0.3622181713581085,3.343322277069092,-22,6524.0,2.906085729598999,-38,9961.0
13320,0.3624931573867798,4.040741920471191,100,6524.0,7.068631649017334,55,9961.0
13330,0.36207517981529236,3.741544723510742,10,6524.0,2.808333158493042,27,9961.0
13340,0.3623413145542145,4.331086158752441,135,6524.0,-0.9045222997665405,65,9961.0
13350,0.3626340925693512,1.5154550075531006,-57,6524.0,-0.2624310255050659,-160,9961.0
13360,0.3629149794578552,2.5870511531829834,17,6524.0,-5.117264747619629,79,9961.0
13370,0.36316823959350586,0.6730804443359375,42,6524.0,-5.826667785644531,-116,9961.0
13380,0.36368247866630554,0.8679413795471191,-111,6524.0,0.48285749554634094,127,9961.0
13390,0.3638809621334076,0.1974712759256363,4,6524.0,3.425506830215454,31,9961.0
13401,0.36407315731048584,1.1140086650848389,-12,6524.0,2.7243340015411377,172,9961.0
13410,0.36424896121025085,1.7529726028442383,25,6524.0,3.3750689029693604,26,9961.0
13420,0.36351022124290466,0.7543452382087708,-17,6524.0,3.194145917892456,81,9961.0
13430,0.36356282234191895,-1.435462474822998,19,6524.0,3.47786545753479,-25,9961.0
13440,0.36359837651252747,-0.3664350211620331,-154,6524.0,6.183294773101807,155,9961.0
13450,0.3636479377746582,-2.3500559329986572,102,6524.0,1.3843742609024048,39,9961.0
13460,0.36262351274490356,-2.296860694885254,-156,6524.0,5.094693183898926,-47,9961.0
13470,0.3625423014163971,-1.7233623266220093,1,6524.0,2.3562893867492676,224,9961.0
13480,0.36242926120758057,-1.6277546882629395,12,6524.0,4.38461446762085,-144,9961.0
13490,0.36230236291885376,-0.18512269854545593,-81,6524.0,8.308402061462402,194,9961.0
13500,0.3621721863746643,2.187589406967163,216,6524.0,-2.7611937522888184,43,9961.0
13510,0.36159470677375793,1.669982671737671,-33,6524.0,-2.049630641937256,-174,9961.0
13520,0.3614649176597595,0.9516515731811523,7,6524.0,-2.280404806137085,-1,9961.0
13530,0.36127907037734985,1.587607502937317,4,6524.0,-6.640413761138916,-176,9961.0
13540,0.36102527379989624,0.6096056699752808,34,6524.0,-7.015336990356445,-44,9961.0
13550,0.36164939403533936,1.022815465927124,20,6524.0,-7.462306976318359,-206,9961.0
13560,0.36143484711647034,-2.051588535308838,-137,6524.0,-0.1287497729063034,13,9961.0
13570,0.3612315356731415,-4.210424423217773,133,6524.0,-3.74249005317688,-12,9961.0
13580,0.3610262870788574,-0.013347958214581013,-71,6524.0,3.2459681034088135,-143,9961.0
13590,0.36054036021232605,-3.8619868755340576,-85,6524.0,5.424080848693848,241,9961.0
13600,0.36034318804740906,-3.8026187419891357,-20,6524.0,1.8528082370758057,12,9961.0
13610,0.3601287603378296,-3.2967381477355957,-75,6524.0,5.745624542236328,80,9961.0
13620,0.3599361479282379,-0.7932205200195312,53,6524.0,2.4979681968688965,7,9961.0
13630,0.3597399890422821,-0.36296749114990234,-23,6524.0,-1.7607821226119995,-181,9961.0
13640,0.35847893357276917,3.6115434169769287,89,6524.0,-2.0829527378082275,43,9961.0
13650,0.3581942617893219,2.77293062210083,177,6524.0,-4.748464584350586,-92,9961.0
13660,0.35797038674354553,3.085134744644165,-146,6524.0,-1.956066370010376,-134,9961.0
13670,0.357612282037735,4.050322532653809,29,6524.0,-3.51733136177063,194,9961.0
13680,0.3561316430568695,3.448054075241089,127,6524.0,5.051186561584473,36,9961.0
13690,0.3558827042579651,5.769616603851318,-12,6524.0,2.040799856185913,31,9961.0
13700,0.3555256724357605,4.636584281921387,101,6524.0,4.416164875030518,159,9961.0
13710,0.3551810383796692,4.933145046234131,48,6524.0,6.085646629333496,33,9961.0
13720,0.3549402058124542,3.6312036514282227,60,6524.0,7.713184356689453,200,9961.0
13730,0.35589471459388733,4.554112911224365,167,6524.0,3.873753786087036,-15,9961.0
13740,0.3557209372520447,1.1484471559524536,-100,6524.0,1.6017467975616455,-131,9961.0
13750,0.35555005073547363,1.4192492961883545,-18,6524.0,3.995988130569458,247,9961.0
13760,0.3553689420223236,-1.0805243253707886,120,6524.0,1.200675129890442,68,9961.0
13770,0.3557879328727722,-4.838547229766846,-159,6524.0,2.661517381668091,-92,9961.0
13780,0.3556361198425293,-2.7940776348114014,-100,6524.0,-2.7547028064727783,28,9961.0
13790,0.3554830551147461,-3.8106188774108887,-9,6524.0,1.9285258054733276,-13,9961.0
13800,0.3553064465522766,-0.8807082176208496,-38,6524.0,-6.8234686851501465,-64,9961.0
13810,0.3562581539154053,0.16502739489078522,37,6524.0,-0.8268476724624634,85,9961.0
13820,0.3561536967754364,1.846882700920105,-3,6524.0,-7.917342185974121,-175,9961.0
13830,0.35603004693984985,0.6399408578872681,-174,6524.0,-2.2785069942474365,42,9961.0
13840,0.35590988397598267,-4.039942741394043,97,6524.0,2.734290838241577,88,9961.0
13850,0.3558267652988434,-5.705894470214844,-68,6524.0,4.754271507263184,-220,9961.0
13860,0.3554067611694336,-5.746563911437988,-207,6524.0,5.552953243255615,75,9961.0
13870,0.3552854657173157,-4.7768778800964355,-58,6524.0,4.469034194946289,137,9961.0
13880,0.3551572859287262,-3.2896790504455566,-95,6524.0,4.267130374908447,21,9961.0
13890,0.3550077974796295,-0.6940548419952393,-10,6524.0,-1.3604516983032227,130,9961.0
13900,0.3545130789279938,-4.212422847747803,15,6524.0,3.1227965354919434,-15,9961.0
13910,0.3543705344200134,-3.8083083629608154,-160,6524.0,1.3320958614349365,-149,9961.0
13920,0.3542849123477936,-1.2543673515319824,-108,6524.0,-6.996946811676025,32,9961.0
13930,0.35422900319099426,-1.397712230682373,114,6524.0,-5.252788066864014,11,9961.0
13940,0.35417988896369934,-0.10639425367116928,-106,6524.0,-1.185372233390808,-281,9961.0
13950,0.3549065887928009,-1.5532039403915405,-208,6524.0,-1.7667652368545532,96,9961.0
13960,0.35489314794540405,-2.236851215362549,71,6524.0,-0.4554927945137024,11,9961.0
13970,0.3548329472541809,0.3680226504802704,-6,6524.0,0.6058309674263,-46,9961.0
13980,0.3547705113887787,-1.9129122495651245,37,6524.0,2.4446303844451904,45,9961.0
13990,0.3543885350227356,-0.6775010824203491,-63,6524.0,1.583944320678711,-61,9961.0
14000,0.35431206226348877,-1.2200309038162231,-117,6524.0,-0.5547789931297302,-229,9961.0
14010,0.35424304008483887,-3.0765268802642822,70,6524.0,-1.8171412944793701,28,9961.0
14020,0.35418078303337097,-4.341732025146484,-15,6524.0,-5.666417598724365,-266,9961.0
14030,0.3552521765232086,-3.749335765838623,-238,6524.0,-10.192564010620117,-11,9961.0
14040,0.3552114963531494,-0.9069343209266663,113,6524.0,-0.7202178239822388,118,9961.0
14050,0.35521936416625977,2.3625662326812744,78,6524.0,3.3457982540130615,-13,9961.0
14060,0.35522258281707764,3.5011186599731445,77,6524.0,2.6091179847717285,62,9961.0
14070,0.355237752199173,1.6283210515975952,126,6524.0,2.9505205154418945,74,9961.0
14080,0.3579893410205841,3.480633497238159,19,6524.0,1.846877098083496,-142,9961.0
14090,0.3581927418708801,0.11408507078886032,-104,6524.0,-0.38863763213157654,20,9961.0
14100,0.3583620488643646,-2.556898593902588,98,6524.0,-5.474856376647949,40,9961.0
14110,0.3585568368434906,-1.6899694204330444,-3,6524.0,-4.215137004852295,-249,9961.0
14120,0.36003217101097107,-2.519857168197632,-135,6524.0,-4.847407817840576,-86,9961.0
14130,0.36020979285240173,-1.0955567359924316,16,6524.0,-0.47682395577430725,14,9961.0
14140,0.3603096008300781,-1.6250836849212646,-62,6524.0,2.769477128982544,-119,9961.0
14150,0.3603961169719696,-1.793313980102539,-60,6524.0,0.38689273595809937,137,9961.0
14160,0.36061936616897583,-2.5755841732025146,131,6524.0,-1.5906245708465576,75,9961.0
14170,0.35965657234191895,-0.710205614566803,-89,6524.0,-2.5429024696350098,-172,9961.0
14180,0.35965222120285034,2.2375118732452393,-55,6524.0,2.2555906772613525,59,9961.0
