timestamp,kalman.stateZ,gyro.x,gyro.xRaw,gyro.xVariance,gyro.y,gyro.yRaw,gyro.yVariance
0,0.3072459101676941,3.7108049392700195,84,7088.0,18.983694076538086,307,9984.0
10,0.307245135307312,7.5485029220581055,127,7088.0,17.734224319458008,276,9984.0
20,0.3065931797027588,6.4399189949035645,101,7088.0,13.441994667053223,196,9984.0
30,0.30665305256843567,4.744281768798828,77,7088.0,7.83026647567749,91,9984.0
40,0.3069700300693512,1.3857059478759766,0,7088.0,0.6321159601211548,-13,9984.0
50,0.3073486387729645,-0.2670137882232666,-4,7088.0,-6.036628723144531,-156,9984.0
60,0.30770695209503174,-1.1334526538848877,28,7088.0,-18.498031616210938,-363,9984.0
70,0.3081459403038025,5.416506290435791,104,7088.0,-34.293617248535156,-620,9984.0
80,0.30859875679016113,8.836618423461914,212,7088.0,-50.43618392944336,-911,9984.0
90,0.30887529253959656,11.836307525634766,196,7088.0,-64.75408172607422,-1157,9984.0
100,0.3090897798538208,2.3449103832244873,15,7088.0,-72.04436492919922,-1179,9984.0
110,0.3090667426586151,-4.94038724899292,-180,7088.0,-68.22815704345703,-1041,9984.0
120,0.30900123715400696,-14.94102668762207,-285,7088.0,-59.6508674621582,-938,9984.0
130,0.30860644578933716,-20.066816329956055,-243,7088.0,-47.02774429321289,-756,9984.0
140,0.308771550655365,-13.177722930908203,-88,7088.0,-36.63836669921875,-633,9984.0
150,0.30798622965812683,4.749544620513916,181,7088.0,-30.89366912841797,-583,9984.0
160,0.3075667917728424,20.309785842895508,405,7088.0,-38.62586975097656,-687,9984.0
170,0.30693212151527405,32.029502868652344,482,7088.0,-46.25492858886719,-847,9984.0
180,0.3077356517314911,18.448923110961914,225,7088.0,-57.859230041503906,-882,9984.0
190,0.3074384033679962,8.847609519958496,87,7088.0,-58.54652404785156,-996,9984.0
200,0.3080757260322571,0.46211421489715576,-24,7088.0,-65.4250259399414,-1109,9984.0
210,0.3085075318813324,-0.969755232334137,18,7088.0,-74.92103576660156,-1181,9984.0
220,0.3088490068912506,1.2945716381072998,46,7088.0,-80.2621841430664,-1404,9984.0
230,0.3100505769252777,4.6751837730407715,124,7088.0,-80.73664855957031,-1406,9984.0
240,0.3118591606616974,8.381807327270508,154,7088.0,-66.4637222290039,-1005,9984.0
250,0.3124062418937683,8.795602798461914,123,7088.0,-32.7960090637207,-400,9984.0
260,0.3139309287071228,0.2825234532356262,-54,7088.0,23.66489601135254,464,9984.0
270,0.31564924120903015,-14.755565643310547,-205,7088.0,69.33367919921875,1163,9984.0
280,0.31794172525405884,-24.328582763671875,-293,7088.0,105.89317321777344,1715,9984.0
290,0.3188216984272003,-24.498268127441406,-246,7088.0,129.19764709472656,2132,9984.0
300,0.3195542097091675,-15.003447532653809,-91,7088.0,135.801513671875,2057,9984.0
310,0.31982657313346863,-1.8902567625045776,82,7088.0,126.97576904296875,1794,9984.0
320,0.3195929527282715,13.002035140991211,269,7088.0,101.76696014404297,1446,9984.0
330,0.3142413794994354,18.92420196533203,219,7088.0,59.19868469238281,901,9984.0
340,0.315426766872406,13.215066909790039,99,7088.0,12.268858909606934,190,9984.0
350,0.31594792008399963,7.333190441131592,55,7088.0,-36.80507278442383,-722,9984.0
360,0.31717243790626526,3.7262332439422607,63,7088.0,-85.08139038085938,-1648,9984.0
370,0.31526362895965576,2.0434517860412598,71,7088.0,-134.4926300048828,-2466,9984.0
380,0.31653741002082825,-1.9425464868545532,-23,7088.0,-165.8919677734375,-2758,9984.0
390,0.3182709515094757,-3.7820351123809814,-9,7088.0,-165.99856567382812,-2590,9984.0
400,0.31927797198295593,-4.026858806610107,-123,7088.0,-139.32875061035156,-2104,9984.0
410,0.32057785987854004,-3.114661455154419,-64,7088.0,-92.82601165771484,-1234,9984.0
420,0.3205749988555908,-5.8708271980285645,-16,7088.0,-39.89380645751953,-241,9984.0
430,0.32328954339027405,-1.3085132837295532,41,7088.0,13.058862686157227,340,9984.0
440,0.325871080160141,2.085871696472168,84,7088.0,63.68171691894531,1418,9984.0
450,0.3282383680343628,-4.437586307525635,-143,7088.0,105.98301696777344,2054,9984.0
460,0.32869836688041687,-8.937572479248047,-122,7088.0,133.61642456054688,2033,9984.0
470,0.32913970947265625,-5.664234638214111,45,7088.0,131.39108276367188,2000,9984.0
480,0.329358845949173,3.8928868770599365,108,7088.0,116.0872573852539,1662,9984.0
490,0.3292081654071808,8.903165817260742,146,7088.0,86.18800354003906,1135,9984.0
500,0.3245864808559418,11.994013786315918,116,7088.0,53.087623596191406,497,9984.0
510,0.3251015841960907,9.68543529510498,-11,7088.0,9.493622779846191,-107,9984.0
520,0.32565101981163025,3.816659927368164,-20,7088.0,-43.61355209350586,-933,9984.0
530,0.32642847299575806,-5.610021591186523,-82,7088.0,-80.363037109375,-1454,9984.0
540,0.32705387473106384,-4.644049167633057,-36,7088.0,-96.70313262939453,-1523,9984.0
550,0.32291069626808167,-2.667189121246338,-101,7088.0,-84.60971069335938,-1133,9984.0
560,0.32382190227508545,1.628034234046936,17,7088.0,-52.85235595703125,-625,9984.0
570,0.32476696372032166,-0.7307145595550537,13,7088.0,-7.300162315368652,23,9984.0
580,0.32621240615844727,3.939331531524658,72,7088.0,25.181964874267578,391,9984.0
590,0.32479405403137207,7.361748695373535,152,7088.0,40.06475830078125,699,9984.0
600,0.32506412267684937,4.972899913787842,-16,7088.0,48.672672271728516,953,9984.0
610,0.3249383568763733,1.1918681859970093,20,7088.0,51.89285659790039,801,9984.0
620,0.3243577778339386,-4.818990230560303,-132,7088.0,45.96878433227539,756,9984.0
630,0.32396385073661804,-11.30895709991455,-249,7088.0,28.75202178955078,370,9984.0
640,0.3207567036151886,-13.855554580688477,-191,7088.0,8.42480754852295,-50,9984.0
650,0.3199513256549835,-7.976127624511719,-51,7088.0,-13.418292999267578,-255,9984.0
660,0.31931763887405396,4.474582672119141,100,7088.0,-34.118675231933594,-680,9984.0
670,0.3186468482017517,9.917624473571777,276,7088.0,-64.54061126708984,-1371,9984.0
680,0.3164980113506317,9.7229585647583,134,7088.0,-79.55978393554688,-1249,9984.0
690,0.31566208600997925,-0.6946345567703247,8,7088.0,-61.0274658203125,-970,9984.0
700,0.3152329921722412,-9.276034355163574,-214,7088.0,-21.202314376831055,-88,9984.0
710,0.3148539662361145,-10.779495239257812,-118,7088.0,29.98168182373047,850,9984.0
720,0.3165055215358734,-2.8574445247650146,-48,7088.0,73.62428283691406,1424,9984.0
730,0.3157835006713867,1.626763105392456,18,7088.0,100.08367156982422,1881,9984.0
740,0.3145058751106262,9.339444160461426,120,7088.0,109.25313568115234,1772,9984.0
750,0.31472790241241455,8.32258415222168,165,7088.0,108.20294952392578,1646,9984.0
760,0.31370288133621216,2.561551332473755,5,7088.0,76.31950378417969,1064,9984.0
770,0.3134486675262451,-1.064368486404419,-20,7088.0,18.872604370117188,38,9984.0
780,0.31360840797424316,-8.653507232666016,-194,7088.0,-41.78134536743164,-935,9984.0
790,0.3128996789455414,-12.634664535522461,-211,7088.0,-87.89093017578125,-1573,9984.0
800,0.31240713596343994,-15.201915740966797,-248,7088.0,-119.43102264404297,-1981,9984.0
810,0.3133942782878876,-4.465626239776611,-20,7088.0,-142.246826171875,-2486,9984.0
820,0.31266942620277405,13.872994422912598,310,7088.0,-153.30670166015625,-2529,9984.0
830,0.31307896971702576,28.45067596435547,570,7088.0,-137.17056274414062,-2207,9984.0
840,0.3144594132900238,33.43963623046875,656,7088.0,-98.3781509399414,-1569,9984.0
850,0.3158237636089325,22.770933151245117,380,7088.0,-43.6417121887207,-501,9984.0
860,0.32149001955986023,3.7869553565979004,1,7088.0,32.8061408996582,738,9984.0
870,0.3239111006259918,-16.727680206298828,-261,7088.0,92.53514862060547,1608,9984.0
880,0.3243900537490845,-18.244319915771484,-260,7088.0,136.73617553710938,2221,9984.0
890,0.32541796565055847,-11.349481582641602,-178,7088.0,154.26675415039062,2443,9984.0
900,0.3269813656806946,-0.47935211658477783,-1,7088.0,144.41552734375,2530,9984.0
910,0.3270798325538635,3.605426788330078,22,7088.0,122.22473907470703,1671,9984.0
920,0.3289172649383545,0.1884317696094513,-8,7088.0,70.27339935302734,943,9984.0
930,0.32923510670661926,-8.52271556854248,-206,7088.0,12.617936134338379,-64,9984.0
940,0.3263827860355377,-12.551104545593262,-186,7088.0,-40.54140090942383,-860,9984.0
950,0.32707518339157104,-7.228847026824951,-12,7088.0,-90.8166732788086,-1656,9984.0
960,0.32750776410102844,6.526160717010498,70,7088.0,-119.05677032470703,-1981,9984.0
970,0.3276257812976837,10.473434448242188,238,7088.0,-119.209228515625,-1942,9984.0
980,0.3284110128879547,5.976546764373779,73,7088.0,-108.94266510009766,-1827,9984.0
990,0.3253423571586609,-2.524656295776367,9,7088.0,-82.03788757324219,-1184,9984.0
1000,0.32626456022262573,5.641575813293457,14,7088.0,-45.427364349365234,-450,9984.0
1010,0.32694312930107117,11.201848983764648,271,7088.0,-2.8745005130767822,304,9984.0
1020,0.33095094561576843,14.98320198059082,235,7088.0,46.34423065185547,1125,9984.0
1030,0.33052486181259155,9.88247299194336,101,7088.0,101.69651794433594,1899,9984.0
1040,0.33191561698913574,0.8785103559494019,-67,7088.0,138.43820190429688,2490,9984.0
1050,0.33254826068878174,-12.421266555786133,-329,7088.0,145.0679168701172,2447,9984.0
1060,0.3337867856025696,-28.324743270874023,-583,7088.0,126.06739807128906,1711,9984.0
1070,0.3308795392513275,-37.90557861328125,-577,7088.0,90.76190948486328,1235,9984.0
1080,0.33261895179748535,-30.06031036376953,-396,7088.0,40.6588134765625,289,9984.0
1090,0.3334905803203583,-12.398427963256836,-62,7088.0,-12.903302192687988,-472,9984.0
1100,0.3346802890300751,9.43359375,260,7088.0,-56.0571174621582,-1152,9984.0
1110,0.33577778935432434,21.204957962036133,408,7088.0,-91.93339538574219,-1801,9984.0
1120,0.3323930501937866,18.957033157348633,384,7088.0,-124.29537200927734,-2065,9984.0
1130,0.3333222568035126,13.362653732299805,193,7088.0,-137.865234375,-2142,9984.0
1140,0.3340589106082916,14.260906219482422,218,7088.0,-121.57955169677734,-1870,9984.0
1150,0.33507969975471497,16.69978904724121,227,7088.0,-93.20704650878906,-1435,9984.0
1160,0.3360612988471985,18.117870330810547,267,7088.0,-48.8243293762207,-589,9984.0
1170,0.3374156355857849,9.611221313476562,123,7088.0,12.92609977722168,437,9984.0
1180,0.3389650881290436,-2.0380806922912598,-53,7088.0,67.72782897949219,1342,9984.0
1190,0.34093207120895386,-7.9078521728515625,-109,7088.0,112.23178100585938,1971,9984.0
1200,0.3420308232307434,-7.336643695831299,-61,7088.0,140.3426513671875,2178,9984.0
1210,0.3412040174007416,-1.0372799634933472,24,7088.0,135.08187866210938,2070,9984.0
1220,0.34129244089126587,1.687246322631836,63,7088.0,114.30168151855469,1955,9984.0
1230,0.3412000238895416,3.526322364807129,35,7088.0,90.43312072753906,1277,9984.0
1240,0.3419704735279083,3.596374750137329,12,7088.0,55.24134826660156,707,9984.0
1250,0.3382803201675415,-4.554591655731201,-108,7088.0,11.235759735107422,6,9984.0
1260,0.3386150002479553,-10.810461044311523,-213,7088.0,-48.22487258911133,-1208,9984.0
1270,0.3392277956008911,-13.673614501953125,-203,7088.0,-119.150146484375,-2173,9984.0
1280,0.3396332561969757,-18.322174072265625,-338,7088.0,-161.69175720214844,-2569,9984.0
1290,0.3383062183856964,-15.464390754699707,-287,7088.0,-157.74880981445312,-2602,9984.0
1300,0.33833539485931396,-2.6626107692718506,61,7088.0,-136.42840576171875,-2268,9984.0
1310,0.3380836248397827,16.08963966369629,299,7088.0,-99.82435607910156,-1429,9984.0
1320,0.33869776129722595,5.299374580383301,137,7088.0,-56.160972595214844,-701,9984.0
1330,0.339750736951828,5.560531139373779,146,7088.0,-5.042871475219727,177,9984.0
1340,0.33815649151802063,3.414804697036743,46,7088.0,51.88552474975586,1017,9984.0
1350,0.3386887013912201,-8.722222328186035,-158,7088.0,96.76301574707031,1674,9984.0
1360,0.3387400209903717,-15.010289192199707,-316,7088.0,118.80826568603516,2217,9984.0
1370,0.33860012888908386,-19.752490997314453,-309,7088.0,125.5367202758789,2046,9984.0
1380,0.33428633213043213,-9.994403839111328,-191,7088.0,107.505126953125,1511,9984.0
1390,0.33415547013282776,-2.1730189323425293,56,7088.0,72.4482421875,1066,9984.0
1400,0.334124356508255,11.309074401855469,202,7088.0,31.600412368774414,329,9984.0
1410,0.334535151720047,8.514839172363281,110,7088.0,-23.879236221313477,-829,9984.0
1420,0.3352358341217041,-1.167725682258606,-93,7088.0,-88.47599792480469,-1457,9984.0
1430,0.332224041223526,-14.86780834197998,-296,7088.0,-116.10699462890625,-2006,9984.0
1440,0.3325369656085968,-11.1180419921875,-144,7088.0,-122.99459075927734,-2084,9984.0
1450,0.33346429467201233,3.0972795486450195,199,7088.0,-102.96107482910156,-1542,9984.0
1460,0.3336736261844635,13.594942092895508,258,7088.0,-67.68800354003906,-989,9984.0
1470,0.33206507563591003,10.40947151184082,213,7088.0,-25.886390686035156,-220,9984.0
1480,0.3323962092399597,6.096304893493652,140,7088.0,19.249656677246094,634,9984.0
1490,0.33277633786201477,6.826803684234619,122,7088.0,64.8039779663086,1376,9984.0
1500,0.3330976963043213,8.64639663696289,-33,7088.0,97.20169067382812,1869,9984.0
1510,0.3314313590526581,-0.8662649989128113,-57,7088.0,117.87638854980469,1984,9984.0
1520,0.33097755908966064,-1.9070098400115967,-76,7088.0,108.8038558959961,1531,9984.0
1530,0.33178871870040894,-6.154842376708984,-81,7088.0,75.73030853271484,1179,9984.0
1540,0.33189284801483154,-11.605998992919922,-210,7088.0,35.324562072753906,332,9984.0
1550,0.3319983184337616,-10.665953636169434,-147,7088.0,-21.121435165405273,-651,9984.0
1560,0.329246461391449,-2.388849973678589,34,7088.0,-91.17048645019531,-1682,9984.0
1570,0.32931768894195557,10.415519714355469,232,7088.0,-139.18263244628906,-2515,9984.0
1580,0.32975637912750244,29.008745193481445,573,7088.0,-157.2201385498047,-2593,9984.0
1590,0.32978036999702454,39.5255241394043,598,7088.0,-141.76553344726562,-2046,9984.0
1600,0.32814130187034607,29.41913414001465,385,7088.0,-88.02931213378906,-1040,9984.0
1610,0.32915404438972473,23.657007217407227,339,7088.0,-35.166786193847656,-323,9984.0
1620,0.33062294125556946,21.528135299682617,301,7088.0,17.312335968017578,461,9984.0
1630,0.3324420750141144,18.17169952392578,199,7088.0,59.93034744262695,1072,9984.0
1640,0.3337132930755615,4.258028507232666,10,7088.0,83.28556823730469,1484,9984.0
1650,0.3347722291946411,-9.592193603515625,-178,7088.0,108.01093292236328,1843,9984.0
1660,0.33566814661026,-16.627901077270508,-278,7088.0,121.67163848876953,1918,9984.0
1670,0.336318701505661,-27.108163833618164,-409,7088.0,114.04583740234375,1710,9984.0
1680,0.3370373845100403,-38.817543029785156,-705,7088.0,82.7844009399414,1178,9984.0
1690,0.33400607109069824,-41.726985931396484,-689,7088.0,38.946563720703125,334,9984.0
1700,0.3350974917411804,-26.505325317382812,-233,7088.0,-8.13768482208252,-520,9984.0
1710,0.3358330726623535,-3.568617343902588,-6,7088.0,-63.582191467285156,-1267,9984.0
1720,0.33755090832710266,6.4343647956848145,121,7088.0,-92.30029296875,-1425,9984.0
1730,0.3336638808250427,15.392990112304688,265,7088.0,-84.54987335205078,-1239,9984.0
1740,0.3344973623752594,18.455814361572266,290,7088.0,-56.53997802734375,-710,9984.0
1750,0.33504074811935425,13.531157493591309,217,7088.0,-6.5886359214782715,86,9984.0
1760,0.3359903395175934,10.648092269897461,142,7088.0,40.386741638183594,882,9984.0
1770,0.33664822578430176,0.983780026435852,34,7088.0,76.76956176757812,1348,9984.0
1780,0.335353821516037,-8.804299354553223,-79,7088.0,106.30880737304688,1700,9984.0
1790,0.3351019322872162,-8.922597885131836,7,7088.0,116.0124740600586,1824,9984.0
1800,0.3341790735721588,5.821282863616943,151,7088.0,104.12825775146484,1683,9984.0
1810,0.3335023820400238,19.63711166381836,352,7088.0,77.05472564697266,1089,9984.0
1820,0.33068737387657166,19.922664642333984,272,7088.0,32.76915740966797,260,9984.0
1830,0.33034852147102356,8.399896621704102,138,7088.0,-10.470161437988281,-320,9984.0
1840,0.33020734786987305,-6.481132984161377,-255,7088.0,-52.01270294189453,-1003,9984.0
1850,0.330319344997406,-21.394912719726562,-478,7088.0,-96.56336212158203,-1750,9984.0
1860,0.32951223850250244,-35.88271713256836,-537,7088.0,-137.57952880859375,-2515,9984.0
1870,0.3293200135231018,-39.39228439331055,-607,7088.0,-145.3780517578125,-2337,9984.0
1880,0.32902732491493225,-42.171180725097656,-680,7088.0,-125.44257354736328,-1890,9984.0
1890,0.32904812693595886,-27.25616455078125,-439,7088.0,-93.87079620361328,-1143,9984.0
1900,0.32987716794013977,-10.929675102233887,-186,7088.0,-39.87953567504883,-284,9984.0
1910,0.3297666013240814,2.606785297393799,93,7088.0,18.052061080932617,667,9984.0
1920,0.3303031921386719,18.789316177368164,345,7088.0,78.57098388671875,1525,9984.0
1930,0.3305929899215698,28.52194595336914,490,7088.0,116.34014892578125,1819,9984.0
1940,0.33002978563308716,27.25564193725586,507,7088.0,126.87034606933594,2052,9984.0
1950,0.33071303367614746,26.528148651123047,379,7088.0,107.51994323730469,1764,9984.0
1960,0.33014345169067383,20.946794509887695,302,7088.0,72.40064239501953,1064,9984.0
1970,0.32983776926994324,18.830554962158203,295,7088.0,33.62127685546875,242,9984.0
1980,0.32968881726264954,14.129837036132812,219,7088.0,-5.957528114318848,-127,9984.0
1990,0.33090633153915405,9.915767669677734,78,7088.0,-59.16523742675781,-1277,9984.0
2000,0.3289059102535248,2.808676242828369,-29,7088.0,-114.81689453125,-2223,9984.0
2010,0.3293127715587616,-14.689380645751953,-273,7088.0,-132.99227905273438,-1988,9984.0
2020,0.32953041791915894,-24.93128776550293,-442,7088.0,-104.66757202148438,-1391,9984.0
2030,0.33181849122047424,-25.31100845336914,-462,7088.0,-68.30211639404297,-894,9984.0
2040,0.3301396369934082,-21.823686599731445,-396,7088.0,-17.13895034790039,-70,9984.0
2050,0.3306136429309845,-18.592891693115234,-421,7088.0,35.86634063720703,760,9984.0
2060,0.3312132656574249,-7.537097930908203,-137,7088.0,73.38674926757812,1255,9984.0
2070,0.3313594460487366,7.485478401184082,256,7088.0,94.11128234863281,1541,9984.0
2080,0.32936254143714905,20.203250885009766,465,7088.0,95.99319458007812,1487,9984.0
2090,0.3287343382835388,30.87074851989746,359,7088.0,83.6832504272461,1368,9984.0
2100,0.32834628224372864,20.939828872680664,352,7088.0,59.60999298095703,734,9984.0
2110,0.3294454514980316,6.356060981750488,51,7088.0,23.529916763305664,240,9984.0
2120,0.32956862449645996,-8.6974515914917,-271,7088.0,-17.189605712890625,-476,9984.0
2130,0.32684531807899475,-18.165040969848633,-194,7088.0,-62.07379150390625,-1320,9984.0
2140,0.32677483558654785,-14.138165473937988,-242,7088.0,-106.50224304199219,-1806,9984.0
2150,0.32690778374671936,-3.7814972400665283,0,7088.0,-127.1931381225586,-1944,9984.0
2160,0.326713502407074,3.760523557662964,72,7088.0,-114.43364715576172,-1936,9984.0
2170,0.3272533714771271,-1.2276087999343872,28,7088.0,-94.63848876953125,-1676,9984.0
2180,0.3276962637901306,-0.7580836415290833,-4,7088.0,-70.6429214477539,-932,9984.0
2190,0.3290052115917206,-2.7220261096954346,-143,7088.0,-17.074344635009766,-33,9984.0
2200,0.32948294281959534,-9.494499206542969,-204,7088.0,40.164634704589844,875,9984.0
2210,0.3317315876483917,-12.508522987365723,-201,7088.0,92.42011260986328,1731,9984.0
2220,0.3321821689605713,-5.025676727294922,-86,7088.0,134.06820678710938,2427,9984.0
2230,0.33316171169281006,4.841440677642822,129,7088.0,151.0973663330078,2528,9984.0
2240,0.33356067538261414,17.320110321044922,289,7088.0,145.84275817871094,2089,9984.0
2250,0.333282470703125,24.687063217163086,434,7088.0,114.2418212890625,1727,9984.0
2260,0.33036211133003235,25.35106086730957,373,7088.0,70.8780746459961,941,9984.0
2270,0.33140501379966736,12.565300941467285,173,7088.0,13.130217552185059,-198,9984.0
2280,0.33257976174354553,-1.2206445932388306,-89,7088.0,-54.865135192871094,-1036,9984.0
2290,0.3344593346118927,-11.824858665466309,-282,7088.0,-113.89937591552734,-2099,9984.0
2300,0.3357717990875244,-20.19398307800293,-308,7088.0,-135.45394897460938,-2180,9984.0
2310,0.33179041743278503,-17.794912338256836,-155,7088.0,-125.11559295654297,-2009,9984.0
2320,0.3326226770877838,-8.632227897644043,-37,7088.0,-104.58889770507812,-1565,9984.0
2330,0.3348480761051178,6.007922649383545,109,7088.0,-71.7782211303711,-828,9984.0
2340,0.3352615237236023,13.007280349731445,273,7088.0,-23.03167724609375,-72,9984.0
2350,0.3345806300640106,20.933889389038086,318,7088.0,21.393281936645508,672,9984.0
2360,0.33515745401382446,14.856269836425781,197,7088.0,63.58815002441406,1340,9984.0
2370,0.3360312581062317,3.920635461807251,-48,7088.0,93.17514038085938,1810,9984.0
2380,0.33629110455513,-7.5743608474731445,-327,7088.0,104.63383483886719,1617,9984.0
2390,0.3331933617591858,-27.924476623535156,-582,7088.0,97.5180892944336,1601,9984.0
2400,0.3333011567592621,-27.940387725830078,-357,7088.0,84.36407470703125,1180,9984.0
2410,0.3335034251213074,-17.94758415222168,-180,7088.0,51.18905258178711,454,9984.0
2420,0.33358344435691833,-3.427170753479004,-26,7088.0,-1.8654192686080933,-159,9984.0
2430,0.3341233432292938,9.154458999633789,212,7088.0,-48.21730041503906,-1162,9984.0
2440,0.33065083622932434,10.572887420654297,117,7088.0,-76.51810455322266,-1322,9984.0
2450,0.3308027386665344,1.987524390220642,54,7088.0,-76.64018249511719,-1072,9984.0
2460,0.3310692608356476,2.6688010692596436,63,7088.0,-65.10809326171875,-1016,9984.0
2470,0.3311610817909241,10.362454414367676,121,7088.0,-48.82053756713867,-592,9984.0
2480,0.3293244540691376,9.112088203430176,168,7088.0,-13.191448211669922,-51,9984.0
2490,0.3292847275733948,8.603316307067871,220,7088.0,22.014305114746094,431,9984.0
2500,0.329199880361557,10.223377227783203,207,7088.0,47.03681945800781,837,9984.0
2510,0.32886412739753723,13.166655540466309,304,7088.0,70.80757904052734,1110,9984.0
2520,0.32845500111579895,18.846012115478516,274,7088.0,76.95454406738281,1138,9984.0
2530,0.32719284296035767,8.778646469116211,143,7088.0,58.47371292114258,981,9984.0
2540,0.32644009590148926,-11.525651931762695,-282,7088.0,33.774139404296875,444,9984.0
2550,0.3261793851852417,-27.669754028320312,-537,7088.0,3.779010772705078,-197,9984.0
2560,0.32613247632980347,-31.79852294921875,-393,7088.0,-32.21490478515625,-738,9984.0
2570,0.3251449465751648,-22.697593688964844,-371,7088.0,-76.96660614013672,-1416,9984.0
2580,0.3249334990978241,-12.827157020568848,-234,7088.0,-110.96426391601562,-1937,9984.0
2590,0.32451826333999634,-7.035068035125732,-59,7088.0,-126.9437026977539,-2153,9984.0
2600,0.32532891631126404,-12.578035354614258,-174,7088.0,-124.81278991699219,-2023,9984.0
2610,0.32557618618011475,-18.055259704589844,-253,7088.0,-99.00808715820312,-1392,9984.0
2620,0.32545241713523865,-1.105891227722168,95,7088.0,-51.42325973510742,-475,9984.0
2630,0.3258782923221588,24.072553634643555,485,7088.0,8.182435989379883,366,9984.0
2640,0.3271525502204895,36.96906661987305,584,7088.0,59.14793395996094,1183,9984.0
2650,0.32799142599105835,31.16858673095703,345,7088.0,105.81877899169922,1962,9984.0
2660,0.3295730650424957,20.269004821777344,257,7088.0,135.26808166503906,2397,9984.0
2670,0.3294433653354645,15.67963981628418,156,7088.0,146.6590118408203,2312,9984.0
2680,0.3285970389842987,5.698848724365234,53,7088.0,127.90310668945312,1852,9984.0
2690,0.33159562945365906,-11.292948722839355,-207,7088.0,82.65922546386719,1232,9984.0
2700,0.3275875747203827,-26.749923706054688,-550,7088.0,34.13644790649414,299,9984.0
2710,0.32807010412216187,-29.90852165222168,-427,7088.0,-11.463237762451172,-414,9984.0
2720,0.32898375391960144,-23.74628448486328,-302,7088.0,-52.54999542236328,-997,9984.0
2730,0.32966867089271545,-12.020206451416016,-167,7088.0,-90.15181732177734,-1748,9984.0
2740,0.3272973597049713,5.499178886413574,272,7088.0,-118.4222183227539,-1968,9984.0
2750,0.3280649781227112,28.894479751586914,570,7088.0,-139.6592559814453,-2333,9984.0
2760,0.3286857008934021,50.18209457397461,837,7088.0,-142.2552032470703,-2300,9984.0
2770,0.33220207691192627,50.6851692199707,718,7088.0,-127.85218048095703,-1967,9984.0
2780,0.3324626088142395,35.65839767456055,511,7088.0,-103.83795928955078,-1520,9984.0
2790,0.3330610692501068,15.547417640686035,117,7088.0,-66.68325805664062,-767,9984.0
2800,0.3353707790374756,-17.88808822631836,-396,7088.0,-1.171550989151001,324,9984.0
2810,0.33692842721939087,-37.757408142089844,-621,7088.0,68.36105346679688,1379,9984.0
2820,0.3395128846168518,-34.812313079833984,-534,7088.0,120.89229583740234,2164,9984.0
2830,0.34004396200180054,-30.91303253173828,-437,7088.0,167.27203369140625,2813,9984.0
2840,0.3408704400062561,-15.37697696685791,-290,7088.0,187.58132934570312,3158,9984.0
2850,0.3419475853443146,-3.3304431438446045,-97,7088.0,182.63177490234375,2988,9984.0
2860,0.3415202498435974,4.340060710906982,99,7088.0,148.8043670654297,2207,9984.0
2870,0.3413539528846741,-1.331632375717163,-45,7088.0,93.53490447998047,1227,9984.0
2880,0.3354502022266388,-11.41683578491211,-236,7088.0,40.22930908203125,551,9984.0
2890,0.33653149008750916,-16.4321346282959,-307,7088.0,-15.636096000671387,-633,9984.0
2900,0.33757156133651733,-10.02186107635498,-13,7088.0,-74.95740509033203,-1473,9984.0
2910,0.33838847279548645,5.689777851104736,81,7088.0,-130.5584259033203,-2287,9984.0
2920,0.33447176218032837,12.2059326171875,141,7088.0,-164.98190307617188,-2710,9984.0
2930,0.33476006984710693,8.902633666992188,200,7088.0,-166.35137939453125,-2688,9984.0
2940,0.3362359404563904,14.537657737731934,235,7088.0,-139.84054565429688,-2322,9984.0
2950,0.3360060155391693,6.845787048339844,114,7088.0,-104.41338348388672,-1607,9984.0
2960,0.3335150480270386,0.9327013492584229,33,7088.0,-49.351318359375,-600,9984.0
2970,0.33354052901268005,-2.598491907119751,24,7088.0,10.551888465881348,553,9984.0
2980,0.3358820974826813,-4.364560604095459,-39,7088.0,79.58943939208984,1626,9984.0
2990,0.3371241092681885,-6.275628566741943,-122,7088.0,131.34573364257812,2405,9984.0
3000,0.337966650724411,-11.657511711120605,-191,7088.0,164.81378173828125,2791,9984.0
3010,0.33541491627693176,-14.019824028015137,-109,7088.0,171.71446228027344,2742,9984.0
3020,0.33416011929512024,-6.913437843322754,-95,7088.0,153.6411895751953,2252,9984.0
3030,0.3349165618419647,7.517412185668945,236,7088.0,112.47017669677734,1582,9984.0
3040,0.3356320261955261,16.48805046081543,237,7088.0,57.2833137512207,453,9984.0
3050,0.3293740153312683,15.011051177978516,214,7088.0,-8.063094139099121,-480,9984.0
3060,0.331158310174942,14.678887367248535,283,7088.0,-88.77743530273438,-2034,9984.0
3070,0.3324381709098816,15.933710098266602,237,7088.0,-155.0545654296875,-2806,9984.0
3080,0.33302345871925354,10.889762878417969,80,7088.0,-186.80335998535156,-2936,9984.0
3090,0.3329155743122101,1.3198944330215454,-34,7088.0,-182.1630096435547,-2854,9984.0
3100,0.33135777711868286,1.3959035873413086,29,7088.0,-150.22323608398438,-2223,9984.0
3110,0.33125025033950806,-4.83732271194458,-66,7088.0,-93.69178009033203,-1267,9984.0
3120,0.3321237564086914,-10.642047882080078,-105,7088.0,-26.5433292388916,-192,9984.0
3130,0.33347463607788086,-11.88353443145752,-118,7088.0,37.903202056884766,763,9984.0
3140,0.3338209390640259,-13.615941047668457,-117,7088.0,90.83955383300781,1556,9984.0
3150,0.3340386152267456,-14.684066772460938,-55,7088.0,121.00206756591797,1998,9984.0
3160,0.33395299315452576,-15.247702598571777,-304,7088.0,127.40950775146484,2114,9984.0
3170,0.33334439992904663,-19.003671646118164,-414,7088.0,109.80935668945312,1673,9984.0
3180,0.3299538195133209,-22.996795654296875,-244,7088.0,75.33675384521484,1019,9984.0
3190,0.3295474052429199,-11.23855209350586,-159,7088.0,31.360822677612305,342,9984.0
3200,0.32975125312805176,17.660375595092773,497,7088.0,-26.5103759765625,-794,9984.0
3210,0.33026614785194397,46.96863555908203,829,7088.0,-87.0897216796875,-1527,9984.0
3220,0.33061549067497253,64.40547180175781,1012,7088.0,-110.72557830810547,-1794,9984.0
3230,0.3265751302242279,56.18872833251953,922,7088.0,-101.08061981201172,-1634,9984.0
3240,0.3275618255138397,34.849822998046875,530,7088.0,-75.40380859375,-1049,9984.0
3250,0.3279895782470703,6.037948131561279,27,7088.0,-19.19348907470703,-48,9984.0
3260,0.3287438750267029,-9.544416427612305,-208,7088.0,30.654075622558594,779,9984.0
3270,0.32823294401168823,-20.801725387573242,-397,7088.0,72.69498443603516,1313,9984.0
3280,0.32829806208610535,-31.526071548461914,-590,7088.0,98.49454498291016,1625,9984.0
3290,0.3276376724243164,-36.608158111572266,-669,7088.0,103.30615997314453,1788,9984.0
3300,0.32888707518577576,-36.22224044799805,-609,7088.0,87.04090881347656,1373,9984.0
3310,0.3283950686454773,-29.1758975982666,-358,7088.0,64.13760375976562,844,9984.0
3320,0.3249938189983368,-21.241724014282227,-345,7088.0,31.325899124145508,466,9984.0
3330,0.3245204985141754,-11.33533763885498,-117,7088.0,-4.1348795890808105,-340,9984.0
3340,0.3244980275630951,-2.7371013164520264,11,7088.0,-40.47181701660156,-780,9984.0
3350,0.324476033449173,12.71715259552002,257,7088.0,-78.59738159179688,-1414,9984.0
3360,0.3233283460140228,28.913957595825195,597,7088.0,-91.43161010742188,-1525,9984.0
3370,0.3229692280292511,33.829769134521484,536,7088.0,-76.21087646484375,-1117,9984.0
3380,0.32457235455513,17.761781692504883,208,7088.0,-53.99765396118164,-708,9984.0
3390,0.3246407210826874,7.178164005279541,58,7088.0,-15.34797191619873,17,9984.0
3400,0.3241353929042816,-1.4057598114013672,-145,7088.0,33.91078186035156,822,9984.0
3410,0.3241971433162689,-6.795239448547363,-191,7088.0,70.9537353515625,1324,9984.0
3420,0.3237703740596771,-13.065327644348145,-199,7088.0,88.26367950439453,1450,9984.0
3430,0.32373178005218506,-18.86771011352539,-234,7088.0,90.58570098876953,1369,9984.0
3440,0.3234570324420929,-23.727516174316406,-377,7088.0,73.5763168334961,1161,9984.0
3450,0.3236902356147766,-20.737958908081055,-376,7088.0,43.49127960205078,401,9984.0
3460,0.323408305644989,-16.818286895751953,-225,7088.0,7.828575611114502,141,9984.0
3470,0.3233402967453003,-11.731449127197266,-179,7088.0,-22.187400817871094,-603,9984.0
3480,0.3231595754623413,0.057954490184783936,95,7088.0,-65.17243194580078,-1367,9984.0
3490,0.3243381679058075,24.397111892700195,541,7088.0,-111.95244598388672,-1864,9984.0
3500,0.3234170973300934,45.339256286621094,787,7088.0,-137.0421905517578,-2219,9984.0
3510,0.32499340176582336,45.8680534362793,730,7088.0,-125.31185150146484,-2055,9984.0
3520,0.32417431473731995,30.4318904876709,415,7088.0,-86.22054290771484,-1275,9984.0
3530,0.3250062167644501,3.653353214263916,-54,7088.0,-27.46895980834961,-136,9984.0
3540,0.3275216519832611,-23.27069091796875,-410,7088.0,38.12613296508789,794,9984.0
3550,0.32788240909576416,-37.836116790771484,-685,7088.0,81.72382354736328,1476,9984.0
3560,0.3278854489326477,-44.84786605834961,-750,7088.0,114.94518280029297,1992,9984.0
3570,0.3273637592792511,-34.81439971923828,-615,7088.0,138.55665588378906,2290,9984.0
3580,0.3273201882839203,-23.0568790435791,-241,7088.0,135.99960327148438,2156,9984.0
3590,0.3289680778980255,9.934890747070312,347,7088.0,106.30931854248047,1517,9984.0
3600,0.3282989263534546,40.67544937133789,807,7088.0,52.70338439941406,559,9984.0
3610,0.3283544182777405,49.35152816772461,737,7088.0,1.1067396402359009,-183,9984.0
3620,0.32853078842163086,43.8259162902832,706,7088.0,-42.77029037475586,-1081,9984.0
3630,0.3286171555519104,22.695714950561523,244,7088.0,-85.79539489746094,-1611,9984.0
3640,0.3294486403465271,11.290480613708496,88,7088.0,-133.80397033691406,-2345,9984.0
3650,0.3304333984851837,-0.7545853853225708,-82,7088.0,-150.6774444580078,-2498,9984.0
3660,0.3308747708797455,-12.463558197021484,-196,7088.0,-143.79876708984375,-2366,9984.0
3670,0.3316687345504761,-18.514055252075195,-189,7088.0,-120.17034149169922,-1849,9984.0
3680,0.334106981754303,-22.448829650878906,-299,7088.0,-70.40593719482422,-891,9984.0
3690,0.33455467224121094,-22.314712524414062,-237,7088.0,-4.686898231506348,151,9984.0
3700,0.33739176392555237,-16.47210121154785,-159,7088.0,58.030391693115234,1053,9984.0
3710,0.3371380865573883,-6.206267356872559,-9,7088.0,101.0240478515625,1762,9984.0
3720,0.3382483422756195,2.7656702995300293,104,7088.0,128.25379943847656,2092,9984.0
3730,0.33871036767959595,11.988337516784668,196,7088.0,131.63172912597656,2305,9984.0
3740,0.33868685364723206,10.115283012390137,74,7088.0,123.44183349609375,2005,9984.0
3750,0.33871063590049744,-0.3379289507865906,-120,7088.0,105.81185150146484,1412,9984.0
3760,0.3360432982444763,-3.994169235229492,30,7088.0,71.01020050048828,864,9984.0
3770,0.33648085594177246,6.575891017913818,142,7088.0,19.674057006835938,145,9984.0
3780,0.3374585211277008,17.599016189575195,300,7088.0,-45.576847076416016,-1060,9984.0
3790,0.3396674394607544,29.328094482421875,496,7088.0,-95.00672912597656,-1661,9984.0
3800,0.3358973264694214,27.064043045043945,466,7088.0,-96.89061737060547,-1502,9984.0
3810,0.3365432918071747,10.985756874084473,35,7088.0,-76.53780364990234,-1145,9984.0
3820,0.33733367919921875,-10.737988471984863,-344,7088.0,-42.02062225341797,-483,9984.0
3830,0.3380643427371979,-30.555280685424805,-626,7088.0,-6.431501388549805,272,9984.0
3840,0.3333645761013031,-40.02555847167969,-701,7088.0,22.94639015197754,558,9984.0
3850,0.33360427618026733,-40.05260467529297,-623,7088.0,31.006227493286133,492,9984.0
3860,0.3337703049182892,-27.26154327392578,-394,7088.0,29.767925262451172,459,9984.0
3870,0.3340367078781128,-6.148061275482178,70,7088.0,33.64729309082031,472,9984.0
3880,0.33428511023521423,10.136282920837402,259,7088.0,33.443275451660156,512,9984.0
3890,0.3285570442676544,19.646406173706055,344,7088.0,22.907224655151367,426,9984.0
3900,0.3284558951854706,6.991766929626465,9,7088.0,9.443442344665527,118,9984.0
3910,0.3285118341445923,-8.685070037841797,-248,7088.0,-8.822917938232422,-209,9984.0
3920,0.3287346363067627,-10.010473251342773,-86,7088.0,-37.503387451171875,-872,9984.0
3930,0.3246680498123169,0.969394862651825,108,7088.0,-72.25567626953125,-1345,9984.0
3940,0.3247021436691284,14.5385160446167,372,7088.0,-101.2416000366211,-1714,9984.0
3950,0.3248012959957123,22.29543685913086,356,7088.0,-99.27632141113281,-1510,9984.0
3960,0.32612189650535583,25.553897857666016,340,7088.0,-65.2333984375,-801,9984.0
3970,0.3267582058906555,23.714262008666992,355,7088.0,-17.344682693481445,-29,9984.0
3980,0.3261058032512665,20.862409591674805,332,7088.0,38.688499450683594,840,9984.0
3990,0.32678893208503723,4.762618064880371,44,7088.0,81.76544189453125,1470,9984.0
4000,0.32699352502822876,-15.012742042541504,-263,7088.0,108.2291259765625,1779,9984.0
4010,0.3269403576850891,-20.485042572021484,-415,7088.0,113.60948181152344,1859,9984.0
4020,0.3243875801563263,-15.605597496032715,-245,7088.0,103.78238677978516,1752,9984.0
4030,0.32418131828308105,-7.168253421783447,-80,7088.0,78.30532836914062,983,9984.0
4040,0.32512617111206055,-0.4830734431743622,10,7088.0,36.44784927368164,452,9984.0
4050,0.325463205575943,-2.031710624694824,-57,7088.0,-6.984618186950684,-321,9984.0
4060,0.3234647810459137,-5.089075088500977,-66,7088.0,-52.55104446411133,-1155,9984.0
4070,0.32412800192832947,-2.440089702606201,13,7088.0,-92.4874496459961,-1596,9984.0
4080,0.3246525526046753,-5.490360260009766,-189,7088.0,-129.4122314453125,-2249,9984.0
4090,0.325229674577713,-8.545735359191895,-201,7088.0,-164.5687255859375,-2825,9984.0
4100,0.3244446814060211,-9.408567428588867,-89,7088.0,-181.34410095214844,-2930,9984.0
4110,0.32368215918540955,-5.764791011810303,-36,7088.0,-164.46778869628906,-2529,9984.0
4120,0.32379281520843506,-1.9445085525512695,-8,7088.0,-116.73418426513672,-1591,9984.0
4130,0.3287917971611023,-1.3567475080490112,-39,7088.0,-48.33859634399414,-550,9984.0
4140,0.3305366635322571,-12.274100303649902,-270,7088.0,9.523164749145508,569,9984.0
4150,0.3329319357872009,-15.557206153869629,-288,7088.0,74.13334655761719,1500,9984.0
4160,0.33515632152557373,-13.017415046691895,-251,7088.0,114.44515228271484,2150,9984.0
4170,0.33596479892730713,-2.4307851791381836,-41,7088.0,150.39781188964844,2690,9984.0
4180,0.3367985188961029,8.226243019104004,232,7088.0,166.6089324951172,2732,9984.0
4190,0.33712977170944214,19.24007797241211,385,7088.0,158.7250213623047,2415,9984.0
4200,0.33302271366119385,30.73212432861328,606,7088.0,138.3168182373047,2069,9984.0
4210,0.33552539348602295,32.2961311340332,498,7088.0,95.37108612060547,1422,9984.0
4220,0.33608630299568176,21.961322784423828,274,7088.0,45.841552734375,354,9984.0
4230,0.3382938802242279,4.022883892059326,-54,7088.0,-22.39581871032715,-785,9984.0
4240,0.33326083421707153,-24.950910568237305,-506,7088.0,-77.78903198242188,-1545,9984.0
4250,0.3342757821083069,-50.71213912963867,-916,7088.0,-115.27703857421875,-1904,9984.0
4260,0.33550405502319336,-52.059547424316406,-794,7088.0,-116.26004791259766,-1689,9984.0
4270,0.3367457985877991,-26.42559051513672,-300,7088.0,-95.30524444580078,-1338,9984.0
4280,0.3326740562915802,-0.910789966583252,33,7088.0,-64.20556640625,-691,9984.0
4290,0.33431461453437805,19.760339736938477,349,7088.0,-24.082334518432617,54,9984.0
4300,0.33524537086486816,29.232446670532227,448,7088.0,24.07935905456543,671,9984.0
4310,0.3363855183124542,28.150821685791016,358,7088.0,63.17813491821289,1187,9984.0
4320,0.33767884969711304,14.635737419128418,105,7088.0,85.67057800292969,1701,9984.0
4330,0.33431923389434814,4.22368049621582,-21,7088.0,101.80511474609375,1837,9984.0
4340,0.3346242308616638,-0.38306230306625366,-33,7088.0,101.51472473144531,1541,9984.0
4350,0.3342096507549286,-1.011597990989685,-5,7088.0,90.6669692993164,1266,9984.0
4360,0.3340212106704712,9.2264404296875,285,7088.0,59.6419563293457,727,9984.0
4370,0.33177450299263,9.44538688659668,120,7088.0,17.33361053466797,83,9984.0
4380,0.33197978138923645,10.641319274902344,165,7088.0,-42.69050216674805,-1108,9984.0
4390,0.332785964012146,5.043115139007568,0,7088.0,-91.59848022460938,-1679,9984.0
4400,0.3331790864467621,0.4030977487564087,6,7088.0,-104.22773742675781,-1754,9984.0
4410,0.3337571918964386,-0.852360725402832,48,7088.0,-84.48384094238281,-1298,9984.0
4420,0.3303312659263611,0.8344056010246277,30,7088.0,-44.72065734863281,-525,9984.0
4430,0.33048877120018005,-6.331583023071289,-53,7088.0,5.197112560272217,250,9984.0
4440,0.33035483956336975,-13.581904411315918,-224,7088.0,42.343589782714844,653,9984.0
4450,0.33008596301078796,-15.381810188293457,-229,7088.0,61.44209671020508,964,9984.0
4460,0.327659547328949,-8.271178245544434,41,7088.0,66.17285919189453,1004,9984.0
4470,0.327090322971344,9.83689022064209,206,7088.0,49.446563720703125,722,9984.0
4480,0.3267321288585663,20.990158081054688,334,7088.0,22.248075485229492,371,9984.0
4490,0.3263546824455261,8.454045295715332,-15,7088.0,-2.7085814476013184,-186,9984.0
4500,0.32284078001976013,-7.352405548095703,-189,7088.0,-27.338829040527344,-588,9984.0
4510,0.3224036395549774,-23.54012107849121,-343,7088.0,-57.23227310180664,-1068,9984.0
4520,0.3220854699611664,-26.628021240234375,-453,7088.0,-94.04155731201172,-1701,9984.0
4530,0.3217374086380005,-20.329116821289062,-301,7088.0,-130.97906494140625,-2142,9984.0
4540,0.3230869174003601,-4.038261890411377,17,7088.0,-152.9508819580078,-2481,9984.0
4550,0.3220130205154419,3.531074285507202,42,7088.0,-125.83566284179688,-1849,9984.0
4560,0.32291609048843384,3.2751481533050537,52,7088.0,-62.70143508911133,-798,9984.0
4570,0.32443419098854065,3.8762314319610596,80,7088.0,10.105963706970215,405,9984.0
4580,0.3260897099971771,4.936986923217773,88,7088.0,73.79736328125,1450,9984.0
4590,0.3284871578216553,1.2867993116378784,103,7088.0,124.01655578613281,2108,9984.0
4600,0.3287971019744873,9.561397552490234,269,7088.0,137.34384155273438,2219,9984.0
4610,0.32968443632125854,16.162860870361328,421,7088.0,130.07518005371094,2037,9984.0
4620,0.3317631185054779,29.789505004882812,420,7088.0,107.06269073486328,1692,9984.0
4630,0.33183130621910095,32.542083740234375,542,7088.0,75.07490539550781,1036,9984.0
4640,0.32764092087745667,33.342872619628906,569,7088.0,28.604999542236328,142,9984.0
4650,0.3287509083747864,19.555383682250977,189,7088.0,-29.244050979614258,-570,9984.0
4660,0.32976600527763367,-7.700813293457031,-333,7088.0,-85.02593994140625,-1607,9984.0
4670,0.3309618830680847,-49.397674560546875,-1042,7088.0,-134.5419158935547,-2305,9984.0
4680,0.32681891322135925,-84.1231460571289,-1337,7088.0,-150.2796630859375,-2506,9984.0
4690,0.3264857828617096,-81.7187271118164,-1229,7088.0,-132.12973022460938,-2099,9984.0
4700,0.3292061388492584,-44.52024841308594,-497,7088.0,-95.37017822265625,-1340,9984.0
4710,0.32916730642318726,-17.93470001220703,-88,7088.0,-44.11843490600586,-655,9984.0
4720,0.3307156562805176,8.60388469696045,253,7088.0,0.4733281433582306,129,9984.0
4730,0.3323984444141388,25.580657958984375,423,7088.0,50.23832702636719,1047,9984.0
4740,0.3331950306892395,36.62928009033203,709,7088.0,92.96849822998047,1685,9984.0
4750,0.33431634306907654,34.37556457519531,661,7088.0,115.27579498291016,1914,9984.0
4760,0.3350566029548645,32.258758544921875,432,7088.0,122.55181884765625,1973,9984.0
4770,0.3338068127632141,24.281417846679688,272,7088.0,113.27889251708984,1948,9984.0
4780,0.33534181118011475,13.852893829345703,153,7088.0,91.210205078125,1309,9984.0
4790,0.3358233571052551,5.416843891143799,39,7088.0,52.79501724243164,612,9984.0
4800,0.336703360080719,9.75167465209961,271,7088.0,0.10516420751810074,-388,9984.0
4810,0.33365628123283386,2.078193426132202,-17,7088.0,-55.1151008605957,-1073,9984.0
4820,0.334678053855896,-14.33185863494873,-245,7088.0,-91.73753356933594,-1545,9984.0
4830,0.3353663384914398,-22.8315486907959,-367,7088.0,-108.67447662353516,-1717,9984.0
4840,0.3361814022064209,-6.729391574859619,-79,7088.0,-94.16402435302734,-1202,9984.0
4850,0.33771681785583496,9.97238826751709,184,7088.0,-46.855384826660156,-463,9984.0
4860,0.33633503317832947,13.19827651977539,127,7088.0,4.076025485992432,265,9984.0
4870,0.3371937572956085,-8.336671829223633,-275,7088.0,56.22406005859375,1168,9984.0
4880,0.33788183331489563,-13.625970840454102,-192,7088.0,95.92725372314453,1769,9984.0
4890,0.33787181973457336,-7.517940998077393,-47,7088.0,117.16024017333984,1845,9984.0
4900,0.33582818508148193,5.762894630432129,113,7088.0,110.59504699707031,1772,9984.0
4910,0.3355836570262909,13.848271369934082,234,7088.0,93.55879211425781,1470,9984.0
4920,0.33509528636932373,20.709001541137695,324,7088.0,62.580448150634766,752,9984.0
4930,0.3344246447086334,22.30425453186035,404,7088.0,17.232759475708008,-172,9984.0
4940,0.33121076226234436,17.332427978515625,233,7088.0,-34.035621643066406,-804,9984.0
4950,0.33008015155792236,3.386705160140991,27,7088.0,-78.51217651367188,-1482,9984.0
4960,0.32918834686279297,-12.38782024383545,-393,7088.0,-108.99111938476562,-1840,9984.0
4970,0.32804661989212036,-37.531761169433594,-817,7088.0,-125.3897476196289,-2039,9984.0
4980,0.3249954283237457,-45.108985900878906,-689,7088.0,-130.76138305664062,-1935,9984.0
4990,0.32544487714767456,-23.88621711730957,-217,7088.0,-100.0504379272461,-1351,9984.0
5000,0.3242279887199402,-3.790107011795044,30,7088.0,-48.80409240722656,-334,9984.0
5010,0.3242928087711334,8.704657554626465,264,7088.0,20.368677139282227,682,9984.0
5020,0.32488882541656494,21.543535232543945,432,7088.0,75.17027282714844,1459,9984.0
5030,0.32163968682289124,24.41354751586914,473,7088.0,107.97917175292969,1845,9984.0
5040,0.3209162652492523,20.41042709350586,296,7088.0,124.92923736572266,2002,9984.0
5050,0.3200381100177765,8.34438419342041,17,7088.0,123.7507095336914,2038,9984.0
5060,0.3187851905822754,-13.493395805358887,-399,7088.0,93.79586029052734,1424,9984.0
5070,0.3201795518398285,-29.641559600830078,-459,7088.0,59.62250518798828,610,9984.0
5080,0.3158075213432312,-26.107500076293945,-417,7088.0,10.961355209350586,158,9984.0
5090,0.31633058190345764,-16.561933517456055,-231,7088.0,-27.202899932861328,-699,9984.0
5100,0.3172972500324249,-5.727756023406982,-15,7088.0,-72.34713745117188,-1379,9984.0
5110,0.31790804862976074,-1.5365828275680542,-95,7088.0,-107.90787506103516,-1841,9984.0
5120,0.31560441851615906,-8.360791206359863,-51,7088.0,-109.53449249267578,-1707,9984.0
5130,0.3165515661239624,1.533289909362793,154,7088.0,-84.99488067626953,-1295,9984.0
5140,0.3177029490470886,14.971659660339355,201,7088.0,-58.74818801879883,-792,9984.0
5150,0.32000887393951416,23.15450096130371,327,7088.0,-18.581262588500977,-71,9984.0
5160,0.3192206919193268,28.044153213500977,408,7088.0,17.49569320678711,556,9984.0
5170,0.3203926980495453,30.50956916809082,484,7088.0,55.825340270996094,1133,9984.0
5180,0.32104793190956116,30.44475555419922,551,7088.0,75.06472778320312,1300,9984.0
5190,0.3222253918647766,30.983715057373047,478,7088.0,81.13607788085938,1204,9984.0
5200,0.32215315103530884,21.688091278076172,373,7088.0,70.59010314941406,966,9984.0
5210,0.32146090269088745,14.40761661529541,208,7088.0,53.588531494140625,744,9984.0
5220,0.3209906816482544,2.9257402420043945,80,7088.0,28.41781234741211,445,9984.0
5230,0.3210054337978363,-3.421473979949951,-123,7088.0,-6.825389862060547,-362,9984.0
5240,0.32141533493995667,-11.22897720336914,-277,7088.0,-55.87689971923828,-1137,9984.0
5250,0.31991541385650635,-21.266883850097656,-348,7088.0,-97.73368072509766,-1784,9984.0
5260,0.31915900111198425,-39.389122009277344,-707,7088.0,-117.7484359741211,-2076,9984.0
5270,0.3194302022457123,-63.4860954284668,-1113,7088.0,-105.36418151855469,-1595,9984.0
5280,0.317743182182312,-60.79323196411133,-942,7088.0,-78.94863891601562,-1094,9984.0
5290,0.31765836477279663,-33.01677703857422,-361,7088.0,-48.56839370727539,-468,9984.0
5300,0.31626495718955994,-0.5864232182502747,52,7088.0,7.1282639503479,422,9984.0
5310,0.31662535667419434,29.11573028564453,546,7088.0,60.325042724609375,1144,9984.0
5320,0.3159447908401489,54.51905822753906,953,7088.0,101.54788208007812,1581,9984.0
5330,0.31472891569137573,58.48736572265625,977,7088.0,115.55770874023438,1936,9984.0
5340,0.3116491138935089,43.25882339477539,595,7088.0,109.91338348388672,1874,9984.0
5350,0.3107510507106781,17.028959274291992,138,7088.0,76.31551361083984,1055,9984.0
5360,0.31040212512016296,-2.7891077995300293,-4,7088.0,39.65665817260742,384,9984.0
5370,0.3100900948047638,-9.45456600189209,-321,7088.0,-5.348610877990723,-206,9984.0
5380,0.30829644203186035,-16.357206344604492,-220,7088.0,-47.62192153930664,-1017,9984.0
5390,0.3078538179397583,-15.806866645812988,-237,7088.0,-90.5190200805664,-1494,9984.0
5400,0.30758970975875854,-20.8420352935791,-377,7088.0,-119.26563262939453,-2129,9984.0
5410,0.3068417012691498,-18.851272583007812,-308,7088.0,-145.0222625732422,-2576,9984.0
5420,0.305500328540802,-19.713083267211914,-360,7088.0,-162.34303283691406,-2670,9984.0
5430,0.30202504992485046,-17.373310089111328,-297,7088.0,-156.48910522460938,-2351,9984.0
5440,0.3063664734363556,-11.958908081054688,-235,7088.0,-100.34745788574219,-1242,9984.0
5450,0.3069262206554413,-4.296748161315918,-83,7088.0,-19.868539810180664,70,9984.0
5460,0.3100648522377014,14.610569953918457,286,7088.0,51.021568298339844,1176,9984.0
5470,0.31081053614616394,29.326555252075195,504,7088.0,107.8280258178711,2087,9984.0
5480,0.31119322776794434,36.107608795166016,551,7088.0,152.6249237060547,2718,9984.0
5490,0.312960684299469,28.314016342163086,299,7088.0,188.091064453125,3241,9984.0
5500,0.31451940536499023,11.002737998962402,37,7088.0,197.44845581054688,3243,9984.0
5510,0.30905115604400635,-11.318553924560547,-175,7088.0,180.5790252685547,2711,9984.0
5520,0.3121219277381897,-24.690250396728516,-380,7088.0,139.8684539794922,2033,9984.0
5530,0.3122701048851013,-28.47760009765625,-565,7088.0,88.5689468383789,1326,9984.0
5540,0.3130621314048767,-26.700199127197266,-317,7088.0,33.35275650024414,151,9984.0
5550,0.31405109167099,-17.99858856201172,-284,7088.0,-25.285123825073242,-539,9984.0
5560,0.3085167109966278,-12.07663345336914,-196,7088.0,-82.26115417480469,-1768,9984.0
5570,0.3090081810951233,-9.265616416931152,-91,7088.0,-134.46986389160156,-2462,9984.0
5580,0.30920496582984924,-11.685283660888672,-129,7088.0,-174.25125122070312,-2907,9984.0
5590,0.3086983263492584,-3.6656289100646973,-51,7088.0,-175.70860290527344,-2715,9984.0
5600,0.3030245304107666,6.690659523010254,110,7088.0,-153.04910278320312,-2055,9984.0
5610,0.30708956718444824,16.978891372680664,352,7088.0,-96.87113952636719,-1189,9984.0
5620,0.3061010539531708,27.07488441467285,453,7088.0,-36.344478607177734,-169,9984.0
5630,0.30609428882598877,22.159332275390625,305,7088.0,27.353107452392578,1022,9984.0
5640,0.30800697207450867,10.249302864074707,67,7088.0,95.48201751708984,1984,9984.0
5650,0.3021828830242157,-3.3662703037261963,-87,7088.0,145.36929321289062,2573,9984.0
5660,0.3018290400505066,-6.549256801605225,-220,7088.0,168.6744842529297,2832,9984.0
5670,0.3016755282878876,-4.336535453796387,-89,7088.0,170.90469360351562,2679,9984.0
5680,0.30045226216316223,-4.252538681030273,2,7088.0,142.65707397460938,2027,9984.0
5690,0.297126442193985,-9.609068870544434,-215,7088.0,92.7917251586914,1241,9984.0
5700,0.29583048820495605,-14.307190895080566,-248,7088.0,43.05080795288086,317,9984.0
5710,0.29464566707611084,-10.932449340820312,-95,7088.0,-9.553174018859863,-426,9984.0
5720,0.29344844818115234,-7.780340671539307,-154,7088.0,-58.365203857421875,-997,9984.0
5730,0.29216983914375305,-3.44553542137146,-51,7088.0,-96.44821166992188,-1747,9984.0
5740,0.284455269575119,1.680633783340454,130,7088.0,-124.79692077636719,-2242,9984.0
5750,0.2816382944583893,14.73637580871582,258,7088.0,-128.86578369140625,-2077,9984.0
5760,0.28027018904685974,27.688278198242188,433,7088.0,-110.33904266357422,-1555,9984.0
5770,0.2771437168121338,33.88064956665039,468,7088.0,-57.54967498779297,-585,9984.0
5780,0.2765352427959442,27.34860610961914,371,7088.0,23.705245971679688,833,9984.0
5790,0.2767798900604248,19.546689987182617,255,7088.0,99.26734924316406,1946,9984.0
5800,0.27763494849205017,7.172911643981934,23,7088.0,145.27272033691406,2410,9984.0
5810,0.2776155471801758,-4.478476524353027,-64,7088.0,167.6680145263672,2664,9984.0
5820,0.27238962054252625,-12.465019226074219,-153,7088.0,160.17552185058594,2575,9984.0
5830,0.27172616124153137,-12.709711074829102,-275,7088.0,133.4104461669922,1927,9984.0
5840,0.27105793356895447,-19.70823860168457,-324,7088.0,92.10871887207031,1291,9984.0
5850,0.27058884501457214,-21.631717681884766,-372,7088.0,37.26778793334961,184,9984.0
5860,0.27282950282096863,-18.41497039794922,-262,7088.0,-25.826852798461914,-558,9984.0
5870,0.2697821259498596,-14.845033645629883,-104,7088.0,-76.14903259277344,-1445,9984.0
5880,0.2703477144241333,-8.280098915100098,-151,7088.0,-110.8077163696289,-1915,9984.0
5890,0.27094489336013794,-3.174769163131714,-12,7088.0,-125.8077163696289,-2103,9984.0
5900,0.2720603942871094,-5.950727462768555,-106,7088.0,-115.37370300292969,-1704,9984.0
5910,0.26922520995140076,-13.804635047912598,-340,7088.0,-80.16012573242188,-1205,9984.0
5920,0.2699301838874817,-26.657453536987305,-416,7088.0,-30.0881290435791,-310,9984.0
5930,0.27112966775894165,-25.60738754272461,-336,7088.0,17.789339065551758,569,9984.0
5940,0.27343782782554626,-15.416916847229004,-275,7088.0,53.50784683227539,1168,9984.0
5950,0.27438884973526,-3.439443349838257,74,7088.0,92.2802734375,1583,9984.0
5960,0.2704591453075409,21.866315841674805,514,7088.0,114.00965118408203,1895,9984.0
5970,0.27071014046669006,43.86646270751953,746,7088.0,110.33336639404297,1668,9984.0
5980,0.2720813751220703,59.43667221069336,1083,7088.0,95.63799285888672,1429,9984.0
5990,0.27222371101379395,66.50997161865234,998,7088.0,67.96475219726562,832,9984.0
6000,0.26888519525527954,61.32956314086914,977,7088.0,27.051511764526367,356,9984.0
6010,0.2692877948284149,50.502384185791016,730,7088.0,-20.164278030395508,-546,9984.0
6020,0.27049076557159424,34.029232025146484,554,7088.0,-65.77464294433594,-1217,9984.0
6030,0.27054592967033386,16.10357666015625,120,7088.0,-98.90062713623047,-1622,9984.0
6040,0.2683342695236206,-8.5509033203125,-216,7088.0,-118.40392303466797,-2091,9984.0
6050,0.267724871635437,-24.467464447021484,-388,7088.0,-121.78340911865234,-1963,9984.0
6060,0.26875197887420654,-34.218505859375,-562,7088.0,-101.90694427490234,-1470,9984.0
6070,0.2680671215057373,-40.834075927734375,-709,7088.0,-55.25041580200195,-618,9984.0
6080,0.2667126953601837,-40.11777877807617,-671,7088.0,3.6817734241485596,347,9984.0
6090,0.2671084403991699,-29.271053314208984,-452,7088.0,65.16499328613281,1180,9984.0
6100,0.2679022550582886,-21.81729507446289,-228,7088.0,101.54086303710938,1819,9984.0
6110,0.2676398754119873,-6.407417297363281,-119,7088.0,117.53413391113281,2002,9984.0
6120,0.26791757345199585,4.898305416107178,155,7088.0,118.78949737548828,1855,9984.0
6130,0.26377227902412415,8.252178192138672,31,7088.0,105.16816711425781,1627,9984.0
6140,0.26272836327552795,2.2923319339752197,10,7088.0,70.6026382446289,999,9984.0
6150,0.2656267285346985,-2.545591354370117,-60,7088.0,20.186553955078125,53,9984.0
6160,0.2653801739215851,-0.5473331212997437,43,7088.0,-28.368318557739258,-547,9984.0
6170,0.2617751657962799,6.4751973152160645,236,7088.0,-68.93511962890625,-1406,9984.0
6180,0.2612590193748474,16.742652893066406,241,7088.0,-96.26730346679688,-1574,9984.0
6190,0.26004496216773987,14.116607666015625,219,7088.0,-108.34605407714844,-1947,9984.0
6200,0.25970548391342163,7.690751552581787,142,7088.0,-108.07290649414062,-1722,9984.0
6210,0.2593289911746979,-2.467566728591919,-148,7088.0,-96.14937591552734,-1290,9984.0
6220,0.2547268569469452,-21.131580352783203,-477,7088.0,-58.30908203125,-813,9984.0
6230,0.25570210814476013,-37.165592193603516,-671,7088.0,-21.12517738342285,-154,9984.0
6240,0.25572100281715393,-56.23147201538086,-931,7088.0,26.6767578125,730,9984.0
6250,0.25754114985466003,-49.97998046875,-759,7088.0,61.48185348510742,1188,9984.0
6260,0.25249195098876953,-28.323856353759766,-314,7088.0,82.02861022949219,1454,9984.0
6270,0.2520262897014618,-6.665543079376221,-37,7088.0,92.67644500732422,1611,9984.0
6280,0.2533959448337555,18.787841796875,478,7088.0,107.64130401611328,1831,9984.0
6290,0.2535763680934906,34.391292572021484,608,7088.0,100.60917663574219,1477,9984.0
6300,0.2537287175655365,40.966514587402344,655,7088.0,74.7663803100586,955,9984.0
6310,0.2535967230796814,43.59358596801758,751,7088.0,36.2819938659668,413,9984.0
6320,0.2540067434310913,42.612220764160156,676,7088.0,-4.704649448394775,-288,9984.0
6330,0.254341721534729,33.623382568359375,451,7088.0,-37.708194732666016,-803,9984.0
6340,0.2547362446784973,25.898197174072266,408,7088.0,-58.26015853881836,-988,9984.0
6350,0.2562870979309082,18.90707778930664,219,7088.0,-72.2854995727539,-1294,9984.0
6360,0.25707221031188965,14.913165092468262,292,7088.0,-70.09764862060547,-1083,9984.0
6370,0.2577678859233856,15.334281921386719,313,7088.0,-46.75282287597656,-551,9984.0
6380,0.2598821222782135,19.28907012939453,279,7088.0,-6.117277145385742,178,9984.0
6390,0.25876304507255554,13.621399879455566,85,7088.0,41.472496032714844,887,9984.0
6400,0.2601999044418335,-1.0620980262756348,-10,7088.0,85.50872802734375,1471,9984.0
6410,0.2611863315105438,-9.67612361907959,-148,7088.0,102.92802429199219,1713,9984.0
6420,0.2636454701423645,-13.818073272705078,-188,7088.0,98.19219970703125,1471,9984.0
6430,0.2645660638809204,-9.617804527282715,-72,7088.0,74.75975036621094,1137,9984.0
6440,0.2619023025035858,-6.086630821228027,-87,7088.0,38.625789642333984,316,9984.0
6450,0.26413455605506897,-8.83682632446289,-238,7088.0,-3.09446382522583,-180,9984.0
6460,0.2651103734970093,-7.341987609863281,-71,7088.0,-46.52528381347656,-983,9984.0
6470,0.26574504375457764,-1.4018967151641846,-85,7088.0,-78.03860473632812,-1408,9984.0
6480,0.26233556866645813,-0.027467573061585426,99,7088.0,-94.94693756103516,-1661,9984.0
6490,0.2624068558216095,3.1205849647521973,38,7088.0,-100.80268096923828,-1587,9984.0
6500,0.2622097432613373,5.646625995635986,107,7088.0,-97.75809478759766,-1669,9984.0
6510,0.2633315920829773,6.014547824859619,143,7088.0,-83.92697143554688,-1262,9984.0
6520,0.263602077960968,-4.056715965270996,-199,7088.0,-46.00444793701172,-456,9984.0
6530,0.26142045855522156,-23.742027282714844,-512,7088.0,2.1702935695648193,176,9984.0
6540,0.2620907425880432,-34.29562759399414,-503,7088.0,46.464866638183594,838,9984.0
6550,0.26346564292907715,-28.156381607055664,-466,7088.0,70.54500579833984,1203,9984.0
6560,0.26426962018013,-9.344160079956055,-19,7088.0,74.9293441772461,1163,9984.0
6570,0.26165664196014404,10.691118240356445,185,7088.0,65.74369812011719,1000,9984.0
6580,0.26183441281318665,27.39507293701172,550,7088.0,43.085262298583984,641,9984.0
6590,0.2634551227092743,33.8416748046875,475,7088.0,25.287527084350586,181,9984.0
6600,0.2636399269104004,29.589506149291992,464,7088.0,4.493928909301758,95,9984.0
6610,0.2614501118659973,15.266129493713379,135,7088.0,-11.97123908996582,-433,9984.0
6620,0.26138123869895935,5.525528907775879,127,7088.0,-42.654335021972656,-668,9984.0
6630,0.26102420687675476,5.495638370513916,23,7088.0,-55.89148712158203,-936,9984.0
6640,0.2605631649494171,4.46939754486084,157,7088.0,-61.98740005493164,-1139,9984.0
6650,0.2599288523197174,3.620884895324707,37,7088.0,-65.82666778564453,-1014,9984.0
6660,0.25651663541793823,1.5445232391357422,-46,7088.0,-61.21700668334961,-989,9984.0
6670,0.2559634745121002,1.1458956003189087,88,7088.0,-45.25064468383789,-751,9984.0
6680,0.25587326288223267,2.552434206008911,-11,7088.0,-18.899017333984375,-13,9984.0
6690,0.2556678354740143,-2.068903923034668,-91,7088.0,24.55036735534668,696,9984.0
6700,0.254850834608078,-4.337244987487793,13,7088.0,56.1790657043457,815,9984.0
6710,0.2542414367198944,9.89159107208252,267,7088.0,62.7259407043457,1082,9984.0
6720,0.25382503867149353,26.809898376464844,437,7088.0,47.242610931396484,687,9984.0
6730,0.25319263339042664,25.893516540527344,450,7088.0,27.706167221069336,369,9984.0
6740,0.25260570645332336,12.801055908203125,114,7088.0,14.937191009521484,265,9984.0
6750,0.251661479473114,-5.058341979980469,-215,7088.0,2.9405462741851807,-35,9984.0
6760,0.25112542510032654,-23.670042037963867,-404,7088.0,-11.10794448852539,-240,9984.0
6770,0.25108078122138977,-37.93122100830078,-748,7088.0,-26.76846694946289,-448,9984.0
6780,0.2507195770740509,-46.28448486328125,-688,7088.0,-37.864959716796875,-700,9984.0
6790,0.24974322319030762,-39.17668914794922,-601,7088.0,-39.32907485961914,-509,9984.0
6800,0.2493000030517578,-25.76279067993164,-368,7088.0,-35.69783401489258,-642,9984.0
6810,0.2490399330854416,-12.34707260131836,-117,7088.0,-29.607044219970703,-393,9984.0
6820,0.24911487102508545,-0.04795441776514053,29,7088.0,-18.087858200073242,-224,9984.0
6830,0.2479061782360077,7.914129257202148,185,7088.0,-3.258423328399658,-39,9984.0
6840,0.24840456247329712,12.489409446716309,250,7088.0,20.282182693481445,552,9984.0
6850,0.2492249459028244,15.740655899047852,126,7088.0,61.89713668823242,1194,9984.0
6860,0.25093039870262146,2.770230770111084,5,7088.0,97.04402160644531,1663,9984.0
6870,0.25205370783805847,-21.82488250732422,-555,7088.0,106.28182220458984,1652,9984.0
6880,0.25053396821022034,-38.91893005371094,-630,7088.0,84.63441467285156,1237,9984.0
6890,0.2514392137527466,-41.599639892578125,-643,7088.0,49.332637786865234,381,9984.0
6900,0.252144992351532,-27.253250122070312,-328,7088.0,16.649085998535156,144,9984.0
6910,0.2531315088272095,-8.880451202392578,-24,7088.0,-13.505152702331543,-414,9984.0
6920,0.25208812952041626,9.2664155960083,158,7088.0,-39.31699752807617,-903,9984.0
6930,0.2526816129684448,20.178739547729492,336,7088.0,-62.61225509643555,-989,9984.0
6940,0.25315096974372864,23.64485740661621,408,7088.0,-73.77953338623047,-1315,9984.0
6950,0.25229761004447937,20.6967830657959,281,7088.0,-73.25773620605469,-1091,9984.0
6960,0.2562026083469391,21.01891326904297,359,7088.0,-65.60332489013672,-1061,9984.0
6970,0.2566806674003601,18.023635864257812,229,7088.0,-48.62966537475586,-531,9984.0
6980,0.2574583888053894,9.5394287109375,49,7088.0,-21.640117645263672,-180,9984.0
6990,0.25871047377586365,0.34653064608573914,-37,7088.0,9.451170921325684,222,9984.0
7000,0.259723961353302,-8.442214012145996,-133,7088.0,35.542762756347656,869,9984.0
7010,0.25660625100135803,-3.1605796813964844,-79,7088.0,70.41801452636719,1291,9984.0
7020,0.25779929757118225,1.1386597156524658,119,7088.0,91.92647552490234,1582,9984.0
7030,0.2588859498500824,1.9141263961791992,14,7088.0,92.10889434814453,1438,9984.0
7040,0.26128342747688293,3.583232879638672,152,7088.0,80.33010864257812,1191,9984.0
7050,0.2609988749027252,12.444372177124023,208,7088.0,52.13406753540039,681,9984.0
7060,0.2619612216949463,26.06444549560547,533,7088.0,12.3726224899292,84,9984.0
7070,0.2628200352191925,34.40361022949219,541,7088.0,-19.35635757446289,-523,9984.0
7080,0.2635357677936554,31.76962661743164,507,7088.0,-41.12480926513672,-668,9984.0
7090,0.2641202509403229,16.680849075317383,146,7088.0,-54.41682052612305,-1004,9984.0
7100,0.2634688913822174,-2.3235836029052734,-64,7088.0,-69.73612213134766,-1155,9984.0
7110,0.2639599144458771,-16.92118263244629,-314,7088.0,-68.0269775390625,-973,9984.0
7120,0.26451441645622253,-22.101869583129883,-481,7088.0,-47.24579620361328,-675,9984.0
7130,0.2647911310195923,-33.05348587036133,-548,7088.0,-13.762157440185547,-202,9984.0
7140,0.26414164900779724,-36.519622802734375,-534,7088.0,18.685338973999023,516,9984.0
7150,0.2649257183074951,-15.818833351135254,-183,7088.0,53.158355712890625,1052,9984.0
7160,0.26531800627708435,23.10704231262207,649,7088.0,76.38404846191406,1279,9984.0
7170,0.26652392745018005,55.92996597290039,980,7088.0,82.84600830078125,1426,9984.0
7180,0.26523879170417786,69.32303619384766,1184,7088.0,78.59550476074219,1076,9984.0
7190,0.26530295610427856,62.54246520996094,939,7088.0,62.14539337158203,1027,9984.0
7200,0.2670691907405853,38.21317672729492,494,7088.0,42.47163391113281,508,9984.0
7210,0.2669747769832611,15.328575134277344,188,7088.0,19.63892936706543,277,9984.0
7220,0.2668330669403076,-10.888548851013184,-345,7088.0,-1.8128292560577393,-222,9984.0
7230,0.266912043094635,-36.08747863769531,-613,7088.0,-31.899566650390625,-637,9984.0
7240,0.2662074565887451,-49.79396438598633,-883,7088.0,-59.29954528808594,-1060,9984.0
7250,0.265969842672348,-51.467533111572266,-744,7088.0,-81.6656723022461,-1454,9984.0
7260,0.26533642411231995,-40.8564453125,-701,7088.0,-90.57670593261719,-1491,9984.0
7270,0.26548877358436584,-30.923030853271484,-391,7088.0,-90.26060485839844,-1506,9984.0
7280,0.26634153723716736,-18.808761596679688,-330,7088.0,-72.58318328857422,-934,9984.0
7290,0.2666080594062805,-18.217205047607422,-297,7088.0,-29.0239200592041,-325,9984.0
7300,0.2670934498310089,-14.569527626037598,-134,7088.0,18.954036712646484,658,9984.0
7310,0.2670750916004181,8.056073188781738,198,7088.0,72.47540283203125,1265,9984.0
7320,0.2676410973072052,34.889991760253906,729,7088.0,106.91130828857422,1874,9984.0
7330,0.2683470845222473,55.25159454345703,925,7088.0,118.31426239013672,1845,9984.0
7340,0.2690166234970093,54.61620330810547,772,7088.0,104.79713439941406,1680,9984.0
7350,0.26939842104911804,25.584613800048828,262,7088.0,64.64422607421875,654,9984.0
7360,0.27016380429267883,-5.979474067687988,-257,7088.0,3.137523651123047,-127,9984.0
7370,0.2705772817134857,-31.91180419921875,-532,7088.0,-47.085243225097656,-960,9984.0
7380,0.2716846168041229,-40.5648193359375,-726,7088.0,-85.66226959228516,-1555,9984.0
7390,0.2718566060066223,-38.38288879394531,-486,7088.0,-115.7331314086914,-2051,9984.0
7400,0.2708505392074585,-32.8442497253418,-628,7088.0,-135.11544799804688,-2183,9984.0
7410,0.27234575152397156,-30.65180778503418,-462,7088.0,-134.59616088867188,-2277,9984.0
7420,0.27220672369003296,-29.018301010131836,-419,7088.0,-125.0963134765625,-1941,9984.0
7430,0.27266958355903625,-17.640220642089844,-302,7088.0,-98.08023071289062,-1371,9984.0
7440,0.2720014750957489,-13.762435913085938,-210,7088.0,-47.861244201660156,-558,9984.0
7450,0.2741176187992096,-23.302213668823242,-388,7088.0,19.176626205444336,592,9984.0
7460,0.27629318833351135,-21.104581832885742,-411,7088.0,72.94696044921875,1451,9984.0
7470,0.27846378087997437,-15.765654563903809,-173,7088.0,107.04920959472656,1809,9984.0
7480,0.2796269357204437,1.8217639923095703,120,7088.0,126.5787353515625,2125,9984.0
7490,0.27710333466529846,11.570091247558594,134,7088.0,117.69679260253906,1752,9984.0
7500,0.27782291173934937,7.338021755218506,103,7088.0,80.08223724365234,1153,9984.0
7510,0.27857065200805664,-3.7842726707458496,-146,7088.0,37.56444549560547,335,9984.0
7520,0.2794557511806488,-10.55195140838623,-199,7088.0,-5.885299205780029,-253,9984.0
7530,0.27841565012931824,-14.940258979797363,-273,7088.0,-45.200984954833984,-1028,9984.0
7540,0.2794345021247864,-15.229421615600586,-194,7088.0,-71.13166809082031,-1269,9984.0
7550,0.28019651770591736,-12.033053398132324,-195,7088.0,-86.64124298095703,-1393,9984.0
7560,0.28072860836982727,-3.65556001663208,-21,7088.0,-90.10758972167969,-1529,9984.0
7570,0.2810525596141815,0.15248940885066986,50,7088.0,-82.77043151855469,-1301,9984.0
7580,0.2794700860977173,-2.8143203258514404,-111,7088.0,-71.4704818725586,-959,9984.0
7590,0.279967337846756,-17.96593475341797,-427,7088.0,-45.487979888916016,-567,9984.0
7600,0.28124961256980896,-28.62796401977539,-505,7088.0,-11.788540840148926,-1,9984.0
7610,0.2823427617549896,-24.76165199279785,-218,7088.0,33.393707275390625,783,9984.0
7620,0.2805032432079315,-2.818220615386963,179,7088.0,70.1922607421875,1393,9984.0
7630,0.2817462384700775,19.98660659790039,370,7088.0,98.75518798828125,1771,9984.0
7640,0.2825244069099426,22.896865844726562,233,7088.0,106.12521362304688,1608,9984.0
7650,0.28353092074394226,1.397571325302124,-97,7088.0,95.07341003417969,1490,9984.0
7660,0.2843115031719208,-21.655488967895508,-448,7088.0,70.0191650390625,1000,9984.0
7670,0.28428536653518677,-32.143856048583984,-520,7088.0,43.859622955322266,435,9984.0
7680,0.284700483083725,-28.87129020690918,-482,7088.0,4.592288970947266,49,9984.0
7690,0.2851901650428772,-16.188034057617188,-158,7088.0,-24.142122268676758,-529,9984.0
7700,0.2857625186443329,3.5220680236816406,130,7088.0,-36.938865661621094,-570,9984.0
7710,0.2856024205684662,14.285016059875488,235,7088.0,-37.23579025268555,-647,9984.0
7720,0.28601062297821045,18.264596939086914,351,7088.0,-35.26687240600586,-454,9984.0
7730,0.2865126132965088,21.617141723632812,353,7088.0,-37.97538757324219,-726,9984.0
7740,0.2876955568790436,17.22789192199707,321,7088.0,-31.98250961303711,-464,9984.0
7750,0.2870672047138214,15.078913688659668,221,7088.0,-5.853806018829346,123,9984.0
7760,0.28797122836112976,16.073163986206055,190,7088.0,32.27296829223633,629,9984.0
7770,0.2886987626552582,20.677309036254883,450,7088.0,58.18125534057617,991,9984.0
7780,0.28929832577705383,32.910823822021484,660,7088.0,80.23261260986328,1438,9984.0
7790,0.28961002826690674,43.4399528503418,659,7088.0,80.77592468261719,1278,9984.0
7800,0.2881915271282196,39.51885223388672,587,7088.0,70.00753021240234,1018,9984.0
7810,0.2881599962711334,16.716201782226562,197,7088.0,46.87163543701172,622,9984.0
7820,0.2896020710468292,-15.328956604003906,-430,7088.0,7.817718029022217,-12,9984.0
7830,0.2896328270435333,-37.15515899658203,-637,7088.0,-33.60103225708008,-819,9984.0
7840,0.29108959436416626,-44.02566146850586,-678,7088.0,-56.746925354003906,-961,9984.0
7850,0.2910679578781128,-37.19939422607422,-609,7088.0,-71.15718078613281,-1162,9984.0
7860,0.2919935882091522,-29.76505470275879,-454,7088.0,-73.7558364868164,-1269,9984.0
7870,0.2922629714012146,-19.521604537963867,-153,7088.0,-71.96188354492188,-1181,9984.0
7880,0.2923465669155121,-3.846130132675171,-3,7088.0,-61.627685546875,-905,9984.0
7890,0.29238179326057434,9.995437622070312,128,7088.0,-38.90193557739258,-434,9984.0
7900,0.2930658161640167,14.683670997619629,233,7088.0,5.00736665725708,291,9984.0
7910,0.29419761896133423,14.19437026977539,224,7088.0,51.90675354003906,1002,9984.0
7920,0.2950301468372345,14.015324592590332,349,7088.0,87.63636016845703,1540,9984.0
7930,0.29420650005340576,23.083383560180664,379,7088.0,95.1485595703125,1601,9984.0
7940,0.2949065864086151,34.897579193115234,560,7088.0,78.47581481933594,1183,9984.0
7950,0.29503920674324036,49.79249954223633,943,7088.0,65.92339324951172,1020,9984.0
7960,0.29482778906822205,50.376182556152344,774,7088.0,48.791324615478516,750,9984.0
7970,0.29519349336624146,40.20690155029297,500,7088.0,13.350419044494629,10,9984.0
7980,0.29619094729423523,14.347688674926758,149,7088.0,-27.076194763183594,-720,9984.0
7990,0.29678842425346375,-12.955768585205078,-235,7088.0,-57.013511657714844,-1073,9984.0
8000,0.29734453558921814,-37.22010040283203,-744,7088.0,-82.53226470947266,-1376,9984.0
8010,0.297503799200058,-60.99812698364258,-1099,7088.0,-93.46385955810547,-1495,9984.0
8020,0.298805832862854,-64.92176055908203,-1030,7088.0,-91.32894134521484,-1524,9984.0
8030,0.2991502583026886,-52.064453125,-698,7088.0,-79.12459564208984,-1268,9984.0
8040,0.2994263172149658,-24.963125228881836,-196,7088.0,-45.59421920776367,-562,9984.0
8050,0.30041733384132385,10.03609848022461,342,7088.0,-6.287821292877197,128,9984.0
8060,0.2982095181941986,27.902244567871094,393,7088.0,25.924043655395508,607,9984.0
8070,0.2992444336414337,18.549062728881836,240,7088.0,64.20492553710938,1184,9984.0
8080,0.30007296800613403,6.475147724151611,125,7088.0,91.63996124267578,1452,9984.0
8090,0.3006003499031067,3.9838528633117676,151,7088.0,93.13385772705078,1498,9984.0
8100,0.29938650131225586,5.4366068840026855,46,7088.0,77.27133178710938,1227,9984.0
8110,0.3003799021244049,-3.4465866088867188,-122,7088.0,45.34833526611328,497,9984.0
8120,0.30070745944976807,-14.476975440979004,-224,7088.0,4.358794689178467,-72,9984.0
8130,0.3013487160205841,-20.084856033325195,-406,7088.0,-31.17986297607422,-559,9984.0
8140,0.301616907119751,-24.366146087646484,-388,7088.0,-58.43577575683594,-1157,9984.0
8150,0.30050450563430786,-19.617395401000977,-241,7088.0,-76.38381958007812,-1390,9984.0
8160,0.3003944754600525,-6.247567653656006,-15,7088.0,-84.53630828857422,-1304,9984.0
8170,0.30012911558151245,9.349947929382324,122,7088.0,-85.00072479248047,-1393,9984.0
8180,0.3001067638397217,16.527904510498047,350,7088.0,-71.87086486816406,-1099,9984.0
8190,0.3005289137363434,25.491260528564453,537,7088.0,-46.21776580810547,-610,9984.0
8200,0.3008911609649658,32.960243225097656,578,7088.0,-12.740314483642578,-9,9984.0
8210,0.3014921247959137,30.517488479614258,478,7088.0,25.734071731567383,671,9984.0
8220,0.3022491931915283,23.62470817565918,264,7088.0,55.819087982177734,1070,9984.0
8230,0.3027975559234619,17.639501571655273,198,7088.0,70.75631713867188,1269,9984.0
8240,0.30214664340019226,6.4949164390563965,-36,7088.0,82.6917724609375,1313,9984.0
8250,0.3026391863822937,-15.002584457397461,-306,7088.0,75.98241424560547,1107,9984.0
8260,0.3031418025493622,-27.160938262939453,-377,7088.0,59.97272491455078,825,9984.0
8270,0.30437228083610535,-20.628610610961914,-347,7088.0,17.993696212768555,25,9984.0
8280,0.30405357480049133,-19.054744720458984,-335,7088.0,-26.904464721679688,-720,9984.0
8290,0.3046162724494934,-25.941364288330078,-435,7088.0,-54.99909973144531,-989,9984.0
8300,0.30483391880989075,-35.19350051879883,-694,7088.0,-74.18032836914062,-1255,9984.0
8310,0.3050706386566162,-40.9528923034668,-700,7088.0,-85.60572814941406,-1396,9984.0
8320,0.3051421344280243,-30.75319480895996,-340,7088.0,-88.77220153808594,-1428,9984.0
8330,0.305569589138031,-8.055610656738281,9,7088.0,-73.95219421386719,-1240,9984.0
8340,0.30592697858810425,14.777673721313477,382,7088.0,-46.207061767578125,-515,9984.0
8350,0.3070594072341919,40.45504379272461,745,7088.0,2.7708652019500732,346,9984.0
8360,0.30836257338523865,57.135276794433594,905,7088.0,43.65494918823242,907,9984.0
8370,0.30642765760421753,56.96555709838867,867,7088.0,68.87055969238281,1179,9984.0
8380,0.30700361728668213,46.2287483215332,740,7088.0,76.61775970458984,1170,9984.0
8390,0.3079187273979187,32.47640609741211,474,7088.0,67.02519226074219,1007,9984.0
8400,0.3082203269004822,8.935074806213379,18,7088.0,41.39811325073242,516,9984.0
8410,0.30713850259780884,-15.419665336608887,-410,7088.0,14.643704414367676,216,9984.0
8420,0.3081118166446686,-22.01409149169922,-386,7088.0,-9.26906681060791,-322,9984.0
8430,0.3083929419517517,-21.22873878479004,-254,7088.0,-25.003559112548828,-439,9984.0
8440,0.30874642729759216,-13.71627426147461,-266,7088.0,-27.986583709716797,-394,9984.0
8450,0.3090927302837372,-9.854512214660645,-192,7088.0,-25.317790985107422,-486,9984.0
8460,0.30984604358673096,-11.187129974365234,-102,7088.0,-26.819427490234375,-515,9984.0
8470,0.3102731704711914,-11.729962348937988,-165,7088.0,-32.793617248535156,-451,9984.0
8480,0.31100770831108093,-18.891521453857422,-422,7088.0,-19.93846321105957,-159,9984.0
8490,0.31172817945480347,-21.126920700073242,-300,7088.0,17.59605598449707,343,9984.0
8500,0.31218695640563965,-10.709465026855469,-34,7088.0,45.61808395385742,815,9984.0
8510,0.31304609775543213,9.419285774230957,233,7088.0,47.90971374511719,778,9984.0
8520,0.3139047920703888,26.726959228515625,447,7088.0,37.73269271850586,551,9984.0
8530,0.3146648406982422,25.202959060668945,450,7088.0,40.10517120361328,726,9984.0
8540,0.31392544507980347,24.88180160522461,340,7088.0,28.127544403076172,337,9984.0
8550,0.3145194351673126,24.568029403686523,473,7088.0,5.783619403839111,-62,9984.0
8560,0.31503725051879883,26.87216567993164,461,7088.0,-14.096912384033203,-184,9984.0
8570,0.3153330683708191,35.11121368408203,540,7088.0,-16.217981338500977,-247,9984.0
8580,0.31543678045272827,32.751644134521484,538,7088.0,-14.402710914611816,-303,9984.0
8590,0.3158687353134155,22.108858108520508,358,7088.0,-19.581796646118164,-393,9984.0
8600,0.31637081503868103,6.0211968421936035,14,7088.0,-29.027713775634766,-401,9984.0
8610,0.3165709674358368,-4.185901641845703,-168,7088.0,-36.044307708740234,-618,9984.0
8620,0.31686410307884216,-14.715276718139648,-344,7088.0,-43.010746002197266,-675,9984.0
8630,0.31588056683540344,-28.132312774658203,-438,7088.0,-30.061643600463867,-407,9984.0
8640,0.31638073921203613,-37.54647445678711,-591,7088.0,1.8077107667922974,117,9984.0
8650,0.3170420229434967,-38.830177307128906,-566,7088.0,41.46935272216797,887,9984.0
8660,0.3175382912158966,-20.060300827026367,-278,7088.0,65.13379669189453,1195,9984.0
8670,0.31811240315437317,3.0786142349243164,197,7088.0,71.99588775634766,1054,9984.0
8680,0.31822866201400757,29.765644073486328,571,7088.0,60.04767990112305,881,9984.0
8690,0.31856855750083923,32.475948333740234,463,7088.0,29.06508445739746,333,9984.0
8700,0.31878772377967834,27.44366455078125,518,7088.0,4.336028099060059,-95,9984.0
8710,0.3187740445137024,31.58134651184082,557,7088.0,-9.417760848999023,-113,9984.0
8720,0.3204686939716339,32.71691131591797,440,7088.0,-18.696826934814453,-273,9984.0
8730,0.3202187716960907,18.064983367919922,219,7088.0,-35.607139587402344,-707,9984.0
8740,0.32041436433792114,1.1544359922409058,5,7088.0,-52.496219635009766,-975,9984.0
8750,0.32009586691856384,-10.589652061462402,-144,7088.0,-57.16493225097656,-913,9984.0
8760,0.319381982088089,-14.696928024291992,-269,7088.0,-45.74296188354492,-610,9984.0
8770,0.31912943720817566,-18.726877212524414,-391,7088.0,-30.967411041259766,-429,9984.0
8780,0.31884077191352844,-22.40081214904785,-442,7088.0,-18.07870101928711,-126,9984.0
8790,0.31858888268470764,-26.332847595214844,-477,7088.0,9.870708465576172,226,9984.0
8800,0.3187503516674042,-26.558860778808594,-392,7088.0,31.010879516601562,474,9984.0
8810,0.3184514045715332,-31.40631675720215,-479,7088.0,37.72496795654297,633,9984.0
8820,0.3184940814971924,-34.53817367553711,-558,7088.0,43.38347625732422,727,9984.0
8830,0.31849992275238037,-26.73610496520996,-396,7088.0,42.42819595336914,655,9984.0
8840,0.3185102939605713,-11.90613079071045,-59,7088.0,39.38662338256836,563,9984.0
8850,0.3201908469200134,0.924136221408844,-4,7088.0,28.988277435302734,497,9984.0
8860,0.3202632963657379,1.8417123556137085,25,7088.0,10.499311447143555,-112,9984.0
8870,0.32053935527801514,-3.6272599697113037,-63,7088.0,-13.253929138183594,-274,9984.0
8880,0.3207472562789917,-6.090732574462891,-168,7088.0,-31.546483993530273,-542,9984.0
8890,0.3209848999977112,-2.38087797164917,28,7088.0,-41.58012390136719,-804,9984.0
8900,0.3215921223163605,5.458662509918213,164,7088.0,-48.44120788574219,-786,9984.0
8910,0.3218449056148529,7.771417617797852,86,7088.0,-54.72108840942383,-857,9984.0
8920,0.32223203778266907,4.5616350173950195,-19,7088.0,-67.45863342285156,-1080,9984.0
8930,0.32329416275024414,2.9761240482330322,60,7088.0,-54.5180778503418,-700,9984.0
8940,0.32312554121017456,12.243592262268066,351,7088.0,-15.684788703918457,-131,9984.0
8950,0.32396742701530457,24.72231674194336,524,7088.0,21.712499618530273,555,9984.0
8960,0.32474637031555176,28.699201583862305,561,7088.0,58.2827262878418,1195,9984.0
8970,0.32535210251808167,24.882925033569336,462,7088.0,84.208984375,1381,9984.0
8980,0.32559534907341003,15.89188003540039,114,7088.0,90.87525177001953,1591,9984.0
8990,0.32522815465927124,-6.772071361541748,-263,7088.0,90.51771545410156,1430,9984.0
9000,0.32537782192230225,-13.942320823669434,-135,7088.0,72.65181732177734,1016,9984.0
9010,0.3268069922924042,-8.659802436828613,-83,7088.0,49.67716598510742,720,9984.0
9020,0.32691439986228943,-9.526030540466309,-244,7088.0,11.115948677062988,-36,9984.0
9030,0.3290266990661621,-16.7703857421875,-262,7088.0,-24.793617248535156,-561,9984.0
9040,0.3294215798377991,-31.938980102539062,-602,7088.0,-53.8549690246582,-895,9984.0
9050,0.32944682240486145,-34.173828125,-538,7088.0,-75.78597259521484,-1418,9984.0
9060,0.3294602632522583,-26.88075065612793,-332,7088.0,-91.70110321044922,-1493,9984.0
9070,0.327021062374115,-8.162227630615234,-71,7088.0,-100.06148529052734,-1680,9984.0
9080,0.3271862864494324,13.086560249328613,295,7088.0,-101.51847839355469,-1747,9984.0
9090,0.32843106985092163,22.989065170288086,463,7088.0,-97.31593322753906,-1610,9984.0
9100,0.32857656478881836,27.95089340209961,483,7088.0,-81.17680358886719,-1044,9984.0
9110,0.329326331615448,31.406526565551758,453,7088.0,-26.86635398864746,-43,9984.0
9120,0.3269282579421997,25.531538009643555,313,7088.0,34.270652770996094,834,9984.0
9130,0.32765766978263855,7.624008655548096,31,7088.0,73.7232894897461,1338,9984.0
9140,0.3282361924648285,-13.317505836486816,-328,7088.0,96.84294128417969,1580,9984.0
9150,0.3285970091819763,-39.18303680419922,-616,7088.0,108.92259979248047,1817,9984.0
9160,0.32683420181274414,-38.66953659057617,-642,7088.0,97.43937683105469,1583,9984.0
9170,0.32769954204559326,-27.968616485595703,-301,7088.0,70.37184143066406,956,9984.0
9180,0.3275865614414215,-16.841402053833008,-286,7088.0,28.056472778320312,310,9984.0
9190,0.32803282141685486,-11.630690574645996,-88,7088.0,-16.653663635253906,-445,9984.0
9200,0.32759252190589905,-12.733084678649902,-278,7088.0,-47.99263000488281,-929,9984.0
9210,0.3271968960762024,-16.479658126831055,-198,7088.0,-71.07402038574219,-1282,9984.0
9220,0.32711830735206604,-14.800110816955566,-264,7088.0,-84.25960540771484,-1345,9984.0
9230,0.3269980251789093,-3.322005033493042,79,7088.0,-87.26586151123047,-1498,9984.0
9240,0.3270215690135956,25.307514190673828,527,7088.0,-85.7769546508789,-1295,9984.0
9250,0.3256548345088959,46.76467514038086,784,7088.0,-69.37406921386719,-1039,9984.0
9260,0.3259848952293396,53.762638092041016,904,7088.0,-33.664520263671875,-409,9984.0
9270,0.3266296088695526,47.92816925048828,782,7088.0,19.955184936523438,545,9984.0
9280,0.3274400532245636,43.29634094238281,713,7088.0,59.334041595458984,1166,9984.0
9290,0.3258516490459442,42.62712478637695,573,7088.0,94.31057739257812,1708,9984.0
9300,0.32719478011131287,31.519248962402344,449,7088.0,103.49020385742188,1611,9984.0
9310,0.32798096537590027,17.385255813598633,283,7088.0,96.84449768066406,1503,9984.0
9320,0.32836082577705383,3.8506240844726562,7,7088.0,75.48159790039062,1145,9984.0
9330,0.3293427526950836,-8.041388511657715,-279,7088.0,38.93288803100586,442,9984.0
9340,0.3292454183101654,-24.073366165161133,-504,7088.0,-2.789155960083008,-119,9984.0
9350,0.3298775255680084,-47.525516510009766,-930,7088.0,-39.39459228515625,-785,9984.0
9360,0.3303551971912384,-58.97013854980469,-898,7088.0,-64.06747436523438,-1140,9984.0
9370,0.3308294713497162,-51.99547576904297,-780,7088.0,-77.39494323730469,-1229,9984.0
9380,0.3290194869041443,-29.39320182800293,-348,7088.0,-90.2684326171875,-1703,9984.0
9390,0.3295918405056,-6.613485813140869,31,7088.0,-103.90882873535156,-1661,9984.0
9400,0.330134779214859,15.902405738830566,302,7088.0,-84.59357452392578,-1182,9984.0
9410,0.33149659633636475,25.821794509887695,442,7088.0,-42.435115814208984,-568,9984.0
9420,0.33061566948890686,27.11859893798828,490,7088.0,4.491172790527344,216,9984.0
9430,0.33156225085258484,14.052552223205566,162,7088.0,49.31046676635742,948,9984.0
9440,0.33252954483032227,-8.343600273132324,-157,7088.0,92.65032958984375,1801,9984.0
9450,0.33341988921165466,-3.1523280143737793,-76,7088.0,112.82512664794922,1883,9984.0
9460,0.33419305086135864,9.80584716796875,167,7088.0,96.88856506347656,1410,9984.0
9470,0.33495256304740906,22.5052433013916,446,7088.0,66.40335845947266,1045,9984.0
9480,0.3356481194496155,26.56780433654785,359,7088.0,45.216434478759766,628,9984.0
9490,0.3362879455089569,18.39970588684082,170,7088.0,14.353403091430664,-80,9984.0
9500,0.33732444047927856,-6.66015625,-118,7088.0,-23.832868576049805,-613,9984.0
9510,0.3370034694671631,-18.951400756835938,-369,7088.0,-49.52640914916992,-769,9984.0
9520,0.3375510573387146,-16.53107261657715,-253,7088.0,-65.64949798583984,-1164,9984.0
9530,0.33823633193969727,-5.729538917541504,-18,7088.0,-77.11251068115234,-1347,9984.0
9540,0.3389078378677368,9.03647232055664,319,7088.0,-69.3182144165039,-1069,9984.0
9550,0.33999374508857727,24.816953659057617,490,7088.0,-47.80740737915039,-575,9984.0
9560,0.33810850977897644,27.83932113647461,393,7088.0,-2.875602960586548,284,9984.0
9570,0.3389890789985657,14.340352058410645,106,7088.0,44.31858444213867,940,9984.0
9580,0.3398151397705078,-6.5429253578186035,-309,7088.0,76.07894134521484,1513,9984.0
9590,0.3403984308242798,-30.348846435546875,-679,7088.0,96.8761215209961,1693,9984.0
9600,0.3378652334213257,-37.1526985168457,-657,7088.0,97.38089752197266,1408,9984.0
9610,0.3377645015716553,-34.91427230834961,-457,7088.0,70.49919128417969,919,9984.0
9620,0.33842238783836365,-25.73177719116211,-414,7088.0,29.47740936279297,165,9984.0
9630,0.3386567533016205,-16.398794174194336,-268,7088.0,-18.147436141967773,-519,9984.0
9640,0.3379943072795868,-8.573119163513184,-59,7088.0,-53.51420974731445,-1014,9984.0
9650,0.3383253812789917,-3.1616029739379883,-61,7088.0,-76.59941101074219,-1257,9984.0
9660,0.33842185139656067,4.018582344055176,95,7088.0,-88.25040435791016,-1591,9984.0
9670,0.33867931365966797,8.459988594055176,218,7088.0,-93.1600570678711,-1532,9984.0
9680,0.33900195360183716,14.275323867797852,227,7088.0,-84.11580657958984,-1158,9984.0
9690,0.3387458026409149,19.518253326416016,323,7088.0,-62.35224151611328,-860,9984.0
9700,0.3392891585826874,26.265466690063477,415,7088.0,-23.428821563720703,-194,9984.0
9710,0.3400196135044098,24.10384178161621,426,7088.0,29.19478988647461,670,9984.0
9720,0.34064820408821106,19.46242904663086,395,7088.0,77.12147521972656,1386,9984.0
9730,0.3404671251773834,22.217777252197266,368,7088.0,102.44189453125,1831,9984.0
9740,0.34059938788414,19.673114776611328,204,7088.0,110.70825958251953,1843,9984.0
9750,0.34260094165802,10.29178524017334,137,7088.0,92.45509338378906,1278,9984.0
9760,0.34279847145080566,-1.2964004278182983,-91,7088.0,53.888954162597656,798,9984.0
9770,0.34283339977264404,-20.113784790039062,-398,7088.0,12.592374801635742,-92,9984.0
9780,0.34355926513671875,-34.926231384277344,-585,7088.0,-27.267189025878906,-497,9984.0
9790,0.34395042061805725,-42.07538604736328,-742,7088.0,-55.85171127319336,-1153,9984.0
9800,0.3439778685569763,-46.16338348388672,-675,7088.0,-82.80123901367188,-1389,9984.0
9810,0.3444901406764984,-37.294368743896484,-597,7088.0,-97.81047058105469,-1636,9984.0
9820,0.344442754983902,-24.012725830078125,-264,7088.0,-96.7811279296875,-1484,9984.0
9830,0.34577322006225586,-7.776230335235596,-108,7088.0,-74.30449676513672,-1037,9984.0
9840,0.34629297256469727,5.758934497833252,200,7088.0,-34.13692855834961,-400,9984.0
9850,0.34706711769104004,22.75442886352539,450,7088.0,5.964546203613281,366,9984.0
9860,0.3448242247104645,35.6907844543457,554,7088.0,45.16332244873047,887,9984.0
9870,0.3453900218009949,48.35173416137695,900,7088.0,69.64401245117188,1108,9984.0
9880,0.3457700312137604,52.53206253051758,816,7088.0,77.25543975830078,1412,9984.0
9890,0.34595733880996704,39.17639923095703,542,7088.0,72.67423248291016,1035,9984.0
9900,0.34605029225349426,26.66358184814453,422,7088.0,55.19919204711914,847,9984.0
9910,0.34542223811149597,6.333556175231934,-7,7088.0,31.15482521057129,389,9984.0
9920,0.3457728326320648,-3.878269672393799,-8,7088.0,-0.835532546043396,-232,9984.0
9930,0.3462104797363281,-0.8658912181854248,-39,7088.0,-34.772544860839844,-598,9984.0
9940,0.34673547744750977,-0.23478735983371735,17,7088.0,-54.9577751159668,-1010,9984.0
9950,0.34807664155960083,-0.79855877161026,-22,7088.0,-64.68492889404297,-1112,9984.0
9960,0.34848856925964355,-10.484682083129883,-223,7088.0,-71.79792785644531,-1127,9984.0
9970,0.3489154875278473,-13.487680435180664,-209,7088.0,-64.29437255859375,-1041,9984.0
9980,0.34930703043937683,-12.186161041259766,-115,7088.0,-37.333900451660156,-510,9984.0
9990,0.3500397503376007,-13.084526062011719,-220,7088.0,-3.6091558933258057,159,9984.0
10000,0.34855714440345764,-10.52411937713623,-185,7088.0,31.721336364746094,781,9984.0
10010,0.3489721119403839,-4.387434482574463,-130,7088.0,58.81950378417969,1070,9984.0
10020,0.34918341040611267,4.576240539550781,151,7088.0,79.9258804321289,1338,9984.0
10030,0.3501853346824646,10.439929962158203,223,7088.0,90.45370483398438,1487,9984.0
10040,0.34956231713294983,12.98926067352295,167,7088.0,69.9830093383789,981,9984.0
10050,0.35010290145874023,12.212265014648438,239,7088.0,43.42776107788086,621,9984.0
10060,0.350344181060791,5.173257827758789,5,7088.0,11.23501205444336,85,9984.0
10070,0.35078057646751404,-3.172717332839966,-39,7088.0,-14.37224006652832,-424,9984.0
10080,0.3508598506450653,-12.580024719238281,-251,7088.0,-34.62113571166992,-543,9984.0
10090,0.3510670065879822,-12.092239379882812,-215,7088.0,-55.09920120239258,-1029,9984.0
10100,0.3512166738510132,-0.21803060173988342,141,7088.0,-74.57914733886719,-1350,9984.0
10110,0.35129061341285706,11.752551078796387,202,7088.0,-90.79580688476562,-1409,9984.0
10120,0.35146939754486084,17.358352661132812,257,7088.0,-100.51551055908203,-1570,9984.0
10130,0.3486485481262207,19.748369216918945,343,7088.0,-85.30296325683594,-1241,9984.0
10140,0.3486877977848053,21.09389305114746,349,7088.0,-45.94572448730469,-503,9984.0
10150,0.34901392459869385,4.732585430145264,-46,7088.0,10.449462890625,405,9984.0
10160,0.3497503697872162,-23.914243698120117,-475,7088.0,58.162200927734375,1117,9984.0
10170,0.34748896956443787,-44.16083908081055,-698,7088.0,89.24186706542969,1570,9984.0
10180,0.3475204110145569,-49.69169616699219,-896,7088.0,98.75607299804688,1744,9984.0
10190,0.3472769856452942,-50.5357551574707,-872,7088.0,94.35164642333984,1391,9984.0
10200,0.34886646270751953,-43.29425048828125,-606,7088.0,67.42607879638672,912,9984.0
10210,0.3472999930381775,-31.887781143188477,-462,7088.0,28.92702865600586,257,9984.0
10220,0.3473980128765106,-11.907547950744629,-63,7088.0,0.20968443155288696,-20,9984.0
10230,0.3480292856693268,4.208178520202637,55,7088.0,-22.156808853149414,-520,9984.0
10240,0.3482802212238312,13.207878112792969,366,7088.0,-44.68353271484375,-930,9984.0
10250,0.3489629626274109,20.725780487060547,285,7088.0,-65.90018463134766,-1053,9984.0
10260,0.34823471307754517,15.349167823791504,128,7088.0,-67.42974853515625,-1083,9984.0
10270,0.3487536609172821,10.139664649963379,330,7088.0,-54.634708404541016,-791,9984.0
10280,0.34963566064834595,25.316986083984375,505,7088.0,-31.70979881286621,-485,9984.0
10290,0.35026001930236816,28.06853485107422,508,7088.0,-14.22067928314209,-182,9984.0
10300,0.3458864986896515,16.987211227416992,173,7088.0,15.356761932373047,454,9984.0
10310,0.34621068835258484,-6.911661148071289,-303,7088.0,47.58077621459961,978,9984.0
10320,0.3463466763496399,-27.529560089111328,-597,7088.0,64.59101867675781,1155,9984.0
10330,0.3465268015861511,-39.045955657958984,-714,7088.0,60.13295364379883,839,9984.0
10340,0.3468266427516937,-48.729915618896484,-771,7088.0,32.04225540161133,363,9984.0
10350,0.34652218222618103,-50.60713195800781,-861,7088.0,2.0014865398406982,-18,9984.0
10360,0.3471989631652832,-43.19725036621094,-594,7088.0,-20.061145782470703,-407,9984.0
10370,0.3473549783229828,-27.906808853149414,-396,7088.0,-24.519176483154297,-264,9984.0
10380,0.34772130846977234,-0.33314239978790283,113,7088.0,-19.177724838256836,-376,9984.0
10390,0.3481210172176361,27.857181549072266,547,7088.0,-21.71327781677246,-271,9984.0
10400,0.3485594391822815,38.935203552246094,629,7088.0,-17.810157775878906,-363,9984.0
10410,0.3491092026233673,46.46124267578125,838,7088.0,-17.95437240600586,-227,9984.0
10420,0.34971749782562256,43.70553207397461,614,7088.0,-3.056365728378296,105,9984.0
10430,0.3478367030620575,28.032094955444336,371,7088.0,10.234986305236816,226,9984.0
10440,0.34833618998527527,16.007099151611328,261,7088.0,17.677839279174805,269,9984.0
10450,0.3486423194408417,5.196712970733643,101,7088.0,29.38994026184082,535,9984.0
10460,0.34903594851493835,6.028491973876953,40,7088.0,36.75532531738281,702,9984.0
10470,0.3489893078804016,6.890374660491943,159,7088.0,40.9102783203125,574,9984.0
10480,0.35014650225639343,11.759618759155273,222,7088.0,40.97457504272461,656,9984.0
10490,0.3504713773727417,12.559274673461914,154,7088.0,20.225595474243164,231,9984.0
10500,0.3505604565143585,9.784605026245117,208,7088.0,-7.8704352378845215,-236,9984.0
10510,0.3506994843482971,7.28221321105957,29,7088.0,-22.14232635498047,-311,9984.0
10520,0.35058385133743286,-5.562002658843994,-146,7088.0,-30.768131256103516,-578,9984.0
10530,0.35064470767974854,-18.463890075683594,-303,7088.0,-36.33419418334961,-648,9984.0
10540,0.35100650787353516,-26.889972686767578,-476,7088.0,-56.23596954345703,-931,9984.0
10550,0.351255863904953,-25.07895278930664,-440,7088.0,-67.30030059814453,-1115,9984.0
10560,0.3520934283733368,-18.964876174926758,-202,7088.0,-48.83367919921875,-701,9984.0
10570,0.35303008556365967,-15.803690910339355,-236,7088.0,-11.519055366516113,54,9984.0
10580,0.35355865955352783,-7.764536380767822,-148,7088.0,10.639842987060547,277,9984.0
10590,0.3540910482406616,3.1143925189971924,93,7088.0,29.427024841308594,549,9984.0
10600,0.3545163571834564,12.614965438842773,299,7088.0,51.36265563964844,916,9984.0
10610,0.35411715507507324,13.416229248046875,164,7088.0,63.87108612060547,1234,9984.0
10620,0.35397204756736755,15.449584007263184,320,7088.0,73.1493911743164,1144,9984.0
10630,0.3535672128200531,23.27627182006836,426,7088.0,66.88646697998047,1067,9984.0
10640,0.3533400595188141,33.9157829284668,517,7088.0,35.30823516845703,358,9984.0
10650,0.35295164585113525,40.38593292236328,710,7088.0,2.117509126663208,-143,9984.0
10660,0.35291269421577454,28.165868759155273,309,7088.0,-24.774612426757812,-479,9984.0
10670,0.3528856635093689,6.4581170082092285,29,7088.0,-36.96470260620117,-696,9984.0
10680,0.35281282663345337,-12.825836181640625,-275,7088.0,-62.26430130004883,-1118,9984.0
10690,0.3527379035949707,-25.74468994140625,-545,7088.0,-93.32074737548828,-1636,9984.0
10700,0.3517734408378601,-30.453418731689453,-437,7088.0,-111.5718002319336,-1944,9984.0
10710,0.3518107235431671,-26.670799255371094,-420,7088.0,-106.82506561279297,-1580,9984.0
10720,0.3519448935985565,-22.799694061279297,-309,7088.0,-62.12114334106445,-789,9984.0
10730,0.35287508368492126,-14.060542106628418,-234,7088.0,-16.762121200561523,135,9984.0
10740,0.35290345549583435,-5.439391613006592,-142,7088.0,39.54600524902344,912,9984.0
10750,0.35353782773017883,-4.65656042098999,-16,7088.0,82.74736785888672,1532,9984.0
10760,0.353848934173584,5.872517108917236,182,7088.0,117.7616195678711,1943,9984.0
10770,0.35426729917526245,5.125762939453125,60,7088.0,121.7862319946289,1971,9984.0
10780,0.3546592593193054,0.280669242143631,-41,7088.0,92.86714172363281,1316,9984.0
10790,0.35482579469680786,-3.3989813327789307,-77,7088.0,60.440486907958984,763,9984.0
10800,0.35484859347343445,-5.204008102416992,-37,7088.0,23.643524169921875,192,9984.0
10810,0.3553728759288788,-2.146761178970337,-116,7088.0,-2.3714003562927246,-208,9984.0
10820,0.3559642732143402,-4.244487762451172,-54,7088.0,-32.62067794799805,-736,9984.0
10830,0.35557353496551514,-5.732720851898193,-156,7088.0,-66.43089294433594,-1255,9984.0
10840,0.3560338318347931,-0.4230092763900757,148,7088.0,-80.92170715332031,-1325,9984.0
10850,0.3563889265060425,19.51620864868164,454,7088.0,-68.60868072509766,-840,9984.0
10860,0.35738372802734375,43.28455352783203,789,7088.0,-43.968345642089844,-666,9984.0
10870,0.3573864996433258,56.14069366455078,988,7088.0,-16.49087142944336,33,9984.0
10880,0.35782214999198914,51.5948371887207,742,7088.0,24.374300003051758,722,9984.0
10890,0.3582974374294281,33.78490447998047,307,7088.0,63.43349075317383,1265,9984.0
10900,0.3590882420539856,8.144505500793457,-56,7088.0,84.69458770751953,1351,9984.0
10910,0.3592030107975006,-14.095163345336914,-277,7088.0,81.29042053222656,1185,9984.0
10920,0.35810336470603943,-27.85104751586914,-477,7088.0,56.04326248168945,785,9984.0
10930,0.3583419620990753,-33.591941833496094,-613,7088.0,25.237825393676758,142,9984.0
10940,0.3589026927947998,-38.68931579589844,-606,7088.0,-8.16150188446045,-178,9984.0
10950,0.35918712615966797,-37.97828674316406,-654,7088.0,-35.29294204711914,-740,9984.0
10960,0.3567792773246765,-35.08529281616211,-467,7088.0,-60.436710357666016,-954,9984.0
10970,0.3568766117095947,-17.489437103271484,-265,7088.0,-77.14946746826172,-1383,9984.0
10980,0.3577898442745209,0.5551704168319702,188,7088.0,-87.7957534790039,-1379,9984.0
10990,0.3583483397960663,26.131593704223633,467,7088.0,-78.35011291503906,-1148,9984.0
11000,0.35914164781570435,39.609130859375,674,7088.0,-51.85422134399414,-779,9984.0
11010,0.3585417568683624,49.2879638671875,927,7088.0,-15.72664737701416,-130,9984.0
11020,0.35921338200569153,53.62239456176758,881,7088.0,26.717866897583008,660,9984.0
11030,0.3598066568374634,45.651302337646484,626,7088.0,71.15882110595703,1443,9984.0
11040,0.36018726229667664,30.17514419555664,311,7088.0,105.75608825683594,1896,9984.0
11050,0.3583884835243225,11.538799285888672,146,7088.0,114.06280517578125,1683,9984.0
11060,0.35947734117507935,-6.865753173828125,-90,7088.0,89.73480987548828,1278,9984.0
11070,0.3599119782447815,-19.611160278320312,-429,7088.0,44.28513717651367,572,9984.0
11080,0.36034733057022095,-27.739765167236328,-375,7088.0,3.2886009216308594,-175,9984.0
11090,0.35799071192741394,-35.5953483581543,-656,7088.0,-34.06871032714844,-680,9984.0
11100,0.35800307989120483,-42.58683395385742,-660,7088.0,-61.627662658691406,-1196,9984.0
11110,0.3582354187965393,-38.79545211791992,-671,7088.0,-81.87797546386719,-1225,9984.0
11120,0.3585129976272583,-52.25434112548828,-928,7088.0,-70.5905990600586,-1130,9984.0
11130,0.358625203371048,-61.3585090637207,-955,7088.0,-57.659969329833984,-925,9984.0
11140,0.3572175204753876,-56.44529724121094,-880,7088.0,-46.83182907104492,-566,9984.0
11150,0.357424259185791,-41.33625411987305,-594,7088.0,-17.26392364501953,-184,9984.0
11160,0.3574993908405304,-9.57620620727539,45,7088.0,9.367491722106934,335,9984.0
11170,0.3580577075481415,20.259326934814453,320,7088.0,36.69398880004883,686,9984.0
11180,0.3576689660549164,30.297168731689453,567,7088.0,52.44542694091797,894,9984.0
11190,0.35760125517845154,33.63502883911133,497,7088.0,52.67841720581055,892,9984.0
11200,0.35765540599823,31.970600128173828,563,7088.0,37.22269821166992,487,9984.0
11210,0.3575296998023987,30.932968139648438,486,7088.0,23.215932846069336,441,9984.0
11220,0.3569677174091339,33.36388397216797,557,7088.0,9.756814002990723,-38,9984.0
11230,0.35693007707595825,26.777435302734375,484,7088.0,-7.452166557312012,-140,9984.0
11240,0.3568347692489624,19.39049530029297,204,7088.0,-20.65125274658203,-336,9984.0
11250,0.3568612337112427,5.650419235229492,85,7088.0,-28.051189422607422,-537,9984.0
11260,0.35699570178985596,-11.950630187988281,-256,7088.0,-26.090492248535156,-287,9984.0
11270,0.35751861333847046,-25.913671493530273,-520,7088.0,-16.148853302001953,-164,9984.0
11280,0.35766729712486267,-31.707143783569336,-485,7088.0,3.961521625518799,198,9984.0
11290,0.35784703493118286,-22.623563766479492,-229,7088.0,36.11624526977539,696,9984.0
11300,0.35788217186927795,-12.377249717712402,-285,7088.0,54.271244049072266,914,9984.0
11310,0.3581705391407013,-24.236055374145508,-379,7088.0,47.761497497558594,627,9984.0
11320,0.3581911623477936,-19.333629608154297,-330,7088.0,25.39470863342285,410,9984.0
11330,0.35818296670913696,-18.019550323486328,-288,7088.0,-4.397802352905273,-255,9984.0
11340,0.3581570088863373,-12.37572193145752,-152,7088.0,-23.901866912841797,-410,9984.0
11350,0.35802823305130005,1.4521217346191406,130,7088.0,-36.705955505371094,-689,9984.0
11360,0.3601229786872864,17.738143920898438,335,7088.0,-49.422977447509766,-753,9984.0
11370,0.35990196466445923,27.214828491210938,390,7088.0,-50.02696990966797,-835,9984.0
11380,0.35963761806488037,32.57247543334961,677,7088.0,-36.104488372802734,-472,9984.0
11390,0.36025452613830566,44.009490966796875,658,7088.0,-12.465383529663086,73,9984.0
11400,0.359821617603302,37.76563262939453,486,7088.0,13.216598510742188,408,9984.0
11410,0.3603319525718689,7.721673011779785,-18,7088.0,30.19696044921875,399,9984.0
11420,0.36084818840026855,-12.664844512939453,-164,7088.0,36.6314582824707,708,9984.0
11430,0.3611692786216736,-8.289687156677246,-111,7088.0,50.54816436767578,976,9984.0
11440,0.36263927817344666,18.872234344482422,527,7088.0,52.21673583984375,766,9984.0
11450,0.36302319169044495,45.86964797973633,790,7088.0,47.440269470214844,886,9984.0
11460,0.3632652163505554,49.47235870361328,709,7088.0,51.52334213256836,774,9984.0
11470,0.3638269901275635,33.64616394042969,446,7088.0,47.86130142211914,657,9984.0
11480,0.363822340965271,2.4587349891662598,-145,7088.0,34.30083465576172,485,9984.0
11490,0.3677454888820648,-19.98238754272461,-385,7088.0,17.693681716918945,90,9984.0
11500,0.36806410551071167,-33.73617935180664,-653,7088.0,-11.138136863708496,-327,9984.0
11510,0.36815986037254333,-40.83635711669922,-667,7088.0,-46.44976043701172,-1015,9984.0
11520,0.36821404099464417,-46.56083297729492,-775,7088.0,-61.277889251708984,-930,9984.0
11530,0.3693809509277344,-43.56502151489258,-699,7088.0,-62.21722412109375,-1034,9984.0
11540,0.3692852854728699,-36.17041778564453,-509,7088.0,-57.850677490234375,-1011,9984.0
11550,0.36940765380859375,-21.08626937866211,-245,7088.0,-43.441612243652344,-525,9984.0
11560,0.36957040429115295,-3.655963659286499,111,7088.0,-12.814201354980469,-61,9984.0
11570,0.36978259682655334,13.874112129211426,263,7088.0,21.834407806396484,507,9984.0
11580,0.3708506226539612,24.87416648864746,347,7088.0,43.5999755859375,705,9984.0
11590,0.37085890769958496,34.61151123046875,707,7088.0,52.48845291137695,996,9984.0
11600,0.37093374133110046,52.48312759399414,899,7088.0,52.46698760986328,680,9984.0
11610,0.37101978063583374,62.08567810058594,996,7088.0,42.73161697387695,784,9984.0
11620,0.37289494276046753,58.77965545654297,901,7088.0,32.58671951293945,329,9984.0
11630,0.3726629316806793,44.19369125366211,661,7088.0,6.180817604064941,72,9984.0
11640,0.3730059266090393,18.21202278137207,96,7088.0,-20.648427963256836,-498,9984.0
11650,0.3730950951576233,-11.44214916229248,-296,7088.0,-40.6627082824707,-584,9984.0
11660,0.37325766682624817,-38.69707489013672,-820,7088.0,-41.96263122558594,-681,9984.0
11670,0.37304559350013733,-58.13920593261719,-917,7088.0,-44.08362579345703,-759,9984.0
11680,0.3734102249145508,-57.64303207397461,-932,7088.0,-39.11344909667969,-510,9984.0
11690,0.37323060631752014,-38.750728607177734,-507,7088.0,-35.19508743286133,-686,9984.0
11700,0.37354040145874023,-8.357682228088379,18,7088.0,-31.853368759155273,-467,9984.0
11710,0.3726268410682678,18.202177047729492,328,7088.0,-18.160165786743164,-197,9984.0
11720,0.372832715511322,34.74801254272461,678,7088.0,6.166326999664307,149,9984.0
11730,0.37297847867012024,39.42234420776367,547,7088.0,17.070802688598633,422,9984.0
11740,0.37288692593574524,30.585540771484375,426,7088.0,26.2606258392334,443,9984.0
11750,0.3719070255756378,17.435455322265625,320,7088.0,31.1787052154541,504,9984.0
11760,0.37169426679611206,9.236926078796387,86,7088.0,28.427661895751953,505,9984.0
11770,0.3710988759994507,2.3560831546783447,-6,7088.0,17.872692108154297,146,9984.0
11780,0.370530366897583,-3.1282718181610107,-44,7088.0,4.947233200073242,-17,9984.0
11790,0.36979377269744873,-10.908596992492676,-247,7088.0,-11.380500793457031,-250,9984.0
11800,0.37163305282592773,-27.596555709838867,-512,7088.0,-32.28946304321289,-664,9984.0
11810,0.3710123598575592,-37.244895935058594,-535,7088.0,-44.57473373413086,-716,9984.0
11820,0.3704197108745575,-27.264177322387695,-435,7088.0,-44.370147705078125,-592,9984.0
11830,0.3698752820491791,-7.907833099365234,-32,7088.0,-37.38636016845703,-693,9984.0
11840,0.3687330484390259,4.910342693328857,148,7088.0,-29.764129638671875,-381,9984.0
11850,0.36844366788864136,10.054364204406738,128,7088.0,-13.919124603271484,-116,9984.0
11860,0.36826762557029724,12.36153507232666,208,7088.0,0.7995206713676453,40,9984.0
11870,0.36816680431365967,7.242542266845703,154,7088.0,13.300925254821777,210,9984.0
11880,0.36795657873153687,2.575671911239624,46,7088.0,26.817983627319336,576,9984.0
11890,0.3676575720310211,2.544801950454712,-54,7088.0,39.58504867553711,794,9984.0
11900,0.36723950505256653,-3.3784005641937256,-123,7088.0,45.0650634765625,590,9984.0
11910,0.3668537735939026,-24.532657623291016,-413,7088.0,27.377687454223633,370,9984.0
11920,0.3665961027145386,-31.290529251098633,-581,7088.0,7.714410305023193,85,9984.0
11930,0.3669373691082001,-36.37384796142578,-563,7088.0,-13.746389389038086,-396,9984.0
11940,0.36638450622558594,-38.12488555908203,-647,7088.0,-36.03595733642578,-580,9984.0
11950,0.3657154440879822,-40.1743049621582,-708,7088.0,-47.866153717041016,-846,9984.0
11960,0.36476531624794006,-41.22621154785156,-637,7088.0,-42.633079528808594,-592,9984.0
11970,0.3657747507095337,-43.006134033203125,-777,7088.0,-29.15005111694336,-474,9984.0
11980,0.3650321960449219,-34.63139343261719,-426,7088.0,-20.433778762817383,-315,9984.0
11990,0.3648550808429718,-14.362703323364258,-190,7088.0,-16.566635131835938,-185,9984.0
12000,0.3645925521850586,13.653360366821289,403,7088.0,-17.35715103149414,-401,9984.0
12010,0.3646186888217926,38.17931365966797,741,7088.0,-22.866439819335938,-291,9984.0
12020,0.3633292317390442,62.18472671508789,1084,7088.0,-4.809004783630371,-35,9984.0
12030,0.3630371391773224,72.41046905517578,1236,7088.0,21.342376708984375,551,9984.0
12040,0.36343926191329956,62.964969635009766,892,7088.0,35.399906158447266,675,9984.0
12050,0.3633699417114258,38.68881607055664,483,7088.0,49.68724822998047,775,9984.0
12060,0.36413347721099854,0.9155832529067993,-74,7088.0,54.195335388183594,912,9984.0
12070,0.36392295360565186,-30.471647262573242,-709,7088.0,58.69894027709961,1094,9984.0
12080,0.3635914623737335,-49.6580696105957,-783,7088.0,52.78117370605469,713,9984.0
12090,0.3631899654865265,-45.41953659057617,-682,7088.0,27.95122528076172,280,9984.0
12100,0.3637244701385498,-23.939014434814453,-114,7088.0,-5.983057975769043,-359,9984.0
12110,0.36223864555358887,1.1957262754440308,22,7088.0,-41.912288665771484,-810,9984.0
12120,0.3623211681842804,8.698966026306152,228,7088.0,-63.7598991394043,-1119,9984.0
12130,0.36228621006011963,19.84252166748047,344,7088.0,-74.77964782714844,-1196,9984.0
12140,0.36225971579551697,28.563295364379883,524,7088.0,-72.87977600097656,-1180,9984.0
12150,0.3613874912261963,29.760189056396484,502,7088.0,-61.5529899597168,-883,9984.0
12160,0.36155053973197937,26.438322067260742,416,7088.0,-38.73365020751953,-405,9984.0
12170,0.36204221844673157,26.335094451904297,392,7088.0,-9.938945770263672,45,9984.0
12180,0.36265942454338074,27.669078826904297,469,7088.0,20.26626968383789,390,9984.0
12190,0.36047855019569397,21.238006591796875,355,7088.0,51.16401672363281,974,9984.0
12200,0.360617458820343,-0.6224741339683533,-167,7088.0,71.81048583984375,1221,9984.0
12210,0.3611258268356323,-31.451419830322266,-610,7088.0,77.36923217773438,1315,9984.0
12220,0.36124852299690247,-40.804588317871094,-767,7088.0,68.74983978271484,1017,9984.0
12230,0.36127370595932007,-43.89906692504883,-648,7088.0,50.547637939453125,653,9984.0
12240,0.3616953492164612,-42.286346435546875,-677,7088.0,23.818092346191406,305,9984.0
12250,0.36131057143211365,-35.98092269897461,-466,7088.0,-4.543782711029053,-190,9984.0
12260,0.36120039224624634,-23.995290756225586,-381,7088.0,-32.32193374633789,-579,9984.0
12270,0.36111700534820557,-15.128087043762207,-159,7088.0,-50.58075714111328,-966,9984.0
12280,0.3604085147380829,-6.877335071563721,-104,7088.0,-67.52062225341797,-1159,9984.0
12290,0.3601597547531128,-1.6966145038604736,-24,7088.0,-91.66697692871094,-1665,9984.0
12300,0.3599398136138916,10.791025161743164,311,7088.0,-98.9955825805664,-1540,9984.0
12310,0.3609723448753357,23.41798973083496,339,7088.0,-77.04214477539062,-1029,9984.0
12320,0.3611031174659729,32.604122161865234,589,7088.0,-39.81319808959961,-505,9984.0
12330,0.359700083732605,42.35911560058594,745,7088.0,5.43989372253418,235,9984.0
12340,0.3600895404815674,42.362361907958984,735,7088.0,54.30242919921875,1060,9984.0
12350,0.3605167865753174,34.99256134033203,494,7088.0,98.92940521240234,1869,9984.0
12360,0.3611285388469696,19.124677658081055,160,7088.0,132.62820434570312,2254,9984.0
12370,0.36074838042259216,-3.2851674556732178,-151,7088.0,131.0601348876953,1943,9984.0
12380,0.36029815673828125,-22.88810920715332,-438,7088.0,96.0528335571289,1524,9984.0
12390,0.3623899519443512,-33.2166862487793,-589,7088.0,49.813453674316406,517,9984.0
12400,0.3625464141368866,-34.19931411743164,-583,7088.0,3.418015480041504,-87,9984.0
12410,0.36178088188171387,-26.771167755126953,-357,7088.0,-34.77790069580078,-777,9984.0
12420,0.3619850277900696,-18.345481872558594,-320,7088.0,-59.06199645996094,-982,9984.0
12430,0.362050861120224,-6.189912796020508,33,7088.0,-64.58247375488281,-1048,9984.0
12440,0.36240774393081665,9.081379890441895,147,7088.0,-61.613624572753906,-869,9984.0
12450,0.36288848519325256,15.021060943603516,317,7088.0,-44.48910903930664,-717,9984.0
12460,0.36163800954818726,14.192681312561035,235,7088.0,-27.35259437561035,-305,9984.0
12470,0.3625634014606476,15.916281700134277,247,7088.0,-4.215106964111328,92,9984.0
12480,0.36299824714660645,19.282085418701172,336,7088.0,16.282499313354492,307,9984.0
12490,0.3634737432003021,20.339311599731445,372,7088.0,44.764137268066406,816,9984.0
12500,0.36280617117881775,11.922463417053223,73,7088.0,68.43762969970703,1315,9984.0
12510,0.36286118626594543,-1.3790414333343506,-118,7088.0,89.85424041748047,1340,9984.0
12520,0.36280199885368347,-10.523181915283203,-132,7088.0,76.10685729980469,1132,9984.0
12530,0.3627240061759949,-11.158366203308105,-187,7088.0,45.8486442565918,587,9984.0
12540,0.36286506056785583,1.3687851428985596,132,7088.0,5.076446056365967,-75,9984.0
12550,0.3633427917957306,11.993017196655273,119,7088.0,-24.091346740722656,-468,9984.0
12560,0.36337170004844666,8.906536102294922,162,7088.0,-39.32048416137695,-766,9984.0
12570,0.3632892966270447,-2.8304030895233154,-138,7088.0,-56.390052795410156,-870,9984.0
12580,0.36346635222435,-15.382819175720215,-372,7088.0,-69.18391418457031,-1224,9984.0
12590,0.36473169922828674,-20.534645080566406,-233,7088.0,-83.12227630615234,-1483,9984.0
12600,0.36506104469299316,-17.454410552978516,-306,7088.0,-82.18428802490234,-1221,9984.0
12610,0.36543896794319153,-29.020036697387695,-516,7088.0,-51.48970413208008,-565,9984.0
12620,0.3658657670021057,-27.751890182495117,-447,7088.0,-2.461822032928467,211,9984.0
12630,0.36763325333595276,-8.235453605651855,42,7088.0,43.209327697753906,768,9984.0
12640,0.3687678873538971,20.993680953979492,515,7088.0,69.45709991455078,1201,9984.0
12650,0.3692721724510193,32.89645767211914,568,7088.0,87.14920806884766,1526,9984.0
12660,0.3695324957370758,42.22822189331055,657,7088.0,81.2156982421875,1236,9984.0
12670,0.3705371022224426,41.09132766723633,679,7088.0,59.28105926513672,841,9984.0
12680,0.3705807030200958,29.23605728149414,411,7088.0,34.570125579833984,559,9984.0
12690,0.37117165327072144,12.998283386230469,97,7088.0,12.390363693237305,27,9984.0
12700,0.3715915381908417,-12.679570198059082,-253,7088.0,-15.314143180847168,-404,9984.0
12710,0.37188631296157837,-36.80168151855469,-694,7088.0,-42.96800994873047,-732,9984.0
12720,0.37302979826927185,-48.78810119628906,-885,7088.0,-68.94314575195312,-1243,9984.0
12730,0.3738667666912079,-54.666221618652344,-809,7088.0,-86.31600952148438,-1481,9984.0
12740,0.374453067779541,-49.50371170043945,-720,7088.0,-77.25428771972656,-1024,9984.0
12750,0.37505173683166504,-28.631132125854492,-294,7088.0,-48.01786422729492,-586,9984.0
12760,0.3778415620326996,2.6219353675842285,166,7088.0,-15.522969245910645,-79,9984.0
12770,0.3778415620326996,21.503849029541016,519,7088.0,20.752553939819336,512,9984.0
12780,0.37892791628837585,30.260353088378906,484,7088.0,51.90593338012695,1054,9984.0
12790,0.3797064423561096,29.697921752929688,387,7088.0,65.59345245361328,1096,9984.0
12800,0.38026586174964905,24.99883460998535,465,7088.0,62.82591247558594,912,9984.0
12810,0.3798525929450989,24.117778778076172,333,7088.0,40.95744705200195,542,9984.0
12820,0.3802431523799896,21.103744506835938,289,7088.0,6.017004013061523,-98,9984.0
12830,0.38078418374061584,17.794811248779297,307,7088.0,-19.447603225708008,-513,9984.0
12840,0.381082683801651,0.023478815332055092,-230,7088.0,-42.154701232910156,-688,9984.0
12850,0.3797272741794586,-29.139806747436523,-683,7088.0,-52.50419235229492,-962,9984.0
12860,0.3798186480998993,-54.910667419433594,-947,7088.0,-59.11735534667969,-1044,9984.0
12870,0.37998151779174805,-69.2112045288086,-1141,7088.0,-58.02147674560547,-860,9984.0
12880,0.3800179660320282,-72.56982421875,-1164,7088.0,-46.7001838684082,-629,9984.0
12890,0.3798602223396301,-56.14787292480469,-891,7088.0,-27.721651077270508,-409,9984.0
12900,0.38006892800331116,-26.438941955566406,-165,7088.0,-5.470698356628418,-85,9984.0
12910,0.3802145719528198,10.2272367477417,348,7088.0,16.734573364257812,447,9984.0
12920,0.38059529662132263,37.42421340942383,692,7088.0,42.75746154785156,669,9984.0
12930,0.3807559609413147,63.887535095214844,1169,7088.0,59.45425033569336,1064,9984.0
12940,0.3783961236476898,79.64491271972656,1312,7088.0,58.71241760253906,940,9984.0
12950,0.3782743215560913,83.60664367675781,1359,7088.0,41.61699295043945,489,9984.0
12960,0.3777691125869751,75.14517974853516,1210,7088.0,14.864439964294434,136,9984.0
12970,0.37741225957870483,60.48820877075195,854,7088.0,-12.200335502624512,-186,9984.0
12980,0.3760300576686859,30.337282180786133,276,7088.0,-34.54994201660156,-683,9984.0
12990,0.3754732012748718,-10.944664001464844,-306,7088.0,-54.567649841308594,-1040,9984.0
13000,0.37538811564445496,-44.26991653442383,-833,7088.0,-70.90056610107422,-1211,9984.0
13010,0.37498703598976135,-74.60261535644531,-1282,7088.0,-77.50752258300781,-1208,9984.0
13020,0.37444615364074707,-78.51219177246094,-1280,7088.0,-62.202884674072266,-801,9984.0
13030,0.37226244807243347,-57.18103790283203,-856,7088.0,-38.51597213745117,-551,9984.0
13040,0.3724638819694519,-22.826400756835938,-79,7088.0,-15.030779838562012,-178,9984.0
13050,0.3721691966056824,13.203007698059082,291,7088.0,20.5263614654541,553,9984.0
13060,0.37208300828933716,21.794885635375977,290,7088.0,49.432247161865234,949,9984.0
13070,0.3694501519203186,24.769554138183594,455,7088.0,70.23605346679688,1107,9984.0
13080,0.36867865920066833,27.90293312072754,456,7088.0,72.13028717041016,1232,9984.0
13090,0.36774760484695435,27.846580505371094,419,7088.0,61.79905319213867,918,9984.0
13100,0.366630882024765,19.76006507873535,208,7088.0,40.539608001708984,653,9984.0
13110,0.36586135625839233,-0.9443556666374207,-135,7088.0,16.751039505004883,33,9984.0
13120,0.3659054934978485,-18.903589248657227,-272,7088.0,-9.34643268585205,-209,9984.0
13130,0.3651302754878998,-16.922773361206055,-228,7088.0,-30.605932235717773,-665,9984.0
13140,0.3645063638687134,-9.507242202758789,-164,7088.0,-43.69211196899414,-653,9984.0
13150,0.3638296127319336,-14.456090927124023,-226,7088.0,-46.550106048583984,-794,9984.0
13160,0.3616395890712738,-28.401775360107422,-591,7088.0,-35.117408752441406,-460,9984.0
13170,0.3611374497413635,-38.12926483154297,-553,7088.0,-24.353986740112305,-377,9984.0
13180,0.3610137104988098,-22.308712005615234,-259,7088.0,-9.355369567871094,16,9984.0
13190,0.36082571744918823,6.037643909454346,312,7088.0,17.077938079833984,368,9984.0
13200,0.35906264185905457,36.276519775390625,688,7088.0,46.121700286865234,827,9984.0
13210,0.3587116599082947,59.75896453857422,1089,7088.0,62.98451614379883,1117,9984.0
13220,0.3584461510181427,71.87635040283203,1181,7088.0,65.00225830078125,964,9984.0
13230,0.3578403890132904,72.40167999267578,1116,7088.0,51.310176849365234,839,9984.0
13240,0.3582233488559723,52.4582405090332,799,7088.0,26.204524993896484,159,9984.0
13250,0.35871750116348267,24.475046157836914,232,7088.0,-10.38458251953125,-202,9984.0
13260,0.3587070405483246,-5.165162086486816,-59,7088.0,-27.432199478149414,-567,9984.0
13270,0.35866454243659973,-22.620407104492188,-496,7088.0,-45.093589782714844,-764,9984.0
13280,0.3587021827697754,-35.80678176879883,-554,7088.0,-63.10148239135742,-1201,9984.0
13290,0.36036503314971924,-36.68069839477539,-597,7088.0,-77.55136108398438,-1245,9984.0
13300,0.3607570230960846,-30.913537979125977,-498,7088.0,-71.0938949584961,-1172,9984.0
13310,0.36111629009246826,-21.393457412719727,-220,7088.0,-46.508792877197266,-538,9984.0
13320,0.36208483576774597,-7.1006622314453125,-112,7088.0,-7.528861045837402,48,9984.0
13330,0.3634587526321411,8.513118743896484,214,7088.0,32.994300842285156,670,9984.0
13340,0.3621716797351837,23.113943099975586,503,7088.0,70.9967041015625,1314,9984.0
13350,0.3629341721534729,40.89633560180664,636,7088.0,96.64253997802734,1715,9984.0
13360,0.36381369829177856,44.14714050292969,766,7088.0,111.95216369628906,1734,9984.0
13370,0.3642987906932831,35.053855895996094,451,7088.0,94.63851928710938,1534,9984.0
13380,0.3651939630508423,20.988862991333008,308,7088.0,60.09503173828125,766,9984.0
13390,0.3659958839416504,8.478083610534668,22,7088.0,23.679832458496094,228,9984.0
13400,0.3666253685951233,-10.559800148010254,-226,7088.0,-14.505861282348633,-497,9984.0
13410,0.3671410083770752,-22.546573638916016,-382,7088.0,-39.30554962158203,-681,9984.0
13420,0.36894670128822327,-31.080869674682617,-572,7088.0,-56.56328201293945,-1111,9984.0
13430,0.3696083724498749,-32.86943817138672,-474,7088.0,-74.50849151611328,-1408,9984.0
13440,0.37041622400283813,-30.596017837524414,-523,7088.0,-88.11856842041016,-1393,9984.0
13450,0.3711119592189789,-26.913124084472656,-411,7088.0,-90.78739166259766,-1510,9984.0
13460,0.37266942858695984,-15.746699333190918,-48,7088.0,-69.9381332397461,-962,9984.0
13470,0.3696783185005188,8.15996265411377,259,7088.0,-35.02963638305664,-325,9984.0
13480,0.3707432150840759,19.097379684448242,327,7088.0,1.4061439037322998,290,9984.0
13490,0.3717116415500641,22.106746673583984,219,7088.0,34.81096267700195,888,9984.0
13500,0.37259387969970703,5.93083381652832,-111,7088.0,60.78853225708008,1146,9984.0
13510,0.3715011775493622,-12.539226531982422,-303,7088.0,70.00849914550781,1117,9984.0
13520,0.371801495552063,-19.968048095703125,-326,7088.0,73.93680572509766,1121,9984.0
13530,0.3722008764743805,-26.279685974121094,-405,7088.0,59.14696502685547,837,9984.0
13540,0.3721703290939331,-21.47848129272461,-324,7088.0,52.33901596069336,909,9984.0
13550,0.3722021281719208,-13.13491153717041,-91,7088.0,43.18679428100586,494,9984.0
13560,0.37131261825561523,-10.491653442382812,-127,7088.0,11.849390983581543,-27,9984.0
13570,0.3713339865207672,-12.703998565673828,-276,7088.0,-32.44261169433594,-708,9984.0
13580,0.3712158501148224,-12.8502779006958,-161,7088.0,-62.595516204833984,-1114,9984.0
13590,0.37096336483955383,-13.023767471313477,-269,7088.0,-70.66345977783203,-1007,9984.0
13600,0.371231347322464,-24.27674674987793,-484,7088.0,-51.29366683959961,-773,9984.0
13610,0.37114647030830383,-33.100162506103516,-583,7088.0,-33.76053237915039,-561,9984.0
13620,0.37076783180236816,-36.886199951171875,-535,7088.0,-13.099867820739746,-149,9984.0
13630,0.3702366352081299,-34.118961334228516,-527,7088.0,10.433865547180176,351,9984.0
13640,0.3698115050792694,-19.701332092285156,-309,7088.0,34.61884689331055,742,9984.0
13650,0.3692485988140106,-6.422402381896973,-15,7088.0,54.12721633911133,843,9984.0
13660,0.3683548867702484,5.565563678741455,182,7088.0,51.35615539550781,750,9984.0
13670,0.3674458861351013,11.222732543945312,132,7088.0,34.73827362060547,607,9984.0
13680,0.3663952052593231,5.7666544914245605,181,7088.0,31.221311569213867,466,9984.0
13690,0.3666180670261383,4.441042423248291,53,7088.0,31.760896682739258,517,9984.0
13700,0.365520179271698,2.1630353927612305,148,7088.0,12.371831893920898,-22,9984.0
13710,0.36448201537132263,16.20051383972168,343,7088.0,-8.661450386047363,-102,9984.0
13720,0.3635863959789276,32.662925720214844,601,7088.0,-25.3774471282959,-536,9984.0
13730,0.3626958131790161,45.24040985107422,756,7088.0,-39.768653869628906,-646,9984.0
13740,0.3619554340839386,39.0019416809082,519,7088.0,-44.10824203491211,-698,9984.0
13750,0.3611816465854645,15.870573043823242,172,7088.0,-35.120365142822266,-613,9984.0
13760,0.36046382784843445,-0.049033135175704956,5,7088.0,-24.773324966430664,-297,9984.0
13770,0.35970619320869446,-3.2284300327301025,-93,7088.0,-4.143002986907959,160,9984.0
13780,0.3600848913192749,-1.7741756439208984,-32,7088.0,30.391502380371094,627,9984.0
13790,0.3590620458126068,6.611119747161865,184,7088.0,50.479373931884766,810,9984.0
13800,0.35810917615890503,9.054971694946289,120,7088.0,49.33766174316406,856,9984.0
13810,0.35727590322494507,-2.7345101833343506,-145,7088.0,33.14583206176758,291,9984.0
13820,0.3558324873447418,-21.0554141998291,-379,7088.0,10.955472946166992,181,9984.0
13830,0.35501420497894287,-29.076847076416016,-484,7088.0,-4.465325832366943,-235,9984.0
13840,0.3543022871017456,-15.892786979675293,-103,7088.0,-19.524736404418945,-296,9984.0
13850,0.35398051142692566,4.096481800079346,92,7088.0,-43.78886032104492,-905,9984.0
13860,0.35561761260032654,24.68345069885254,497,7088.0,-73.19764709472656,-1134,9984.0
13870,0.3554180860519409,33.40092849731445,547,7088.0,-61.927730560302734,-1005,9984.0
13880,0.3554399907588959,28.554296493530273,466,7088.0,-37.52400207519531,-410,9984.0
13890,0.3559368848800659,22.64474105834961,319,7088.0,-7.422225475311279,2,9984.0
13900,0.3560210168361664,11.515643119812012,156,7088.0,12.938152313232422,242,9984.0
13910,0.35679441690444946,4.461731910705566,122,7088.0,25.465288162231445,425,9984.0
13920,0.35674384236335754,0.8502130508422852,-4,7088.0,35.68878936767578,666,9984.0
13930,0.3565624952316284,-2.8524351119995117,-53,7088.0,35.367000579833984,409,9984.0
13940,0.3565046191215515,-2.820725440979004,28,7088.0,23.037403106689453,335,9984.0
13950,0.3592787981033325,0.387628436088562,-57,7088.0,8.374053955078125,194,9984.0
13960,0.35922908782958984,-0.20983648300170898,63,7088.0,-0.8995308876037598,-100,9984.0
13970,0.35929685831069946,-1.561934471130371,-41,7088.0,-13.934035301208496,-232,9984.0
13980,0.3593444526195526,0.3856745958328247,-12,7088.0,-23.869565963745117,-484,9984.0
13990,0.359389066696167,-1.394509196281433,64,7088.0,-23.117652893066406,-367,9984.0
14000,0.3605297803878784,-3.8848001956939697,-124,7088.0,-22.604270935058594,-265,9984.0
14010,0.3609021008014679,-9.010130882263184,-244,7088.0,-20.931241989135742,-355,9984.0
