timestamp,kalman.stateZ,gyro.x,gyro.xRaw,gyro.xVariance,gyro.y,gyro.yRaw,gyro.yVariance
0,0.30507612228393555,1.9293745756149292,2,7088.0,-21.27206039428711,-314,9984.0
10,0.30494335293769836,-6.266543865203857,-119,7088.0,-13.454085350036621,-182,9984.0
20,0.304904043674469,-10.339214324951172,-179,7088.0,-5.771831512451172,-51,9984.0
30,0.30551064014434814,-11.127053260803223,-179,7088.0,0.1262872964143753,17,9984.0
40,0.305354505777359,-9.94517707824707,-151,7088.0,1.1400601863861084,14,9984.0
50,0.30521881580352783,-7.121847152709961,-95,7088.0,-0.3023693859577179,-7,9984.0
60,0.3051590919494629,-3.17398738861084,-45,7088.0,-2.560378313064575,-50,9984.0
70,0.3052152991294861,0.23486313223838806,25,7088.0,-5.903805255889893,-108,9984.0
80,0.3055734932422638,4.718288898468018,91,7088.0,-10.175019264221191,-187,9984.0
90,0.30589157342910767,6.576728820800781,119,7088.0,-14.87331485748291,-266,9984.0
100,0.30621790885925293,7.906777858734131,134,7088.0,-19.693483352661133,-339,9984.0
110,0.3066466748714447,7.4394402503967285,119,7088.0,-22.217113494873047,-369,9984.0
120,0.30582544207572937,5.46187686920166,85,7088.0,-22.879913330078125,-370,9984.0
130,0.30620309710502625,4.104318618774414,67,7088.0,-23.313823699951172,-365,9984.0
140,0.3062921166419983,4.185365676879883,59,7088.0,-20.250293731689453,-275,9984.0
150,0.3063427209854126,0.8437010645866394,1,7088.0,-8.748785972595215,-58,9984.0
160,0.30643874406814575,-2.2307138442993164,-66,7088.0,4.595026016235352,147,9984.0
170,0.3059341311454773,-6.765648365020752,-146,7088.0,13.771820068359375,259,9984.0
180,0.3057408630847931,-12.050539016723633,-220,7088.0,15.628235816955566,256,9984.0
190,0.30555447936058044,-14.053695678710938,-206,7088.0,15.721627235412598,248,9984.0
200,0.3055204153060913,-10.048491477966309,-151,7088.0,15.191987037658691,242,9984.0
210,0.30488863587379456,-4.684556007385254,-53,7088.0,9.578916549682617,47,9984.0
220,0.3053930103778839,-1.6398980617523193,19,7088.0,-9.044251441955566,-308,9984.0
230,0.30590301752090454,3.8553762435913086,97,7088.0,-34.47652053833008,-777,9984.0
240,0.30646124482154846,6.628389835357666,134,7088.0,-62.50981521606445,-1169,9984.0
250,0.3073387145996094,11.131974220275879,258,7088.0,-91.81851959228516,-1697,9984.0
260,0.30754759907722473,13.519570350646973,263,7088.0,-116.5537338256836,-2045,9984.0
270,0.30832958221435547,13.948366165161133,226,7088.0,-136.29937744140625,-2262,9984.0
280,0.3083232045173645,10.360453605651855,129,7088.0,-141.03892517089844,-2238,9984.0
290,0.30693554878234863,4.473601341247559,101,7088.0,-127.32145690917969,-1980,9984.0
300,0.3083966374397278,6.705222129821777,34,7088.0,-94.3105239868164,-1322,9984.0
310,0.308053582906723,-2.998476982116699,-104,7088.0,-49.88206100463867,-579,9984.0
320,0.3098243176937103,-10.225793838500977,-224,7088.0,-4.412456512451172,115,9984.0
330,0.3109358251094818,-12.241480827331543,-177,7088.0,41.63502502441406,900,9984.0
340,0.31449079513549805,-9.874868392944336,-102,7088.0,73.68116760253906,1371,9984.0
350,0.3152751326560974,-0.6041841506958008,79,7088.0,95.60299682617188,1621,9984.0
360,0.31569117307662964,10.380423545837402,172,7088.0,107.86437225341797,1727,9984.0
370,0.3162303864955902,16.25423812866211,262,7088.0,99.7242202758789,1657,9984.0
380,0.3169744610786438,14.728052139282227,253,7088.0,72.21674346923828,979,9984.0
390,0.31331372261047363,10.409539222717285,130,7088.0,33.78249740600586,268,9984.0
400,0.3141479790210724,5.652098655700684,46,7088.0,-15.98128604888916,-460,9984.0
410,0.3153221905231476,3.7661211490631104,105,7088.0,-72.26777648925781,-1351,9984.0
420,0.31648996472358704,4.839040279388428,81,7088.0,-116.57479858398438,-2078,9984.0
430,0.31366029381752014,7.139195442199707,152,7088.0,-136.58131408691406,-2387,9984.0
440,0.31519851088523865,9.254063606262207,200,7088.0,-133.285888671875,-2190,9984.0
450,0.3148404061794281,12.014095306396484,253,7088.0,-113.73878479003906,-1780,9984.0
460,0.31625717878341675,8.384344100952148,183,7088.0,-73.9877700805664,-1046,9984.0
470,0.3177289664745331,2.0919644832611084,-22,7088.0,-24.777294158935547,-115,9984.0
480,0.3194088935852051,-11.368353843688965,-244,7088.0,26.70512580871582,571,9984.0
490,0.3201281428337097,-18.876373291015625,-305,7088.0,66.82637786865234,1277,9984.0
500,0.3212762773036957,-27.841821670532227,-519,7088.0,98.9697265625,1727,9984.0
510,0.3218090236186981,-30.29283905029297,-482,7088.0,110.98877716064453,1865,9984.0
520,0.3201148808002472,-17.75029945373535,-287,7088.0,100.67802429199219,1665,9984.0
530,0.3203713595867157,-8.904924392700195,-88,7088.0,79.93123626708984,1191,9984.0
540,0.32074978947639465,3.6417105197906494,214,7088.0,53.645286560058594,563,9984.0
550,0.3213455080986023,15.177590370178223,395,7088.0,25.903337478637695,18,9984.0
560,0.3184971511363983,23.821807861328125,527,7088.0,-5.956110000610352,-501,9984.0
570,0.3192683160305023,30.58256721496582,582,7088.0,-37.02623748779297,-828,9984.0
580,0.32003602385520935,28.393701553344727,473,7088.0,-42.34231185913086,-545,9984.0
590,0.3206213414669037,27.05647850036621,346,7088.0,-25.36402702331543,-41,9984.0
600,0.32188931107521057,14.021990776062012,179,7088.0,4.252364158630371,241,9984.0
610,0.31985029578208923,2.2187893390655518,24,7088.0,39.10277557373047,691,9984.0
620,0.3202582597732544,-10.481046676635742,-291,7088.0,55.4372444152832,1080,9984.0
630,0.31997692584991455,-16.0670108795166,-378,7088.0,61.70551681518555,1117,9984.0
640,0.3199545741081238,-22.243989944458008,-369,7088.0,58.981449127197266,874,9984.0
650,0.3172317445278168,-15.65565299987793,-154,7088.0,41.68735885620117,437,9984.0
660,0.316649466753006,-7.9997429847717285,-12,7088.0,18.5730037689209,-3,9984.0
670,0.3163013160228729,-2.978196382522583,63,7088.0,-8.406454086303711,-422,9984.0
680,0.3159988224506378,-1.5743488073349,31,7088.0,-39.87287139892578,-872,9984.0
690,0.31459033489227295,-5.192698001861572,-193,7088.0,-65.41053771972656,-1275,9984.0
700,0.31459376215934753,-17.658203125,-432,7088.0,-97.81141662597656,-1746,9984.0
710,0.3144073188304901,-24.857744216918945,-349,7088.0,-126.00286865234375,-2087,9984.0
720,0.3147292733192444,-22.158506393432617,-331,7088.0,-115.20181274414062,-1642,9984.0
730,0.31736934185028076,-20.33741569519043,-335,7088.0,-64.03836059570312,-791,9984.0
740,0.31880664825439453,-4.5299882888793945,45,7088.0,-2.7868316173553467,36,9984.0
750,0.3197041451931,12.232799530029297,207,7088.0,43.29861831665039,979,9984.0
760,0.3205798864364624,21.169755935668945,352,7088.0,67.93466186523438,1124,9984.0
770,0.32084178924560547,21.40776824951172,371,7088.0,73.15938568115234,1274,9984.0
780,0.3193637430667877,22.79129981994629,359,7088.0,74.94667053222656,1280,9984.0
790,0.31889912486076355,21.05714225769043,280,7088.0,69.25643157958984,963,9984.0
800,0.3185858726501465,5.49046516418457,118,7088.0,51.96281051635742,439,9984.0
810,0.31968992948532104,-10.761569023132324,-224,7088.0,19.509662628173828,123,9984.0
820,0.31982260942459106,-19.988832473754883,-395,7088.0,-15.433904647827148,-302,9984.0
830,0.3179463744163513,-20.720571517944336,-339,7088.0,-49.34149169921875,-997,9984.0
840,0.3183966875076294,-12.275382995605469,-85,7088.0,-79.52254486083984,-1481,9984.0
850,0.3187151551246643,-2.7381234169006348,86,7088.0,-108.13053894042969,-1855,9984.0
860,0.3190491497516632,-2.0798451900482178,-50,7088.0,-120.39952850341797,-2102,9984.0
870,0.31832900643348694,0.1312260776758194,79,7088.0,-113.87785339355469,-1727,9984.0
880,0.31992867588996887,4.4790263175964355,57,7088.0,-69.92134857177734,-696,9984.0
890,0.3221016824245453,8.521692276000977,180,7088.0,-7.273245334625244,369,9984.0
900,0.32363054156303406,10.110922813415527,167,7088.0,55.609397888183594,1197,9984.0
910,0.3255995810031891,17.996536254882812,420,7088.0,100.33814239501953,1861,9984.0
920,0.3265429735183716,24.2269287109375,346,7088.0,128.54483032226562,2200,9984.0
930,0.3275994062423706,21.50846290588379,285,7088.0,136.56358337402344,2290,9984.0
940,0.32760992646217346,9.810434341430664,121,7088.0,120.15665435791016,1855,9984.0
950,0.32788944244384766,-8.1642427444458,-316,7088.0,76.02521514892578,1170,9984.0
960,0.3227919936180115,-28.138994216918945,-561,7088.0,25.807241439819336,185,9984.0
970,0.32371851801872253,-31.056015014648438,-382,7088.0,-22.83153533935547,-781,9984.0
980,0.3245317339897156,-20.972261428833008,-197,7088.0,-71.67725372314453,-1458,9984.0
990,0.3255860507488251,-7.740127086639404,-61,7088.0,-117.99044036865234,-2078,9984.0
1000,0.32062482833862305,9.608501434326172,148,7088.0,-154.20684814453125,-2641,9984.0
1010,0.3222704231739044,23.93600082397461,506,7088.0,-149.05210876464844,-2247,9984.0
1020,0.32227587699890137,30.79286003112793,432,7088.0,-118.96188354492188,-1926,9984.0
1030,0.32422542572021484,20.615394592285156,268,7088.0,-76.011962890625,-1092,9984.0
1040,0.32432252168655396,7.911068916320801,88,7088.0,-23.113176345825195,-109,9984.0
1050,0.32607629895210266,-1.2375985383987427,-84,7088.0,32.81850051879883,756,9984.0
1060,0.32870858907699585,-11.708062171936035,-205,7088.0,83.67472076416016,1594,9984.0
1070,0.33026644587516785,-15.164700508117676,-238,7088.0,113.55839538574219,1918,9984.0
1080,0.33155325055122375,-22.394237518310547,-374,7088.0,130.3667755126953,2062,9984.0
1090,0.32942748069763184,-23.151405334472656,-250,7088.0,133.10406494140625,2139,9984.0
1100,0.33041808009147644,-18.866060256958008,-282,7088.0,120.1895980834961,1878,9984.0
1110,0.33064955472946167,-7.67704963684082,-67,7088.0,93.12483978271484,1342,9984.0
1120,0.3312128782272339,6.074382781982422,159,7088.0,50.99032211303711,601,9984.0
1130,0.3259689509868622,12.65105152130127,178,7088.0,0.49135735630989075,-354,9984.0
1140,0.3266286253929138,16.195091247558594,357,7088.0,-60.21649932861328,-1314,9984.0
1150,0.3273468017578125,14.055526733398438,248,7088.0,-108.90829467773438,-1803,9984.0
1160,0.3277636468410492,14.138434410095215,181,7088.0,-121.81929016113281,-1952,9984.0
1170,0.32789579033851624,7.835592269897461,94,7088.0,-110.52205657958984,-1519,9984.0
1180,0.3280547857284546,0.79454106092453,-26,7088.0,-73.1767807006836,-834,9984.0
1190,0.32881665229797363,-3.9059665203094482,-65,7088.0,-19.37547492980957,-73,9984.0
1200,0.3300885260105133,-0.13442924618721008,38,7088.0,28.401700973510742,675,9984.0
1210,0.3314000368118286,4.8732452392578125,191,7088.0,62.60021209716797,1228,9984.0
1220,0.33007878065109253,13.355064392089844,278,7088.0,89.20265197753906,1469,9984.0
1230,0.3304505944252014,16.26874542236328,260,7088.0,101.19258117675781,1580,9984.0
1240,0.3304157853126526,11.287323951721191,152,7088.0,85.576171875,1286,9984.0
1250,0.3304525315761566,-3.2338662147521973,-146,7088.0,59.295780181884766,882,9984.0
1260,0.32642853260040283,-16.14187240600586,-390,7088.0,28.173667907714844,465,9984.0
1270,0.3259457051753998,-27.16962432861328,-537,7088.0,-5.40413236618042,-295,9984.0
1280,0.3257107734680176,-31.969648361206055,-478,7088.0,-45.645328521728516,-935,9984.0
1290,0.32574063539505005,-24.877824783325195,-245,7088.0,-87.1080551147461,-1681,9984.0
1300,0.3254980146884918,-11.49984359741211,-218,7088.0,-118.82750701904297,-1977,9984.0
1310,0.32272863388061523,-8.526440620422363,-188,7088.0,-125.4565658569336,-1851,9984.0
1320,0.3223441243171692,-8.154229164123535,-109,7088.0,-107.88143920898438,-1515,9984.0
1330,0.3217901885509491,-3.720327138900757,-94,7088.0,-63.98310470581055,-770,9984.0
1340,0.32449644804000854,-5.782577991485596,-52,7088.0,-9.719596862792969,170,9984.0
1350,0.3267155885696411,-2.0331709384918213,-1,7088.0,49.36600112915039,1081,9984.0
1360,0.3276894688606262,-2.8367063999176025,-76,7088.0,97.64859008789062,1737,9984.0
1370,0.3280455470085144,-7.352728366851807,-112,7088.0,123.35442352294922,2009,9984.0
1380,0.32878321409225464,5.27844762802124,158,7088.0,126.01116943359375,1985,9984.0
1390,0.32888704538345337,12.962164878845215,146,7088.0,102.94422912597656,1596,9984.0
1400,0.3249724209308624,7.804839611053467,202,7088.0,59.4393310546875,683,9984.0
1410,0.3249518871307373,1.402868628501892,-121,7088.0,9.783700942993164,44,9984.0
1420,0.32606270909309387,-8.390294075012207,-155,7088.0,-23.470643997192383,-513,9984.0
1430,0.3262558579444885,-8.952133178710938,-81,7088.0,-44.16911315917969,-773,9984.0
1440,0.32432258129119873,2.7059195041656494,69,7088.0,-73.61166381835938,-1489,9984.0
1450,0.3246045708656311,16.126405715942383,302,7088.0,-94.25883483886719,-1541,9984.0
1460,0.32565027475357056,15.025026321411133,209,7088.0,-88.90778350830078,-1186,9984.0
1470,0.3257865011692047,12.5106782913208,224,7088.0,-64.02960968017578,-829,9984.0
1480,0.32446399331092834,21.126361846923828,338,7088.0,-33.45805740356445,-285,9984.0
1490,0.3246473968029022,20.71367645263672,341,7088.0,9.541970252990723,409,9984.0
1500,0.32473528385162354,21.239242553710938,292,7088.0,49.98728561401367,1008,9984.0
1510,0.32447001338005066,15.728755950927734,195,7088.0,83.3630142211914,1383,9984.0
1520,0.32391485571861267,6.733992576599121,38,7088.0,96.12389373779297,1554,9984.0
1530,0.3242391049861908,-7.00280237197876,-70,7088.0,97.0820083618164,1599,9984.0
1540,0.32312172651290894,-14.48064136505127,-316,7088.0,75.19513702392578,1053,9984.0
1550,0.3235616683959961,-18.86016845703125,-340,7088.0,43.16620635986328,358,9984.0
1560,0.32283321022987366,-18.32879638671875,-264,7088.0,1.1223175525665283,-75,9984.0
1570,0.32278820872306824,-10.660540580749512,-140,7088.0,-34.80074691772461,-908,9984.0
1580,0.32205021381378174,-4.98068904876709,48,7088.0,-57.86543655395508,-1058,9984.0
1590,0.32127904891967773,8.087876319885254,195,7088.0,-83.1618423461914,-1351,9984.0
1600,0.3208252489566803,15.568146705627441,175,7088.0,-103.29521179199219,-1823,9984.0
1610,0.32025617361068726,-0.3023647665977478,-141,7088.0,-120.485595703125,-2110,9984.0
1620,0.3206835687160492,-15.148317337036133,-251,7088.0,-121.46294403076172,-1928,9984.0
1630,0.32242974638938904,-11.73405647277832,-167,7088.0,-87.33613586425781,-1206,9984.0
1640,0.3225504457950592,-1.734614610671997,-16,7088.0,-26.948665618896484,-139,9984.0
1650,0.3234558701515198,7.902518272399902,10,7088.0,42.89177703857422,1066,9984.0
1660,0.3276178538799286,3.258206367492676,9,7088.0,106.00103759765625,2042,9984.0
1670,0.3285263478755951,9.791515350341797,82,7088.0,148.4241180419922,2579,9984.0
1680,0.32892727851867676,7.049502372741699,63,7088.0,165.73614501953125,2553,9984.0
1690,0.32874390482902527,13.764912605285645,279,7088.0,147.2587432861328,2292,9984.0
1700,0.3269358277320862,15.958491325378418,257,7088.0,107.97880554199219,1641,9984.0
1710,0.3287273049354553,13.795271873474121,250,7088.0,52.52524185180664,440,9984.0
1720,0.3289283812046051,5.543252468109131,-12,7088.0,-12.288565635681152,-308,9984.0
1730,0.32968220114707947,-5.702926158905029,-148,7088.0,-68.01788330078125,-1433,9984.0
1740,0.33108896017074585,-17.46334457397461,-326,7088.0,-127.9620590209961,-2370,9984.0
1750,0.3300606608390808,-35.0723762512207,-688,7088.0,-170.12319946289062,-2715,9984.0
1760,0.3305501639842987,-49.49906539916992,-840,7088.0,-175.27197265625,-2731,9984.0
1770,0.3303303122520447,-42.673423767089844,-596,7088.0,-140.36526489257812,-2103,9984.0
1780,0.3319128155708313,-16.790403366088867,-98,7088.0,-84.2365951538086,-1222,9984.0
1790,0.3329261541366577,11.496072769165039,267,7088.0,-21.341310501098633,-198,9984.0
1800,0.3337523639202118,19.462581634521484,411,7088.0,28.08159065246582,476,9984.0
1810,0.33518216013908386,22.208559036254883,361,7088.0,67.3133316040039,1281,9984.0
1820,0.33675700426101685,11.117829322814941,209,7088.0,106.9568862915039,1840,9984.0
1830,0.3367750644683838,4.4002156257629395,187,7088.0,120.52896881103516,1915,9984.0
1840,0.33477023243904114,-1.6429738998413086,-157,7088.0,113.98529052734375,1809,9984.0
1850,0.33472904562950134,-13.769062995910645,-342,7088.0,94.48622131347656,1439,9984.0
1860,0.3343910276889801,-20.379655838012695,-269,7088.0,59.80424880981445,836,9984.0
1870,0.33530938625335693,-10.19503116607666,-85,7088.0,18.72254753112793,105,9984.0
1880,0.3325161337852478,0.5916484594345093,-3,7088.0,-30.299470901489258,-741,9984.0
1890,0.33310750126838684,14.89173412322998,390,7088.0,-77.6285629272461,-1485,9984.0
1900,0.3337384760379791,22.93849754333496,404,7088.0,-104.43573760986328,-1738,9984.0
1910,0.3345332443714142,11.986723899841309,123,7088.0,-99.36466979980469,-1552,9984.0
1920,0.3311544954776764,3.2750980854034424,14,7088.0,-86.60994720458984,-1214,9984.0
1930,0.33173754811286926,-0.7151485681533813,-183,7088.0,-59.719520568847656,-635,9984.0
1940,0.33213070034980774,-11.044553756713867,-269,7088.0,-13.256434440612793,216,9984.0
1950,0.3326333463191986,-1.8444857597351074,2,7088.0,29.494686126708984,907,9984.0
1960,0.33345451951026917,3.9443295001983643,36,7088.0,57.488826751708984,1144,9984.0
1970,0.3322294056415558,1.228675365447998,24,7088.0,69.59964752197266,1251,9984.0
1980,0.33215048909187317,-7.5987348556518555,-109,7088.0,79.32093811035156,1225,9984.0
1990,0.33168166875839233,-3.1619319915771484,71,7088.0,78.4749526977539,1027,9984.0
2000,0.33257222175598145,8.938623428344727,180,7088.0,59.64548110961914,905,9984.0
2010,0.328741192817688,15.533790588378906,354,7088.0,33.076419830322266,479,9984.0
2020,0.3290078639984131,19.89862823486328,247,7088.0,0.7320011258125305,-189,9984.0
2030,0.32897138595581055,13.740453720092773,111,7088.0,-31.546022415161133,-772,9984.0
2040,0.32906827330589294,-5.745974540710449,-84,7088.0,-60.787601470947266,-1092,9984.0
2050,0.32922327518463135,-21.67908477783203,-331,7088.0,-76.39795684814453,-1426,9984.0
2060,0.32637661695480347,-33.72248077392578,-703,7088.0,-82.44661712646484,-1252,9984.0
2070,0.32614991068840027,-34.01323318481445,-489,7088.0,-50.932098388671875,-514,9984.0
2080,0.3273799419403076,-18.08173370361328,-196,7088.0,-0.8681446313858032,318,9984.0
2090,0.32726532220840454,-4.263329982757568,-40,7088.0,31.172407150268555,778,9984.0
2100,0.3260224461555481,1.1955448389053345,-32,7088.0,57.04478454589844,1015,9984.0
2110,0.32576045393943787,3.003079414367676,-43,7088.0,58.033329010009766,857,9984.0
2120,0.3254419267177582,-1.387194037437439,25,7088.0,46.9036979675293,592,9984.0
2130,0.32519423961639404,4.166739463806152,182,7088.0,16.91431999206543,107,9984.0
2140,0.3242328464984894,13.833966255187988,240,7088.0,-13.752094268798828,-280,9984.0
2150,0.32402917742729187,30.426895141601562,564,7088.0,-30.076351165771484,-564,9984.0
2160,0.32409873604774475,48.64854431152344,924,7088.0,-45.141395568847656,-834,9984.0
2170,0.3241977095603943,47.33367156982422,744,7088.0,-51.46792984008789,-945,9984.0
2180,0.3239804804325104,22.665014266967773,218,7088.0,-42.918521881103516,-664,9984.0
2190,0.32534003257751465,-10.16478157043457,-354,7088.0,-29.614795684814453,-426,9984.0
2200,0.3259606659412384,-39.88340759277344,-774,7088.0,-13.606112480163574,-172,9984.0
2210,0.3261497914791107,-63.276058197021484,-1077,7088.0,17.140586853027344,411,9984.0
2220,0.32621902227401733,-71.93287658691406,-1110,7088.0,52.91240310668945,952,9984.0
2230,0.32794830203056335,-54.08641815185547,-723,7088.0,76.10833740234375,1332,9984.0
2240,0.32807621359825134,-19.35906982421875,-194,7088.0,82.24947357177734,1308,9984.0
2250,0.32911092042922974,22.16200065612793,528,7088.0,67.38634490966797,918,9984.0
2260,0.3296363949775696,46.66908264160156,853,7088.0,38.938629150390625,595,9984.0
2270,0.33006277680397034,46.80122375488281,699,7088.0,0.5749617218971252,-221,9984.0
2280,0.3288007080554962,45.72182083129883,823,7088.0,-32.624385833740234,-713,9984.0
2290,0.3295193314552307,51.93656539916992,888,7088.0,-54.1519889831543,-855,9984.0
2300,0.32998475432395935,50.13671875,743,7088.0,-66.90999603271484,-1089,9984.0
2310,0.330146461725235,38.99539566040039,552,7088.0,-81.7148208618164,-1369,9984.0
2320,0.32941967248916626,30.056337356567383,425,7088.0,-83.56957244873047,-1258,9984.0
2330,0.32988831400871277,11.274726867675781,43,7088.0,-51.79670715332031,-669,9984.0
2340,0.3303987979888916,-19.463726043701172,-441,7088.0,-16.62517738342285,-5,9984.0
2350,0.33171895146369934,-41.178199768066406,-703,7088.0,33.50367736816406,808,9984.0
2360,0.3316357433795929,-44.02265930175781,-737,7088.0,87.47982788085938,1682,9984.0
2370,0.3321322202682495,-41.446781158447266,-701,7088.0,129.6136474609375,2174,9984.0
2380,0.3325635492801666,-33.08392333984375,-522,7088.0,139.80441284179688,2363,9984.0
2390,0.33255207538604736,-24.241567611694336,-380,7088.0,126.85652923583984,1945,9984.0
2400,0.3321980834007263,-15.527085304260254,-254,7088.0,94.11947631835938,1321,9984.0
2410,0.3327803909778595,-12.128503799438477,-198,7088.0,47.091552734375,514,9984.0
2420,0.3329237103462219,-8.076111793518066,-85,7088.0,-7.456434726715088,-322,9984.0
2430,0.33378875255584717,0.5865258574485779,96,7088.0,-58.0603141784668,-1170,9984.0
2440,0.3357867896556854,29.55746078491211,628,7088.0,-102.95939636230469,-1932,9984.0
2450,0.33168306946754456,65.03092193603516,1220,7088.0,-144.16842651367188,-2370,9984.0
2460,0.33198514580726624,88.25101470947266,1477,7088.0,-166.3414764404297,-2725,9984.0
2470,0.3316803276538849,79.90606689453125,1133,7088.0,-159.9004364013672,-2594,9984.0
2480,0.33265194296836853,37.54411697387695,427,7088.0,-123.9698715209961,-1892,9984.0
2490,0.3359302580356598,-4.312384605407715,-220,7088.0,-71.9534683227539,-828,9984.0
2500,0.3341140151023865,-39.29037094116211,-761,7088.0,-3.4856131076812744,196,9984.0
2510,0.3349759578704834,-62.710147857666016,-1094,7088.0,52.20725631713867,1139,9984.0
2520,0.33574119210243225,-81.7905502319336,-1401,7088.0,87.0451431274414,1617,9984.0
2530,0.335595041513443,-85.09825897216797,-1345,7088.0,112.06214904785156,1846,9984.0
2540,0.333842933177948,-68.28083801269531,-999,7088.0,123.27088165283203,1986,9984.0
2550,0.33324676752090454,-48.39534378051758,-702,7088.0,110.14720153808594,1762,9984.0
2560,0.3324049413204193,-27.575056076049805,-295,7088.0,77.88056945800781,1013,9984.0
2570,0.3344581723213196,4.7153544425964355,193,7088.0,30.346752166748047,355,9984.0
2580,0.3296686112880707,39.853485107421875,867,7088.0,-23.5936279296875,-725,9984.0
2590,0.3299245536327362,79.02352905273438,1392,7088.0,-77.16153717041016,-1398,9984.0
2600,0.33108726143836975,105.03633117675781,1782,7088.0,-119.6805648803711,-2110,9984.0
2610,0.33220672607421875,97.21882629394531,1528,7088.0,-134.9341278076172,-2288,9984.0
2620,0.33272334933280945,60.462730407714844,768,7088.0,-127.46190643310547,-1935,9984.0
2630,0.32964420318603516,23.410287857055664,200,7088.0,-82.68988800048828,-1029,9984.0
2640,0.3306207060813904,-7.417909622192383,-267,7088.0,-21.23191261291504,25,9984.0
2650,0.33246999979019165,-35.11216735839844,-723,7088.0,44.784420013427734,1028,9984.0
2660,0.33373215794563293,-58.161170959472656,-1077,7088.0,99.51180267333984,1829,9984.0
2670,0.33360058069229126,-62.144187927246094,-1035,7088.0,131.75364685058594,2229,9984.0
2680,0.3338833153247833,-52.43754959106445,-823,7088.0,135.05699157714844,2145,9984.0
2690,0.3343253433704376,-36.61307907104492,-528,7088.0,113.01213836669922,1730,9984.0
2700,0.3371097445487976,-22.211381912231445,-287,7088.0,75.92224884033203,1027,9984.0
2710,0.33131906390190125,-9.735457420349121,-109,7088.0,35.721656799316406,335,9984.0
2720,0.33154353499412537,1.1247071027755737,148,7088.0,-16.789026260375977,-627,9984.0
2730,0.3331511318683624,20.18181800842285,412,7088.0,-77.33740997314453,-1746,9984.0
2740,0.3346964418888092,40.37952423095703,759,7088.0,-135.50680541992188,-2310,9984.0
2750,0.3360746204853058,49.33500289916992,719,7088.0,-150.00450134277344,-2377,9984.0
2760,0.3297230005264282,34.649566650390625,420,7088.0,-132.66476440429688,-2104,9984.0
2770,0.33014562726020813,11.257596969604492,28,7088.0,-96.3288345336914,-1328,9984.0
2780,0.3335432708263397,-15.2632417678833,-287,7088.0,-40.35580062866211,-373,9984.0
2790,0.3342306315898895,-25.822708129882812,-436,7088.0,16.741352081298828,572,9984.0
2800,0.33326759934425354,-25.394075393676758,-369,7088.0,65.6038589477539,1382,9984.0
2810,0.3343668580055237,-20.688926696777344,-255,7088.0,103.36742401123047,1855,9984.0
2820,0.3348388671875,-15.645591735839844,-155,7088.0,125.69216918945312,1989,9984.0
2830,0.3351882994174957,-7.558440208435059,-67,7088.0,114.08402252197266,1848,9984.0
2840,0.3354356288909912,1.9233900308609009,107,7088.0,89.40022277832031,1328,9984.0
2850,0.32974138855934143,8.497810363769531,136,7088.0,62.45560836791992,738,9984.0
2860,0.3303815722465515,13.591431617736816,313,7088.0,28.905424118041992,165,9984.0
2870,0.3309004306793213,18.57557487487793,293,7088.0,-8.765092849731445,-200,9984.0
2880,0.33208033442497253,29.598051071166992,586,7088.0,-44.536922454833984,-850,9984.0
2890,0.3283683955669403,43.71747970581055,812,7088.0,-70.5033187866211,-1246,9984.0
2900,0.32934918999671936,42.87943649291992,650,7088.0,-55.295406341552734,-822,9984.0
2910,0.3302077353000641,19.82122802734375,262,7088.0,-19.641311645507812,-213,9984.0
2920,0.3311184346675873,-5.60071325302124,-133,7088.0,15.157936096191406,349,9984.0
2930,0.3318435847759247,-25.08392333984375,-540,7088.0,52.6001091003418,915,9984.0
2940,0.3292643427848816,-40.84090042114258,-669,7088.0,67.50236511230469,1107,9984.0
2950,0.32916080951690674,-40.855831146240234,-595,7088.0,73.2669906616211,1117,9984.0
2960,0.3284415602684021,-35.650123596191406,-571,7088.0,71.13616180419922,1174,9984.0
2970,0.3280884325504303,-27.718017578125,-341,7088.0,54.769554138183594,807,9984.0
2980,0.3271903991699219,-21.707700729370117,-346,7088.0,26.281967163085938,107,9984.0
2990,0.32649263739585876,-8.991498947143555,-68,7088.0,-7.998845100402832,-274,9984.0
3000,0.32629430294036865,-3.0105323791503906,-95,7088.0,-41.631710052490234,-733,9984.0
3010,0.326280415058136,-2.4533982276916504,-33,7088.0,-67.54750061035156,-1271,9984.0
3020,0.32388749718666077,-0.707165539264679,76,7088.0,-96.06509399414062,-1811,9984.0
3030,0.32401400804519653,7.589451313018799,149,7088.0,-130.0918731689453,-2096,9984.0
3040,0.32427793741226196,21.762781143188477,346,7088.0,-140.22683715820312,-2091,9984.0
3050,0.324662983417511,20.500072479248047,329,7088.0,-115.80704498291016,-1683,9984.0
3060,0.3277653157711029,14.76667594909668,262,7088.0,-55.79454803466797,-570,9984.0
3070,0.3257192373275757,7.470625400543213,122,7088.0,3.5113258361816406,351,9984.0
3080,0.32673385739326477,-6.242123126983643,-204,7088.0,55.048065185546875,1181,9984.0
3090,0.32807657122612,-18.094688415527344,-353,7088.0,94.05198669433594,1749,9984.0
3100,0.3288513720035553,-12.170162200927734,-177,7088.0,120.86046600341797,1965,9984.0
3110,0.3285777270793915,-3.602621078491211,35,7088.0,125.89125061035156,1969,9984.0
3120,0.328421026468277,4.479289531707764,147,7088.0,112.86631774902344,1647,9984.0
3130,0.3288946747779846,11.977252006530762,170,7088.0,74.09416961669922,1148,9984.0
3140,0.32965072989463806,12.537615776062012,157,7088.0,28.317001342773438,163,9984.0
3150,0.32541561126708984,9.858059883117676,201,7088.0,-17.67525863647461,-487,9984.0
3160,0.32612892985343933,6.637955665588379,85,7088.0,-67.94880676269531,-1324,9984.0
3170,0.32691094279289246,5.864894390106201,58,7088.0,-114.81171417236328,-2024,9984.0
3180,0.3274860680103302,5.5226030349731445,102,7088.0,-145.37139892578125,-2430,9984.0
3190,0.3285704553127289,0.522083580493927,24,7088.0,-135.85992431640625,-2307,9984.0
3200,0.3248230218887329,0.49893856048583984,-32,7088.0,-102.24445343017578,-1581,9984.0
3210,0.3255947232246399,-7.6981520652771,-204,7088.0,-53.899864196777344,-614,9984.0
3220,0.32626020908355713,-19.826147079467773,-322,7088.0,5.144986629486084,426,9984.0
3230,0.32753291726112366,-22.98442840576172,-361,7088.0,57.2707633972168,1115,9984.0
3240,0.3278321623802185,-22.29945182800293,-338,7088.0,97.53704833984375,1689,9984.0
3250,0.3284716010093689,-15.033677101135254,-130,7088.0,125.77458190917969,1900,9984.0
3260,0.32867035269737244,-0.1128486916422844,93,7088.0,126.25404357910156,2040,9984.0
3270,0.3305365741252899,13.3355073928833,336,7088.0,105.15709686279297,1620,9984.0
3280,0.3310919404029846,22.944351196289062,327,7088.0,80.08293914794922,1013,9984.0
3290,0.32628756761550903,18.683053970336914,358,7088.0,41.335514068603516,529,9984.0
3300,0.32681041955947876,11.457066535949707,108,7088.0,1.054103136062622,-151,9984.0
3310,0.3289555013179779,1.691145658493042,-14,7088.0,-52.34394073486328,-1168,9984.0
3320,0.3303943872451782,-2.057964324951172,40,7088.0,-110.63946533203125,-2110,9984.0
3330,0.32712414860725403,1.043043613433838,56,7088.0,-144.8182373046875,-2345,9984.0
3340,0.32812923192977905,13.519451141357422,280,7088.0,-140.61671447753906,-2131,9984.0
3350,0.33121564984321594,14.291584968566895,199,7088.0,-102.8304443359375,-1412,9984.0
3360,0.3319837749004364,6.736948490142822,-30,7088.0,-48.23210525512695,-535,9984.0
3370,0.33254560828208923,-8.027926445007324,-221,7088.0,4.211649417877197,305,9984.0
3380,0.3340882956981659,-18.25902557373047,-267,7088.0,57.892547607421875,1152,9984.0
3390,0.33537212014198303,-17.72136116027832,-156,7088.0,97.08592224121094,1699,9984.0
3400,0.3361865282058716,-7.228241443634033,-95,7088.0,126.1857681274414,2072,9984.0
3410,0.33689767122268677,0.5714154839515686,28,7088.0,138.15525817871094,2306,9984.0
3420,0.3307768404483795,6.0420942306518555,135,7088.0,131.01495361328125,1989,9984.0
3430,0.33207663893699646,10.643630981445312,110,7088.0,96.72435760498047,1291,9984.0
3440,0.33186304569244385,5.5489726066589355,98,7088.0,54.65364456176758,546,9984.0
3450,0.3321320712566376,-1.9673901796340942,-130,7088.0,9.510627746582031,-115,9984.0
3460,0.3273550570011139,-16.30373764038086,-331,7088.0,-35.568748474121094,-817,9984.0
3470,0.32819077372550964,-25.66731834411621,-472,7088.0,-83.77893829345703,-1673,9984.0
3480,0.3290560841560364,-17.287046432495117,-149,7088.0,-123.64350128173828,-2338,9984.0
3490,0.32994237542152405,-4.027531147003174,-28,7088.0,-138.19406127929688,-2227,9984.0
3500,0.3305596709251404,-0.810359537601471,65,7088.0,-119.70402526855469,-1850,9984.0
3510,0.3293239176273346,6.299211502075195,192,7088.0,-84.1241226196289,-1182,9984.0
3520,0.3317014276981354,7.280645370483398,184,7088.0,-23.4545841217041,-117,9984.0
3530,0.3322031795978546,13.002406120300293,225,7088.0,30.71544647216797,735,9984.0
3540,0.3337083160877228,14.435050010681152,252,7088.0,75.85956573486328,1510,9984.0
3550,0.33209455013275146,10.904661178588867,162,7088.0,105.4007568359375,1842,9984.0
3560,0.3321954011917114,5.707223892211914,12,7088.0,118.1864242553711,1942,9984.0
3570,0.33196452260017395,3.65492844581604,56,7088.0,115.65196990966797,1837,9984.0
3580,0.33091697096824646,-14.765113830566406,-247,7088.0,92.49055480957031,1195,9984.0
3590,0.33030587434768677,-30.337724685668945,-607,7088.0,51.709346771240234,780,9984.0
3600,0.32593250274658203,-39.584495544433594,-645,7088.0,-0.2614087164402008,-384,9984.0
3610,0.326373428106308,-31.027873992919922,-420,7088.0,-60.873233795166016,-1157,9984.0
3620,0.32778534293174744,-14.184073448181152,-169,7088.0,-124.60387420654297,-2361,9984.0
3630,0.3288210928440094,10.142643928527832,313,7088.0,-164.6260528564453,-2769,9984.0
3640,0.32576465606689453,35.136844635009766,705,7088.0,-171.17257690429688,-2691,9984.0
3650,0.32592394948005676,42.512420654296875,602,7088.0,-137.2952423095703,-1990,9984.0
3660,0.3258562684059143,26.23583221435547,290,7088.0,-86.2169418334961,-1045,9984.0
3670,0.32706335186958313,14.473365783691406,118,7088.0,-30.127832412719727,-83,9984.0
3680,0.3287777006626129,8.87909984588623,110,7088.0,24.948619842529297,761,9984.0
3690,0.3297833204269409,5.1780853271484375,56,7088.0,68.8958511352539,1348,9984.0
3700,0.3303895592689514,-0.9326139688491821,-9,7088.0,98.59026336669922,1798,9984.0
3710,0.3310389220714569,-2.6616640090942383,-108,7088.0,118.39783477783203,1993,9984.0
3720,0.33168938755989075,-6.054222106933594,-152,7088.0,116.36407470703125,1746,9984.0
3730,0.3286588490009308,-14.533639907836914,-159,7088.0,95.00141906738281,1400,9984.0
3740,0.3289675712585449,-23.025604248046875,-441,7088.0,60.56080627441406,810,9984.0
3750,0.32930296659469604,-23.644771575927734,-379,7088.0,16.768692016601562,54,9984.0
3760,0.32999566197395325,-16.444015502929688,-129,7088.0,-42.43732452392578,-1001,9984.0
3770,0.32600951194763184,1.3355025053024292,75,7088.0,-80.79238891601562,-1291,9984.0
3780,0.32645174860954285,18.782440185546875,299,7088.0,-87.73917388916016,-1477,9984.0
3790,0.3266330659389496,21.242889404296875,337,7088.0,-75.52288818359375,-1216,9984.0
3800,0.32725220918655396,19.39449691772461,359,7088.0,-40.55268096923828,-456,9984.0
3810,0.3253268897533417,14.909455299377441,337,7088.0,7.9754414558410645,252,9984.0
3820,0.3253617286682129,12.410314559936523,226,7088.0,44.878543853759766,771,9984.0
3830,0.325259804725647,10.430147171020508,83,7088.0,75.86741638183594,1339,9984.0
3840,0.32492712140083313,4.14330530166626,47,7088.0,93.44908905029297,1628,9984.0
3850,0.3244655728340149,0.37306052446365356,-88,7088.0,98.66395568847656,1675,9984.0
3860,0.3225401043891907,-8.90092945098877,-176,7088.0,84.36785888671875,1215,9984.0
3870,0.3225642144680023,-6.893789768218994,-75,7088.0,49.54001998901367,580,9984.0
3880,0.32308197021484375,-3.2869770526885986,-1,7088.0,12.035701751708984,96,9984.0
3890,0.3233783543109894,-6.256096363067627,-248,7088.0,-20.413654327392578,-445,9984.0
3900,0.3215257227420807,-18.6390380859375,-226,7088.0,-57.52780532836914,-1297,9984.0
3910,0.322186678647995,-19.312009811401367,-373,7088.0,-101.1164321899414,-1753,9984.0
3920,0.32300513982772827,-24.568437576293945,-405,7088.0,-124.57754516601562,-1955,9984.0
3930,0.32442668080329895,-15.416836738586426,-193,7088.0,-116.0906982421875,-1815,9984.0
3940,0.3246946334838867,3.5202949047088623,97,7088.0,-86.3290786743164,-1197,9984.0
3950,0.3234308958053589,20.779190063476562,292,7088.0,-41.60942459106445,-318,9984.0
3960,0.3245726227760315,19.18795394897461,285,7088.0,13.758646965026855,632,9984.0
3970,0.3257784843444824,17.607891082763672,274,7088.0,67.35409545898438,1388,9984.0
3980,0.326757550239563,9.615511894226074,171,7088.0,109.96416473388672,2005,9984.0
3990,0.3268735706806183,9.356693267822266,122,7088.0,131.82473754882812,2196,9984.0
4000,0.32695382833480835,12.362256050109863,184,7088.0,128.04959106445312,1945,9984.0
4010,0.3283742368221283,16.983186721801758,331,7088.0,104.10310363769531,1501,9984.0
4020,0.3279001712799072,13.853872299194336,197,7088.0,62.83737564086914,843,9984.0
4030,0.32549387216567993,14.791739463806152,163,7088.0,11.561721801757812,18,9984.0
4040,0.3256726861000061,0.2689729928970337,-67,7088.0,-47.47865295410156,-1159,9984.0
4050,0.3266143798828125,-15.69399356842041,-319,7088.0,-101.15387725830078,-2010,9984.0
4060,0.3272934556007385,-33.67867660522461,-557,7088.0,-148.0447235107422,-2548,9984.0
4070,0.3272199034690857,-33.21755599975586,-510,7088.0,-167.8990478515625,-2623,9984.0
4080,0.32490074634552,-15.819843292236328,-134,7088.0,-154.67327880859375,-2258,9984.0
4090,0.3280569911003113,0.11031124740839005,56,7088.0,-108.2119369506836,-1271,9984.0
4100,0.32858291268348694,0.15149539709091187,-82,7088.0,-38.92633056640625,-211,9984.0
4110,0.32945021986961365,-6.134312152862549,-138,7088.0,29.17866325378418,815,9984.0
4120,0.33117175102233887,-9.362208366394043,-263,7088.0,81.27153778076172,1481,9984.0
4130,0.3317417800426483,-13.836153984069824,-197,7088.0,109.95902252197266,1858,9984.0
4140,0.33236199617385864,-9.732433319091797,39,7088.0,121.40953063964844,2052,9984.0
4150,0.33279067277908325,0.052202578634023666,43,7088.0,119.12153625488281,1828,9984.0
4160,0.3328384459018707,9.260740280151367,111,7088.0,96.55438232421875,1469,9984.0
4170,0.3293026387691498,14.379040718078613,285,7088.0,62.02126693725586,680,9984.0
4180,0.32938218116760254,19.043832778930664,343,7088.0,24.546966552734375,187,9984.0
4190,0.3292098641395569,13.38359546661377,70,7088.0,-17.062593460083008,-506,9984.0
4200,0.32964956760406494,-9.326735496520996,-371,7088.0,-61.086280822753906,-1057,9984.0
4210,0.3264771103858948,-33.09529113769531,-632,7088.0,-90.12740325927734,-1555,9984.0
4220,0.3266824781894684,-33.308326721191406,-498,7088.0,-90.93054962158203,-1258,9984.0
4230,0.3267965018749237,-3.284761905670166,56,7088.0,-63.288551330566406,-742,9984.0
4240,0.32711294293403625,20.76272201538086,337,7088.0,-14.02880573272705,23,9984.0
4250,0.32641667127609253,25.5480899810791,367,7088.0,25.74933624267578,754,9984.0
4260,0.32668060064315796,19.376691818237305,278,7088.0,61.34606170654297,1285,9984.0
4270,0.326597660779953,12.765374183654785,164,7088.0,85.8189697265625,1425,9984.0
4280,0.32602283358573914,7.702686309814453,21,7088.0,88.158447265625,1411,9984.0
4290,0.325192928314209,1.9078201055526733,44,7088.0,67.08032989501953,930,9984.0
4300,0.323781818151474,-8.457216262817383,-165,7088.0,34.746517181396484,338,9984.0
4310,0.3232746422290802,-19.32005500793457,-409,7088.0,-9.877182006835938,-211,9984.0
4320,0.3230356276035309,-27.20462417602539,-461,7088.0,-47.20423889160156,-926,9984.0
4330,0.32287490367889404,-13.424878120422363,-125,7088.0,-85.20983123779297,-1612,9984.0
4340,0.32171353697776794,-1.0712292194366455,51,7088.0,-121.0060043334961,-2115,9984.0
4350,0.32168257236480713,-9.577447891235352,-237,7088.0,-129.23532104492188,-2027,9984.0
4360,0.32166263461112976,-11.503189086914062,-208,7088.0,-110.68089294433594,-1420,9984.0
4370,0.32193127274513245,-5.924527645111084,-44,7088.0,-64.04420471191406,-599,9984.0
4380,0.32515138387680054,8.387429237365723,89,7088.0,-3.487180471420288,255,9984.0
4390,0.3262670040130615,15.904990196228027,305,7088.0,53.59238052368164,1103,9984.0
4400,0.3271079361438751,23.011219024658203,344,7088.0,94.94756317138672,1755,9984.0
4410,0.32755082845687866,24.023292541503906,326,7088.0,119.29067993164062,2127,9984.0
4420,0.3278657793998718,19.11452293395996,319,7088.0,124.08555603027344,1930,9984.0
4430,0.3253382742404938,9.262700080871582,163,7088.0,104.16964721679688,1486,9984.0
4440,0.3249078392982483,-2.3567636013031006,-65,7088.0,66.61039733886719,1029,9984.0
4450,0.3260939121246338,-11.387929916381836,-241,7088.0,19.026098251342773,-31,9984.0
4460,0.3267606794834137,-17.11254119873047,-280,7088.0,-30.118831634521484,-655,9984.0
4470,0.3245686888694763,-24.551025390625,-370,7088.0,-72.71320343017578,-1365,9984.0
4480,0.32504528760910034,-17.5075740814209,-309,7088.0,-112.33015441894531,-1970,9984.0
4490,0.3253883421421051,-0.006243051029741764,153,7088.0,-146.14938354492188,-2549,9984.0
4500,0.3270881175994873,16.079368591308594,338,7088.0,-152.8193817138672,-2581,9984.0
4510,0.3275246024131775,16.06534767150879,227,7088.0,-127.1033935546875,-1898,9984.0
4520,0.3257182836532593,7.517008304595947,150,7088.0,-77.5867691040039,-1032,9984.0
4530,0.32737797498703003,1.9512391090393066,75,7088.0,-4.4895339012146,107,9984.0
4540,0.3291158676147461,2.517813205718994,100,7088.0,58.98201370239258,976,9984.0
4550,0.3306474983692169,9.167539596557617,149,7088.0,107.24311065673828,1803,9984.0
4560,0.3318937420845032,10.04930591583252,121,7088.0,136.7706298828125,2274,9984.0
4570,0.33258798718452454,0.6217299699783325,-5,7088.0,143.7906951904297,2304,9984.0
4580,0.3333960771560669,-12.985726356506348,-180,7088.0,125.90957641601562,1878,9984.0
4590,0.3336362838745117,-16.668865203857422,-266,7088.0,87.5565414428711,1393,9984.0
4600,0.32947081327438354,-18.500648498535156,-404,7088.0,48.6579475402832,541,9984.0
4610,0.32936424016952515,-17.3819580078125,-166,7088.0,8.728350639343262,-17,9984.0
4620,0.33022695779800415,-8.596908569335938,-142,7088.0,-24.603769302368164,-497,9984.0
4630,0.3311682343482971,0.7662104368209839,40,7088.0,-59.537872314453125,-1199,9984.0
4640,0.332472562789917,6.248264789581299,71,7088.0,-97.49799346923828,-1838,9984.0
4650,0.32891419529914856,10.762231826782227,321,7088.0,-117.64249420166016,-2013,9984.0
4660,0.33034858107566833,18.66847801208496,328,7088.0,-101.08624267578125,-1480,9984.0
4670,0.33132925629615784,26.921371459960938,486,7088.0,-54.84821319580078,-689,9984.0
4680,0.332354336977005,25.44837760925293,524,7088.0,2.5801503658294678,206,9984.0
4690,0.3306121528148651,26.62648582458496,402,7088.0,57.83099365234375,980,9984.0
4700,0.3317013382911682,21.598176956176758,258,7088.0,94.31658935546875,1649,9984.0
4710,0.33202245831489563,8.397513389587402,131,7088.0,120.06597900390625,2029,9984.0
4720,0.33233749866485596,-2.0649006366729736,-81,7088.0,125.59271240234375,1809,9984.0
4730,0.33196985721588135,-11.927118301391602,-193,7088.0,106.83501434326172,1607,9984.0
4740,0.32855382561683655,-13.161234855651855,-281,7088.0,66.92167663574219,923,9984.0
4750,0.3296796679496765,-19.821489334106445,-329,7088.0,24.193296432495117,109,9984.0
4760,0.32990744709968567,-22.20486831665039,-364,7088.0,-26.18436622619629,-784,9984.0
4770,0.33066919445991516,-25.050254821777344,-400,7088.0,-77.99459838867188,-1459,9984.0
4780,0.3282783627510071,-17.89087677001953,-243,7088.0,-127.28759002685547,-2376,9984.0
4790,0.328384667634964,-6.225472927093506,1,7088.0,-155.97654724121094,-2681,9984.0
4800,0.3287380635738373,5.983441352844238,244,7088.0,-158.6511688232422,-2506,9984.0
4810,0.32938921451568604,16.8571720123291,312,7088.0,-122.30522918701172,-1608,9984.0
4820,0.3296756148338318,19.568340301513672,181,7088.0,-60.080711364746094,-569,9984.0
4830,0.33179548382759094,8.910467147827148,180,7088.0,3.9214255809783936,400,9984.0
4840,0.3337041735649109,4.205936908721924,121,7088.0,55.19672775268555,1091,9984.0
4850,0.33564695715904236,-1.3725470304489136,-90,7088.0,93.9691162109375,1525,9984.0
4860,0.33711159229278564,-8.575504302978516,-198,7088.0,115.77375030517578,1921,9984.0
4870,0.33759620785713196,-18.51244354248047,-209,7088.0,110.98179626464844,1642,9984.0
4880,0.33829712867736816,-25.38953399658203,-410,7088.0,85.0870590209961,1296,9984.0
4890,0.33909687399864197,-21.302217483520508,-359,7088.0,44.09930419921875,533,9984.0
4900,0.3403798043727875,-14.824658393859863,-265,7088.0,-1.9665836095809937,-208,9984.0
4910,0.33908483386039734,-6.096488952636719,16,7088.0,-43.870521545410156,-1082,9984.0
4920,0.3402407169342041,15.08064079284668,345,7088.0,-88.56195068359375,-1609,9984.0
4930,0.3411513864994049,15.877862930297852,262,7088.0,-110.49925231933594,-1744,9984.0
4940,0.34151726961135864,19.88249969482422,286,7088.0,-94.9481430053711,-1291,9984.0
4950,0.3433106541633606,19.92546272277832,247,7088.0,-56.850616455078125,-764,9984.0
4960,0.34001845121383667,20.610708236694336,362,7088.0,-12.120067596435547,70,9984.0
4970,0.3400139808654785,21.28465461730957,394,7088.0,32.43319320678711,578,9984.0
4980,0.33976301550865173,9.524675369262695,109,7088.0,51.16934585571289,742,9984.0
4990,0.3391205370426178,-6.000962257385254,-192,7088.0,54.660823822021484,841,9984.0
5000,0.3393298089504242,-20.994375228881836,-281,7088.0,53.83730697631836,787,9984.0
5010,0.3381600081920624,-28.96430015563965,-541,7088.0,49.075984954833984,751,9984.0
5020,0.33671948313713074,-31.803680419921875,-516,7088.0,34.00885772705078,510,9984.0
5030,0.33577463030815125,-26.249021530151367,-477,7088.0,-0.15629971027374268,-225,9984.0
5040,0.33325254917144775,-19.17640495300293,-182,7088.0,-34.242942810058594,-708,9984.0
5050,0.331728458404541,-7.11008358001709,-26,7088.0,-63.13291931152344,-1096,9984.0
5060,0.3300553560256958,17.39071273803711,345,7088.0,-85.35888671875,-1422,9984.0
5070,0.32818499207496643,38.4061279296875,742,7088.0,-105.06462097167969,-1844,9984.0
5080,0.32634881138801575,58.33436584472656,1056,7088.0,-120.62914276123047,-2050,9984.0
5090,0.3204606771469116,57.614070892333984,929,7088.0,-92.41160583496094,-1424,9984.0
5100,0.31881338357925415,28.93404197692871,324,7088.0,-44.47566604614258,-562,9984.0
5110,0.3141650855541229,-6.071071624755859,-165,7088.0,15.955175399780273,498,9984.0
5120,0.31672754883766174,-28.5642032623291,-555,7088.0,82.60469818115234,1615,9984.0
5130,0.3260416090488434,-46.185813903808594,-817,7088.0,134.49595642089844,2408,9984.0
5140,0.32620710134506226,-43.43324279785156,-644,7088.0,165.38983154296875,2765,9984.0
5150,0.3251533508300781,-32.58848190307617,-364,7088.0,172.05477905273438,2847,9984.0
5160,0.32874420285224915,-12.39171028137207,-160,7088.0,160.02001953125,2498,9984.0
5170,0.3227204382419586,5.102529048919678,160,7088.0,129.44049072265625,1792,9984.0
5180,0.3229080140590668,12.519444465637207,160,7088.0,76.9284896850586,1122,9984.0
5190,0.3243778645992279,15.788165092468262,376,7088.0,19.208171844482422,-35,9984.0
5200,0.32785943150520325,14.632665634155273,91,7088.0,-41.39594650268555,-837,9984.0
5210,0.3310994505882263,4.465683937072754,83,7088.0,-92.18114471435547,-1770,9984.0
5220,0.32829609513282776,-10.537854194641113,-301,7088.0,-127.01683044433594,-2176,9984.0
5230,0.3307843506336212,-28.647077560424805,-545,7088.0,-139.0249481201172,-2101,9984.0
5240,0.33469411730766296,-41.78056335449219,-720,7088.0,-140.25697326660156,-2209,9984.0
5250,0.33753976225852966,-48.94115447998047,-881,7088.0,-117.78905487060547,-1863,9984.0
5260,0.3345024585723877,-35.735530853271484,-442,7088.0,-83.67831420898438,-1255,9984.0
5270,0.33813437819480896,-12.061266899108887,-36,7088.0,-48.548133850097656,-750,9984.0
5280,0.34228333830833435,3.0630154609680176,61,7088.0,-15.928046226501465,-186,9984.0
5290,0.3454383313655853,2.024937391281128,69,7088.0,22.806331634521484,393,9984.0
5300,0.34396350383758545,20.285552978515625,409,7088.0,53.16594696044922,1091,9984.0
5310,0.3465997874736786,28.797861099243164,567,7088.0,87.37714385986328,1567,9984.0
5320,0.3482695519924164,31.044513702392578,540,7088.0,107.84292602539062,1650,9984.0
5330,0.3496835231781006,31.627490997314453,529,7088.0,98.79129791259766,1495,9984.0
5340,0.3507692217826843,31.619651794433594,629,7088.0,76.58646392822266,1047,9984.0
5350,0.34430426359176636,31.76850128173828,500,7088.0,47.12781524658203,617,9984.0
5360,0.3447014391422272,31.079303741455078,558,7088.0,18.810333251953125,101,9984.0
5370,0.34431320428848267,30.698217391967773,442,7088.0,-16.1204833984375,-426,9984.0
5380,0.3446280360221863,22.672555923461914,339,7088.0,-48.37031555175781,-877,9984.0
5390,0.3406394124031067,4.8227858543396,1,7088.0,-68.86018371582031,-1201,9984.0
5400,0.340217262506485,-3.54927921295166,-95,7088.0,-70.55989837646484,-1116,9984.0
5410,0.33935946226119995,-9.292335510253906,-184,7088.0,-53.6543083190918,-763,9984.0
5420,0.3382618725299835,-13.80189323425293,-170,7088.0,-18.0799560546875,-76,9984.0
5430,0.33737701177597046,-11.818814277648926,-143,7088.0,23.387897491455078,475,9984.0
5440,0.33367425203323364,-8.83161449432373,-164,7088.0,54.4229850769043,922,9984.0
5450,0.33189475536346436,-13.051977157592773,-281,7088.0,76.63217163085938,1302,9984.0
5460,0.3297206163406372,-19.479442596435547,-201,7088.0,85.0018310546875,1343,9984.0
5470,0.32779186964035034,-17.900352478027344,-235,7088.0,73.03765106201172,1004,9984.0
5480,0.3231881856918335,-4.763005256652832,42,7088.0,37.28785705566406,446,9984.0
5490,0.32139691710472107,5.361533164978027,32,7088.0,-7.6928253173828125,-473,9984.0
5500,0.3191497325897217,15.220091819763184,319,7088.0,-47.30644226074219,-924,9984.0
5510,0.31737208366394043,21.7755184173584,417,7088.0,-76.97029876708984,-1248,9984.0
5520,0.31529688835144043,24.89766502380371,416,7088.0,-99.53755950927734,-1683,9984.0
5530,0.31292811036109924,26.979511260986328,404,7088.0,-110.41548156738281,-1768,9984.0
5540,0.31100523471832275,21.547218322753906,311,7088.0,-91.21065521240234,-1329,9984.0
5550,0.30909043550491333,12.134385108947754,120,7088.0,-39.594276428222656,-336,9984.0
5560,0.3077135682106018,4.999152183532715,67,7088.0,19.6551513671875,601,9984.0
5570,0.30659183859825134,1.0081813335418701,34,7088.0,75.5552749633789,1525,9984.0
5580,0.3049537241458893,1.967177391052246,27,7088.0,124.02601623535156,2128,9984.0
5590,0.3027551472187042,-13.449216842651367,-238,7088.0,150.05108642578125,2446,9984.0
5600,0.3004283308982849,-33.652462005615234,-503,7088.0,143.3618621826172,2223,9984.0
5610,0.29887866973876953,-42.433631896972656,-796,7088.0,103.58546447753906,1386,9984.0
5620,0.2964663505554199,-42.64807891845703,-653,7088.0,40.856231689453125,417,9984.0
5630,0.2951585650444031,-32.93867111206055,-535,7088.0,-11.191675186157227,-415,9984.0
5640,0.29358041286468506,-19.81981658935547,-187,7088.0,-63.85676193237305,-1195,9984.0
5650,0.2917661964893341,-7.826598644256592,-199,7088.0,-102.66907501220703,-1948,9984.0
5660,0.2887861132621765,-0.7609155178070068,73,7088.0,-134.74835205078125,-2319,9984.0
5670,0.2857344150543213,18.350940704345703,388,7088.0,-155.72377014160156,-2583,9984.0
5680,0.2822893261909485,40.39202880859375,737,7088.0,-159.42401123046875,-2634,9984.0
5690,0.28274381160736084,48.89694595336914,851,7088.0,-134.75523376464844,-2046,9984.0
5700,0.2786960303783417,45.93462371826172,750,7088.0,-79.25369262695312,-899,9984.0
5710,0.2775631546974182,30.12700653076172,367,7088.0,-0.7096514105796814,318,9984.0
5720,0.2774924039840698,3.5207204818725586,-76,7088.0,59.30170822143555,1278,9984.0
5730,0.27602747082710266,-22.148401260375977,-569,7088.0,115.24205017089844,2205,9984.0
5740,0.2727382481098175,-49.543033599853516,-957,7088.0,164.45066833496094,2907,9984.0
5750,0.2719634175300598,-60.814273834228516,-955,7088.0,193.44606018066406,3063,9984.0
5760,0.27047282457351685,-52.20909881591797,-781,7088.0,182.60107421875,2907,9984.0
5770,0.2720784842967987,-39.652706146240234,-551,7088.0,145.61485290527344,2057,9984.0
5780,0.27108100056648254,-19.857114791870117,-274,7088.0,95.71755981445312,1260,9984.0
5790,0.2692924737930298,0.24377939105033875,120,7088.0,41.499969482421875,597,9984.0
5800,0.26878613233566284,12.439412117004395,350,7088.0,-8.901201248168945,-458,9984.0
5810,0.26815760135650635,25.254606246948242,360,7088.0,-50.64279556274414,-962,9984.0
5820,0.2680085003376007,26.254297256469727,438,7088.0,-75.69227600097656,-1368,9984.0
5830,0.26383695006370544,25.7259521484375,415,7088.0,-93.14680480957031,-1452,9984.0
5840,0.2629851698875427,23.97159194946289,302,7088.0,-89.32251739501953,-1341,9984.0
5850,0.2625998854637146,20.594524383544922,442,7088.0,-59.38270568847656,-845,9984.0
5860,0.26394137740135193,19.79718780517578,341,7088.0,-16.864410400390625,-125,9984.0
5870,0.26572921872138977,8.531085968017578,98,7088.0,40.37128829956055,1030,9984.0
5880,0.26471468806266785,0.2413930892944336,-59,7088.0,102.66499328613281,1956,9984.0
5890,0.26643136143684387,-7.521038055419922,-303,7088.0,137.72067260742188,2402,9984.0
5900,0.2669879198074341,-20.149288177490234,-401,7088.0,154.0631866455078,2474,9984.0
5910,0.2678796052932739,-19.467304229736328,-253,7088.0,150.26646423339844,2307,9984.0
5920,0.26560091972351074,-0.8545424342155457,38,7088.0,119.53791046142578,1849,9984.0
5930,0.2659267485141754,22.251083374023438,539,7088.0,69.95970153808594,947,9984.0
5940,0.2687486410140991,31.142993927001953,451,7088.0,18.32649803161621,8,9984.0
5950,0.26958274841308594,22.957218170166016,340,7088.0,-30.19755744934082,-662,9984.0
5960,0.266860693693161,8.749255180358887,30,7088.0,-64.71549224853516,-1100,9984.0
5970,0.26748982071876526,-4.917076587677002,-114,7088.0,-91.62258911132812,-1633,9984.0
5980,0.2682490050792694,-13.302996635437012,-173,7088.0,-102.86054992675781,-1692,9984.0
5990,0.2687951922416687,-19.668649673461914,-376,7088.0,-102.01213836669922,-1598,9984.0
6000,0.2693822681903839,-24.550804138183594,-412,7088.0,-94.36056518554688,-1410,9984.0
6010,0.2665824890136719,-19.662364959716797,-209,7088.0,-68.1606216430664,-860,9984.0
6020,0.26899775862693787,-0.359845370054245,155,7088.0,-21.057437896728516,-88,9984.0
6030,0.27060431241989136,16.810462951660156,419,7088.0,25.700014114379883,574,9984.0
6040,0.27177560329437256,26.130874633789062,512,7088.0,62.12980270385742,1148,9984.0
6050,0.26873043179512024,20.353347778320312,322,7088.0,90.5191879272461,1616,9984.0
6060,0.26955080032348633,1.4529634714126587,-142,7088.0,115.18484497070312,2120,9984.0
6070,0.2697080969810486,-22.351200103759766,-538,7088.0,131.06678771972656,2238,9984.0
6080,0.2691347301006317,-39.97764587402344,-740,7088.0,123.39994812011719,1654,9984.0
6090,0.26910385489463806,-42.20479202270508,-592,7088.0,84.09513854980469,1194,9984.0
6100,0.2684331238269806,-29.009140014648438,-375,7088.0,28.18535041809082,-129,9984.0
6110,0.2682085931301117,-16.800678253173828,-207,7088.0,-38.66880798339844,-904,9984.0
6120,0.2687295079231262,-4.032529830932617,1,7088.0,-99.0503158569336,-2057,9984.0
6130,0.26921746134757996,6.119239330291748,151,7088.0,-149.77210998535156,-2674,9984.0
6140,0.26568475365638733,19.3631649017334,367,7088.0,-178.13046264648438,-2842,9984.0
6150,0.2648358643054962,34.894283294677734,623,7088.0,-174.6795654296875,-2736,9984.0
6160,0.2632344365119934,37.41752243041992,558,7088.0,-147.1468048095703,-2334,9984.0
6170,0.2619280219078064,28.17623519897461,457,7088.0,-107.329345703125,-1721,9984.0
6180,0.26105403900146484,17.855792999267578,279,7088.0,-59.8743896484375,-793,9984.0
6190,0.2602057456970215,-1.5271130800247192,-67,7088.0,-4.975320339202881,118,9984.0
6200,0.2611019015312195,-15.741120338439941,-251,7088.0,43.06304931640625,863,9984.0
6210,0.2621926963329315,-26.474424362182617,-411,7088.0,80.43018341064453,1379,9984.0
6220,0.2618327736854553,-26.930099487304688,-373,7088.0,105.1883773803711,1819,9984.0
6230,0.2569939196109772,-17.904027938842773,-268,7088.0,115.53556060791016,1892,9984.0
6240,0.25697562098503113,-13.294424057006836,-142,7088.0,109.54737091064453,1557,9984.0
6250,0.25733640789985657,-7.477383613586426,-100,7088.0,88.4366226196289,1342,9984.0
6260,0.2593739330768585,-3.377962827682495,-76,7088.0,47.132381439208984,545,9984.0
6270,0.2547452747821808,-2.529038429260254,34,7088.0,2.5417795181274414,-109,9984.0
6280,0.25512826442718506,-0.9576908946037292,-19,7088.0,-41.704933166503906,-1078,9984.0
6290,0.25582191348075867,4.1315460205078125,93,7088.0,-82.80035400390625,-1365,9984.0
6300,0.25623440742492676,6.1918253898620605,100,7088.0,-105.27268981933594,-1750,9984.0
6310,0.25702574849128723,4.363813877105713,116,7088.0,-101.15068817138672,-1656,9984.0
6320,0.2527919113636017,-5.293745994567871,-96,7088.0,-79.59575653076172,-1085,9984.0
6330,0.25358328223228455,-16.493684768676758,-347,7088.0,-31.612144470214844,-293,9984.0
6340,0.2545529007911682,-27.488704681396484,-550,7088.0,13.809889793395996,400,9984.0
6350,0.256211519241333,-35.04757308959961,-641,7088.0,48.872962951660156,804,9984.0
6360,0.2522970736026764,-25.964778900146484,-310,7088.0,59.648189544677734,968,9984.0
6370,0.2531304657459259,-8.56091594696045,-59,7088.0,58.58955764770508,1101,9984.0
6380,0.253487229347229,9.513225555419922,262,7088.0,56.35581588745117,814,9984.0
6390,0.2539370357990265,24.907419204711914,501,7088.0,49.05518341064453,772,9984.0
6400,0.2499305009841919,32.16877746582031,529,7088.0,38.27126693725586,602,9984.0
6410,0.24999798834323883,39.85234451293945,750,7088.0,21.473106384277344,187,9984.0
6420,0.2497217059135437,40.06114959716797,614,7088.0,-3.426358461380005,-69,9984.0
6430,0.25042399764060974,28.007638931274414,426,7088.0,-29.16322898864746,-584,9984.0
6440,0.2503359317779541,15.388890266418457,251,7088.0,-45.73810958862305,-841,9984.0
6450,0.24728511273860931,4.739889144897461,53,7088.0,-57.11946487426758,-958,9984.0
6460,0.24724605679512024,-2.3768465518951416,-118,7088.0,-62.86180114746094,-849,9984.0
6470,0.2476072460412979,-4.192733287811279,-79,7088.0,-43.326026916503906,-609,9984.0
6480,0.2476167380809784,-6.011142253875732,-59,7088.0,-8.17359447479248,-41,9984.0
6490,0.24338819086551666,-12.557767868041992,-132,7088.0,39.312252044677734,772,9984.0
6500,0.24369722604751587,-18.434009552001953,-342,7088.0,73.23392486572266,1354,9984.0
6510,0.2437715232372284,-20.747224807739258,-331,7088.0,90.92193603515625,1467,9984.0
6520,0.24374985694885254,-11.740163803100586,-73,7088.0,85.90682983398438,1304,9984.0
6530,0.24371370673179626,4.792811393737793,113,7088.0,70.54610443115234,1065,9984.0
6540,0.2411971390247345,17.741304397583008,421,7088.0,36.15403366088867,490,9984.0
6550,0.2421257495880127,22.87758445739746,353,7088.0,7.073869228363037,21,9984.0
6560,0.24163323640823364,15.950047492980957,328,7088.0,-20.094301223754883,-432,9984.0
6570,0.24125273525714874,10.234906196594238,149,7088.0,-37.85700225830078,-643,9984.0
6580,0.2382548749446869,5.053789138793945,41,7088.0,-52.44439697265625,-952,9984.0
6590,0.23775207996368408,-4.0062336921691895,-77,7088.0,-54.94068908691406,-910,9984.0
6600,0.2371169626712799,-12.60775089263916,-346,7088.0,-57.77438735961914,-782,9984.0
6610,0.23667776584625244,-20.198211669921875,-365,7088.0,-49.75070571899414,-769,9984.0
6620,0.23245757818222046,-17.456945419311523,-217,7088.0,-35.265201568603516,-594,9984.0
6630,0.2319902926683426,-19.325864791870117,-331,7088.0,-14.62852954864502,-37,9984.0
6640,0.2316088229417801,-23.211009979248047,-411,7088.0,16.285131454467773,401,9984.0
6650,0.23167699575424194,-25.006319046020508,-398,7088.0,36.096900939941406,590,9984.0
6660,0.23261843621730804,-22.215721130371094,-289,7088.0,52.57041549682617,936,9984.0
6670,0.22884027659893036,-12.406203269958496,-171,7088.0,65.18998718261719,1133,9984.0
6680,0.22906047105789185,1.3600833415985107,136,7088.0,70.15890502929688,1122,9984.0
6690,0.22908349335193634,12.841229438781738,217,7088.0,57.15052032470703,623,9984.0
6700,0.22855374217033386,17.204212188720703,218,7088.0,35.0103759765625,487,9984.0
6710,0.23201829195022583,10.364944458007812,236,7088.0,12.243273735046387,-10,9984.0
6720,0.23179228603839874,9.574085235595703,94,7088.0,-15.449139595031738,-409,9984.0
6730,0.23133210837841034,10.775749206542969,206,7088.0,-37.09070587158203,-742,9984.0
6740,0.23076871037483215,9.29258918762207,114,7088.0,-50.81072998046875,-883,9984.0
6750,0.23047684133052826,9.114082336425781,222,7088.0,-50.484344482421875,-805,9984.0
6760,0.2316606640815735,8.712379455566406,47,7088.0,-47.85325241088867,-722,9984.0
6770,0.23126237094402313,5.275428295135498,180,7088.0,-35.3658447265625,-519,9984.0
6780,0.2316446751356125,4.785782337188721,25,7088.0,-17.304092407226562,-19,9984.0
6790,0.23259490728378296,-1.6005873680114746,-44,7088.0,16.45073890686035,377,9984.0
6800,0.23257556557655334,-4.883295059204102,-44,7088.0,43.72260284423828,857,9984.0
6810,0.23307646811008453,-9.885449409484863,-162,7088.0,57.20664596557617,991,9984.0
6820,0.23380447924137115,-12.494389533996582,-129,7088.0,60.91728591918945,919,9984.0
6830,0.23445680737495422,-9.790654182434082,-148,7088.0,47.22337341308594,738,9984.0
6840,0.23388876020908356,-9.019299507141113,-155,7088.0,31.675601959228516,389,9984.0
6850,0.23440876603126526,-6.279645919799805,-43,7088.0,12.603102684020996,178,9984.0
6860,0.23473340272903442,0.4045080840587616,33,7088.0,-11.43205738067627,-400,9984.0
6870,0.23489084839820862,7.221850395202637,141,7088.0,-33.739261627197266,-530,9984.0
6880,0.23481720685958862,11.158196449279785,195,7088.0,-44.824012756347656,-891,9984.0
6890,0.23329494893550873,9.12342357635498,105,7088.0,-45.75859451293945,-613,9984.0
6900,0.2337655872106552,0.4721510410308838,-78,7088.0,-30.996545791625977,-522,9984.0
6910,0.23390309512615204,-2.405283212661743,-30,7088.0,-20.515586853027344,-294,9984.0
6920,0.2338416576385498,0.2961070239543915,-72,7088.0,-2.410155773162842,183,9984.0
6930,0.23247939348220825,-2.3986639976501465,-98,7088.0,24.225875854492188,457,9984.0
6940,0.23324967920780182,-4.020984172821045,-8,7088.0,51.45016860961914,1002,9984.0
6950,0.23360343277454376,4.090040683746338,108,7088.0,65.8885726928711,1009,9984.0
6960,0.23382511734962463,16.74104118347168,362,7088.0,76.29276275634766,1291,9984.0
6970,0.2368801087141037,25.339523315429688,392,7088.0,75.67240142822266,1106,9984.0
6980,0.23681765794754028,26.886188507080078,449,7088.0,49.942054748535156,774,9984.0
6990,0.23742786049842834,9.276571273803711,55,7088.0,24.00184440612793,116,9984.0
7000,0.237564817070961,-9.851879119873047,-222,7088.0,-2.6596381664276123,-77,9984.0
7010,0.23758289217948914,-26.05251693725586,-457,7088.0,-26.704957962036133,-637,9984.0
7020,0.2385776787996292,-34.676513671875,-602,7088.0,-44.31001663208008,-696,9984.0
7030,0.23824355006217957,-37.605140686035156,-576,7088.0,-58.43793487548828,-1018,9984.0
7040,0.23819278180599213,-34.23887634277344,-578,7088.0,-71.11695098876953,-1151,9984.0
7050,0.23790594935417175,-26.581371307373047,-351,7088.0,-73.92786407470703,-1310,9984.0
7060,0.2373739629983902,-20.646663665771484,-368,7088.0,-57.88685989379883,-807,9984.0
7070,0.23703588545322418,-17.556686401367188,-239,7088.0,-22.60942840576172,-273,9984.0
7080,0.23747627437114716,-3.7922961711883545,-7,7088.0,21.420141220092773,670,9984.0
7090,0.23826496303081512,10.583478927612305,217,7088.0,71.65705108642578,1316,9984.0
7100,0.2405533790588379,19.611473083496094,375,7088.0,103.07643127441406,1836,9984.0
7110,0.24106253683567047,27.825393676757812,470,7088.0,111.09378814697266,1756,9984.0
7120,0.2408061921596527,34.37754821777344,529,7088.0,102.41961669921875,1646,9984.0
7130,0.245414599776268,30.48113250732422,508,7088.0,74.87957000732422,1106,9984.0
7140,0.24608254432678223,22.428586959838867,289,7088.0,40.06338882446289,359,9984.0
7150,0.24745944142341614,12.108592987060547,133,7088.0,-2.8780462741851807,-247,9984.0
7160,0.24805177748203278,11.471363067626953,234,7088.0,-45.399051666259766,-907,9984.0
7170,0.24836966395378113,10.748787879943848,124,7088.0,-69.21831512451172,-1233,9984.0
7180,0.24847950041294098,11.35339641571045,231,7088.0,-85.3853759765625,-1441,9984.0
7190,0.24920083582401276,9.400160789489746,52,7088.0,-93.42815399169922,-1424,9984.0
7200,0.24943163990974426,1.903677225112915,19,7088.0,-83.65814208984375,-1379,9984.0
7210,0.25092875957489014,-4.879696846008301,-139,7088.0,-66.72779083251953,-929,9984.0
7220,0.2518135607242584,-14.675617218017578,-293,7088.0,-40.34192657470703,-447,9984.0
7230,0.25232332944869995,-18.890804290771484,-326,7088.0,-13.269269943237305,-190,9984.0
7240,0.25176018476486206,-15.587241172790527,-163,7088.0,9.401063919067383,307,9984.0
7250,0.2528858482837677,-4.855555534362793,-65,7088.0,37.887367248535156,866,9984.0
7260,0.2536250948905945,-3.072746992111206,-63,7088.0,65.6606216430664,1023,9984.0
7270,0.25425219535827637,0.014377309940755367,31,7088.0,68.48521423339844,1129,9984.0
7280,0.25545939803123474,1.3749210834503174,8,7088.0,53.19903564453125,707,9984.0
7290,0.2568052411079407,-0.6603680849075317,43,7088.0,28.3831787109375,364,9984.0
7300,0.25729283690452576,-4.477566242218018,-152,7088.0,4.098834991455078,-42,9984.0
7310,0.2580554187297821,-8.708130836486816,-78,7088.0,-12.022477149963379,-222,9984.0
7320,0.25892162322998047,-2.268820285797119,13,7088.0,-15.7571382522583,-257,9984.0
7330,0.259174108505249,14.658842086791992,464,7088.0,-20.484617233276367,-384,9984.0
7340,0.2592805027961731,31.73121452331543,542,7088.0,-27.058372497558594,-467,9984.0
7350,0.25945475697517395,33.2194709777832,414,7088.0,-35.84820556640625,-628,9984.0
7360,0.2594228684902191,24.751468658447266,495,7088.0,-42.98707580566406,-822,9984.0
7370,0.2604973018169403,23.5429630279541,307,7088.0,-52.92280197143555,-712,9984.0
7380,0.26104336977005005,12.812318801879883,147,7088.0,-42.72988510131836,-507,9984.0
7390,0.26102232933044434,3.4128072261810303,40,7088.0,-19.06598472595215,-199,9984.0
7400,0.2621529996395111,0.7230819463729858,39,7088.0,15.408735275268555,395,9984.0
7410,0.2638694941997528,-8.076626777648926,-200,7088.0,39.88623046875,737,9984.0
7420,0.2642953097820282,-23.661165237426758,-501,7088.0,48.37907028198242,866,9984.0
7430,0.2649734616279602,-38.73868942260742,-766,7088.0,53.455196380615234,858,9984.0
7440,0.26533350348472595,-52.438758850097656,-769,7088.0,55.29253387451172,833,9984.0
7450,0.26653891801834106,-41.5844841003418,-604,7088.0,44.208805084228516,709,9984.0
7460,0.26786109805107117,-16.669084548950195,-110,7088.0,27.473804473876953,226,9984.0
7470,0.26817086338996887,12.961134910583496,364,7088.0,-1.4236774444580078,-144,9984.0
7480,0.2688123285770416,32.688201904296875,582,7088.0,-30.58053970336914,-716,9984.0
7490,0.2692176401615143,45.44384002685547,850,7088.0,-45.93463134765625,-780,9984.0
7500,0.27116695046424866,56.51335525512695,879,7088.0,-47.304161071777344,-717,9984.0
7510,0.27146804332733154,52.706600189208984,798,7088.0,-54.07682800292969,-940,9984.0
7520,0.2719757556915283,35.635108947753906,558,7088.0,-54.707889556884766,-895,9984.0
7530,0.27284541726112366,19.268447875976562,282,7088.0,-35.1185302734375,-472,9984.0
7540,0.27497249841690063,3.389232873916626,10,7088.0,-7.113716125488281,25,9984.0
7550,0.27592313289642334,-6.987054347991943,-165,7088.0,18.650476455688477,389,9984.0
7560,0.2770191729068756,-8.956400871276855,-156,7088.0,47.110347747802734,985,9984.0
7570,0.27807626128196716,-2.6448824405670166,-111,7088.0,71.23886108398438,1258,9984.0
7580,0.2791942059993744,-5.597954750061035,-55,7088.0,76.56900024414062,1204,9984.0
7590,0.27955198287963867,-3.578988552093506,36,7088.0,76.88587188720703,1162,9984.0
7600,0.28041213750839233,-4.650113105773926,-34,7088.0,66.7829360961914,1092,9984.0
7610,0.28141841292381287,-6.445802688598633,-152,7088.0,40.16822052001953,503,9984.0
7620,0.2823314368724823,-13.303586959838867,-172,7088.0,10.34967041015625,-31,9984.0
7630,0.28547295928001404,-21.463672637939453,-380,7088.0,-33.89786911010742,-713,9984.0
7640,0.286430299282074,-28.874481201171875,-504,7088.0,-74.97479248046875,-1409,9984.0
7650,0.2866811156272888,-25.509592056274414,-311,7088.0,-104.2247543334961,-1850,9984.0
7660,0.2873857319355011,-10.834372520446777,-86,7088.0,-110.12419128417969,-1691,9984.0
7670,0.28885042667388916,0.8968371152877808,1,7088.0,-96.1769790649414,-1437,9984.0
7680,0.2893282175064087,7.678903102874756,102,7088.0,-86.0504379272461,-1343,9984.0
7690,0.2894918918609619,7.034191131591797,35,7088.0,-62.072811126708984,-911,9984.0
7700,0.29225659370422363,-7.9820027351379395,-122,7088.0,-27.961395263671875,-373,9984.0
7710,0.29383325576782227,-25.52627944946289,-412,7088.0,4.182991981506348,139,9984.0
7720,0.29409876465797424,-47.14165115356445,-836,7088.0,32.06379699707031,583,9984.0
7730,0.2953992187976837,-67.61994171142578,-1109,7088.0,59.261234283447266,1193,9984.0
7740,0.2969898283481598,-56.56367874145508,-878,7088.0,90.5631103515625,1614,9984.0
7750,0.2983705401420593,-35.492034912109375,-516,7088.0,95.8907470703125,1412,9984.0
7760,0.2983936369419098,-16.857629776000977,-191,7088.0,71.05786895751953,987,9984.0
7770,0.29951995611190796,-8.790863990783691,-126,7088.0,29.14807891845703,203,9984.0
7780,0.3008987605571747,7.824884414672852,231,7088.0,-10.48011302947998,-399,9984.0
7790,0.30180105566978455,26.51338768005371,549,7088.0,-39.09029006958008,-598,9984.0
7800,0.3026888370513916,61.33049392700195,1144,7088.0,-37.32085037231445,-616,9984.0
7810,0.303272545337677,84.78936767578125,1481,7088.0,-23.018918991088867,-304,9984.0
7820,0.30490389466285706,85.3001480102539,1405,7088.0,-3.070218801498413,15,9984.0
7830,0.3057573139667511,72.35688018798828,998,7088.0,4.582204341888428,169,9984.0
7840,0.3067256212234497,42.090824127197266,373,7088.0,9.04179859161377,231,9984.0
7850,0.3062400221824646,-1.1771414279937744,-193,7088.0,2.97324800491333,6,9984.0
7860,0.3072678744792938,-25.026660919189453,-538,7088.0,-5.207767009735107,-73,9984.0
7870,0.30764737725257874,-40.51543426513672,-718,7088.0,2.6786015033721924,63,9984.0
7880,0.3083025813102722,-55.45896911621094,-974,7088.0,20.238941192626953,314,9984.0
7890,0.3072877824306488,-70.72830200195312,-1200,7088.0,37.68940353393555,586,9984.0
7900,0.3074013590812683,-82.43486022949219,-1326,7088.0,40.77824401855469,623,9984.0
7910,0.30837884545326233,-68.12499237060547,-1040,7088.0,34.9544792175293,510,9984.0
7920,0.30836790800094604,-44.88166046142578,-560,7088.0,12.69765853881836,167,9984.0
7930,0.30882808566093445,-1.7467927932739258,128,7088.0,-11.8392915725708,-391,9984.0
7940,0.3088655471801758,30.614900588989258,773,7088.0,-29.590871810913086,-665,9984.0
7950,0.3090516924858093,57.6595344543457,974,7088.0,-41.431365966796875,-677,9984.0
7960,0.30922698974609375,57.61494064331055,860,7088.0,-39.84309387207031,-449,9984.0
7970,0.30894479155540466,50.09912872314453,686,7088.0,-18.361507415771484,-135,9984.0
7980,0.3070303201675415,42.03548049926758,511,7088.0,6.1936936378479,263,9984.0
7990,0.3074805438518524,17.349998474121094,54,7088.0,23.438722610473633,584,9984.0
8000,0.30746740102767944,-7.289419651031494,-178,7088.0,34.20942687988281,661,9984.0
8010,0.30739307403564453,-19.175922393798828,-429,7088.0,49.47026062011719,947,9984.0
8020,0.30686789751052856,-26.549875259399414,-505,7088.0,60.8322868347168,1113,9984.0
8030,0.305952787399292,-24.60053253173828,-480,7088.0,59.0361328125,902,9984.0
8040,0.3055531978607178,-30.329893112182617,-472,7088.0,41.52134704589844,437,9984.0
8050,0.30492186546325684,-36.32852554321289,-658,7088.0,11.168218612670898,42,9984.0
8060,0.3045532703399658,-35.731876373291016,-530,7088.0,-17.836265563964844,-406,9984.0
8070,0.3038903474807739,-13.559782028198242,-1,7088.0,-38.5152702331543,-839,9984.0
8080,0.3034203350543976,20.49123764038086,537,7088.0,-63.231117248535156,-1073,9984.0
8090,0.3028181195259094,34.88431167602539,493,7088.0,-74.18338775634766,-1129,9984.0
8100,0.30199944972991943,29.390600204467773,412,7088.0,-64.83989715576172,-1024,9984.0
8110,0.30161386728286743,16.361812591552734,175,7088.0,-45.896263122558594,-709,9984.0
8120,0.3010370433330536,4.2509050369262695,-11,7088.0,-13.490123748779297,-111,9984.0
8130,0.30063286423683167,-11.922237396240234,-165,7088.0,22.633649826049805,381,9984.0
8140,0.3003104627132416,-10.497536659240723,-40,7088.0,40.824527740478516,701,9984.0
8150,0.2999099791049957,1.2040146589279175,116,7088.0,57.93162536621094,1078,9984.0
8160,0.2994716465473175,19.146373748779297,321,7088.0,64.45156860351562,1085,9984.0
8170,0.29882463812828064,36.118751525878906,662,7088.0,53.19921875,669,9984.0
8180,0.2983246445655823,39.16427993774414,678,7088.0,38.039215087890625,508,9984.0
8190,0.2986695170402527,26.472490310668945,321,7088.0,16.042407989501953,178,9984.0
8200,0.2977328896522522,9.117993354797363,67,7088.0,-11.946294784545898,-365,9984.0
8210,0.29755541682243347,-6.773712635040283,-112,7088.0,-35.76761245727539,-744,9984.0
8220,0.2972325384616852,-20.34569549560547,-387,7088.0,-57.92024230957031,-933,9984.0
8230,0.29686474800109863,-26.90413475036621,-499,7088.0,-70.43943786621094,-1124,9984.0
8240,0.29655569791793823,-27.32921600341797,-434,7088.0,-67.08668518066406,-1108,9984.0
8250,0.29652509093284607,-24.044652938842773,-314,7088.0,-47.474998474121094,-674,9984.0
8260,0.29649826884269714,-15.176033973693848,-186,7088.0,-13.711764335632324,-184,9984.0
8270,0.2967853248119354,-16.141687393188477,-266,7088.0,18.819353103637695,508,9984.0
8280,0.2968689203262329,-27.695322036743164,-619,7088.0,52.14952850341797,1073,9984.0
8290,0.29741135239601135,-38.78833770751953,-648,7088.0,70.19171142578125,1261,9984.0
8300,0.2973897457122803,-26.7734317779541,-347,7088.0,80.51065826416016,1211,9984.0
8310,0.2972334623336792,-1.6881204843521118,149,7088.0,59.30165100097656,741,9984.0
8320,0.29873302578926086,17.50824737548828,282,7088.0,22.570199966430664,263,9984.0
8330,0.29863184690475464,29.8111515045166,575,7088.0,-4.974761486053467,-356,9984.0
8340,0.2991971969604492,40.964805603027344,718,7088.0,-43.417022705078125,-802,9984.0
8350,0.2997592091560364,40.383426666259766,582,7088.0,-69.72432708740234,-1266,9984.0
8360,0.29970940947532654,28.939197540283203,411,7088.0,-91.80319213867188,-1676,9984.0
8370,0.2999459505081177,13.411072731018066,188,7088.0,-103.65733337402344,-1750,9984.0
8380,0.29934242367744446,-1.575811505317688,-110,7088.0,-103.68610382080078,-1578,9984.0
8390,0.2996681332588196,-15.246174812316895,-375,7088.0,-92.52083587646484,-1363,9984.0
8400,0.3016425669193268,-25.439964294433594,-493,7088.0,-65.64855194091797,-827,9984.0
8410,0.30234745144844055,-26.06635856628418,-400,7088.0,-22.830007553100586,-35,9984.0
8420,0.30126655101776123,-5.844903469085693,-52,7088.0,32.373268127441406,828,9984.0
8430,0.3029879331588745,3.6543824672698975,26,7088.0,79.65396881103516,1494,9984.0
8440,0.3039928674697876,2.0274853706359863,37,7088.0,97.63814544677734,1615,9984.0
8450,0.3047044575214386,5.302247524261475,179,7088.0,104.48420715332031,1774,9984.0
8460,0.3050249516963959,10.674365997314453,209,7088.0,99.67770385742188,1566,9984.0
8470,0.30519190430641174,9.344198226928711,100,7088.0,66.30525207519531,873,9984.0
8480,0.30691179633140564,2.666480302810669,96,7088.0,25.161598205566406,71,9984.0
8490,0.3075670599937439,0.6752442717552185,-85,7088.0,-29.162912368774414,-589,9984.0
8500,0.3084973394870758,-2.1618716716766357,-16,7088.0,-60.37062072753906,-1387,9984.0
8510,0.3079412281513214,7.651988983154297,219,7088.0,-99.48359680175781,-1745,9984.0
8520,0.3080708682537079,13.15259075164795,202,7088.0,-114.4922866821289,-1744,9984.0
8530,0.30848070979118347,29.21824073791504,589,7088.0,-105.97560119628906,-1702,9984.0
8540,0.3087342381477356,47.050987243652344,841,7088.0,-81.93521881103516,-1201,9984.0
8550,0.3079497218132019,47.23345947265625,806,7088.0,-44.74711227416992,-562,9984.0
8560,0.30995064973831177,26.57244873046875,349,7088.0,0.576663613319397,408,9984.0
8570,0.3104824721813202,0.29527589678764343,-83,7088.0,58.82401657104492,1069,9984.0
8580,0.31098705530166626,-16.40850257873535,-294,7088.0,86.53128051757812,1523,9984.0
8590,0.31132179498672485,-12.410979270935059,-248,7088.0,97.83558654785156,1700,9984.0
8600,0.3113890290260315,-8.274418830871582,-122,7088.0,97.26154327392578,1433,9984.0
8610,0.31136882305145264,-10.133347511291504,-120,7088.0,79.02115631103516,1152,9984.0
8620,0.31117451190948486,-8.407187461853027,-138,7088.0,46.82649612426758,524,9984.0
8630,0.3119746744632721,-4.853744983673096,-10,7088.0,-2.1465461254119873,-293,9984.0
8640,0.31543639302253723,-5.241082191467285,-121,7088.0,-39.9950065612793,-810,9984.0
8650,0.31560420989990234,-4.609668254852295,-73,7088.0,-74.8596420288086,-1517,9984.0
8660,0.3158535957336426,-1.1454349756240845,28,7088.0,-110.82431030273438,-1914,9984.0
8670,0.3157370686531067,1.2132189273834229,21,7088.0,-124.66730499267578,-1958,9984.0
8680,0.31540775299072266,-1.1685216426849365,-233,7088.0,-111.5688705444336,-1596,9984.0
8690,0.31460103392601013,-21.70770835876465,-447,7088.0,-86.10322570800781,-1223,9984.0
8700,0.3148127496242523,-25.76945686340332,-337,7088.0,-42.19811248779297,-402,9984.0
8710,0.3152577877044678,-15.260222434997559,-63,7088.0,12.95688533782959,461,9984.0
8720,0.316813588142395,-2.8237569332122803,77,7088.0,67.66641998291016,1435,9984.0
8730,0.31618520617485046,3.9070563316345215,104,7088.0,109.18204498291016,1957,9984.0
8740,0.3167235255241394,4.782109260559082,17,7088.0,129.0279541015625,2268,9984.0
8750,0.31687870621681213,-1.2049353122711182,-59,7088.0,133.697998046875,2019,9984.0
8760,0.3169591426849365,2.006868839263916,141,7088.0,105.95274353027344,1467,9984.0
8770,0.3171640634536743,6.447829723358154,96,7088.0,57.029991149902344,556,9984.0
8780,0.3173541724681854,6.580886363983154,78,7088.0,5.539241313934326,-178,9984.0
8790,0.31786108016967773,0.9691200256347656,-15,7088.0,-39.639503479003906,-695,9984.0
8800,0.3185606002807617,-8.794048309326172,-263,7088.0,-72.14125061035156,-1325,9984.0
8810,0.31863898038864136,-20.301654815673828,-317,7088.0,-96.37657928466797,-1777,9984.0
8820,0.32103651762008667,-27.393047332763672,-477,7088.0,-107.13467407226562,-1646,9984.0
8830,0.3213098645210266,-35.25661849975586,-615,7088.0,-88.37367248535156,-1284,9984.0
8840,0.3215242624282837,-37.59183883666992,-635,7088.0,-63.64311599731445,-733,9984.0
8850,0.32330992817878723,-24.495088577270508,-412,7088.0,-18.036518096923828,-121,9984.0
8860,0.3235310912132263,-13.245504379272461,-101,7088.0,22.072072982788086,495,9984.0
8870,0.3244144320487976,4.154072284698486,192,7088.0,58.80790710449219,1138,9984.0
8880,0.32523486018180847,14.790772438049316,305,7088.0,98.17217254638672,1792,9984.0
8890,0.32581666111946106,21.464214324951172,295,7088.0,115.61237335205078,2001,9984.0
8900,0.3262580931186676,27.459545135498047,423,7088.0,108.64115905761719,1696,9984.0
8910,0.32676953077316284,30.72807502746582,548,7088.0,88.44768524169922,1323,9984.0
8920,0.3273642659187317,19.3425235748291,183,7088.0,61.070369720458984,881,9984.0
8930,0.3280477523803711,6.012751579284668,20,7088.0,12.575456619262695,-47,9984.0
8940,0.328401654958725,-1.3892238140106201,-2,7088.0,-31.867279052734375,-665,9984.0
8950,0.32960793375968933,-9.83386516571045,-199,7088.0,-60.20389938354492,-1070,9984.0
8960,0.3299822509288788,-15.778974533081055,-356,7088.0,-79.1723403930664,-1509,9984.0
8970,0.3299883306026459,-24.688831329345703,-348,7088.0,-110.09168243408203,-2000,9984.0
8980,0.3300766944885254,-18.552473068237305,-258,7088.0,-120.28314208984375,-1855,9984.0
8990,0.33018946647644043,-16.488744735717773,-333,7088.0,-98.77678680419922,-1325,9984.0
9000,0.3306756317615509,-6.057003498077393,-44,7088.0,-52.2387580871582,-583,9984.0
9010,0.33137834072113037,6.924676418304443,88,7088.0,7.02042818069458,455,9984.0
9020,0.3325902819633484,8.39595890045166,143,7088.0,64.56298828125,1218,9984.0
9030,0.333418071269989,10.269662857055664,251,7088.0,98.44612121582031,1658,9984.0
9040,0.33298662304878235,7.0581278800964355,191,7088.0,121.36717987060547,1972,9984.0
9050,0.3328140676021576,6.262181758880615,90,7088.0,114.13018035888672,1862,9984.0
9060,0.33387723565101624,2.632535457611084,19,7088.0,86.88272857666016,1198,9984.0
9070,0.33380430936813354,3.725003242492676,111,7088.0,48.41896438598633,591,9984.0
9080,0.3336964547634125,4.64510440826416,6,7088.0,0.1334507316350937,-248,9984.0
9090,0.33392006158828735,4.403517723083496,144,7088.0,-49.13042449951172,-1074,9984.0
9100,0.333933562040329,7.452507019042969,177,7088.0,-87.52450561523438,-1523,9984.0
9110,0.3341405987739563,13.794435501098633,216,7088.0,-116.25454711914062,-1958,9984.0
9120,0.33407658338546753,20.082414627075195,368,7088.0,-121.17457580566406,-2021,9984.0
9130,0.33549225330352783,25.7469425201416,505,7088.0,-104.73249053955078,-1653,9984.0
9140,0.3369956910610199,25.594205856323242,452,7088.0,-66.3994369506836,-885,9984.0
9150,0.3373470902442932,12.686176300048828,82,7088.0,-24.138744354248047,-202,9984.0
9160,0.337896466255188,-14.70545482635498,-361,7088.0,24.05318832397461,589,9984.0
9170,0.3368750512599945,-33.25102996826172,-563,7088.0,71.49459075927734,1308,9984.0
9180,0.3372718095779419,-37.1918830871582,-714,7088.0,102.39911651611328,1875,9984.0
9190,0.337699830532074,-41.16755294799805,-751,7088.0,112.52705383300781,1787,9984.0
9200,0.33773213624954224,-39.592525482177734,-507,7088.0,97.70066833496094,1406,9984.0
9210,0.33776503801345825,-19.089637756347656,-155,7088.0,60.831520080566406,875,9984.0
9220,0.3393329679965973,-1.6514877080917358,46,7088.0,12.515528678894043,-86,9984.0
9230,0.3402169644832611,8.669634819030762,223,7088.0,-38.795692443847656,-750,9984.0
9240,0.34099334478378296,21.295093536376953,391,7088.0,-71.02349853515625,-1435,9984.0
9250,0.34191930294036865,25.104965209960938,465,7088.0,-95.22933959960938,-1569,9984.0
9260,0.3418504595756531,25.915828704833984,388,7088.0,-103.05467987060547,-1619,9984.0
9270,0.34264305233955383,29.476285934448242,482,7088.0,-97.92423248291016,-1440,9984.0
9280,0.3433364927768707,37.54964828491211,590,7088.0,-74.17842864990234,-1022,9984.0
9290,0.34447693824768066,27.533916473388672,294,7088.0,-31.699634552001953,-308,9984.0
9300,0.3421568274497986,3.658184289932251,-7,7088.0,17.19964599609375,442,9984.0
9310,0.3432101607322693,-16.802038192749023,-381,7088.0,54.65730667114258,1018,9984.0
9320,0.34414204955101013,-39.065948486328125,-635,7088.0,88.51502990722656,1590,9984.0
9330,0.34489941596984863,-39.93478775024414,-466,7088.0,108.21631622314453,1839,9984.0
9340,0.3458268940448761,-23.36012840270996,-375,7088.0,107.01043701171875,1819,9984.0
9350,0.3430027663707733,-15.993765830993652,-317,7088.0,87.51852416992188,1231,9984.0
9360,0.34308695793151855,-15.394431114196777,-172,7088.0,56.86872482299805,804,9984.0
9370,0.3434754014015198,-5.7505202293396,-99,7088.0,14.826387405395508,-86,9984.0
9380,0.3448134660720825,2.049673318862915,148,7088.0,-27.10219383239746,-685,9984.0
9390,0.3471496105194092,7.615407466888428,130,7088.0,-60.27932357788086,-1085,9984.0
9400,0.3478751480579376,19.088363647460938,416,7088.0,-79.4795150756836,-1445,9984.0
9410,0.34878623485565186,25.64402961730957,440,7088.0,-88.27796936035156,-1522,9984.0
9420,0.3499082624912262,23.757375717163086,347,7088.0,-82.90963745117188,-1187,9984.0
9430,0.3478962481021881,16.937389373779297,188,7088.0,-57.72211456298828,-703,9984.0
9440,0.3487972915172577,13.571310043334961,165,7088.0,-16.07615852355957,-55,9984.0
9450,0.34968456625938416,11.232858657836914,194,7088.0,21.932350158691406,514,9984.0
9460,0.3505851924419403,9.622678756713867,231,7088.0,50.50699996948242,844,9984.0
9470,0.35119688510894775,4.441305160522461,119,7088.0,68.15768432617188,1099,9984.0
9480,0.3492772877216339,1.8035296201705933,3,7088.0,71.3830337524414,1139,9984.0
9490,0.3495524227619171,5.001069068908691,2,7088.0,59.66396713256836,915,9984.0
9500,0.3495962619781494,7.043139457702637,144,7088.0,34.935279846191406,364,9984.0
9510,0.35005292296409607,13.288853645324707,272,7088.0,10.762358665466309,98,9984.0
9520,0.3481071889400482,19.271806716918945,262,7088.0,-3.4698703289031982,-34,9984.0
9530,0.34817975759506226,8.95694351196289,14,7088.0,-13.039072036743164,-357,9984.0
9540,0.34842565655708313,-16.072967529296875,-334,7088.0,-23.199628829956055,-447,9984.0
9550,0.3487658202648163,-42.153961181640625,-766,7088.0,-32.310630798339844,-505,9984.0
9560,0.3474777936935425,-52.48176956176758,-921,7088.0,-31.70268440246582,-392,9984.0
9570,0.3476123809814453,-44.695594787597656,-638,7088.0,-19.34210777282715,-234,9984.0
9580,0.3482348620891571,-15.979966163635254,-45,7088.0,11.636341094970703,199,9984.0
9590,0.3485713303089142,17.67909812927246,424,7088.0,26.293445587158203,508,9984.0
9600,0.3491237759590149,39.01023483276367,627,7088.0,26.933717727661133,498,9984.0
9610,0.34850597381591797,41.543453216552734,637,7088.0,28.61591148376465,381,9984.0
9620,0.3485456705093384,36.71835708618164,684,7088.0,31.063655853271484,537,9984.0
9630,0.3484671711921692,37.004703521728516,558,7088.0,29.880577087402344,531,9984.0
9640,0.3482903838157654,29.677961349487305,356,7088.0,20.800277709960938,356,9984.0
9650,0.3472679555416107,16.73682975769043,238,7088.0,12.603682518005371,72,9984.0
9660,0.3467010259628296,4.7750115394592285,88,7088.0,-1.5228376388549805,-26,9984.0
9670,0.34652769565582275,-6.704738616943359,-195,7088.0,-16.601768493652344,-296,9984.0
9680,0.34637942910194397,-22.504196166992188,-473,7088.0,-28.726558685302734,-464,9984.0
9690,0.346307635307312,-34.91083526611328,-603,7088.0,-24.383995056152344,-442,9984.0
9700,0.34558385610580444,-43.8463249206543,-671,7088.0,-13.996488571166992,-96,9984.0
9710,0.34544628858566284,-47.251224517822266,-820,7088.0,4.780344486236572,224,9984.0
9720,0.3452143669128418,-46.03020095825195,-733,7088.0,17.64116096496582,269,9984.0
9730,0.3448270261287689,-37.34850311279297,-454,7088.0,22.914371490478516,531,9984.0
9740,0.34233880043029785,-3.3334391117095947,95,7088.0,33.717742919921875,487,9984.0
9750,0.3422352075576782,43.562294006347656,975,7088.0,17.477617263793945,248,9984.0
9760,0.3418099880218506,71.38850402832031,1117,7088.0,-5.229173183441162,-271,9984.0
9770,0.34122970700263977,73.02487182617188,1244,7088.0,-35.21966552734375,-684,9984.0
9780,0.3387528955936432,65.81253051757812,953,7088.0,-56.20029830932617,-807,9984.0
9790,0.337713360786438,54.2292366027832,822,7088.0,-45.716346740722656,-681,9984.0
9800,0.3374636769294739,50.30464553833008,792,7088.0,-25.43387794494629,-383,9984.0
9810,0.3368012309074402,30.959070205688477,444,7088.0,-7.875646114349365,-151,9984.0
9820,0.33607611060142517,-2.7115228176116943,-190,7088.0,4.736119270324707,87,9984.0
9830,0.3365621864795685,-28.78146743774414,-688,7088.0,3.6217095851898193,141,9984.0
9840,0.3364602327346802,-49.68800735473633,-914,7088.0,-0.28791627287864685,41,9984.0
9850,0.3363547921180725,-72.03882598876953,-1312,7088.0,5.704172134399414,94,9984.0
9860,0.3364688456058502,-84.9317398071289,-1333,7088.0,27.715335845947266,539,9984.0
9870,0.33482980728149414,-93.37857055664062,-1466,7088.0,48.19034957885742,953,9984.0
9880,0.33569276332855225,-69.52725982666016,-952,7088.0,71.22818756103516,1124,9984.0
9890,0.33563026785850525,-21.084936141967773,-81,7088.0,67.30961608886719,1059,9984.0
9900,0.33608314394950867,38.505855560302734,868,7088.0,42.10654067993164,623,9984.0
9910,0.33721113204956055,68.86537170410156,1164,7088.0,21.52106285095215,145,9984.0
9920,0.33815521001815796,70.42908477783203,1108,7088.0,-0.4008171260356903,9,9984.0
9930,0.33830878138542175,53.331321716308594,637,7088.0,-16.458084106445312,-371,9984.0
9940,0.3385728895664215,23.973161697387695,277,7088.0,-26.914104461669922,-537,9984.0
9950,0.3388981819152832,-3.314502239227295,-227,7088.0,-39.58657455444336,-663,9984.0
9960,0.3373315632343292,-19.862417221069336,-360,7088.0,-45.89809799194336,-804,9984.0
9970,0.3373916447162628,-21.085298538208008,-273,7088.0,-39.8099365234375,-531,9984.0
9980,0.33744779229164124,-18.271923065185547,-350,7088.0,-23.835241317749023,-225,9984.0
9990,0.33760809898376465,-21.304645538330078,-380,7088.0,-8.609672546386719,-153,9984.0
10000,0.3379077911376953,-25.860172271728516,-390,7088.0,8.318659782409668,263,9984.0
10010,0.33735665678977966,-27.308456420898438,-513,7088.0,22.34296226501465,467,9984.0
10020,0.3375282883644104,-28.590984344482422,-403,7088.0,34.61306381225586,590,9984.0
10030,0.33777689933776855,-24.063732147216797,-336,7088.0,44.06468963623047,762,9984.0
10040,0.33800551295280457,-9.85383415222168,-93,7088.0,46.43011474609375,702,9984.0
10050,0.338706910610199,5.14474630355835,182,7088.0,38.98985290527344,587,9984.0
10060,0.33842363953590393,20.836030960083008,412,7088.0,17.14605712890625,62,9984.0
10070,0.3384248912334442,20.705577850341797,234,7088.0,-10.137653350830078,-251,9984.0
10080,0.3381135165691376,13.006878852844238,197,7088.0,-33.46178436279297,-698,9984.0
10090,0.340311735868454,9.472593307495117,143,7088.0,-62.43098831176758,-1127,9984.0
10100,0.34019872546195984,5.92654275894165,69,7088.0,-83.97390747070312,-1319,9984.0
10110,0.33998730778694153,10.589935302734375,235,7088.0,-83.04286193847656,-1347,9984.0
10120,0.34040436148643494,14.014676094055176,204,7088.0,-73.70854187011719,-1194,9984.0
10130,0.3404269516468048,-1.2470276355743408,-96,7088.0,-55.045291900634766,-732,9984.0
10140,0.3409818708896637,-21.056154251098633,-470,7088.0,-26.80620002746582,-222,9984.0
10150,0.341636598110199,-34.732025146484375,-590,7088.0,4.759379863739014,243,9984.0
10160,0.3419865071773529,-31.721303939819336,-491,7088.0,31.403732299804688,536,9984.0
10170,0.34282031655311584,-24.869510650634766,-306,7088.0,58.22793197631836,1057,9984.0
10180,0.34495991468429565,-22.78445816040039,-309,7088.0,66.2159194946289,1142,9984.0
10190,0.3452945053577423,-1.8005203008651733,69,7088.0,69.36538696289062,1077,9984.0
10200,0.34558993577957153,28.750059127807617,658,7088.0,59.260826110839844,839,9984.0
10210,0.34606143832206726,54.83929443359375,930,7088.0,29.99477195739746,381,9984.0
10220,0.34633973240852356,79.82652282714844,1430,7088.0,4.271552562713623,-58,9984.0
10230,0.34827595949172974,96.13957977294922,1594,7088.0,-9.300477981567383,-238,9984.0
10240,0.3480413556098938,87.50808715820312,1276,7088.0,-28.956146240234375,-457,9984.0
10250,0.34856849908828735,55.76054763793945,694,7088.0,-42.33540725708008,-725,9984.0
10260,0.3492869734764099,2.921861410140991,-240,7088.0,-51.435089111328125,-889,9984.0
10270,0.35305193066596985,-54.87887954711914,-1089,7088.0,-55.25420379638672,-873,9984.0
10280,0.3539814352989197,-95.11624908447266,-1681,7088.0,-40.62898635864258,-582,9984.0
10290,0.35500597953796387,-112.84246063232422,-1833,7088.0,-19.249149322509766,-291,9984.0
10300,0.35546398162841797,-109.34326171875,-1632,7088.0,-6.790170669555664,-87,9984.0
10310,0.35576021671295166,-90.91706848144531,-1381,7088.0,12.458902359008789,294,9984.0
10320,0.3560674488544464,-68.17781066894531,-1004,7088.0,26.407238006591797,650,9984.0
10330,0.3579626679420471,-22.718564987182617,-178,7088.0,36.96425247192383,573,9984.0
10340,0.3585750162601471,21.926668167114258,558,7088.0,38.42042541503906,696,9984.0
10350,0.3594138026237488,44.5985107421875,731,7088.0,37.61389923095703,598,9984.0
10360,0.3606984615325928,56.95166778564453,1083,7088.0,28.513092041015625,361,9984.0
10370,0.3612874150276184,71.58780670166016,1261,7088.0,16.496442794799805,309,9984.0
10380,0.3616264760494232,86.576416015625,1363,7088.0,5.033116817474365,9,9984.0
10390,0.3619619905948639,71.45169830322266,1006,7088.0,-23.425437927246094,-589,9984.0
10400,0.3639938235282898,37.88352966308594,484,7088.0,-50.11838150024414,-944,9984.0
10410,0.3647799491882324,-5.442221164703369,-265,7088.0,-63.41636276245117,-1181,9984.0
10420,0.3653498589992523,-44.91901779174805,-794,7088.0,-71.38406372070312,-1287,9984.0
10430,0.36600980162620544,-64.13848876953125,-1027,7088.0,-65.22676849365234,-1152,9984.0
10440,0.36603862047195435,-75.1903305053711,-1217,7088.0,-48.34214401245117,-757,9984.0
10450,0.3671485483646393,-69.09346771240234,-992,7088.0,-22.928434371948242,-327,9984.0
10460,0.3674486577510834,-44.882137298583984,-595,7088.0,4.676827430725098,76,9984.0
10470,0.3695222735404968,-23.93549919128418,-325,7088.0,31.53495216369629,698,9984.0
10480,0.3705891966819763,-4.182794094085693,-65,7088.0,50.5247688293457,968,9984.0
10490,0.36875560879707336,8.846911430358887,187,7088.0,64.87006378173828,1097,9984.0
10500,0.36977139115333557,14.857714653015137,282,7088.0,67.66243743896484,1040,9984.0
10510,0.370557963848114,22.014787673950195,469,7088.0,63.173404693603516,958,9984.0
10520,0.3710434138774872,35.102970123291016,588,7088.0,51.907798767089844,829,9984.0
10530,0.3732089698314667,48.956600189208984,891,7088.0,23.491954803466797,170,9984.0
10540,0.3739039897918701,72.86235809326172,1271,7088.0,-13.390995979309082,-410,9984.0
10550,0.3746486008167267,69.84688568115234,1064,7088.0,-36.1927375793457,-736,9984.0
10560,0.37484756112098694,30.45684051513672,258,7088.0,-51.33791732788086,-794,9984.0
10570,0.375731498003006,-18.294143676757812,-526,7088.0,-52.882938385009766,-874,9984.0
10580,0.37603145837783813,-50.76351547241211,-971,7088.0,-47.604244232177734,-756,9984.0
10590,0.37674281001091003,-66.08610534667969,-1119,7088.0,-30.118688583374023,-348,9984.0
10600,0.3775450885295868,-67.04039764404297,-1105,7088.0,-4.644857883453369,212,9984.0
10610,0.3781052231788635,-59.24894714355469,-875,7088.0,29.777196884155273,661,9984.0
10620,0.37664809823036194,-31.63422203063965,-416,7088.0,48.46822738647461,916,9984.0
10630,0.3769639730453491,-2.654343843460083,160,7088.0,61.0888557434082,1023,9984.0
10640,0.3773612380027771,24.387989044189453,549,7088.0,70.2549057006836,1081,9984.0
10650,0.37777018547058105,37.780086517333984,712,7088.0,67.72539520263672,994,9984.0
10660,0.37836459279060364,51.01560592651367,832,7088.0,51.921382904052734,704,9984.0
10670,0.3780739903450012,60.56100082397461,989,7088.0,25.080595016479492,136,9984.0
10680,0.3776623010635376,66.06198120117188,1157,7088.0,-7.390277862548828,-393,9984.0
10690,0.3774820864200592,59.46361541748047,847,7088.0,-29.829849243164062,-605,9984.0
10700,0.3770422339439392,40.038814544677734,491,7088.0,-53.522544860839844,-972,9984.0
10710,0.3760266900062561,20.32002830505371,198,7088.0,-77.55804443359375,-1357,9984.0
10720,0.37539249658584595,-1.8893576860427856,-164,7088.0,-81.15376281738281,-1276,9984.0
10730,0.3745335340499878,-24.740060806274414,-492,7088.0,-70.60623931884766,-1069,9984.0
10740,0.37407973408699036,-37.94571304321289,-665,7088.0,-54.06435775756836,-735,9984.0
10750,0.37033361196517944,-43.665103912353516,-759,7088.0,-28.510923385620117,-336,9984.0
10760,0.36896446347236633,-49.560176849365234,-753,7088.0,2.1486122608184814,169,9984.0
10770,0.3678179383277893,-31.995819091796875,-338,7088.0,37.6135368347168,680,9984.0
10780,0.3671429753303528,-5.595707893371582,-6,7088.0,60.65303421020508,1179,9984.0
10790,0.3660801351070404,11.20343017578125,157,7088.0,76.69314575195312,1342,9984.0
10800,0.36252182722091675,20.68523597717285,374,7088.0,78.54969787597656,1186,9984.0
10810,0.36101436614990234,25.76938247680664,410,7088.0,63.68958282470703,1008,9984.0
10820,0.3599662780761719,32.794185638427734,613,7088.0,30.388166427612305,294,9984.0
10830,0.35865262150764465,38.24567413330078,537,7088.0,-10.165071487426758,-306,9984.0
10840,0.35895517468452454,37.48521041870117,622,7088.0,-47.74040985107422,-1006,9984.0
10850,0.35777053236961365,26.005765914916992,368,7088.0,-66.9380874633789,-1031,9984.0
10860,0.3564818799495697,5.848239421844482,-39,7088.0,-64.7708511352539,-993,9984.0
10870,0.35534873604774475,-15.201959609985352,-266,7088.0,-55.81268310546875,-982,9984.0
10880,0.35467198491096497,-34.973819732666016,-632,7088.0,-56.53499221801758,-853,9984.0
10890,0.3540319800376892,-40.84221649169922,-634,7088.0,-30.915258407592773,-269,9984.0
10900,0.3535083830356598,-27.541919708251953,-314,7088.0,3.51168155670166,69,9984.0
10910,0.35366126894950867,-4.069180488586426,107,7088.0,33.210479736328125,746,9984.0
10920,0.3535735309123993,17.473512649536133,311,7088.0,67.14350128173828,1252,9984.0
10930,0.35203731060028076,28.941314697265625,547,7088.0,86.64242553710938,1434,9984.0
10940,0.3516589105129242,33.638999938964844,497,7088.0,89.8709487915039,1442,9984.0
10950,0.352042555809021,22.92101287841797,305,7088.0,72.83486938476562,1010,9984.0
10960,0.35153475403785706,3.8776934146881104,-71,7088.0,45.81005096435547,685,9984.0
10970,0.35269981622695923,-2.096205234527588,68,7088.0,16.270658493041992,77,9984.0
10980,0.3529526889324188,5.949560165405273,61,7088.0,-22.145877838134766,-519,9984.0
10990,0.352714478969574,6.975780487060547,173,7088.0,-53.30023956298828,-968,9984.0
11000,0.3528786599636078,3.3394908905029297,-46,7088.0,-76.38665771484375,-1285,9984.0
11010,0.35279232263565063,-15.88896656036377,-330,7088.0,-83.96974182128906,-1474,9984.0
11020,0.35327744483947754,-41.652984619140625,-723,7088.0,-85.56306457519531,-1270,9984.0
11030,0.3537372648715973,-49.07146072387695,-908,7088.0,-71.54934692382812,-1029,9984.0
11040,0.3539966344833374,-53.4664306640625,-815,7088.0,-40.7289924621582,-649,9984.0
11050,0.35429081320762634,-41.31832504272461,-515,7088.0,-5.025875568389893,184,9984.0
11060,0.3557557463645935,-15.170236587524414,-165,7088.0,42.418331146240234,914,9984.0
11070,0.35693469643592834,13.810209274291992,345,7088.0,79.90972900390625,1371,9984.0
11080,0.3580380380153656,38.41736602783203,748,7088.0,96.11036682128906,1626,9984.0
11090,0.3587533235549927,54.6213264465332,869,7088.0,91.29712677001953,1334,9984.0
11100,0.3590697646141052,51.02427291870117,860,7088.0,74.10465240478516,1140,9984.0
11110,0.360531747341156,39.55622482299805,510,7088.0,42.59177780151367,499,9984.0
11120,0.36148297786712646,20.53300666809082,322,7088.0,1.6382503509521484,-149,9984.0
11130,0.3623567521572113,4.068711280822754,-108,7088.0,-45.54518508911133,-855,9984.0
11140,0.36364543437957764,-17.229854583740234,-336,7088.0,-75.29022979736328,-1335,9984.0
11150,0.36349305510520935,-44.08869934082031,-797,7088.0,-79.5508804321289,-1218,9984.0
11160,0.36439943313598633,-57.437950134277344,-1066,7088.0,-78.57968139648438,-1261,9984.0
11170,0.3650380074977875,-58.82563781738281,-879,7088.0,-75.32767486572266,-1286,9984.0
11180,0.36582446098327637,-52.110660552978516,-772,7088.0,-65.17467498779297,-921,9984.0
11190,0.36574065685272217,-40.161163330078125,-647,7088.0,-53.831607818603516,-689,9984.0
11200,0.3663276731967926,-28.59868049621582,-378,7088.0,-18.194202423095703,-140,9984.0
11210,0.367806077003479,-6.547967433929443,106,7088.0,25.586606979370117,563,9984.0
11220,0.36886388063430786,23.56102752685547,496,7088.0,50.04500198364258,950,9984.0
11230,0.3699764311313629,40.45492172241211,658,7088.0,64.15279388427734,1124,9984.0
11240,0.37004148960113525,44.26863479614258,683,7088.0,69.40807342529297,1036,9984.0
11250,0.37073537707328796,36.44563674926758,560,7088.0,69.84713745117188,1103,9984.0
11260,0.37123286724090576,32.733436584472656,493,7088.0,50.84562683105469,600,9984.0
11270,0.372061163187027,32.457244873046875,537,7088.0,16.709999084472656,-103,9984.0
11280,0.37264251708984375,24.674970626831055,390,7088.0,-19.774988174438477,-446,9984.0
11290,0.373241126537323,14.932843208312988,95,7088.0,-45.147216796875,-873,9984.0
11300,0.3737095296382904,-2.8725850582122803,-150,7088.0,-59.966705322265625,-1187,9984.0
11310,0.3741021752357483,-21.6654109954834,-382,7088.0,-62.43955612182617,-1061,9984.0
11320,0.37236106395721436,-37.5047492980957,-678,7088.0,-55.2964973449707,-693,9984.0
11330,0.37249982357025146,-42.81993103027344,-726,7088.0,-31.71090316772461,-329,9984.0
11340,0.37267208099365234,-32.8348503112793,-531,7088.0,-6.700666427612305,101,9984.0
11350,0.3731582760810852,-11.897034645080566,-66,7088.0,18.644018173217773,290,9984.0
11360,0.37354129552841187,8.904640197753906,298,7088.0,35.75882339477539,633,9984.0
11370,0.3718167543411255,18.110187530517578,351,7088.0,54.12345886230469,956,9984.0
11380,0.3718586564064026,20.185955047607422,343,7088.0,62.78955841064453,1139,9984.0
11390,0.3717339336872101,28.031774520874023,447,7088.0,66.99996185302734,973,9984.0
11400,0.3721277117729187,20.59869384765625,230,7088.0,38.504451751708984,418,9984.0
11410,0.37056711316108704,-6.916170597076416,-241,7088.0,6.73729944229126,12,9984.0
11420,0.3704221546649933,-39.92812728881836,-842,7088.0,-28.24302101135254,-613,9984.0
11430,0.3703756332397461,-53.80956268310547,-880,7088.0,-56.133792877197266,-1063,9984.0
11440,0.36957982182502747,-45.396263122558594,-680,7088.0,-66.71085357666016,-977,9984.0
11450,0.3688479959964752,-31.22869110107422,-528,7088.0,-65.15509033203125,-1096,9984.0
11460,0.3663591742515564,-24.015033721923828,-301,7088.0,-60.16746520996094,-1007,9984.0
11470,0.3652588129043579,-9.007471084594727,-119,7088.0,-55.698238372802734,-804,9984.0
11480,0.3646968603134155,9.972640037536621,261,7088.0,-53.52511978149414,-869,9984.0
11490,0.3640615940093994,37.668460845947266,767,7088.0,-33.552520751953125,-429,9984.0
11500,0.36272287368774414,60.91621398925781,1074,7088.0,3.087606191635132,366,9984.0
11510,0.36231857538223267,65.30587005615234,935,7088.0,42.425479888916016,926,9984.0
11520,0.36259618401527405,44.28544998168945,577,7088.0,74.3197021484375,1233,9984.0
11530,0.36234524846076965,6.437053203582764,-28,7088.0,94.00308227539062,1616,9984.0
11540,0.35934603214263916,-26.22631072998047,-596,7088.0,107.72808837890625,1869,9984.0
11550,0.35894978046417236,-46.79172134399414,-817,7088.0,101.56919860839844,1449,9984.0
11560,0.35921308398246765,-43.06015396118164,-583,7088.0,66.4586181640625,945,9984.0
11570,0.35844171047210693,-32.32505798339844,-481,7088.0,23.515743255615234,67,9984.0
11580,0.3573532998561859,-23.437646865844727,-438,7088.0,-26.37656593322754,-634,9984.0
11590,0.35775434970855713,-16.61270523071289,-175,7088.0,-68.705322265625,-1166,9984.0
11600,0.35686132311820984,-2.7668941020965576,-40,7088.0,-86.56848907470703,-1545,9984.0
11610,0.3563348352909088,6.796267032623291,152,7088.0,-87.09503173828125,-1346,9984.0
11620,0.35577917098999023,13.159852027893066,164,7088.0,-86.42919921875,-1367,9984.0
11630,0.35352441668510437,15.292119979858398,337,7088.0,-76.98518371582031,-1197,9984.0
11640,0.3536450266838074,28.352500915527344,465,7088.0,-46.95768737792969,-571,9984.0
11650,0.35341426730155945,27.53340721130371,314,7088.0,-13.514060974121094,9,9984.0
11660,0.3532867133617401,8.888069152832031,110,7088.0,22.797998428344727,479,9984.0
11670,0.3538295030593872,4.477336406707764,133,7088.0,64.59352111816406,1197,9984.0
11680,0.35185471177101135,6.3443450927734375,111,7088.0,101.47075653076172,1824,9984.0
11690,0.35207822918891907,11.388209342956543,129,7088.0,118.88970184326172,1964,9984.0
11700,0.3520767092704773,7.014641284942627,157,7088.0,114.34302520751953,1763,9984.0
11710,0.35185208916664124,1.0985654592514038,-52,7088.0,80.34086608886719,1104,9984.0
11720,0.3527164161205292,-6.334042072296143,-98,7088.0,31.213869094848633,359,9984.0
11730,0.35342326760292053,-13.146578788757324,-251,7088.0,-20.005407333374023,-653,9984.0
11740,0.35382163524627686,-12.124648094177246,-229,7088.0,-60.45747375488281,-988,9984.0
11750,0.35405656695365906,-9.345759391784668,-78,7088.0,-76.51268768310547,-1402,9984.0
11760,0.3556826114654541,-5.448653221130371,-75,7088.0,-91.37954711914062,-1533,9984.0
11770,0.3564448654651642,2.8041932582855225,55,7088.0,-104.57991790771484,-1704,9984.0
11780,0.35691535472869873,16.52178382873535,394,7088.0,-94.60127258300781,-1478,9984.0
11790,0.35746118426322937,26.305309295654297,400,7088.0,-68.13330841064453,-775,9984.0
11800,0.3587339222431183,29.707122802734375,430,7088.0,-11.74014949798584,80,9984.0
11810,0.35827872157096863,18.82508659362793,248,7088.0,50.79736328125,987,9984.0
11820,0.3594158887863159,-0.4410599172115326,-36,7088.0,82.84822845458984,1335,9984.0
11830,0.3604375123977661,-20.237119674682617,-405,7088.0,90.38762664794922,1508,9984.0
11840,0.3612551987171173,-36.583045959472656,-691,7088.0,105.73101806640625,1872,9984.0
11850,0.3622828722000122,-46.735626220703125,-763,7088.0,102.51092529296875,1467,9984.0
11860,0.3626760244369507,-48.69427490234375,-737,7088.0,64.46070861816406,875,9984.0
11870,0.3630320429801941,-37.58817672729492,-441,7088.0,18.8859806060791,112,9984.0
11880,0.3636379539966583,-20.52132797241211,-203,7088.0,-19.74560546875,-542,9984.0
11890,0.36471670866012573,-0.5361350774765015,127,7088.0,-45.593196868896484,-889,9984.0
11900,0.3663424253463745,12.04746150970459,219,7088.0,-71.24885559082031,-1315,9984.0
11910,0.3668104112148285,21.286043167114258,475,7088.0,-79.05008697509766,-1257,9984.0
11920,0.3671858012676239,36.151512145996094,595,7088.0,-77.0578384399414,-1147,9984.0
11930,0.36878684163093567,46.39285659790039,752,7088.0,-62.42231750488281,-920,9984.0
11940,0.3683151602745056,38.74155044555664,603,7088.0,-35.39383316040039,-351,9984.0
11950,0.3692127466201782,28.823625564575195,394,7088.0,4.987277030944824,385,9984.0
11960,0.37033575773239136,16.078716278076172,87,7088.0,44.38055419921875,1039,9984.0
11970,0.3713821470737457,4.408179759979248,50,7088.0,84.03519439697266,1591,9984.0
11980,0.37214046716690063,4.173589706420898,31,7088.0,113.69908905029297,1862,9984.0
11990,0.3725794553756714,-9.015436172485352,-218,7088.0,119.89818572998047,1772,9984.0
12000,0.37287309765815735,-27.320241928100586,-527,7088.0,89.48556518554688,1273,9984.0
12010,0.3739279508590698,-37.14099884033203,-609,7088.0,41.40583038330078,342,9984.0
12020,0.37422579526901245,-28.454788208007812,-361,7088.0,-5.566963195800781,-355,9984.0
12030,0.3739795386791229,-24.116350173950195,-378,7088.0,-45.348331451416016,-1037,9984.0
12040,0.37421339750289917,-13.118880271911621,-114,7088.0,-74.18183898925781,-1306,9984.0
12050,0.3742443919181824,3.450690269470215,105,7088.0,-83.55484008789062,-1428,9984.0
12060,0.3744211196899414,21.1657772064209,464,7088.0,-81.27327728271484,-1328,9984.0
12070,0.373670756816864,31.736726760864258,532,7088.0,-74.23323059082031,-1058,9984.0
12080,0.37383759021759033,27.85990333557129,368,7088.0,-58.271244049072266,-753,9984.0
12090,0.37403756380081177,20.807376861572266,250,7088.0,-20.159297943115234,-145,9984.0
12100,0.37520113587379456,6.351897716522217,125,7088.0,20.192272186279297,412,9984.0
12110,0.37586507201194763,5.511937141418457,149,7088.0,55.71735763549805,1056,9984.0
12120,0.3750395178794861,6.898382186889648,108,7088.0,84.13292694091797,1418,9984.0
12130,0.3750047981739044,7.768069267272949,55,7088.0,99.0947494506836,1699,9984.0
12140,0.375176340341568,7.462779998779297,41,7088.0,91.95535278320312,1325,9984.0
12150,0.3747313618659973,-3.391932487487793,-79,7088.0,60.937339782714844,887,9984.0
12160,0.3743557333946228,-12.391671180725098,-244,7088.0,22.39727783203125,106,9984.0
12170,0.3742586076259613,-11.077693939208984,-78,7088.0,-17.000722885131836,-393,9984.0
12180,0.3743010461330414,1.3185596466064453,-28,7088.0,-42.15069580078125,-795,9984.0
12190,0.3740988075733185,5.605198383331299,151,7088.0,-55.012474060058594,-985,9984.0
12200,0.3732534945011139,4.284399032592773,-25,7088.0,-70.48876953125,-1153,9984.0
12210,0.3731864094734192,-5.925852298736572,-151,7088.0,-77.42115783691406,-1296,9984.0
12220,0.3735935389995575,-19.058149337768555,-282,7088.0,-56.13785934448242,-882,9984.0
12230,0.3737148940563202,-27.391183853149414,-420,7088.0,-37.686119079589844,-536,9984.0
12240,0.3739444613456726,-6.0250959396362305,15,7088.0,-23.320863723754883,-159,9984.0
12250,0.3735714554786682,15.02448558807373,208,7088.0,15.939642906188965,363,9984.0
12260,0.3736991882324219,14.063764572143555,261,7088.0,44.663307189941406,719,9984.0
12270,0.3735917806625366,6.645791530609131,131,7088.0,60.49555587768555,1096,9984.0
12280,0.373403400182724,-0.3887243866920471,-102,7088.0,65.71958923339844,1151,9984.0
12290,0.3714769780635834,0.4932493567466736,70,7088.0,51.94405746459961,611,9984.0
12300,0.3714844286441803,1.489672064781189,62,7088.0,15.532297134399414,140,9984.0
12310,0.37125977873802185,-5.628384113311768,-200,7088.0,-23.18209457397461,-458,9984.0
12320,0.3710060715675354,-13.709857940673828,-197,7088.0,-43.18779754638672,-897,9984.0
12330,0.36934420466423035,-17.410497665405273,-227,7088.0,-60.152442932128906,-993,9984.0
12340,0.36900782585144043,-12.869356155395508,-265,7088.0,-77.58087158203125,-1237,9984.0
12350,0.3687973916530609,-8.543025970458984,-118,7088.0,-89.01380157470703,-1548,9984.0
12360,0.3684614300727844,-8.794626235961914,-62,7088.0,-77.52017974853516,-1214,9984.0
12370,0.3683442175388336,-6.09776496887207,-56,7088.0,-53.74891662597656,-730,9984.0
12380,0.3656744658946991,2.5150363445281982,65,7088.0,-2.4501242637634277,292,9984.0
12390,0.3655321002006531,15.321810722351074,245,7088.0,42.48505783081055,832,9984.0
12400,0.3655797243118286,24.705501556396484,540,7088.0,75.24398040771484,1268,9984.0
12410,0.36525052785873413,29.39801597595215,532,7088.0,86.61275482177734,1382,9984.0
12420,0.36187323927879333,16.604000091552734,235,7088.0,89.56800079345703,1515,9984.0
12430,0.3609040677547455,7.829692840576172,58,7088.0,80.90160369873047,1219,9984.0
12440,0.36005058884620667,-5.550375461578369,-78,7088.0,49.42290115356445,753,9984.0
12450,0.35928866267204285,-11.459709167480469,-278,7088.0,8.382704734802246,-92,9984.0
12460,0.3594158887863159,-17.454021453857422,-326,7088.0,-32.52032470703125,-624,9984.0
12470,0.3580804765224457,-18.613019943237305,-388,7088.0,-71.9085922241211,-1407,9984.0
12480,0.3575274646282196,-18.208179473876953,-265,7088.0,-93.06472778320312,-1480,9984.0
12490,0.3567643463611603,-16.256500244140625,-297,7088.0,-91.52645874023438,-1534,9984.0
12500,0.35586997866630554,-18.392087936401367,-262,7088.0,-87.42479705810547,-1428,9984.0
12510,0.35299184918403625,-17.609882354736328,-321,7088.0,-76.52386474609375,-1065,9984.0
12520,0.3523377776145935,-9.687054634094238,-130,7088.0,-53.14088821411133,-737,9984.0
12530,0.3521682322025299,2.1192071437835693,138,7088.0,-16.527170181274414,-49,9984.0
12540,0.3523392081260681,15.879798889160156,280,7088.0,24.960378646850586,805,9984.0
12550,0.3482474684715271,21.708736419677734,347,7088.0,66.92442321777344,1229,9984.0
12560,0.34780970215797424,32.52964782714844,656,7088.0,87.55530548095703,1504,9984.0
12570,0.34716904163360596,34.012123107910156,409,7088.0,94.84518432617188,1595,9984.0
12580,0.34634146094322205,26.22382164001465,469,7088.0,92.9979476928711,1365,9984.0
12590,0.3472716808319092,17.338214874267578,136,7088.0,72.12057495117188,1010,9984.0
12600,0.3467854857444763,-2.884690284729004,-92,7088.0,35.88960647583008,356,9984.0
12610,0.3461753726005554,-14.936075210571289,-350,7088.0,-14.403036117553711,-643,9984.0
12620,0.34633126854896545,-26.067785263061523,-525,7088.0,-64.923828125,-1288,9984.0
12630,0.34590455889701843,-38.53635025024414,-620,7088.0,-107.93071746826172,-2009,9984.0
12640,0.34609708189964294,-35.02239227294922,-556,7088.0,-145.63694763183594,-2508,9984.0
12650,0.34533771872520447,-19.381772994995117,-112,7088.0,-157.5021514892578,-2677,9984.0
12660,0.3442259728908539,2.3434011936187744,227,7088.0,-146.9622802734375,-2264,9984.0
12670,0.34840935468673706,37.837642669677734,808,7088.0,-111.74544525146484,-1583,9984.0
12680,0.34820356965065,59.04072570800781,1013,7088.0,-54.27081298828125,-672,9984.0
12690,0.3453640937805176,62.28303909301758,989,7088.0,1.447299599647522,394,9984.0
12700,0.34651145339012146,53.808467864990234,755,7088.0,61.013336181640625,1303,9984.0
12710,0.3472798466682434,38.54898452758789,576,7088.0,106.14553833007812,1827,9984.0
12720,0.34818094968795776,11.648209571838379,121,7088.0,133.67202758789062,2173,9984.0
12730,0.3462802767753601,-23.64691925048828,-532,7088.0,130.61019897460938,2135,9984.0
12740,0.346636027097702,-49.81544494628906,-901,7088.0,111.5311279296875,1609,9984.0
12750,0.3476532995700836,-52.30894088745117,-825,7088.0,87.46481323242188,1400,9984.0
12760,0.34789609909057617,-52.873477935791016,-898,7088.0,61.728172302246094,888,9984.0
12770,0.3492569327354431,-52.689510345458984,-876,7088.0,37.04128646850586,542,9984.0
12780,0.3501342833042145,-36.249629974365234,-395,7088.0,-4.0682454109191895,-244,9984.0
12790,0.3514406085014343,-13.174809455871582,-170,7088.0,-46.51445007324219,-975,9984.0
12800,0.35239219665527344,6.091782569885254,208,7088.0,-77.72672271728516,-1216,9984.0
12810,0.3533622920513153,31.04240608215332,614,7088.0,-79.06645965576172,-1319,9984.0
12820,0.35634782910346985,48.115867614746094,879,7088.0,-63.63516616821289,-919,9984.0
12830,0.35760048031806946,48.266727447509766,709,7088.0,-20.511066436767578,-66,9984.0
12840,0.36012935638427734,35.20087814331055,476,7088.0,27.582355499267578,737,9984.0
12850,0.3615706264972687,18.766313552856445,137,7088.0,70.39783477783203,1262,9984.0
12860,0.36394551396369934,0.09066550433635712,-11,7088.0,95.24745178222656,1507,9984.0
12870,0.3650951385498047,-13.622069358825684,-168,7088.0,101.72427368164062,1672,9984.0
12880,0.36653879284858704,-17.703771591186523,-339,7088.0,86.56448364257812,1416,9984.0
12890,0.36747807264328003,-12.16356372833252,-135,7088.0,60.195465087890625,754,9984.0
12900,0.36825796961784363,0.03443972021341324,95,7088.0,28.811260223388672,219,9984.0
12910,0.37076371908187866,0.1440637856721878,8,7088.0,-7.202363014221191,-209,9984.0
12920,0.3717041313648224,-7.989007949829102,-225,7088.0,-31.42815589904785,-624,9984.0
12930,0.372441828250885,-17.22237777709961,-257,7088.0,-45.70109558105469,-857,9984.0
12940,0.37300795316696167,-19.828229904174805,-310,7088.0,-56.589412689208984,-952,9984.0
12950,0.37403184175491333,-28.876455307006836,-468,7088.0,-56.21908950805664,-847,9984.0
12960,0.3746045231819153,-33.438236236572266,-638,7088.0,-48.87396240234375,-610,9984.0
12970,0.3749909996986389,-37.05378723144531,-650,7088.0,-17.143447875976562,-36,9984.0
12980,0.37651070952415466,-22.9182071685791,-331,7088.0,25.245424270629883,554,9984.0
12990,0.3753005862236023,-10.856917381286621,-120,7088.0,58.135005950927734,1023,9984.0
13000,0.37576547265052795,6.927452087402344,241,7088.0,79.98519134521484,1222,9984.0
13010,0.3759784996509552,18.64410400390625,457,7088.0,85.51166534423828,1483,9984.0
13020,0.3758130967617035,28.62610626220703,445,7088.0,87.78044891357422,1396,9984.0
13030,0.3751545548439026,32.62449645996094,539,7088.0,75.83633422851562,1055,9984.0
13040,0.3756141662597656,40.889774322509766,686,7088.0,31.719301223754883,236,9984.0
13050,0.3748873174190521,39.50389862060547,621,7088.0,-14.434486389160156,-435,9984.0
13060,0.3745889961719513,25.080772399902344,248,7088.0,-60.46726989746094,-1107,9984.0
13070,0.37421780824661255,6.9688401222229,-9,7088.0,-96.53489685058594,-1705,9984.0
13080,0.37297987937927246,-14.995752334594727,-345,7088.0,-119.37189483642578,-2059,9984.0
13090,0.3722690939903259,-40.21974563598633,-702,7088.0,-125.19511413574219,-2096,9984.0
13100,0.3709753751754761,-59.23714065551758,-930,7088.0,-109.13368225097656,-1746,9984.0
13110,0.37070757150650024,-67.44011688232422,-1065,7088.0,-78.16358947753906,-1156,9984.0
13120,0.37132784724235535,-62.24413299560547,-877,7088.0,-42.11322021484375,-568,9984.0
13130,0.3697330951690674,-44.132957458496094,-649,7088.0,-12.583992958068848,54,9984.0
13140,0.36914679408073425,-20.916595458984375,-263,7088.0,25.492387771606445,657,9984.0
13150,0.3698904812335968,1.3391016721725464,-44,7088.0,64.58360290527344,1251,9984.0
13160,0.3694955110549927,2.6345205307006836,100,7088.0,94.12618255615234,1558,9984.0
13170,0.36706167459487915,15.87114429473877,380,7088.0,98.9700927734375,1703,9984.0
13180,0.3666084110736847,36.88495635986328,646,7088.0,94.8961410522461,1377,9984.0
13190,0.3659679591655731,57.42529296875,1078,7088.0,61.616275787353516,900,9984.0
13200,0.3662210702896118,68.69567108154297,1125,7088.0,25.962610244750977,208,9984.0
13210,0.36567288637161255,72.8302230834961,1171,7088.0,-23.60816192626953,-716,9984.0
13220,0.36544570326805115,54.48522186279297,694,7088.0,-66.21747589111328,-1280,9984.0
13230,0.3652021288871765,13.64123249053955,-98,7088.0,-81.32839965820312,-1256,9984.0
13240,0.3650977909564972,-34.253440856933594,-827,7088.0,-78.97599792480469,-1284,9984.0
13250,0.36608970165252686,-61.462894439697266,-1118,7088.0,-75.05339050292969,-1143,9984.0
13260,0.36394017934799194,-66.7776107788086,-1017,7088.0,-57.98368453979492,-898,9984.0
13270,0.363407164812088,-61.101356506347656,-825,7088.0,-30.274944305419922,-201,9984.0
13280,0.3636799156665802,-41.8614616394043,-501,7088.0,16.285634994506836,530,9984.0
13290,0.36515864729881287,-15.406253814697266,-100,7088.0,46.44711685180664,973,9984.0
13300,0.3625717759132385,8.90342903137207,215,7088.0,61.763336181640625,994,9984.0
13310,0.3630008399486542,24.833053588867188,554,7088.0,65.21324157714844,1068,9984.0
13320,0.3635525703430176,41.243309020996094,673,7088.0,56.90959548950195,917,9984.0
13330,0.36393213272094727,49.23551940917969,860,7088.0,47.54222869873047,680,9984.0
13340,0.36405667662620544,56.021095275878906,1055,7088.0,28.223112106323242,297,9984.0
13350,0.36187493801116943,64.31208038330078,1008,7088.0,-6.952219486236572,-201,9984.0
13360,0.36184024810791016,62.38993835449219,977,7088.0,-36.15921401977539,-768,9984.0
13370,0.36232292652130127,44.79508972167969,686,7088.0,-50.39785385131836,-973,9984.0
13380,0.3623098134994507,19.083698272705078,191,7088.0,-66.27397155761719,-1063,9984.0
13390,0.36146974563598633,-9.193403244018555,-304,7088.0,-58.6282844543457,-843,9984.0
13400,0.36158624291419983,-41.49913024902344,-912,7088.0,-36.325416564941406,-403,9984.0
13410,0.3618844747543335,-77.31959533691406,-1428,7088.0,-11.703125,-40,9984.0
13420,0.36186105012893677,-93.3955307006836,-1562,7088.0,24.72554588317871,649,9984.0
13430,0.3602718114852905,-83.09764099121094,-1196,7088.0,63.13393020629883,1085,9984.0
13440,0.3603218197822571,-41.12213134765625,-369,7088.0,76.95121002197266,1212,9984.0
13450,0.3610071539878845,12.004392623901367,370,7088.0,63.24940490722656,987,9984.0
13460,0.36147359013557434,55.229488372802734,1087,7088.0,43.62584686279297,620,9984.0
13470,0.36169639229774475,73.51724243164062,1175,7088.0,32.577613830566406,570,9984.0
13480,0.3608153760433197,70.14631652832031,1112,7088.0,16.793167114257812,71,9984.0
13490,0.36114567518234253,59.77940368652344,987,7088.0,1.749226689338684,-29,9984.0
13500,0.36078861355781555,52.1927604675293,731,7088.0,-15.490185737609863,-284,9984.0
13510,0.3607747256755829,29.440959930419922,297,7088.0,-34.35833740234375,-606,9984.0
13520,0.3613117039203644,5.041553020477295,2,7088.0,-40.742347717285156,-764,9984.0
13530,0.36130020022392273,-16.940410614013672,-294,7088.0,-43.982906341552734,-816,9984.0
13540,0.3612365424633026,-39.71405792236328,-711,7088.0,-47.13987350463867,-739,9984.0
13550,0.36108723282814026,-59.9012565612793,-1031,7088.0,-32.18674087524414,-392,9984.0
13560,0.3611915111541748,-68.98468017578125,-1218,7088.0,-8.525871276855469,26,9984.0
13570,0.35972538590431213,-64.85846710205078,-1094,7088.0,20.37201499938965,534,9984.0
13580,0.36177298426628113,-54.40855407714844,-819,7088.0,53.8039665222168,872,9984.0
13590,0.36181285977363586,-29.198402404785156,-250,7088.0,72.38427734375,1252,9984.0
13600,0.3624861538410187,1.7895870208740234,82,7088.0,74.6930923461914,1283,9984.0
13610,0.3623698353767395,29.566591262817383,653,7088.0,66.89585876464844,955,9984.0
13620,0.3631281852722168,54.56423568725586,1003,7088.0,50.78266906738281,807,9984.0
13630,0.3632519543170929,67.20079040527344,1089,7088.0,29.62386131286621,326,9984.0
13640,0.36320602893829346,64.22531127929688,1030,7088.0,8.343385696411133,49,9984.0
13650,0.36391809582710266,50.69232177734375,735,7088.0,-15.39267635345459,-302,9984.0
13660,0.36439353227615356,33.51987075805664,409,7088.0,-43.72951889038086,-900,9984.0
13670,0.36419549584388733,12.05118179321289,145,7088.0,-66.43949127197266,-1187,9984.0
13680,0.36393654346466064,-13.507204055786133,-338,7088.0,-64.83094024658203,-1049,9984.0
13690,0.3643430471420288,-44.872676849365234,-909,7088.0,-67.50244140625,-1047,9984.0
13700,0.36306121945381165,-64.28359985351562,-1143,7088.0,-54.053253173828125,-715,9984.0
13710,0.3629573881626129,-73.55846405029297,-1253,7088.0,-26.470245361328125,-294,9984.0
13720,0.3628609776496887,-71.37118530273438,-1067,7088.0,9.013725280761719,284,9984.0
13730,0.3634692132472992,-59.036888122558594,-776,7088.0,48.869529724121094,819,9984.0
13740,0.3623141050338745,-25.933818817138672,-253,7088.0,72.53775024414062,1366,9984.0
13750,0.3626127243041992,11.362737655639648,328,7088.0,87.12684631347656,1415,9984.0
13760,0.36291906237602234,47.95668029785156,937,7088.0,84.52881622314453,1423,9984.0
13770,0.3629036545753479,68.58858489990234,1122,7088.0,59.50593948364258,774,9984.0
13780,0.3642459809780121,75.79150390625,1257,7088.0,17.873804092407227,151,9984.0
13790,0.3628759980201721,67.83092498779297,1017,7088.0,-20.934057235717773,-476,9984.0
13800,0.3624648451805115,53.15189743041992,847,7088.0,-50.08008575439453,-1031,9984.0
13810,0.36208295822143555,43.56124496459961,726,7088.0,-68.92996215820312,-1090,9984.0
13820,0.3618706166744232,31.46868896484375,343,7088.0,-76.10208129882812,-1152,9984.0
13830,0.3617047965526581,4.36923885345459,-111,7088.0,-68.66145324707031,-1028,9984.0
13840,0.361366331577301,-23.859439849853516,-558,7088.0,-52.94451141357422,-669,9984.0
13850,0.3609316945075989,-50.56381607055664,-982,7088.0,-27.871902465820312,-344,9984.0
13860,0.36079269647598267,-71.38325500488281,-1113,7088.0,-0.9574695229530334,118,9984.0
13870,0.3600000739097595,-70.00536346435547,-1063,7088.0,23.528207778930664,604,9984.0
13880,0.3597095012664795,-59.93486404418945,-910,7088.0,46.84309768676758,922,9984.0
13890,0.3598669767379761,-39.40683364868164,-488,7088.0,59.38555908203125,880,9984.0
13900,0.3604040741920471,-8.319847106933594,69,7088.0,61.617637634277344,1029,9984.0
13910,0.36066821217536926,22.007558822631836,523,7088.0,54.01287841796875,757,9984.0
13920,0.3617263436317444,38.20663070678711,661,7088.0,35.41454315185547,569,9984.0
13930,0.36144423484802246,51.303794860839844,927,7088.0,15.699810028076172,57,9984.0
13940,0.36180129647254944,46.8796501159668,579,7088.0,-23.628976821899414,-607,9984.0
13950,0.36210739612579346,29.158214569091797,507,7088.0,-52.64509963989258,-995,9984.0
13960,0.3631640076637268,15.05990219116211,109,7088.0,-69.31983947753906,-1107,9984.0
13970,0.36307498812675476,-1.5711013078689575,-132,7088.0,-81.15748596191406,-1398,9984.0
13980,0.3626842200756073,-10.252676963806152,-144,7088.0,-75.54995727539062,-1176,9984.0
13990,0.3628166913986206,-20.776660919189453,-417,7088.0,-56.412681579589844,-799,9984.0
14000,0.3625175356864929,-33.04283142089844,-578,7088.0,-41.67179489135742,-547,9984.0
14010,0.36094141006469727,-40.61187744140625,-665,7088.0,-25.65382957458496,-340,9984.0
