timestamp,kalman.stateZ,gyro.x,gyro.xRaw,gyro.xVariance,gyro.y,gyro.yRaw,gyro.yVariance
0,0.31190040707588196,-5.489054203033447,-71,7088.0,8.725041389465332,163,9984.0
10,0.31191256642341614,-2.0284600257873535,-7,7088.0,13.106377601623535,234,9984.0
20,0.311286062002182,5.572929859161377,141,7088.0,15.083344459533691,246,9984.0
30,0.3109672963619232,12.15280818939209,204,7088.0,13.870505332946777,219,9984.0
40,0.31074258685112,11.411336898803711,170,7088.0,11.283182144165039,166,9984.0
50,0.3107687830924988,7.146015644073486,76,7088.0,5.292864799499512,58,9984.0
60,0.3105016052722931,0.36743268370628357,-26,7088.0,-2.045149564743042,-70,9984.0
70,0.31088119745254517,-5.302809715270996,-103,7088.0,-8.8605318069458,-166,9984.0
80,0.31139031052589417,-6.30520486831665,-88,7088.0,-11.723362922668457,-194,9984.0
90,0.311911404132843,-3.704047679901123,-37,7088.0,-11.377065658569336,-184,9984.0
100,0.31236574053764343,1.0005621910095215,41,7088.0,-10.626444816589355,-167,9984.0
110,0.31329941749572754,3.467456102371216,55,7088.0,-8.20216178894043,-121,9984.0
120,0.3135370910167694,0.3025673031806946,-28,7088.0,-4.332093238830566,-39,9984.0
130,0.3135751485824585,-4.725082874298096,-90,7088.0,1.6043692827224731,76,9984.0
140,0.3134564161300659,-6.518659591674805,-117,7088.0,8.224833488464355,172,9984.0
150,0.31158944964408875,-8.515701293945312,-152,7088.0,11.954697608947754,209,9984.0
160,0.31114983558654785,-8.338048934936523,-114,7088.0,13.586871147155762,203,9984.0
170,0.3107471466064453,-3.716735363006592,-16,7088.0,11.243824005126953,178,9984.0
180,0.3104376196861267,2.282888174057007,62,7088.0,8.543729782104492,78,9984.0
190,0.31030216813087463,8.575894355773926,160,7088.0,-4.482748031616211,-172,9984.0
200,0.31022465229034424,14.221121788024902,217,7088.0,-22.266862869262695,-498,9984.0
210,0.3108077049255371,11.57210636138916,195,7088.0,-40.27555847167969,-768,9984.0
220,0.3114014267921448,12.490596771240234,234,7088.0,-62.37398147583008,-1188,9984.0
230,0.31209659576416016,12.139666557312012,131,7088.0,-86.215576171875,-1500,9984.0
240,0.31198132038116455,7.760053634643555,70,7088.0,-111.52994537353516,-1906,9984.0
250,0.3119666576385498,5.599123477935791,40,7088.0,-128.02113342285156,-2168,9984.0
260,0.3130556643009186,-2.9124245643615723,-180,7088.0,-131.81591796875,-2086,9984.0
270,0.3124300241470337,-16.99735450744629,-396,7088.0,-104.83379364013672,-1505,9984.0
280,0.31251031160354614,-30.288576126098633,-452,7088.0,-60.214027404785156,-847,9984.0
290,0.31258857250213623,-26.986061096191406,-381,7088.0,-14.73663330078125,-75,9984.0
300,0.31257981061935425,-7.939233303070068,27,7088.0,22.903385162353516,419,9984.0
310,0.3129715323448181,16.479816436767578,274,7088.0,45.39414978027344,936,9984.0
320,0.3130837082862854,30.858694076538086,572,7088.0,53.17262649536133,797,9984.0
330,0.31390708684921265,38.02055740356445,616,7088.0,47.612464904785156,758,9984.0
340,0.31394630670547485,31.953962326049805,465,7088.0,40.989139556884766,625,9984.0
350,0.3143487274646759,19.36691665649414,331,7088.0,32.944244384765625,464,9984.0
360,0.31470030546188354,14.448737144470215,134,7088.0,22.76583480834961,469,9984.0
370,0.31395450234413147,6.063241481781006,93,7088.0,9.751766204833984,-60,9984.0
380,0.3147610127925873,-3.9883010387420654,-112,7088.0,-18.427928924560547,-487,9984.0
390,0.31544697284698486,-11.677445411682129,-224,7088.0,-54.53408432006836,-910,9984.0
400,0.31592050194740295,-16.418804168701172,-318,7088.0,-76.17343139648438,-1284,9984.0
410,0.31602856516838074,-19.938762664794922,-325,7088.0,-80.2357406616211,-1293,9984.0
420,0.3148864805698395,-20.83751678466797,-280,7088.0,-74.14830780029297,-1383,9984.0
430,0.31630051136016846,-21.618635177612305,-305,7088.0,-71.64840698242188,-1207,9984.0
440,0.316083163022995,-21.470090866088867,-225,7088.0,-58.016536712646484,-1071,9984.0
450,0.3168046176433563,-24.30045509338379,-320,7088.0,-28.021516799926758,-334,9984.0
460,0.31962186098098755,-21.601612091064453,-298,7088.0,14.272408485412598,313,9984.0
470,0.3203091621398926,-10.630419731140137,-191,7088.0,49.96551513671875,1024,9984.0
480,0.3207717537879944,3.073291778564453,52,7088.0,73.92803192138672,1414,9984.0
490,0.3214525580406189,19.95747947692871,310,7088.0,80.750732421875,1272,9984.0
500,0.3217131793498993,39.0347900390625,732,7088.0,76.4951171875,1234,9984.0
510,0.3218792974948883,60.633602142333984,1073,7088.0,65.89746856689453,1262,9984.0
520,0.3217650055885315,74.9561767578125,1208,7088.0,54.123023986816406,989,9984.0
530,0.3219960033893585,68.473876953125,993,7088.0,26.987207412719727,341,9984.0
540,0.32241061329841614,35.10257339477539,320,7088.0,2.0333139896392822,28,9984.0
550,0.3203171193599701,-17.512310028076172,-449,7088.0,-18.827489852905273,-401,9984.0
560,0.3208529055118561,-62.477027893066406,-1104,7088.0,-39.90509796142578,-904,9984.0
570,0.32132962346076965,-89.5492172241211,-1551,7088.0,-50.13584899902344,-990,9984.0
580,0.3214416205883026,-90.27896881103516,-1417,7088.0,-44.97404861450195,-632,9984.0
590,0.32072970271110535,-68.20414733886719,-1020,7088.0,-30.080245971679688,-317,9984.0
600,0.3207341730594635,-30.613046646118164,-438,7088.0,-14.902186393737793,-63,9984.0
610,0.3212684392929077,2.2852730751037598,89,7088.0,-0.9309502840042114,28,9984.0
620,0.3216785788536072,29.511571884155273,593,7088.0,14.615447998046875,324,9984.0
630,0.3218373954296112,41.25435256958008,646,7088.0,14.186820983886719,370,9984.0
640,0.32190296053886414,40.20891571044922,693,7088.0,7.7966179847717285,167,9984.0
650,0.32185348868370056,43.336788177490234,735,7088.0,5.455207347869873,4,9984.0
660,0.32165011763572693,47.98775100708008,702,7088.0,4.8197174072265625,58,9984.0
670,0.32153186202049255,49.53539276123047,866,7088.0,6.498068332672119,204,9984.0
680,0.3207511901855469,50.02714157104492,788,7088.0,8.718548774719238,173,9984.0
690,0.32064783573150635,27.25139045715332,239,7088.0,7.730738162994385,25,9984.0
700,0.3203704357147217,-9.686358451843262,-400,7088.0,-1.98280668258667,-55,9984.0
710,0.32070714235305786,-45.09132385253906,-805,7088.0,-22.659006118774414,-437,9984.0
720,0.320362389087677,-67.96527099609375,-1231,7088.0,-39.07575988769531,-804,9984.0
730,0.32030734419822693,-82.24647521972656,-1450,7088.0,-53.094970703125,-879,9984.0
740,0.3199070692062378,-83.51382446289062,-1237,7088.0,-45.63962173461914,-782,9984.0
750,0.3200102150440216,-63.993255615234375,-779,7088.0,-39.8931884765625,-623,9984.0
760,0.32218286395072937,-26.315868377685547,-238,7088.0,-25.631534576416016,-164,9984.0
770,0.3225098252296448,13.854294776916504,391,7088.0,2.0499966144561768,301,9984.0
780,0.32300201058387756,46.8826904296875,943,7088.0,37.708396911621094,690,9984.0
790,0.32409846782684326,60.134769439697266,1036,7088.0,76.35821533203125,1428,9984.0
800,0.3242524564266205,54.474952697753906,792,7088.0,101.0985107421875,1748,9984.0
810,0.3240991532802582,38.48823165893555,575,7088.0,99.03910064697266,1676,9984.0
820,0.32399842143058777,19.64443016052246,268,7088.0,85.59134674072266,1234,9984.0
830,0.32370898127555847,3.8602609634399414,10,7088.0,62.30476379394531,922,9984.0
840,0.32511118054389954,-0.0011420953087508678,-18,7088.0,27.41006088256836,496,9984.0
850,0.32478970289230347,14.299626350402832,189,7088.0,-6.656747341156006,-220,9984.0
860,0.3213372230529785,25.324722290039062,284,7088.0,-51.57310104370117,-1004,9984.0
870,0.3220933973789215,10.313998222351074,48,7088.0,-92.32624816894531,-1666,9984.0
880,0.3222382068634033,-18.471698760986328,-465,7088.0,-114.87885284423828,-1963,9984.0
890,0.3225400149822235,-44.0687370300293,-844,7088.0,-130.43772888183594,-2160,9984.0
900,0.32134464383125305,-56.47922897338867,-898,7088.0,-135.2065887451172,-2138,9984.0
910,0.32102587819099426,-53.455440521240234,-912,7088.0,-129.03269958496094,-2037,9984.0
920,0.3237857520580292,-43.59803771972656,-520,7088.0,-99.02532196044922,-1451,9984.0
930,0.3235490918159485,-16.6314640045166,-197,7088.0,-47.72730255126953,-344,9984.0
940,0.3291138708591461,10.968025207519531,328,7088.0,17.303285598754883,610,9984.0
950,0.33098104596138,35.46166229248047,603,7088.0,79.05597686767578,1579,9984.0
960,0.3324683904647827,45.07216262817383,714,7088.0,122.65156555175781,2101,9984.0
970,0.33342602849006653,47.098941802978516,750,7088.0,147.08705139160156,2418,9984.0
980,0.33411386609077454,46.429771423339844,700,7088.0,151.3972930908203,2382,9984.0
990,0.3324892818927765,38.254817962646484,469,7088.0,135.7923583984375,2195,9984.0
1000,0.3341948091983795,22.827425003051758,319,7088.0,105.25801086425781,1513,9984.0
1010,0.33460456132888794,15.359234809875488,193,7088.0,60.67466735839844,921,9984.0
1020,0.3341832756996155,8.77012825012207,79,7088.0,19.659650802612305,204,9984.0
1030,0.32958564162254333,-1.1863585710525513,0,7088.0,-24.78400230407715,-664,9984.0
1040,0.3298133909702301,-18.199554443359375,-299,7088.0,-65.10021209716797,-1363,9984.0
1050,0.32980862259864807,-29.309185028076172,-544,7088.0,-106.41998291015625,-1946,9984.0
1060,0.329934686422348,-36.49790573120117,-420,7088.0,-141.77474975585938,-2644,9984.0
1070,0.3289125859737396,-25.006778717041016,-378,7088.0,-160.77679443359375,-2703,9984.0
1080,0.32913661003112793,-6.905795574188232,102,7088.0,-147.80404663085938,-2367,9984.0
1090,0.3292953073978424,20.346067428588867,399,7088.0,-113.79238891601562,-1559,9984.0
1100,0.3289669156074524,39.294586181640625,710,7088.0,-59.13945007324219,-597,9984.0
1110,0.3318958282470703,43.065757751464844,705,7088.0,4.471838474273682,440,9984.0
1120,0.33493149280548096,26.04934310913086,295,7088.0,82.69764709472656,1584,9984.0
1130,0.3362084925174713,-6.5241522789001465,-326,7088.0,136.45982360839844,2307,9984.0
1140,0.33707642555236816,-32.2965087890625,-580,7088.0,169.93292236328125,2830,9984.0
1150,0.3374357521533966,-46.18674850463867,-655,7088.0,180.16998291015625,2755,9984.0
1160,0.3335861563682556,-43.222557067871094,-734,7088.0,160.32981872558594,2510,9984.0
1170,0.33673930168151855,-33.6468505859375,-480,7088.0,119.68356323242188,1767,9984.0
1180,0.33630824089050293,-16.513660430908203,-187,7088.0,58.948570251464844,598,9984.0
1190,0.33632683753967285,-10.046077728271484,-210,7088.0,-6.849106788635254,-315,9984.0
1200,0.3378356993198395,-8.702629089355469,-77,7088.0,-76.0891342163086,-1638,9984.0
1210,0.33124426007270813,0.09646578878164291,44,7088.0,-134.8722686767578,-2424,9984.0
1220,0.33200496435165405,6.856154918670654,141,7088.0,-171.8435821533203,-2890,9984.0
1230,0.33280149102211,21.68340492248535,381,7088.0,-183.98561096191406,-2851,9984.0
1240,0.3327331244945526,35.314476013183594,655,7088.0,-165.62173461914062,-2540,9984.0
1250,0.3311980366706848,41.08504867553711,709,7088.0,-113.50096130371094,-1626,9984.0
1260,0.3328586518764496,32.0211296081543,537,7088.0,-49.999813079833984,-544,9984.0
1270,0.3347914218902588,15.012595176696777,182,7088.0,17.860458374023438,675,9984.0
1280,0.33698201179504395,-2.5284979343414307,-94,7088.0,82.32499694824219,1734,9984.0
1290,0.33905476331710815,-12.906903266906738,-213,7088.0,120.25920867919922,2172,9984.0
1300,0.34041211009025574,-15.927292823791504,-171,7088.0,134.2906951904297,2202,9984.0
1310,0.3411751389503479,-7.58083438873291,60,7088.0,129.10923767089844,1908,9984.0
1320,0.3416786193847656,11.8438081741333,185,7088.0,104.54774475097656,1509,9984.0
1330,0.34351885318756104,12.023775100708008,153,7088.0,61.44883346557617,818,9984.0
1340,0.3382837772369385,-3.8147172927856445,-269,7088.0,10.18307113647461,-29,9984.0
1350,0.3398838937282562,-31.274930953979492,-556,7088.0,-39.853824615478516,-980,9984.0
1360,0.3410080075263977,-44.18837356567383,-712,7088.0,-68.86327362060547,-1190,9984.0
1370,0.3418997526168823,-23.29705810546875,-213,7088.0,-75.6991958618164,-1152,9984.0
1380,0.3373446762561798,0.3575834333896637,120,7088.0,-63.067935943603516,-735,9984.0
1390,0.3384447395801544,20.61035919189453,441,7088.0,-32.92285919189453,-286,9984.0
1400,0.3392547070980072,31.765108108520508,667,7088.0,5.19683313369751,203,9984.0
1410,0.33997493982315063,33.73823928833008,683,7088.0,41.62242126464844,819,9984.0
1420,0.34027034044265747,37.148765563964844,473,7088.0,66.79191589355469,1199,9984.0
1430,0.3376403748989105,21.91852569580078,326,7088.0,77.74016571044922,1122,9984.0
1440,0.3372490704059601,-1.0674443244934082,-158,7088.0,67.40242004394531,824,9984.0
1450,0.33870527148246765,-24.86286163330078,-616,7088.0,48.908843994140625,783,9984.0
1460,0.338390588760376,-38.77467346191406,-706,7088.0,24.83230972290039,272,9984.0
1470,0.33417844772338867,-38.0269775390625,-612,7088.0,-4.751435279846191,-270,9984.0
1480,0.3339383602142334,-32.255374908447266,-452,7088.0,-45.761253356933594,-1133,9984.0
1490,0.33400246500968933,-31.56563949584961,-519,7088.0,-85.33690643310547,-1562,9984.0
1500,0.3340226709842682,-22.05242347717285,-255,7088.0,-108.25373840332031,-1876,9984.0
1510,0.3305398225784302,-1.2290277481079102,87,7088.0,-106.5380859375,-1626,9984.0
1520,0.3306693136692047,14.247403144836426,195,7088.0,-77.93437957763672,-1025,9984.0
1530,0.3307279944419861,21.509254455566406,311,7088.0,-32.36933898925781,-107,9984.0
1540,0.33201631903648376,18.533580780029297,254,7088.0,31.2626953125,838,9984.0
1550,0.33209240436553955,17.62050437927246,410,7088.0,77.71275329589844,1404,9984.0
1560,0.33188197016716003,17.500003814697266,258,7088.0,103.81189727783203,1732,9984.0
1570,0.33123666048049927,10.457715034484863,207,7088.0,102.06864166259766,1518,9984.0
1580,0.3313114643096924,3.553757667541504,30,7088.0,76.27613830566406,1109,9984.0
1590,0.33047208189964294,-0.9861922860145569,-13,7088.0,39.6735954284668,434,9984.0
1600,0.3300715982913971,0.6475648880004883,60,7088.0,-0.044515304267406464,-225,9984.0
1610,0.3297620117664337,9.496808052062988,191,7088.0,-33.10029220581055,-653,9984.0
1620,0.32965609431266785,11.392556190490723,135,7088.0,-60.26438522338867,-1097,9984.0
1630,0.3293747901916504,-0.15523381531238556,-69,7088.0,-71.79383850097656,-1185,9984.0
1640,0.329120010137558,-10.170165061950684,-150,7088.0,-81.1517333984375,-1416,9984.0
1650,0.3275434970855713,-11.186628341674805,-69,7088.0,-88.31070709228516,-1593,9984.0
1660,0.327892005443573,-8.82818603515625,-115,7088.0,-85.9970703125,-1436,9984.0
1670,0.32803380489349365,2.22448468208313,14,7088.0,-63.25265121459961,-922,9984.0
1680,0.3285050690174103,8.670156478881836,67,7088.0,-27.05363655090332,-360,9984.0
1690,0.33104681968688965,6.938807010650635,95,7088.0,13.309473991394043,472,9984.0
1700,0.3319324851036072,11.079704284667969,175,7088.0,73.41152954101562,1395,9984.0
1710,0.33284035325050354,18.034265518188477,314,7088.0,110.48006439208984,1824,9984.0
1720,0.333109050989151,17.610797882080078,374,7088.0,129.0457000732422,1939,9984.0
1730,0.3323356509208679,7.167852878570557,57,7088.0,132.72755432128906,2167,9984.0
1740,0.33410534262657166,-4.379119873046875,-246,7088.0,122.5083999633789,2060,9984.0
1750,0.3339831531047821,-19.3503360748291,-287,7088.0,91.7644271850586,1233,9984.0
1760,0.33406496047973633,-17.098602294921875,-240,7088.0,34.577396392822266,285,9984.0
1770,0.33422818779945374,-7.8338165283203125,-125,7088.0,-23.851806640625,-593,9984.0
1780,0.33185702562332153,-3.7750935554504395,-20,7088.0,-72.57288360595703,-1475,9984.0
1790,0.33226680755615234,-7.751978397369385,-156,7088.0,-129.3255157470703,-2419,9984.0
1800,0.33235323429107666,-14.333580017089844,-269,7088.0,-188.4134979248047,-3355,9984.0
1810,0.332215815782547,-5.170355319976807,-104,7088.0,-224.6180419921875,-3521,9984.0
1820,0.3334512412548065,-3.5963473320007324,-53,7088.0,-203.43539428710938,-3109,9984.0
1830,0.33295321464538574,-3.8362250328063965,4,7088.0,-149.10916137695312,-2123,9984.0
1840,0.3337089419364929,-1.600137710571289,6,7088.0,-62.39523696899414,-575,9984.0
1850,0.33547505736351013,-4.370853900909424,-70,7088.0,13.458343505859375,672,9984.0
1860,0.3384266197681427,-10.109013557434082,-131,7088.0,82.99504852294922,1789,9984.0
1870,0.3415791392326355,-7.7064619064331055,-94,7088.0,137.7528076171875,2612,9984.0
1880,0.34291139245033264,-1.5175423622131348,-56,7088.0,169.8167724609375,2988,9984.0
1890,0.34377729892730713,7.451505184173584,189,7088.0,174.1781463623047,2797,9984.0
1900,0.3438732326030731,13.26225471496582,352,7088.0,158.00244140625,2306,9984.0
1910,0.3404068052768707,19.541963577270508,264,7088.0,121.80696105957031,1833,9984.0
1920,0.34031566977500916,12.327254295349121,159,7088.0,77.244873046875,1059,9984.0
1930,0.34072595834732056,7.0762834548950195,143,7088.0,12.253363609313965,-171,9984.0
1940,0.34226927161216736,2.3581161499023438,30,7088.0,-53.279075622558594,-1118,9984.0
1950,0.3370148241519928,0.9416465163230896,-58,7088.0,-94.28135681152344,-1538,9984.0
1960,0.33773791790008545,-2.0085337162017822,-23,7088.0,-105.1988296508789,-1665,9984.0
1970,0.33804163336753845,-0.674811840057373,41,7088.0,-91.12212371826172,-1351,9984.0
1980,0.33814164996147156,6.899621963500977,188,7088.0,-57.76074981689453,-759,9984.0
1990,0.33945703506469727,10.883584976196289,260,7088.0,-8.960323333740234,-19,9984.0
2000,0.3374607264995575,2.8503434658050537,78,7088.0,29.965412139892578,602,9984.0
2010,0.33772024512290955,-7.198215007781982,-173,7088.0,53.245243072509766,896,9984.0
2020,0.33758026361465454,-10.04305648803711,-105,7088.0,57.53688430786133,892,9984.0
2030,0.33744245767593384,-12.92813491821289,-145,7088.0,55.02029037475586,819,9984.0
2040,0.3348819315433502,-21.93515968322754,-408,7088.0,51.5561408996582,804,9984.0
2050,0.3345507085323334,-22.521474838256836,-384,7088.0,35.489280700683594,528,9984.0
2060,0.3339126706123352,-19.63658905029297,-264,7088.0,13.07309341430664,104,9984.0
2070,0.33365368843078613,-11.417027473449707,-57,7088.0,-18.51751136779785,-659,9984.0
2080,0.333637535572052,7.434657096862793,262,7088.0,-53.95964050292969,-930,9984.0
2090,0.33118686079978943,28.849910736083984,499,7088.0,-52.529296875,-568,9984.0
2100,0.3309004604816437,35.601036071777344,628,7088.0,-27.5549373626709,-328,9984.0
2110,0.3307605981826782,32.223594665527344,571,7088.0,2.674105167388916,122,9984.0
2120,0.3304435908794403,20.534194946289062,332,7088.0,33.41889190673828,673,9984.0
2130,0.33056262135505676,14.577497482299805,185,7088.0,59.034706115722656,1063,9984.0
2140,0.3294144868850708,9.58481216430664,95,7088.0,67.59150695800781,1026,9984.0
2150,0.3287900984287262,-3.504847288131714,-266,7088.0,47.325077056884766,741,9984.0
2160,0.32752537727355957,-16.10274314880371,-328,7088.0,23.755592346191406,254,9984.0
2170,0.3258975148200989,-25.65406036376953,-373,7088.0,-2.3206398487091064,-280,9984.0
2180,0.3251837193965912,-27.54387092590332,-500,7088.0,-34.37266159057617,-622,9984.0
2190,0.3243922293186188,-30.478599548339844,-508,7088.0,-61.0970573425293,-1095,9984.0
2200,0.32365620136260986,-24.992355346679688,-337,7088.0,-83.58910369873047,-1524,9984.0
2210,0.32320231199264526,-11.39369010925293,-120,7088.0,-108.33056640625,-1973,9984.0
2220,0.3229878544807434,3.070613145828247,178,7088.0,-118.37519073486328,-1931,9984.0
2230,0.32254910469055176,14.832992553710938,186,7088.0,-98.46924591064453,-1354,9984.0
2240,0.32452088594436646,15.739825248718262,323,7088.0,-59.0052375793457,-743,9984.0
2250,0.324683278799057,20.821462631225586,281,7088.0,-9.925492286682129,162,9984.0
2260,0.329130083322525,10.3762788772583,85,7088.0,44.15793991088867,1050,9984.0
2270,0.3299311399459839,-3.7711875438690186,-164,7088.0,88.77105712890625,1792,9984.0
2280,0.33035793900489807,-11.295663833618164,-295,7088.0,121.4881820678711,2225,9984.0
2290,0.3301711082458496,-15.490015029907227,-172,7088.0,127.98468017578125,1950,9984.0
2300,0.32936781644821167,-15.09054183959961,-160,7088.0,116.52422332763672,1708,9984.0
2310,0.329245924949646,-13.595124244689941,-305,7088.0,75.21990966796875,1110,9984.0
2320,0.33127206563949585,-9.14126205444336,-13,7088.0,13.166420936584473,-215,9984.0
2330,0.3320946991443634,1.7909362316131592,12,7088.0,-44.558074951171875,-858,9984.0
2340,0.33331137895584106,7.640234470367432,153,7088.0,-88.93991088867188,-1718,9984.0
2350,0.33107197284698486,8.7566556930542,141,7088.0,-138.44212341308594,-2531,9984.0
2360,0.33122754096984863,9.324125289916992,82,7088.0,-177.3601837158203,-2991,9984.0
2370,0.3304070830345154,7.974337577819824,191,7088.0,-189.68801879882812,-3094,9984.0
2380,0.33090221881866455,20.073909759521484,378,7088.0,-167.93531799316406,-2489,9984.0
2390,0.3316151797771454,26.231611251831055,336,7088.0,-114.22107696533203,-1510,9984.0
2400,0.33464372158050537,19.27491569519043,279,7088.0,-54.23640060424805,-424,9984.0
2410,0.3376781642436981,14.708884239196777,196,7088.0,17.531808853149414,675,9984.0
2420,0.3403414487838745,3.9442570209503174,-56,7088.0,83.78972625732422,1589,9984.0
2430,0.34305524826049805,-14.233820915222168,-356,7088.0,140.93942260742188,2451,9984.0
2440,0.34584254026412964,-27.25798797607422,-539,7088.0,182.5426788330078,3006,9984.0
2450,0.34763407707214355,-29.92786407470703,-461,7088.0,193.85858154296875,3159,9984.0
2460,0.3487546145915985,-18.614673614501953,-335,7088.0,184.65145874023438,3058,9984.0
2470,0.349077969789505,-3.2103490829467773,0,7088.0,167.39053344726562,2583,9984.0
2480,0.3430974781513214,7.208477973937988,137,7088.0,131.9483642578125,1941,9984.0
2490,0.34322214126586914,5.600279331207275,86,7088.0,73.63325500488281,924,9984.0
2500,0.34399592876434326,10.28846549987793,170,7088.0,-0.17615628242492676,-357,9984.0
2510,0.3459338843822479,8.717637062072754,110,7088.0,-72.50621795654297,-1393,9984.0
2520,0.3473953306674957,4.352487564086914,-32,7088.0,-112.83724975585938,-1738,9984.0
2530,0.3424210548400879,7.578003406524658,225,7088.0,-101.91357421875,-1622,9984.0
2540,0.3429308533668518,12.645813941955566,236,7088.0,-78.81963348388672,-1118,9984.0
2550,0.34311187267303467,12.08143424987793,231,7088.0,-39.56651306152344,-603,9984.0
2560,0.3435983955860138,13.00201416015625,299,7088.0,-3.943408727645874,-90,9984.0
2570,0.3402044475078583,12.493102073669434,134,7088.0,22.403867721557617,466,9984.0
2580,0.3397067189216614,2.243830442428589,-45,7088.0,44.241214752197266,770,9984.0
2590,0.33881908655166626,-9.280547142028809,-106,7088.0,60.81943130493164,945,9984.0
2600,0.3373124897480011,-18.189369201660156,-467,7088.0,56.782466888427734,922,9984.0
2610,0.33519411087036133,-27.289262771606445,-531,7088.0,36.397464752197266,551,9984.0
2620,0.3334377110004425,-30.286113739013672,-372,7088.0,3.86952805519104,-134,9984.0
2630,0.3320571780204773,-19.012374877929688,-286,7088.0,-28.321088790893555,-651,9984.0
2640,0.3312852680683136,-5.920842170715332,-50,7088.0,-68.13159942626953,-1262,9984.0
2650,0.3299950957298279,-1.6409237384796143,-20,7088.0,-96.5436782836914,-1645,9984.0
2660,0.32855328917503357,0.9763823747634888,113,7088.0,-99.14281463623047,-1650,9984.0
2670,0.32719793915748596,13.889422416687012,324,7088.0,-77.00955200195312,-1162,9984.0
2680,0.3258814811706543,28.757078170776367,476,7088.0,-33.25127410888672,-347,9984.0
2690,0.3257336914539337,30.495309829711914,404,7088.0,16.212451934814453,489,9984.0
2700,0.32738497853279114,12.817638397216797,18,7088.0,55.05864715576172,1140,9984.0
2710,0.3266349136829376,-10.920814514160156,-241,7088.0,76.65951538085938,1445,9984.0
2720,0.32572847604751587,-22.322452545166016,-301,7088.0,83.7833480834961,1355,9984.0
2730,0.32503432035446167,-22.237791061401367,-382,7088.0,89.17864227294922,1414,9984.0
2740,0.3236566185951233,-18.709585189819336,-335,7088.0,67.28203582763672,829,9984.0
2750,0.32272911071777344,-20.071260452270508,-306,7088.0,20.72922706604004,75,9984.0
2760,0.3221088945865631,-12.728809356689453,-146,7088.0,-34.5828971862793,-906,9984.0
2770,0.32247528433799744,-5.282024383544922,-10,7088.0,-75.56958770751953,-1422,9984.0
2780,0.32292309403419495,4.000863075256348,17,7088.0,-100.94149017333984,-1739,9984.0
2790,0.324631929397583,7.49019718170166,234,7088.0,-126.57855987548828,-2279,9984.0
2800,0.3248901665210724,11.106940269470215,287,7088.0,-140.8629608154297,-2415,9984.0
2810,0.32599031925201416,31.64188575744629,597,7088.0,-140.63401794433594,-2086,9984.0
2820,0.325884073972702,44.790096282958984,783,7088.0,-96.94596099853516,-1261,9984.0
2830,0.33058127760887146,46.452877044677734,665,7088.0,-41.4730224609375,-451,9984.0
2840,0.332061231136322,31.161161422729492,351,7088.0,36.26008224487305,1070,9984.0
2850,0.3333468735218048,13.150182723999023,164,7088.0,104.29888153076172,1923,9984.0
2860,0.3347255289554596,-3.807725667953491,-120,7088.0,156.13265991210938,2655,9984.0
2870,0.3359644114971161,-16.251550674438477,-309,7088.0,177.20736694335938,2831,9984.0
2880,0.33754709362983704,-23.570329666137695,-427,7088.0,169.78475952148438,2697,9984.0
2890,0.33852842450141907,-20.775358200073242,-463,7088.0,137.55712890625,2127,9984.0
2900,0.3401769995689392,-26.145788192749023,-311,7088.0,83.22795867919922,960,9984.0
2910,0.34046101570129395,-34.809669494628906,-702,7088.0,24.58016586303711,168,9984.0
2920,0.33541351556777954,-41.984859466552734,-600,7088.0,-48.04018783569336,-1184,9984.0
2930,0.3362707197666168,-28.522809982299805,-411,7088.0,-123.86045837402344,-2346,9984.0
2940,0.3375774323940277,-8.519339561462402,21,7088.0,-167.5750732421875,-2814,9984.0
2950,0.33807021379470825,14.374910354614258,285,7088.0,-177.5011749267578,-2743,9984.0
2960,0.3383159339427948,42.108036041259766,806,7088.0,-149.15548706054688,-2251,9984.0
2970,0.33515340089797974,51.537010192871094,859,7088.0,-97.81217193603516,-1432,9984.0
2980,0.3391638398170471,36.179466247558594,624,7088.0,-45.1674690246582,-553,9984.0
2990,0.33971795439720154,16.895580291748047,237,7088.0,6.677791118621826,311,9984.0
3000,0.342256635427475,-8.086498260498047,-180,7088.0,53.21500015258789,1068,9984.0
3010,0.34205493330955505,-27.61713981628418,-535,7088.0,90.60643005371094,1712,9984.0
3020,0.34291329979896545,-37.74280548095703,-610,7088.0,117.99237823486328,2084,9984.0
3030,0.3437092900276184,-36.59420394897461,-543,7088.0,122.10147094726562,2075,9984.0
3040,0.34481552243232727,-24.950069427490234,-238,7088.0,108.00019836425781,1580,9984.0
3050,0.3394405245780945,-4.616321086883545,80,7088.0,84.91222381591797,1294,9984.0
3060,0.34060510993003845,16.92658233642578,258,7088.0,53.8714714050293,776,9984.0
3070,0.341487318277359,24.605440139770508,369,7088.0,14.915191650390625,108,9984.0
3080,0.34251952171325684,12.748565673828125,144,7088.0,-25.120532989501953,-559,9984.0
3090,0.3440241813659668,-8.216361999511719,-148,7088.0,-48.0661506652832,-923,9984.0
3100,0.3391551673412323,-26.568992614746094,-461,7088.0,-53.12753677368164,-912,9984.0
3110,0.34000059962272644,-17.36046600341797,-180,7088.0,-45.99635696411133,-748,9984.0
3120,0.34071287512779236,-5.277271270751953,-40,7088.0,-22.175214767456055,-245,9984.0
3130,0.34129026532173157,20.76496696472168,387,7088.0,7.469542026519775,178,9984.0
3140,0.3370574712753296,36.605045318603516,633,7088.0,30.74107551574707,548,9984.0
3150,0.3367585241794586,42.034889221191406,574,7088.0,46.882469177246094,880,9984.0
3160,0.3359123170375824,27.71753692626953,284,7088.0,49.71243667602539,760,9984.0
3170,0.3349938988685608,-1.5913478136062622,-205,7088.0,33.03156280517578,577,9984.0
3180,0.33413803577423096,-27.61481285095215,-599,7088.0,20.522916793823242,396,9984.0
3190,0.3304845094680786,-33.01350402832031,-572,7088.0,5.051057815551758,101,9984.0
3200,0.3291647136211395,-26.26621437072754,-345,7088.0,-7.5142621994018555,-210,9984.0
3210,0.32812967896461487,-6.171238899230957,64,7088.0,-25.576251983642578,-632,9984.0
3220,0.3270556926727295,-0.04083944484591484,-106,7088.0,-49.0765380859375,-884,9984.0
3230,0.3263641595840454,-9.292304992675781,-226,7088.0,-67.54684448242188,-1161,9984.0
3240,0.325839102268219,-14.06223201751709,-224,7088.0,-70.8916244506836,-1038,9984.0
3250,0.32555148005485535,-2.0017642974853516,21,7088.0,-54.38154602050781,-723,9984.0
3260,0.32555457949638367,23.98664093017578,660,7088.0,-30.54369354248047,-450,9984.0
3270,0.32664963603019714,56.75796127319336,1084,7088.0,6.111919403076172,160,9984.0
3280,0.3266829550266266,71.60147094726562,1189,7088.0,45.27962875366211,932,9984.0
3290,0.32636556029319763,53.61311340332031,676,7088.0,73.91544342041016,1193,9984.0
3300,0.3269961476325989,16.87460708618164,71,7088.0,69.53211975097656,951,9984.0
3310,0.32723477482795715,-31.68109893798828,-715,7088.0,50.169593811035156,663,9984.0
3320,0.3259209096431732,-61.49374771118164,-1185,7088.0,16.7122745513916,250,9984.0
3330,0.326457679271698,-63.60512924194336,-985,7088.0,-17.9246883392334,-463,9984.0
3340,0.3269559442996979,-48.21302795410156,-625,7088.0,-47.09657669067383,-940,9984.0
3350,0.3280581533908844,-18.769983291625977,-24,7088.0,-67.8853988647461,-1253,9984.0
3360,0.32845914363861084,18.28642463684082,325,7088.0,-72.1855239868164,-1108,9984.0
3370,0.3290363550186157,30.754884719848633,377,7088.0,-71.87606811523438,-1014,9984.0
3380,0.32962653040885925,5.01975679397583,-127,7088.0,-56.062408447265625,-770,9984.0
3390,0.3304697871208191,-28.8154296875,-544,7088.0,-35.43306350708008,-385,9984.0
3400,0.3307980000972748,-36.726898193359375,-549,7088.0,-9.018744468688965,-123,9984.0
3410,0.33223864436149597,-21.867469787597656,-67,7088.0,10.44588851928711,119,9984.0
3420,0.33272767066955566,5.970943927764893,365,7088.0,31.899438858032227,682,9984.0
3430,0.3331272006034851,35.158565521240234,779,7088.0,56.04452133178711,932,9984.0
3440,0.33391299843788147,50.575443267822266,916,7088.0,68.45445251464844,1101,9984.0
3450,0.33400145173072815,57.04566955566406,815,7088.0,76.02119445800781,1245,9984.0
3460,0.3337302505970001,34.468482971191406,439,7088.0,75.67572021484375,1068,9984.0
3470,0.3349267542362213,-3.4390971660614014,-236,7088.0,50.859012603759766,715,9984.0
3480,0.3348565697669983,-43.07262420654297,-846,7088.0,20.11369514465332,195,9984.0
3490,0.32957616448402405,-62.49656677246094,-1103,7088.0,-13.10985279083252,-241,9984.0
3500,0.32947787642478943,-53.09954833984375,-712,7088.0,-44.67604446411133,-745,9984.0
3510,0.32993584871292114,-19.17617416381836,-106,7088.0,-67.1645736694336,-1305,9984.0
3520,0.3302854895591736,11.67231559753418,324,7088.0,-84.55936431884766,-1560,9984.0
3530,0.3307921588420868,25.6976318359375,336,7088.0,-88.1212387084961,-1346,9984.0
3540,0.32762786746025085,18.453969955444336,276,7088.0,-74.91293334960938,-1073,9984.0
3550,0.33005863428115845,2.813951015472412,-76,7088.0,-35.5242805480957,-391,9984.0
3560,0.33116063475608826,-2.4498775005340576,-138,7088.0,10.791084289550781,273,9984.0
3570,0.3328094780445099,-0.8973426222801208,26,7088.0,48.15129089355469,877,9984.0
3580,0.3333450257778168,12.938763618469238,401,7088.0,91.30180358886719,1487,9984.0
3590,0.3341824412345886,27.19212532043457,452,7088.0,119.59246063232422,1955,9984.0
3600,0.3349320888519287,29.134357452392578,476,7088.0,129.86122131347656,1976,9984.0
3610,0.3353659212589264,21.55590057373047,345,7088.0,123.4102783203125,1918,9984.0
3620,0.33557629585266113,10.287938117980957,92,7088.0,92.55517578125,1153,9984.0
3630,0.33464306592941284,-3.6412394046783447,-168,7088.0,41.927249908447266,646,9984.0
3640,0.3343220353126526,-11.542394638061523,-209,7088.0,-3.0511608123779297,-264,9984.0
3650,0.3343502879142761,-14.97863483428955,-263,7088.0,-49.202423095703125,-997,9984.0
3660,0.3353683054447174,-14.719590187072754,-167,7088.0,-94.94939422607422,-1900,9984.0
3670,0.3331901729106903,-12.073205947875977,-223,7088.0,-126.43722534179688,-2093,9984.0
3680,0.3333290219306946,-10.187867164611816,-196,7088.0,-128.46142578125,-2073,9984.0
3690,0.33327680826187134,-4.374077796936035,-115,7088.0,-104.42107391357422,-1596,9984.0
3700,0.33371037244796753,2.91355562210083,28,7088.0,-66.44661712646484,-788,9984.0
3710,0.33289626240730286,7.729114532470703,213,7088.0,-15.17308521270752,-26,9984.0
3720,0.33333492279052734,30.560165405273438,655,7088.0,29.774612426757812,644,9984.0
3730,0.33375319838523865,43.96721649169922,692,7088.0,77.71537780761719,1341,9984.0
3740,0.33391082286834717,29.554855346679688,323,7088.0,100.97901916503906,1560,9984.0
3750,0.33323216438293457,-1.3091005086898804,-139,7088.0,86.26241302490234,1262,9984.0
3760,0.33118635416030884,-44.06283950805664,-829,7088.0,68.95268249511719,946,9984.0
3770,0.3303542733192444,-58.00531768798828,-1038,7088.0,41.829959869384766,555,9984.0
3780,0.3295099437236786,-51.33424758911133,-723,7088.0,13.177508354187012,172,9984.0
3790,0.3287651240825653,-34.60965347290039,-478,7088.0,-19.594491958618164,-544,9984.0
3800,0.3270788788795471,-13.6262845993042,-101,7088.0,-59.5608024597168,-1144,9984.0
3810,0.3270498216152191,14.068560600280762,249,7088.0,-92.11569213867188,-1471,9984.0
3820,0.3271247148513794,25.866975784301758,446,7088.0,-105.2585220336914,-1824,9984.0
3830,0.32719898223876953,9.519418716430664,115,7088.0,-95.06293487548828,-1501,9984.0
3840,0.32874828577041626,8.207674026489258,226,7088.0,-61.88545608520508,-910,9984.0
3850,0.3276495039463043,29.922597885131836,455,7088.0,-33.915260314941406,-472,9984.0
3860,0.32789286971092224,31.57814598083496,464,7088.0,1.5181910991668701,315,9984.0
3870,0.32850775122642517,14.198418617248535,138,7088.0,55.76903533935547,1034,9984.0
3880,0.3291621506214142,-1.9968594312667847,-221,7088.0,90.7003173828125,1627,9984.0
3890,0.3304464519023895,-14.063276290893555,-327,7088.0,111.13050079345703,1775,9984.0
3900,0.33032968640327454,-16.884191513061523,-289,7088.0,114.08524322509766,1715,9984.0
3910,0.32985055446624756,-23.30606460571289,-582,7088.0,78.34642028808594,1259,9984.0
3920,0.3309091031551361,-40.09328842163086,-681,7088.0,45.084110260009766,497,9984.0
3930,0.32968229055404663,-36.86386489868164,-459,7088.0,1.3546667098999023,-210,9984.0
3940,0.3296383023262024,-14.569022178649902,-128,7088.0,-35.24430847167969,-816,9984.0
3950,0.3301275670528412,4.717901229858398,214,7088.0,-81.55870819091797,-1483,9984.0
3960,0.32996314764022827,21.07969093322754,488,7088.0,-111.22007751464844,-2100,9984.0
3970,0.32990995049476624,34.8929443359375,575,7088.0,-140.12460327148438,-2503,9984.0
3980,0.3257747292518616,31.016674041748047,439,7088.0,-151.46710205078125,-2463,9984.0
3990,0.32498279213905334,17.065006256103516,167,7088.0,-145.29791259765625,-2178,9984.0
4000,0.3273766338825226,4.674473285675049,-44,7088.0,-118.29600524902344,-1609,9984.0
4010,0.32807624340057373,-2.911983013153076,-149,7088.0,-62.33909225463867,-666,9984.0
4020,0.3324553966522217,-14.622750282287598,-267,7088.0,2.56589412689209,347,9984.0
4030,0.3333928883075714,-12.93460750579834,-183,7088.0,65.82022094726562,1351,9984.0
4040,0.33341214060783386,-7.185960292816162,-77,7088.0,121.90106201171875,2132,9984.0
4050,0.3358958959579468,1.8435817956924438,96,7088.0,155.4872283935547,2552,9984.0
4060,0.3366679251194,9.85785961151123,131,7088.0,170.27987670898438,2810,9984.0
4070,0.3370307385921478,8.362981796264648,76,7088.0,172.77163696289062,2899,9984.0
4080,0.339235782623291,13.139778137207031,296,7088.0,148.63992309570312,2216,9984.0
4090,0.3391169011592865,10.840270042419434,157,7088.0,100.63858032226562,1260,9984.0
4100,0.3389207720756531,9.556059837341309,147,7088.0,38.42618942260742,300,9984.0
4110,0.33467215299606323,6.833049774169922,57,7088.0,-21.78365135192871,-729,9984.0
4120,0.33611392974853516,-0.9445762634277344,-27,7088.0,-75.51544952392578,-1581,9984.0
4130,0.3368149399757385,-5.311901569366455,-58,7088.0,-116.27539825439453,-2255,9984.0
4140,0.338175892829895,-13.421648979187012,-363,7088.0,-148.88092041015625,-2463,9984.0
4150,0.33462557196617126,-30.423662185668945,-675,7088.0,-154.5106201171875,-2382,9984.0
4160,0.3349083960056305,-30.771196365356445,-428,7088.0,-131.50921630859375,-2064,9984.0
4170,0.3370516300201416,-10.718847274780273,-145,7088.0,-97.16764831542969,-1342,9984.0
4180,0.3377557098865509,2.5023956298828125,-67,7088.0,-49.151947021484375,-563,9984.0
4190,0.33948075771331787,-7.599914073944092,-135,7088.0,-0.2337283045053482,25,9984.0
4200,0.34069398045539856,-8.709365844726562,-77,7088.0,49.85737991333008,909,9984.0
4210,0.3420575261116028,7.002009391784668,87,7088.0,100.80189514160156,1720,9984.0
4220,0.3434496819972992,13.621438980102539,225,7088.0,127.81582641601562,2027,9984.0
4230,0.34413084387779236,14.387112617492676,358,7088.0,137.4237060546875,2092,9984.0
4240,0.3402100205421448,12.979228973388672,159,7088.0,132.81930541992188,2066,9984.0
4250,0.34075021743774414,10.066601753234863,228,7088.0,108.24256134033203,1567,9984.0
4260,0.3407205641269684,11.581597328186035,60,7088.0,68.15161895751953,961,9984.0
4270,0.3405759334564209,11.408178329467773,207,7088.0,14.661539077758789,84,9984.0
4280,0.34091198444366455,8.694357872009277,88,7088.0,-43.20462417602539,-994,9984.0
4290,0.336904913187027,2.6102964878082275,145,7088.0,-82.4964599609375,-1589,9984.0
4300,0.33755964040756226,5.495980262756348,109,7088.0,-103.50292205810547,-1721,9984.0
4310,0.3379184305667877,8.615824699401855,214,7088.0,-91.85458374023438,-1532,9984.0
4320,0.33827027678489685,12.284687995910645,202,7088.0,-53.693214416503906,-684,9984.0
4330,0.33520451188087463,7.399706840515137,124,7088.0,3.115225315093994,335,9984.0
4340,0.33556580543518066,7.886147975921631,144,7088.0,53.68579864501953,1088,9984.0
4350,0.3356994688510895,0.07229522615671158,-16,7088.0,83.37399291992188,1586,9984.0
4360,0.3352936804294586,-6.500285625457764,-194,7088.0,87.6950912475586,1417,9984.0
4370,0.33284932374954224,-16.829984664916992,-215,7088.0,68.83512115478516,1057,9984.0
4380,0.33183905482292175,-18.402074813842773,-222,7088.0,42.981624603271484,545,9984.0
4390,0.33127209544181824,-13.43543529510498,-210,7088.0,16.4138240814209,42,9984.0
4400,0.33127278089523315,-12.910490989685059,-237,7088.0,-12.481268882751465,-374,9984.0
4410,0.3318825960159302,-22.569015502929688,-525,7088.0,-58.27456283569336,-1061,9984.0
4420,0.32813823223114014,-31.90211296081543,-475,7088.0,-102.1301498413086,-1842,9984.0
4430,0.3285059928894043,-21.71161651611328,-313,7088.0,-134.9491729736328,-2235,9984.0
4440,0.32845184206962585,-4.664593696594238,100,7088.0,-155.779296875,-2681,9984.0
4450,0.33008816838264465,20.11223793029785,500,7088.0,-156.0892333984375,-2459,9984.0
4460,0.3272246718406677,34.70159149169922,628,7088.0,-120.60557556152344,-1713,9984.0
4470,0.3273667097091675,41.3231201171875,666,7088.0,-60.553871154785156,-631,9984.0
4480,0.32860177755355835,33.32953643798828,565,7088.0,20.067169189453125,816,9984.0
4490,0.3311915099620819,22.520442962646484,319,7088.0,90.71012878417969,1729,9984.0
4500,0.3348512649536133,9.493443489074707,110,7088.0,137.08238220214844,2391,9984.0
4510,0.3358278274536133,-2.962393045425415,-173,7088.0,159.10240173339844,2672,9984.0
4520,0.3361893594264984,-16.237668991088867,-281,7088.0,159.63897705078125,2501,9984.0
4530,0.3356057405471802,-21.876073837280273,-467,7088.0,132.07785034179688,2110,9984.0
4540,0.33895185589790344,-21.713829040527344,-297,7088.0,90.16309356689453,1196,9984.0
4550,0.33241963386535645,-20.069154739379883,-323,7088.0,35.303794860839844,304,9984.0
4560,0.33249858021736145,-13.952462196350098,-149,7088.0,-21.677356719970703,-638,9984.0
4570,0.33314868807792664,-14.026398658752441,-294,7088.0,-76.03046417236328,-1485,9984.0
4580,0.33401229977607727,-18.405498504638672,-287,7088.0,-126.59880065917969,-2274,9984.0
4590,0.32886868715286255,-24.35167121887207,-276,7088.0,-156.33450317382812,-2703,9984.0
4600,0.3286149501800537,-5.884792804718018,52,7088.0,-150.96881103515625,-2412,9984.0
4610,0.32782620191574097,13.730998039245605,367,7088.0,-115.16039276123047,-1700,9984.0
4620,0.33086156845092773,34.323150634765625,671,7088.0,-74.01873016357422,-1094,9984.0
4630,0.33068132400512695,40.25572967529297,600,7088.0,-16.625389099121094,-23,9984.0
4640,0.33483684062957764,29.15561294555664,380,7088.0,39.89826202392578,865,9984.0
4650,0.3364449739456177,11.193395614624023,80,7088.0,77.5997085571289,1512,9984.0
4660,0.33632999658584595,2.2001113891601562,19,7088.0,112.3115234375,1944,9984.0
4670,0.33650219440460205,-3.5542736053466797,17,7088.0,134.77772521972656,2161,9984.0
4680,0.33444881439208984,-10.204608917236328,-196,7088.0,138.30545043945312,2148,9984.0
4690,0.33420318365097046,-9.189376831054688,-158,7088.0,111.52957916259766,1579,9984.0
4700,0.335063099861145,-11.721546173095703,-303,7088.0,76.90843200683594,1170,9984.0
4710,0.3343682885169983,-12.598703384399414,-118,7088.0,42.22113037109375,361,9984.0
4720,0.33097535371780396,-2.8994860649108887,7,7088.0,-15.303023338317871,-692,9984.0
4730,0.331596702337265,11.193206787109375,268,7088.0,-79.85110473632812,-1597,9984.0
4740,0.3320443034172058,21.186445236206055,308,7088.0,-110.41517639160156,-1606,9984.0
4750,0.3324837386608124,25.336639404296875,433,7088.0,-105.94190216064453,-1668,9984.0
4760,0.33272624015808105,24.063058853149414,264,7088.0,-81.6924057006836,-1062,9984.0
4770,0.33028650283813477,18.35297393798828,203,7088.0,-45.82096862792969,-503,9984.0
4780,0.3310511112213135,2.7669174671173096,-68,7088.0,-0.2993955910205841,147,9984.0
4790,0.331752747297287,-20.857799530029297,-497,7088.0,50.90279769897461,914,9984.0
4800,0.3328799605369568,-39.29058837890625,-765,7088.0,83.16848754882812,1464,9984.0
4810,0.3332321345806122,-52.042762756347656,-883,7088.0,97.37071228027344,1491,9984.0
4820,0.33419424295425415,-48.67385482788086,-757,7088.0,94.14845275878906,1421,9984.0
4830,0.33500340580940247,-26.402414321899414,-327,7088.0,78.66780853271484,1263,9984.0
4840,0.336124986410141,-2.4538991451263428,135,7088.0,54.5505485534668,695,9984.0
4850,0.33569347858428955,26.066722869873047,628,7088.0,20.738462448120117,115,9984.0
4860,0.3376293182373047,47.05869674682617,670,7088.0,-9.796735763549805,-182,9984.0
4870,0.33999767899513245,38.37736511230469,517,7088.0,-37.70234298706055,-683,9984.0
4880,0.3423371911048889,16.750852584838867,160,7088.0,-61.1878547668457,-1044,9984.0
4890,0.3446759581565857,-4.153099060058594,-111,7088.0,-67.24143981933594,-1015,9984.0
4900,0.3466513454914093,-18.223295211791992,-243,7088.0,-62.6368522644043,-1053,9984.0
4910,0.3480496108531952,-18.199644088745117,-254,7088.0,-58.14259719848633,-839,9984.0
4920,0.348971962928772,-8.99201488494873,-21,7088.0,-45.379554748535156,-705,9984.0
4930,0.3491676151752472,4.963732719421387,96,7088.0,-19.685213088989258,-50,9984.0
4940,0.35152509808540344,18.135971069335938,326,7088.0,2.5666463375091553,170,9984.0
4950,0.35098809003829956,18.390941619873047,234,7088.0,19.205303192138672,525,9984.0
4960,0.34987151622772217,17.349302291870117,202,7088.0,25.7347354888916,451,9984.0
4970,0.348591148853302,0.2721315026283264,-89,7088.0,18.866336822509766,346,9984.0
4980,0.34709304571151733,-7.578423500061035,-124,7088.0,-3.147737979888916,-170,9984.0
4990,0.3490803837776184,-15.646265983581543,-210,7088.0,-27.053003311157227,-515,9984.0
5000,0.34721025824546814,-13.6152925491333,-142,7088.0,-52.55101776123047,-1012,9984.0
5010,0.34558674693107605,4.080280303955078,220,7088.0,-88.62003326416016,-1611,9984.0
5020,0.34420549869537354,12.954671859741211,239,7088.0,-110.1637191772461,-1876,9984.0
5030,0.34522920846939087,13.754090309143066,232,7088.0,-107.9694595336914,-1674,9984.0
5040,0.34324437379837036,6.511257648468018,66,7088.0,-81.1087875366211,-1192,9984.0
5050,0.3411138951778412,-11.171812057495117,-157,7088.0,-55.3520622253418,-693,9984.0
5060,0.33910971879959106,-8.339356422424316,-243,7088.0,-23.131671905517578,-86,9984.0
5070,0.3456038236618042,-16.313325881958008,-366,7088.0,18.298507690429688,487,9984.0
5080,0.3442823886871338,-20.6221981048584,-383,7088.0,52.07864761352539,968,9984.0
5090,0.34360504150390625,-20.944927215576172,-333,7088.0,86.9127197265625,1456,9984.0
5100,0.3428167998790741,-19.555355072021484,-316,7088.0,113.79750061035156,1973,9984.0
5110,0.3419591188430786,-3.915400505065918,-48,7088.0,120.63666534423828,2142,9984.0
5120,0.34321027994155884,15.082722663879395,331,7088.0,106.77587890625,1608,9984.0
5130,0.3438850939273834,24.87723731994629,408,7088.0,74.61007690429688,1023,9984.0
5140,0.34547746181488037,19.419092178344727,406,7088.0,41.858394622802734,415,9984.0
5150,0.3474660813808441,9.35975170135498,20,7088.0,9.140497207641602,1,9984.0
5160,0.34300553798675537,-3.9281582832336426,-136,7088.0,-20.83954620361328,-398,9984.0
5170,0.34522396326065063,-7.679832458496094,-195,7088.0,-45.94571304321289,-716,9984.0
5180,0.3477349281311035,-3.7588419914245605,-116,7088.0,-68.05177307128906,-1099,9984.0
5190,0.3505655825138092,-6.211479663848877,-89,7088.0,-63.11847686767578,-962,9984.0
5200,0.3456030786037445,5.0792036056518555,93,7088.0,-48.59217071533203,-751,9984.0
5210,0.3482610285282135,0.795318067073822,-112,7088.0,-25.117916107177734,-301,9984.0
5220,0.3510923981666565,-15.064805030822754,-243,7088.0,14.571365356445312,351,9984.0
5230,0.3540611267089844,-23.18231964111328,-400,7088.0,51.87474822998047,1178,9984.0
5240,0.356160968542099,-19.967897415161133,-299,7088.0,86.09721374511719,1652,9984.0
5250,0.35531774163246155,-4.360842704772949,-11,7088.0,123.62413787841797,2205,9984.0
5260,0.3566363751888275,9.411698341369629,323,7088.0,152.56651306152344,2489,9984.0
5270,0.35793715715408325,25.473852157592773,429,7088.0,158.20999145507812,2531,9984.0
5280,0.3573170304298401,30.083778381347656,490,7088.0,145.80198669433594,2205,9984.0
5290,0.35320281982421875,29.18330955505371,500,7088.0,112.63621520996094,1431,9984.0
5300,0.3518073558807373,20.987754821777344,233,7088.0,57.877620697021484,638,9984.0
5310,0.3517971336841583,12.253203392028809,-3,7088.0,-3.6831135749816895,-342,9984.0
5320,0.3513351082801819,-0.11866181343793869,-82,7088.0,-68.49052429199219,-1393,9984.0
5330,0.3518681824207306,-13.777996063232422,-161,7088.0,-123.43000793457031,-2423,9984.0
5340,0.3493271470069885,-18.737905502319336,-279,7088.0,-155.92547607421875,-2774,9984.0
5350,0.34854909777641296,-18.52370834350586,-316,7088.0,-160.6145782470703,-2634,9984.0
5360,0.3469574749469757,-15.327417373657227,-196,7088.0,-149.01315307617188,-2413,9984.0
5370,0.3459705710411072,-13.996694564819336,-311,7088.0,-126.31866455078125,-1884,9984.0
5380,0.34278494119644165,-13.959451675415039,-53,7088.0,-86.7553939819336,-1256,9984.0
5390,0.34119871258735657,1.8488712310791016,209,7088.0,-45.513004302978516,-520,9984.0
5400,0.3407871723175049,19.83811378479004,415,7088.0,-3.0539333820343018,257,9984.0
5410,0.3396713137626648,21.218212127685547,332,7088.0,31.475379943847656,560,9984.0
5420,0.33985066413879395,10.449783325195312,34,7088.0,40.96986389160156,623,9984.0
5430,0.33931320905685425,0.47319138050079346,-7,7088.0,34.643619537353516,578,9984.0
5440,0.33919745683670044,-10.14676284790039,-180,7088.0,26.26282501220703,422,9984.0
5450,0.33959078788757324,-8.425260543823242,-37,7088.0,-1.9230270385742188,-246,9984.0
5460,0.3407086730003357,-3.8306500911712646,-13,7088.0,-35.358829498291016,-799,9984.0
5470,0.3405223786830902,9.959753036499023,357,7088.0,-72.11784362792969,-1498,9984.0
5480,0.3424823582172394,22.59260368347168,378,7088.0,-96.31575775146484,-1614,9984.0
5490,0.3443237543106079,23.991785049438477,410,7088.0,-103.89366149902344,-1731,9984.0
5500,0.34632575511932373,14.765297889709473,231,7088.0,-89.39555358886719,-1279,9984.0
5510,0.3490034341812134,10.182520866394043,114,7088.0,-60.71968460083008,-676,9984.0
5520,0.3518129587173462,-2.354741096496582,-49,7088.0,-24.84654426574707,-264,9984.0
5530,0.35356658697128296,-15.925810813903809,-309,7088.0,24.659698486328125,648,9984.0
5540,0.35643020272254944,-26.981712341308594,-498,7088.0,74.53047943115234,1485,9984.0
5550,0.35824471712112427,-31.331745147705078,-463,7088.0,107.73394775390625,1871,9984.0
5560,0.360340416431427,-24.407079696655273,-351,7088.0,126.99402618408203,2147,9984.0
5570,0.36208492517471313,-12.021321296691895,-144,7088.0,133.67140197753906,2075,9984.0
5580,0.3634040355682373,-4.323760986328125,9,7088.0,125.72666931152344,1822,9984.0
5590,0.3643774092197418,0.42587992548942566,12,7088.0,99.29862213134766,1416,9984.0
5600,0.35932108759880066,3.4903247356414795,38,7088.0,60.244266510009766,770,9984.0
5610,0.35983261466026306,4.070019245147705,66,7088.0,24.14623260498047,83,9984.0
5620,0.3604716956615448,9.873261451721191,267,7088.0,-8.00178050994873,-551,9984.0
5630,0.3610805869102478,19.357494354248047,257,7088.0,-52.43189239501953,-1206,9984.0
5640,0.3554408848285675,7.961185455322266,98,7088.0,-87.83628845214844,-1533,9984.0
5650,0.3551512658596039,6.600856781005859,73,7088.0,-91.17691802978516,-1421,9984.0
5660,0.35457849502563477,6.315579891204834,105,7088.0,-67.14054870605469,-878,9984.0
5670,0.35448122024536133,0.6839679479598999,-27,7088.0,-26.978843688964844,-112,9984.0
5680,0.3543362617492676,-4.103791236877441,-86,7088.0,18.964902877807617,499,9984.0
5690,0.35025009512901306,-3.901778221130371,-27,7088.0,58.761985778808594,1077,9984.0
5700,0.3490614593029022,-0.5848246216773987,20,7088.0,98.2905044555664,1585,9984.0
5710,0.34741440415382385,-4.650984764099121,-22,7088.0,123.24712371826172,2057,9984.0
5720,0.3454638421535492,3.2578859329223633,156,7088.0,122.58795928955078,1805,9984.0
5730,0.339557021856308,6.689734935760498,148,7088.0,102.19767761230469,1475,9984.0
5740,0.3380674719810486,9.51925277709961,57,7088.0,62.38912582397461,816,9984.0
5750,0.3351324796676636,9.411263465881348,145,7088.0,1.7566204071044922,-180,9984.0
5760,0.33457151055336,8.03155517578125,216,7088.0,-60.90927505493164,-1410,9984.0
5770,0.33286261558532715,8.9631929397583,85,7088.0,-114.00431060791016,-1999,9984.0
5780,0.329708993434906,7.8703694343566895,103,7088.0,-151.0050506591797,-2547,9984.0
5790,0.32870015501976013,-1.295879602432251,-92,7088.0,-160.14137268066406,-2479,9984.0
5800,0.32809966802597046,-12.486245155334473,-267,7088.0,-135.1785125732422,-2072,9984.0
5810,0.32932984828948975,-21.68021011352539,-212,7088.0,-91.43644714355469,-1276,9984.0
5820,0.3264893889427185,-10.68349838256836,-47,7088.0,-29.299314498901367,-199,9984.0
5830,0.3273446261882782,6.754652976989746,187,7088.0,22.59165382385254,683,9984.0
5840,0.32846876978874207,19.85862159729004,428,7088.0,58.352020263671875,1165,9984.0
5850,0.329574853181839,24.450647354125977,475,7088.0,87.69741821289062,1412,9984.0
5860,0.3274655044078827,20.312889099121094,344,7088.0,96.11212158203125,1524,9984.0
5870,0.3280729055404663,16.818452835083008,302,7088.0,89.34393310546875,1307,9984.0
5880,0.3286082446575165,-2.8061254024505615,-93,7088.0,64.1578369140625,855,9984.0
5890,0.33139002323150635,-15.024518966674805,-258,7088.0,29.926616668701172,136,9984.0
5900,0.33341655135154724,-26.810625076293945,-590,7088.0,-17.627891540527344,-454,9984.0
5910,0.32983046770095825,-35.78588104248047,-673,7088.0,-76.0286865234375,-1438,9984.0
5920,0.3318766951560974,-45.35468292236328,-759,7088.0,-121.89363861083984,-2079,9984.0
5930,0.33313098549842834,-39.74330520629883,-562,7088.0,-128.36134338378906,-1836,9984.0
5940,0.33357715606689453,-14.123506546020508,-41,7088.0,-102.73074340820312,-1346,9984.0
5950,0.33038586378097534,10.771390914916992,242,7088.0,-57.35254669189453,-598,9984.0
5960,0.332571417093277,27.625362396240234,511,7088.0,-20.778972625732422,-156,9984.0
5970,0.33366459608078003,32.97653579711914,592,7088.0,14.316747665405273,341,9984.0
5980,0.33434000611305237,29.333959579467773,452,7088.0,40.89863967895508,667,9984.0
5990,0.334557443857193,18.25361442565918,193,7088.0,54.468116760253906,983,9984.0
6000,0.3335759937763214,-2.1067960262298584,-132,7088.0,69.1968765258789,1260,9984.0
6010,0.3331778347492218,-18.50476837158203,-422,7088.0,72.9326171875,1201,9984.0
6020,0.3327135145664215,-32.816253662109375,-655,7088.0,66.84068298339844,1189,9984.0
6030,0.33198660612106323,-33.3499641418457,-498,7088.0,43.45387268066406,614,9984.0
6040,0.3270333409309387,-18.3636531829834,-64,7088.0,11.77147102355957,-83,9984.0
6050,0.3268808126449585,6.98090934753418,201,7088.0,-26.864713668823242,-647,9984.0
6060,0.3261144459247589,34.11213302612305,656,7088.0,-69.42980194091797,-1491,9984.0
6070,0.32509341835975647,47.473697662353516,817,7088.0,-104.95274353027344,-1862,9984.0
6080,0.32000070810317993,38.3615837097168,608,7088.0,-104.69091796875,-1752,9984.0
6090,0.3180067539215088,20.38224220275879,308,7088.0,-78.02330780029297,-964,9984.0
6100,0.3188033699989319,9.819700241088867,135,7088.0,-24.832490921020508,77,9984.0
6110,0.3181877136230469,-5.148983001708984,-94,7088.0,41.06056213378906,992,9984.0
6120,0.318974107503891,-16.410818099975586,-303,7088.0,102.469482421875,1852,9984.0
6130,0.31556567549705505,-17.44112777709961,-278,7088.0,136.96192932128906,2270,9984.0
6140,0.31386733055114746,-2.9780778884887695,63,7088.0,159.86749267578125,2522,9984.0
6150,0.31244412064552307,6.493649482727051,15,7088.0,157.7135772705078,2611,9984.0
6160,0.3109223246574402,0.5864813923835754,11,7088.0,135.64553833007812,1991,9984.0
6170,0.30202189087867737,-12.471731185913086,-238,7088.0,88.19584655761719,1152,9984.0
6180,0.30257919430732727,-25.828445434570312,-476,7088.0,31.17415428161621,311,9984.0
6190,0.3017351031303406,-39.8970947265625,-722,7088.0,-19.532344818115234,-569,9984.0
6200,0.30142802000045776,-41.020442962646484,-637,7088.0,-76.31952667236328,-1431,9984.0
6210,0.3015654683113098,-38.3578987121582,-606,7088.0,-122.6005859375,-2175,9984.0
6220,0.29670244455337524,-22.65157127380371,-206,7088.0,-161.40049743652344,-2928,9984.0
6230,0.29530876874923706,-1.9835327863693237,-3,7088.0,-191.34437561035156,-3192,9984.0
6240,0.2932285964488983,9.425809860229492,221,7088.0,-193.85269165039062,-3102,9984.0
6250,0.2918396592140198,26.338546752929688,468,7088.0,-163.47042846679688,-2414,9984.0
6260,0.2916347086429596,32.007381439208984,469,7088.0,-97.43367767333984,-1177,9984.0
6270,0.29176265001296997,17.457242965698242,217,7088.0,-13.46268367767334,195,9984.0
6280,0.2946886122226715,-2.93281888961792,-103,7088.0,62.25507736206055,1469,9984.0
6290,0.2989402115345001,-12.501126289367676,-201,7088.0,127.6042251586914,2495,9984.0
6300,0.2937481999397278,-10.27460765838623,-78,7088.0,177.73228454589844,3138,9984.0
6310,0.2953401207923889,-6.5922746658325195,50,7088.0,209.81773376464844,3425,9984.0
6320,0.29649561643600464,7.944972515106201,273,7088.0,217.9258270263672,3450,9984.0
6330,0.2965798079967499,25.361099243164062,366,7088.0,195.07064819335938,3194,9984.0
6340,0.3006163239479065,34.019447326660156,600,7088.0,153.9532012939453,2245,9984.0
6350,0.2942824065685272,37.424903869628906,643,7088.0,97.80157470703125,1375,9984.0
6360,0.2937554121017456,35.57818603515625,479,7088.0,37.629241943359375,346,9984.0
6370,0.2945261299610138,26.993406295776367,429,7088.0,-18.776655197143555,-521,9984.0
6380,0.2950698435306549,22.028207778930664,416,7088.0,-69.15025329589844,-1462,9984.0
6390,0.2916560769081116,18.477943420410156,178,7088.0,-118.69153594970703,-2062,9984.0
6400,0.291618287563324,5.823562145233154,12,7088.0,-151.43113708496094,-2515,9984.0
6410,0.29155680537223816,-5.7208757400512695,-82,7088.0,-148.8080291748047,-2244,9984.0
6420,0.2934657335281372,-11.494282722473145,-298,7088.0,-107.1922378540039,-1467,9984.0
6430,0.29268622398376465,-8.896626472473145,-137,7088.0,-54.96968078613281,-484,9984.0
6440,0.28982818126678467,3.7398643493652344,72,7088.0,-4.658199310302734,256,9984.0
6450,0.2897227704524994,7.460446834564209,110,7088.0,50.36054611206055,1137,9984.0
6460,0.28881797194480896,-1.3088955879211426,-140,7088.0,92.6100845336914,1692,9984.0
6470,0.2880687117576599,-20.162940979003906,-452,7088.0,115.85746002197266,1901,9984.0
6480,0.28529655933380127,-41.46776580810547,-854,7088.0,118.78612518310547,2022,9984.0
6490,0.28366750478744507,-62.939788818359375,-1086,7088.0,102.85430145263672,1572,9984.0
6500,0.28182876110076904,-75.6781005859375,-1249,7088.0,73.71076202392578,984,9984.0
6510,0.2823048233985901,-69.45062255859375,-985,7088.0,38.106727600097656,421,9984.0
6520,0.2771349549293518,-39.3413200378418,-526,7088.0,-4.527707576751709,-147,9984.0
6530,0.2775040566921234,-10.578765869140625,32,7088.0,-43.65227508544922,-1020,9984.0
6540,0.2766522169113159,17.181228637695312,266,7088.0,-72.89796447753906,-1200,9984.0
6550,0.27581220865249634,38.3333854675293,860,7088.0,-85.90232849121094,-1637,9984.0
6560,0.2748408615589142,60.428428649902344,1103,7088.0,-86.05314636230469,-1268,9984.0
6570,0.2735764682292938,82.0072021484375,1410,7088.0,-55.41291809082031,-619,9984.0
6580,0.2736928164958954,88.91282653808594,1418,7088.0,-14.794408798217773,-5,9984.0
6590,0.27544352412223816,72.44041442871094,1018,7088.0,32.73240661621094,659,9984.0
6600,0.2757875323295593,35.477760314941406,353,7088.0,69.57183074951172,1331,9984.0
6610,0.2722073197364807,-3.7142703533172607,-130,7088.0,98.6914291381836,1577,9984.0
6620,0.2722876965999603,-20.81257438659668,-364,7088.0,101.22634887695312,1577,9984.0
6630,0.27403074502944946,-24.643766403198242,-465,7088.0,84.0191879272461,1328,9984.0
6640,0.2735897898674011,-25.095733642578125,-466,7088.0,49.71620178222656,645,9984.0
6650,0.27431660890579224,-30.36785888671875,-454,7088.0,10.770936965942383,-291,9984.0
6660,0.2719257175922394,-36.63510513305664,-718,7088.0,-39.476112365722656,-750,9984.0
6670,0.2720184028148651,-40.67689514160156,-607,7088.0,-81.28640747070312,-1607,9984.0
6680,0.27185291051864624,-37.93936538696289,-476,7088.0,-115.63371276855469,-2130,9984.0
6690,0.27108386158943176,-25.000686645507812,-367,7088.0,-139.27305603027344,-2225,9984.0
6700,0.2683010995388031,-19.7685489654541,-339,7088.0,-139.77891540527344,-2121,9984.0
6710,0.2683178782463074,-11.22294807434082,-168,7088.0,-110.31132507324219,-1587,9984.0
6720,0.2666766047477722,1.910667061805725,76,7088.0,-56.13119888305664,-632,9984.0
6730,0.26668521761894226,-0.35017383098602295,0,7088.0,2.8505213260650635,281,9984.0
6740,0.263558954000473,-2.677689552307129,-29,7088.0,49.38680648803711,1002,9984.0
6750,0.2625279724597931,-3.007866621017456,-121,7088.0,85.72398376464844,1457,9984.0
6760,0.2610568106174469,-8.204822540283203,-257,7088.0,103.70319366455078,1863,9984.0
6770,0.2601833641529083,-19.80193328857422,-360,7088.0,105.22093963623047,1643,9984.0
6780,0.25886258482933044,-26.767440795898438,-442,7088.0,90.74373626708984,1468,9984.0
6790,0.25958484411239624,-21.07000160217285,-224,7088.0,63.204505920410156,790,9984.0
6800,0.2581242322921753,-5.45517110824585,-60,7088.0,22.635711669921875,359,9984.0
6810,0.2569284439086914,13.21048355102539,446,7088.0,-16.286636352539062,-597,9984.0
6820,0.25598904490470886,33.39946365356445,516,7088.0,-50.9567985534668,-761,9984.0
6830,0.2532859742641449,47.71183776855469,877,7088.0,-71.23150634765625,-1373,9984.0
6840,0.2519761919975281,53.772335052490234,907,7088.0,-88.69066619873047,-1496,9984.0
6850,0.2492479830980301,51.1392936706543,804,7088.0,-99.91581726074219,-1656,9984.0
6860,0.24753810465335846,37.51698684692383,610,7088.0,-98.55121612548828,-1631,9984.0
6870,0.24805229902267456,29.00688362121582,439,7088.0,-74.43063354492188,-1072,9984.0
6880,0.24695105850696564,17.374767303466797,190,7088.0,-17.665800094604492,-101,9984.0
6890,0.24668721854686737,7.087975978851318,49,7088.0,46.92154312133789,1012,9984.0
6900,0.24751164019107819,-2.8110153675079346,-202,7088.0,102.40048217773438,1957,9984.0
6910,0.24628761410713196,-13.114418029785156,-294,7088.0,141.37921142578125,2508,9984.0
6920,0.2453443706035614,-21.62746238708496,-341,7088.0,159.05918884277344,2471,9984.0
6930,0.24495525658130646,-29.23002052307129,-466,7088.0,148.33094787597656,2365,9984.0
6940,0.24422909319400787,-22.902013778686523,-328,7088.0,118.14818572998047,1741,9984.0
6950,0.24344028532505035,-9.246262550354004,-116,7088.0,72.22972106933594,1015,9984.0
6960,0.2471233755350113,7.091570854187012,233,7088.0,21.980628967285156,59,9984.0
6970,0.24752573668956757,19.330810546875,301,7088.0,-31.937318801879883,-721,9984.0
6980,0.24804933369159698,15.91181755065918,152,7088.0,-83.31586456298828,-1541,9984.0
6990,0.24880215525627136,7.484940052032471,178,7088.0,-121.68885803222656,-2303,9984.0
7000,0.2494734674692154,-1.0650562047958374,-72,7088.0,-144.29693603515625,-2424,9984.0
7010,0.2490188479423523,-11.226320266723633,-244,7088.0,-146.6122283935547,-2303,9984.0
7020,0.24913370609283447,-17.56409454345703,-309,7088.0,-125.18159484863281,-1958,9984.0
7030,0.24939145147800446,-23.78348731994629,-410,7088.0,-85.72440338134766,-1110,9984.0
7040,0.2529911398887634,-26.0939884185791,-504,7088.0,-28.386905670166016,-119,9984.0
7050,0.2514760196208954,-24.1041316986084,-344,7088.0,27.803754806518555,732,9984.0
7060,0.25345948338508606,-15.318843841552734,-154,7088.0,81.00932312011719,1319,9984.0
7070,0.2555432915687561,-4.958653450012207,25,7088.0,114.95645904541016,1961,9984.0
7080,0.25627243518829346,16.53937339782715,264,7088.0,131.97866821289062,2339,9984.0
7090,0.2561265230178833,40.344730377197266,783,7088.0,140.28445434570312,2248,9984.0
7100,0.2567164897918701,59.61806106567383,974,7088.0,122.3788833618164,1906,9984.0
7110,0.25710630416870117,67.2283706665039,1246,7088.0,79.74913024902344,875,9984.0
7120,0.2599777281284332,59.74742889404297,824,7088.0,16.740936279296875,122,9984.0
7130,0.2605130672454834,41.621028900146484,588,7088.0,-37.59822463989258,-804,9984.0
7140,0.25722193717956543,27.76154327392578,409,7088.0,-79.49299621582031,-1546,9984.0
7150,0.25690311193466187,10.331233024597168,27,7088.0,-116.05748748779297,-1934,9984.0
7160,0.25735995173454285,-14.51364517211914,-379,7088.0,-131.89892578125,-2051,9984.0
7170,0.25608476996421814,-34.71307373046875,-553,7088.0,-122.55210876464844,-1840,9984.0
7180,0.2515878677368164,-44.56407928466797,-637,7088.0,-82.68177795410156,-1194,9984.0
7190,0.2511747479438782,-45.896121978759766,-715,7088.0,-23.025007247924805,-169,9984.0
7200,0.25216811895370483,-45.62065887451172,-764,7088.0,49.6270637512207,1086,9984.0
7210,0.252543181180954,-40.22720718383789,-546,7088.0,100.54674530029297,1934,9984.0
7220,0.25411146879196167,-19.03551483154297,-137,7088.0,128.29246520996094,2158,9984.0
7230,0.24966555833816528,5.548430442810059,247,7088.0,134.44223022460938,2125,9984.0
7240,0.24982169270515442,15.559189796447754,271,7088.0,123.61691284179688,1918,9984.0
7250,0.24922215938568115,18.453506469726562,296,7088.0,99.16158294677734,1519,9984.0
7260,0.24821148812770844,17.251598358154297,351,7088.0,64.43316650390625,686,9984.0
7270,0.24935421347618103,8.89842414855957,69,7088.0,20.575439453125,55,9984.0
7280,0.2504645586013794,-1.547892451286316,-19,7088.0,-29.909603118896484,-815,9984.0
7290,0.2496446669101715,-12.882160186767578,-334,7088.0,-72.73875427246094,-1294,9984.0
7300,0.2485901564359665,-19.976333618164062,-298,7088.0,-96.49585723876953,-1681,9984.0
7310,0.24869662523269653,-22.640899658203125,-435,7088.0,-108.42767333984375,-1733,9984.0
7320,0.2502872943878174,-20.858366012573242,-265,7088.0,-109.21637725830078,-1774,9984.0
7330,0.24946491420269012,-16.10970115661621,-183,7088.0,-84.18083953857422,-1117,9984.0
7340,0.24897749722003937,-2.0256903171539307,2,7088.0,-38.803043365478516,-251,9984.0
7350,0.24860912561416626,18.30930519104004,355,7088.0,9.70378589630127,320,9984.0
7360,0.24710404872894287,27.31145477294922,518,7088.0,59.23591232299805,1298,9984.0
7370,0.24808074533939362,26.271020889282227,370,7088.0,107.1246337890625,2107,9984.0
7380,0.24899305403232574,12.326428413391113,171,7088.0,135.06419372558594,2116,9984.0
7390,0.24941202998161316,-1.1018246412277222,16,7088.0,132.25094604492188,1996,9984.0
7400,0.24691897630691528,-13.146093368530273,-356,7088.0,103.08958435058594,1632,9984.0
7410,0.24962513148784637,-23.02938461303711,-353,7088.0,62.29613494873047,799,9984.0
7420,0.250440388917923,-26.330825805664062,-481,7088.0,11.365523338317871,-1,9984.0
7430,0.25159236788749695,-29.127695083618164,-396,7088.0,-39.59190368652344,-879,9984.0
7440,0.25227439403533936,-21.950878143310547,-311,7088.0,-85.01634979248047,-1483,9984.0
7450,0.2461981326341629,-3.093841314315796,84,7088.0,-109.63410186767578,-1868,9984.0
7460,0.24603012204170227,15.059242248535156,284,7088.0,-119.07627868652344,-1893,9984.0
7470,0.24541841447353363,27.546585083007812,512,7088.0,-121.27857208251953,-1900,9984.0
7480,0.2450353056192398,28.358068466186523,484,7088.0,-112.78999328613281,-1858,9984.0
7490,0.2435416579246521,21.212738037109375,347,7088.0,-87.06962585449219,-1332,9984.0
7500,0.24415162205696106,14.323173522949219,195,7088.0,-49.21787643432617,-608,9984.0
7510,0.24406614899635315,10.437575340270996,71,7088.0,-1.4328721761703491,229,9984.0
7520,0.24606582522392273,-11.271371841430664,-370,7088.0,53.98206329345703,1115,9984.0
7530,0.24105627834796906,-35.675636291503906,-703,7088.0,102.83492279052734,1903,9984.0
7540,0.24220801889896393,-51.824867248535156,-810,7088.0,125.41746520996094,2069,9984.0
7550,0.24275153875350952,-47.78139114379883,-689,7088.0,128.40269470214844,1917,9984.0
7560,0.24277493357658386,-38.09122085571289,-580,7088.0,106.05271911621094,1575,9984.0
7570,0.2455720752477646,-18.55843734741211,-171,7088.0,60.241188049316406,703,9984.0
7580,0.23745876550674438,-0.024127617478370667,22,7088.0,10.959547996520996,20,9984.0
7590,0.2370738387107849,20.29894256591797,370,7088.0,-26.593751907348633,-471,9984.0
7600,0.2369854748249054,30.145872116088867,603,7088.0,-60.095359802246094,-1174,9984.0
7610,0.2365480363368988,32.648109436035156,508,7088.0,-79.21627044677734,-1316,9984.0
7620,0.2345598191022873,30.575632095336914,481,7088.0,-86.69975280761719,-1400,9984.0
7630,0.2335461974143982,23.11552619934082,345,7088.0,-78.90821075439453,-1240,9984.0
7640,0.23434531688690186,10.381848335266113,63,7088.0,-53.37334442138672,-638,9984.0
7650,0.2347758263349533,-11.026984214782715,-278,7088.0,-18.499589920043945,-120,9984.0
7660,0.2337036430835724,-24.84596824645996,-388,7088.0,15.902193069458008,314,9984.0
7670,0.23391154408454895,-30.391735076904297,-494,7088.0,50.397254943847656,1025,9984.0
7680,0.23457278311252594,-27.78443145751953,-428,7088.0,84.55926513671875,1581,9984.0
7690,0.23478545248508453,-15.739635467529297,-78,7088.0,99.5195541381836,1592,9984.0
7700,0.23536285758018494,6.569079399108887,125,7088.0,92.7651596069336,1505,9984.0
7710,0.23525641858577728,24.179651260375977,522,7088.0,75.15626525878906,1075,9984.0
7720,0.23574239015579224,35.646202087402344,567,7088.0,47.01579284667969,737,9984.0
7730,0.2372872531414032,29.212759017944336,441,7088.0,17.891510009765625,160,9984.0
7740,0.23752613365650177,20.53437042236328,345,7088.0,-11.27303409576416,-319,9984.0
7750,0.23309475183486938,10.335704803466797,124,7088.0,-31.63593864440918,-582,9984.0
7760,0.23324720561504364,0.9001617431640625,-10,7088.0,-44.9473876953125,-765,9984.0
7770,0.23309005796909332,-6.084707736968994,-72,7088.0,-52.7432861328125,-949,9984.0
7780,0.2326635867357254,-13.156169891357422,-348,7088.0,-54.32096481323242,-748,9984.0
7790,0.23299381136894226,-25.809598922729492,-375,7088.0,-39.18321228027344,-639,9984.0
7800,0.23333187401294708,-29.70838737487793,-481,7088.0,-17.157066345214844,-162,9984.0
7810,0.2335614114999771,-28.381526947021484,-491,7088.0,2.6842424869537354,239,9984.0
7820,0.23447762429714203,-25.929676055908203,-273,7088.0,27.785810470581055,447,9984.0
7830,0.23492690920829773,-4.139858245849609,72,7088.0,46.62050247192383,893,9984.0
7840,0.23069916665554047,23.634063720703125,521,7088.0,51.857398986816406,746,9984.0
7850,0.23085139691829681,33.9267692565918,521,7088.0,45.20706558227539,827,9984.0
7860,0.23117047548294067,34.100433349609375,587,7088.0,42.24989700317383,542,9984.0
7870,0.23112010955810547,24.08063316345215,166,7088.0,31.543214797973633,541,9984.0
7880,0.23258160054683685,3.16795015335083,35,7088.0,23.78949546813965,168,9984.0
7890,0.23300597071647644,-7.263260841369629,-202,7088.0,5.469945430755615,89,9984.0
7900,0.23296020925045013,-12.304738998413086,-166,7088.0,-18.807884216308594,-513,9984.0
7910,0.23284056782722473,-12.069886207580566,-258,7088.0,-38.284454345703125,-668,9984.0
7920,0.23245307803153992,-9.771955490112305,-33,7088.0,-53.24469757080078,-1002,9984.0
7930,0.22803017497062683,-3.6989262104034424,-131,7088.0,-63.661582946777344,-953,9984.0
7940,0.22829045355319977,-4.04972505569458,65,7088.0,-54.87578201293945,-902,9984.0
7950,0.22823511064052582,10.38980484008789,188,7088.0,-30.891626358032227,-241,9984.0
7960,0.2281998246908188,20.81516456604004,291,7088.0,11.333688735961914,489,9984.0
7970,0.2268381267786026,27.546607971191406,546,7088.0,46.94951629638672,823,9984.0
7980,0.22693942487239838,31.05409049987793,483,7088.0,58.55322265625,1167,9984.0
7990,0.227544903755188,24.204185485839844,381,7088.0,74.63386535644531,1210,9984.0
8000,0.22821106016635895,18.975078582763672,285,7088.0,87.9016342163086,1531,9984.0
8010,0.22820118069648743,8.057741165161133,18,7088.0,79.82484436035156,1064,9984.0
8020,0.23313118517398834,-0.3451504111289978,28,7088.0,51.07368469238281,596,9984.0
8030,0.23363633453845978,-1.636357069015503,-103,7088.0,4.994262218475342,-74,9984.0
8040,0.23421235382556915,-1.5058497190475464,-3,7088.0,-38.44318771362305,-776,9984.0
8050,0.23471014201641083,-4.406958103179932,-125,7088.0,-65.77242279052734,-1082,9984.0
8060,0.23340998589992523,-6.905789375305176,-84,7088.0,-78.99381256103516,-1399,9984.0
8070,0.2335893213748932,-10.007718086242676,-188,7088.0,-86.04156494140625,-1373,9984.0
8080,0.2337615191936493,-13.452446937561035,-290,7088.0,-82.60723114013672,-1282,9984.0
8090,0.2336754947900772,-14.854354858398438,-214,7088.0,-73.88953399658203,-1120,9984.0
8100,0.23363825678825378,-13.282777786254883,-117,7088.0,-37.09646224975586,-474,9984.0
8110,0.23416435718536377,2.9947564601898193,141,7088.0,7.0677385330200195,239,9984.0
8120,0.23531052470207214,12.554277420043945,146,7088.0,49.8843994140625,1042,9984.0
8130,0.23650428652763367,2.9078261852264404,-107,7088.0,79.262939453125,1470,9984.0
8140,0.23731321096420288,-8.039528846740723,-140,7088.0,88.12957000732422,1461,9984.0
8150,0.2367590069770813,-8.862460136413574,-103,7088.0,76.83763122558594,1124,9984.0
8160,0.23720556497573853,-10.115264892578125,-234,7088.0,63.435325622558594,1024,9984.0
8170,0.23755748569965363,-10.140584945678711,-69,7088.0,31.846267700195312,327,9984.0
8180,0.23890292644500732,-7.75601863861084,-270,7088.0,-6.892763137817383,-164,9984.0
8190,0.23891755938529968,-17.245567321777344,-240,7088.0,-43.26491928100586,-875,9984.0
8200,0.23956908285617828,-14.10744857788086,-275,7088.0,-72.3163070678711,-1228,9984.0
8210,0.23978294432163239,-10.68539810180664,-118,7088.0,-96.33460998535156,-1685,9984.0
8220,0.23983649909496307,-10.297483444213867,-197,7088.0,-103.08634185791016,-1663,9984.0
8230,0.2419450432062149,-7.597718238830566,-134,7088.0,-98.52294158935547,-1496,9984.0
8240,0.24296511709690094,-5.474477291107178,-9,7088.0,-89.68343353271484,-1485,9984.0
8250,0.24312199652194977,-0.7348435521125793,-8,7088.0,-74.58624267578125,-1157,9984.0
8260,0.24396824836730957,5.662062168121338,84,7088.0,-49.74874496459961,-604,9984.0
8270,0.24603307247161865,9.9177827835083,126,7088.0,-11.944936752319336,110,9984.0
8280,0.24627405405044556,7.019911289215088,165,7088.0,37.752838134765625,838,9984.0
8290,0.24852396547794342,-0.1944856345653534,10,7088.0,88.22000885009766,1516,9984.0
8300,0.25024616718292236,-6.0490546226501465,-26,7088.0,123.15093994140625,2086,9984.0
8310,0.2520177364349365,-1.393306016921997,-121,7088.0,127.60181427001953,2026,9984.0
8320,0.25192227959632874,1.1107555627822876,102,7088.0,105.32210540771484,1402,9984.0
8330,0.253282755613327,4.543090343475342,55,7088.0,69.13906860351562,1049,9984.0
8340,0.25498196482658386,1.141066551208496,-41,7088.0,40.93502426147461,544,9984.0
8350,0.25657355785369873,-2.680450677871704,-72,7088.0,13.491881370544434,-5,9984.0
8360,0.2581135034561157,-8.846766471862793,-247,7088.0,-16.061397552490234,-325,9984.0
8370,0.25793981552124023,-15.641571044921875,-230,7088.0,-44.79172897338867,-940,9984.0
8380,0.2592487633228302,-17.991613388061523,-305,7088.0,-70.23072052001953,-1249,9984.0
8390,0.2603306174278259,-17.88643455505371,-301,7088.0,-84.83548736572266,-1400,9984.0
8400,0.26119551062583923,-10.769569396972656,-188,7088.0,-92.7930908203125,-1427,9984.0
8410,0.25999870896339417,-4.116584777832031,9,7088.0,-90.84192657470703,-1384,9984.0
8420,0.2611657381057739,-3.2929418087005615,-18,7088.0,-72.58900451660156,-1135,9984.0
8430,0.2636123597621918,-4.62947940826416,-30,7088.0,-43.75993728637695,-666,9984.0
8440,0.2645135223865509,0.7034112811088562,31,7088.0,0.04488258808851242,211,9984.0
8450,0.26282310485839844,10.135265350341797,207,7088.0,54.5338134765625,1097,9984.0
8460,0.26404228806495667,16.587438583374023,246,7088.0,97.6461410522461,1681,9984.0
8470,0.26519128680229187,12.198221206665039,25,7088.0,118.66373443603516,1988,9984.0
8480,0.26627039909362793,-0.7451018691062927,-65,7088.0,118.24514770507812,1958,9984.0
8490,0.26667261123657227,-1.2216532230377197,-1,7088.0,98.26497650146484,1528,9984.0
8500,0.2632755935192108,-3.2790489196777344,-35,7088.0,65.26268768310547,807,9984.0
8510,0.26691797375679016,-6.8749542236328125,-204,7088.0,23.624366760253906,325,9984.0
8520,0.2671698331832886,-5.770182132720947,-51,7088.0,-17.227968215942383,-458,9984.0
8530,0.26774001121520996,-3.679307699203491,-83,7088.0,-53.301692962646484,-1034,9984.0
8540,0.2653726637363434,-5.627499580383301,-137,7088.0,-79.08683776855469,-1322,9984.0
8550,0.26553580164909363,-9.026347160339355,-174,7088.0,-96.43374633789062,-1606,9984.0
8560,0.26551446318626404,-9.677285194396973,-59,7088.0,-87.5700912475586,-1373,9984.0
8570,0.26594552397727966,-9.166029930114746,-168,7088.0,-66.17112731933594,-854,9984.0
8580,0.2660602927207947,-2.2091033458709717,-25,7088.0,-33.879173278808594,-288,9984.0
8590,0.26431378722190857,5.993701934814453,34,7088.0,-0.4712158441543579,283,9984.0
8600,0.26442357897758484,6.54701042175293,119,7088.0,25.334741592407227,546,9984.0
8610,0.2648669481277466,10.505181312561035,256,7088.0,47.71140670776367,848,9984.0
8620,0.265189528465271,19.55866813659668,445,7088.0,57.30854415893555,803,9984.0
8630,0.261928528547287,26.448579788208008,392,7088.0,56.205894470214844,902,9984.0
8640,0.26195842027664185,20.432188034057617,214,7088.0,43.19761657714844,614,9984.0
8650,0.2621389627456665,8.787888526916504,21,7088.0,17.061498641967773,231,9984.0
8660,0.26232343912124634,-7.406824111938477,-210,7088.0,-2.087714672088623,-141,9984.0
8670,0.2599145770072937,-15.222485542297363,-254,7088.0,-18.8952579498291,-514,9984.0
8680,0.26013845205307007,-14.46816635131836,-224,7088.0,-33.79113006591797,-571,9984.0
8690,0.26014283299446106,-13.28346061706543,-260,7088.0,-42.983158111572266,-715,9984.0
8700,0.2602473795413971,-9.209465980529785,-115,7088.0,-35.09046936035156,-404,9984.0
8710,0.2604195475578308,8.943419456481934,235,7088.0,-9.537397384643555,2,9984.0
8720,0.2592494487762451,22.68893814086914,507,7088.0,18.971927642822266,373,9984.0
8730,0.2595430016517639,26.2208194732666,405,7088.0,36.918739318847656,550,9984.0
8740,0.2596781551837921,17.39516258239746,170,7088.0,49.79273223876953,922,9984.0
8750,0.2597278356552124,0.18249443173408508,-145,7088.0,60.34702682495117,1094,9984.0
8760,0.2587069869041443,-10.590081214904785,-162,7088.0,63.76897430419922,980,9984.0
8770,0.2584730088710785,-8.443818092346191,-134,7088.0,53.67995071411133,783,9984.0
8780,0.2589825987815857,-4.939349174499512,-75,7088.0,27.447959899902344,314,9984.0
8790,0.25929954648017883,-2.0445103645324707,0,7088.0,-3.593106269836426,-241,9984.0
8800,0.2592799663543701,-2.5618231296539307,-77,7088.0,-35.77203369140625,-614,9984.0
8810,0.2605019509792328,-5.711756229400635,-58,7088.0,-63.36750411987305,-1198,9984.0
8820,0.26047882437705994,-8.413068771362305,-179,7088.0,-80.27202606201172,-1292,9984.0
8830,0.26040080189704895,-11.423796653747559,-156,7088.0,-85.92362213134766,-1404,9984.0
8840,0.2613554298877716,-8.683595657348633,-62,7088.0,-79.69892883300781,-1283,9984.0
8850,0.26037487387657166,4.975995063781738,111,7088.0,-59.33901596069336,-715,9984.0
8860,0.2608164846897125,8.729680061340332,129,7088.0,-13.266170501708984,56,9984.0
8870,0.2616199851036072,12.201912879943848,311,7088.0,32.75506591796875,636,9984.0
8880,0.26242682337760925,22.96205711364746,435,7088.0,70.5602035522461,1226,9984.0
8890,0.26143282651901245,22.432832717895508,254,7088.0,81.20619201660156,1408,9984.0
8900,0.26156333088874817,16.64240074157715,352,7088.0,76.60860443115234,1086,9984.0
8910,0.2618970274925232,14.728662490844727,196,7088.0,59.977455139160156,931,9984.0
8920,0.2642185389995575,12.98379898071289,182,7088.0,31.09589195251465,292,9984.0
8930,0.26467740535736084,11.23952579498291,205,7088.0,-10.682945251464844,-372,9984.0
8940,0.2651260793209076,9.70355224609375,181,7088.0,-46.96961975097656,-844,9984.0
8950,0.265887051820755,4.466940402984619,54,7088.0,-73.51729583740234,-1317,9984.0
8960,0.2664032280445099,-9.614960670471191,-300,7088.0,-87.18314361572266,-1406,9984.0
8970,0.26822927594184875,-22.12842559814453,-378,7088.0,-91.25880432128906,-1415,9984.0
8980,0.2684108018875122,-27.71990203857422,-387,7088.0,-85.17150115966797,-1439,9984.0
8990,0.26940464973449707,-30.93243980407715,-546,7088.0,-69.20899200439453,-1047,9984.0
9000,0.27041804790496826,-34.04438781738281,-640,7088.0,-39.68809509277344,-383,9984.0
9010,0.2730005085468292,-31.63686752319336,-518,7088.0,15.474249839782715,578,9984.0
9020,0.27492213249206543,-23.084558486938477,-313,7088.0,56.058502197265625,1041,9984.0
9030,0.2748435139656067,-14.6121244430542,-199,7088.0,79.11740112304688,1269,9984.0
9040,0.276142418384552,3.1994800567626953,133,7088.0,88.191650390625,1538,9984.0
9050,0.2783498466014862,24.52167320251465,462,7088.0,83.02027893066406,1253,9984.0
9060,0.2796638309955597,31.59044075012207,493,7088.0,68.90531158447266,1193,9984.0
9070,0.27994969487190247,27.632808685302734,478,7088.0,47.87004089355469,503,9984.0
9080,0.28130459785461426,17.397319793701172,153,7088.0,10.115344047546387,122,9984.0
9090,0.28309378027915955,6.339684963226318,186,7088.0,-25.21116065979004,-744,9984.0
9100,0.28442588448524475,5.182806968688965,46,7088.0,-58.15337371826172,-963,9984.0
9110,0.2844931483268738,-0.015243547037243843,-47,7088.0,-73.05078887939453,-1258,9984.0
9120,0.2852543890476227,-0.8321980237960815,43,7088.0,-82.16594696044922,-1417,9984.0
9130,0.2864813506603241,3.583413600921631,17,7088.0,-83.02964782714844,-1260,9984.0
9140,0.28733158111572266,7.951509475708008,70,7088.0,-74.97785949707031,-1032,9984.0
9150,0.2885085642337799,1.5991493463516235,-13,7088.0,-46.66233444213867,-673,9984.0
9160,0.287466436624527,-12.883974075317383,-232,7088.0,-27.330562591552734,-474,9984.0
9170,0.2888418734073639,-21.34392738342285,-368,7088.0,2.4766781330108643,235,9984.0
9180,0.2902752757072449,-11.82674789428711,-148,7088.0,51.31629943847656,1090,9984.0
9190,0.2917836904525757,5.234594345092773,161,7088.0,85.47941589355469,1652,9984.0
9200,0.29139962792396545,24.568334579467773,512,7088.0,107.82207489013672,1843,9984.0
9210,0.2928428649902344,36.33202362060547,662,7088.0,116.32978057861328,1804,9984.0
9220,0.29335740208625793,36.08715057373047,505,7088.0,100.00927734375,1556,9984.0
9230,0.2937726676464081,24.782106399536133,347,7088.0,66.08624267578125,744,9984.0
9240,0.29495614767074585,5.242061614990234,-16,7088.0,17.302734375,-12,9984.0
9250,0.29825323820114136,-16.449647903442383,-358,7088.0,-33.368919372558594,-801,9984.0
9260,0.29932454228401184,-29.540525436401367,-451,7088.0,-78.88667297363281,-1591,9984.0
9270,0.30043289065361023,-26.739381790161133,-426,7088.0,-113.34165954589844,-1897,9984.0
9280,0.30155837535858154,-17.987789154052734,-262,7088.0,-129.39208984375,-2118,9984.0
9290,0.30180931091308594,-11.761316299438477,-115,7088.0,-128.9395294189453,-2060,9984.0
9300,0.3027862012386322,-2.3694286346435547,41,7088.0,-103.30730438232422,-1457,9984.0
9310,0.3034128248691559,12.43160343170166,203,7088.0,-49.93545913696289,-460,9984.0
9320,0.30596598982810974,20.646774291992188,245,7088.0,-1.9154356718063354,353,9984.0
9330,0.30534660816192627,16.535778045654297,219,7088.0,39.709503173828125,950,9984.0
9340,0.3064602315425873,8.816736221313477,96,7088.0,80.92973327636719,1544,9984.0
9350,0.3077518343925476,2.962007999420166,101,7088.0,100.82293701171875,1619,9984.0
9360,0.3087301254272461,0.6559150218963623,119,7088.0,108.86054992675781,1656,9984.0
9370,0.30942609906196594,-5.077734470367432,-129,7088.0,93.94871520996094,1353,9984.0
9380,0.31061577796936035,-12.6334867477417,-314,7088.0,56.17298889160156,817,9984.0
9390,0.3114432394504547,-23.408639907836914,-409,7088.0,6.757723808288574,-60,9984.0
9400,0.31217509508132935,-28.672378540039062,-437,7088.0,-33.51500701904297,-796,9984.0
9410,0.31334683299064636,-24.03740119934082,-440,7088.0,-65.84222412109375,-1078,9984.0
9420,0.312193900346756,-15.764370918273926,-240,7088.0,-83.74774932861328,-1390,9984.0
9430,0.3129372298717499,-8.234164237976074,-47,7088.0,-85.27850341796875,-1416,9984.0
9440,0.31357574462890625,0.9038636684417725,132,7088.0,-75.30205535888672,-1229,9984.0
9450,0.3141379952430725,16.478309631347656,289,7088.0,-50.794612884521484,-630,9984.0
9460,0.3160613477230072,23.113548278808594,351,7088.0,-13.46787166595459,-19,9984.0
9470,0.31646326184272766,23.71389389038086,353,7088.0,30.239974975585938,725,9984.0
9480,0.31734180450439453,24.045785903930664,326,7088.0,71.09032440185547,1367,9984.0
9490,0.3179708421230316,16.409894943237305,168,7088.0,100.4193344116211,1797,9984.0
9500,0.3185776472091675,2.409823417663574,26,7088.0,102.44985961914062,1620,9984.0
9510,0.3173564076423645,-21.143251419067383,-348,7088.0,84.93536376953125,1229,9984.0
9520,0.3176165223121643,-40.53716278076172,-767,7088.0,49.704978942871094,659,9984.0
9530,0.31787002086639404,-42.52499771118164,-596,7088.0,6.6578216552734375,-120,9984.0
9540,0.3185610771179199,-29.30470085144043,-403,7088.0,-34.63441467285156,-742,9984.0
9550,0.31766173243522644,-15.110529899597168,-212,7088.0,-66.13456726074219,-1116,9984.0
9560,0.3180704712867737,4.160574913024902,228,7088.0,-83.92644500732422,-1603,9984.0
9570,0.31845980882644653,18.98920249938965,319,7088.0,-98.95879364013672,-1615,9984.0
9580,0.3189113140106201,24.22456932067871,355,7088.0,-94.69682312011719,-1427,9984.0
9590,0.3192909061908722,24.503414154052734,402,7088.0,-70.05438995361328,-925,9984.0
9600,0.3181726932525635,14.721285820007324,245,7088.0,-12.63244915008545,-3,9984.0
9610,0.3189930319786072,5.313239097595215,162,7088.0,49.256587982177734,914,9984.0
9620,0.31973502039909363,2.1623375415802,-73,7088.0,73.86101531982422,1276,9984.0
9630,0.3202139139175415,-10.69616985321045,-306,7088.0,80.92887878417969,1357,9984.0
9640,0.31797248125076294,-26.58815574645996,-478,7088.0,70.63337707519531,1061,9984.0
9650,0.3182005286216736,-31.812070846557617,-473,7088.0,50.41481018066406,709,9984.0
9660,0.3188212513923645,-25.381153106689453,-429,7088.0,23.98724937438965,303,9984.0
9670,0.3190407156944275,-20.024330139160156,-214,7088.0,-6.846441745758057,-318,9984.0
9680,0.31964996457099915,-9.994189262390137,-224,7088.0,-35.85942840576172,-627,9984.0
9690,0.31864047050476074,3.5068109035491943,148,7088.0,-59.52323913574219,-1060,9984.0
9700,0.31905806064605713,14.996822357177734,323,7088.0,-75.16191864013672,-1329,9984.0
9710,0.31956133246421814,21.383316040039062,331,7088.0,-74.87330627441406,-1081,9984.0
9720,0.320102721452713,28.101261138916016,399,7088.0,-59.787567138671875,-823,9984.0
9730,0.31799545884132385,18.349266052246094,306,7088.0,-29.375289916992188,-322,9984.0
9740,0.31890201568603516,5.63076114654541,140,7088.0,14.218485832214355,371,9984.0
9750,0.3199262022972107,2.1048243045806885,16,7088.0,59.14875411987305,1063,9984.0
9760,0.32070544362068176,5.216677665710449,49,7088.0,94.463623046875,1770,9984.0
9770,0.3199959695339203,10.91590690612793,194,7088.0,113.26810455322266,1904,9984.0
9780,0.3203212320804596,17.243717193603516,407,7088.0,111.33164978027344,1656,9984.0
9790,0.32169800996780396,23.69370460510254,316,7088.0,84.44818878173828,1281,9984.0
9800,0.32162347435951233,19.671945571899414,377,7088.0,43.68579864501953,503,9984.0
9810,0.3223169147968292,11.26275634765625,50,7088.0,-0.7253838777542114,-69,9984.0
9820,0.3237915337085724,0.6656501889228821,33,7088.0,-43.93899154663086,-920,9984.0
9830,0.32412728667259216,3.5430428981781006,133,7088.0,-78.58081817626953,-1512,9984.0
9840,0.32525381445884705,4.855648994445801,40,7088.0,-105.87957000732422,-1729,9984.0
9850,0.32573840022087097,3.932213544845581,42,7088.0,-122.37367248535156,-2067,9984.0
9860,0.32462233304977417,-2.833308458328247,-31,7088.0,-128.10064697265625,-2042,9984.0
9870,0.3261478841304779,-5.282427787780762,-57,7088.0,-99.47186279296875,-1405,9984.0
9880,0.32676106691360474,0.6451849341392517,27,7088.0,-49.35823440551758,-427,9984.0
9890,0.3276200294494629,3.4250941276550293,3,7088.0,7.151795864105225,466,9984.0
9900,0.32909685373306274,2.0307207107543945,12,7088.0,59.499515533447266,1284,9984.0
9910,0.32610249519348145,-0.5371792316436768,-76,7088.0,99.92916870117188,1899,9984.0
9920,0.3271084427833557,-5.238515853881836,-51,7088.0,119.85990905761719,1870,9984.0
9930,0.3276310861110687,-11.724496841430664,-258,7088.0,115.8991470336914,1748,9984.0
9940,0.3280458152294159,-18.093477249145508,-394,7088.0,84.0640640258789,1247,9984.0
9950,0.326249361038208,-18.740896224975586,-239,7088.0,38.970829010009766,272,9984.0
9960,0.32661107182502747,-9.28127384185791,-82,7088.0,-1.787293791770935,-169,9984.0
9970,0.32721468806266785,2.3991949558258057,24,7088.0,-37.60700225830078,-819,9984.0
9980,0.3280705213546753,5.209472179412842,137,7088.0,-58.538780212402344,-1010,9984.0
9990,0.3279717266559601,4.720668792724609,44,7088.0,-66.45186614990234,-1082,9984.0
10000,0.32867422699928284,2.5600357055664062,52,7088.0,-66.2193603515625,-945,9984.0
10010,0.32940444350242615,11.351983070373535,285,7088.0,-49.06309509277344,-701,9984.0
10020,0.33055514097213745,24.913713455200195,562,7088.0,-10.769065856933594,-3,9984.0
10030,0.3319235146045685,36.00530242919922,568,7088.0,26.527257919311523,515,9984.0
10040,0.3296552002429962,25.9635066986084,351,7088.0,65.98121643066406,1270,9984.0
10050,0.33024725317955017,14.831913948059082,99,7088.0,88.65484619140625,1513,9984.0
10060,0.33077436685562134,0.5092378258705139,-106,7088.0,88.85662078857422,1543,9984.0
10070,0.33185356855392456,-14.090572357177734,-250,7088.0,78.35862731933594,1238,9984.0
10080,0.3294418752193451,-30.071598052978516,-480,7088.0,51.94264221191406,637,9984.0
10090,0.3293793201446533,-43.057308197021484,-827,7088.0,8.35876178741455,7,9984.0
10100,0.33008697628974915,-50.688411712646484,-782,7088.0,-34.0047721862793,-747,9984.0
10110,0.3306073546409607,-41.59660339355469,-547,7088.0,-68.7856216430664,-1287,9984.0
10120,0.3310893774032593,-25.94449806213379,-463,7088.0,-93.89044952392578,-1558,9984.0
10130,0.32924938201904297,-21.391756057739258,-301,7088.0,-117.80690002441406,-1974,9984.0
10140,0.32947760820388794,-15.481681823730469,-149,7088.0,-133.11878967285156,-2285,9984.0
10150,0.32924726605415344,1.1203478574752808,181,7088.0,-116.19224548339844,-1764,9984.0
10160,0.33118709921836853,33.09785461425781,669,7088.0,-68.25357055664062,-810,9984.0
10170,0.32705453038215637,62.92201614379883,1068,7088.0,-6.693451404571533,230,9984.0
10180,0.32768550515174866,67.90031433105469,1028,7088.0,46.18574142456055,1040,9984.0
10190,0.3285922110080719,46.07368850708008,657,7088.0,88.54676055908203,1695,9984.0
10200,0.3296123743057251,11.903230667114258,72,7088.0,114.09706115722656,1863,9984.0
10210,0.3267780840396881,-24.048513412475586,-427,7088.0,113.71553039550781,1740,9984.0
10220,0.3270706832408905,-41.87191390991211,-728,7088.0,89.31389617919922,1218,9984.0
10230,0.3268297612667084,-50.860740661621094,-828,7088.0,49.743797302246094,724,9984.0
10240,0.3277072608470917,-43.7560920715332,-606,7088.0,14.674410820007324,-23,9984.0
10250,0.32762280106544495,-36.26150894165039,-623,7088.0,-26.179655075073242,-526,9984.0
10260,0.3251432180404663,-25.383647918701172,-263,7088.0,-53.88756561279297,-1138,9984.0
10270,0.3252680003643036,-8.865877151489258,-123,7088.0,-77.76494598388672,-1275,9984.0
10280,0.3250651955604553,-0.9855743646621704,-56,7088.0,-91.04082489013672,-1400,9984.0
10290,0.32492291927337646,5.109859943389893,213,7088.0,-84.9571533203125,-1386,9984.0
10300,0.32160860300064087,19.92443084716797,399,7088.0,-64.53486633300781,-992,9984.0
10310,0.32187873125076294,33.62686538696289,564,7088.0,-24.753917694091797,-87,9984.0
10320,0.32243573665618896,43.164337158203125,665,7088.0,28.923803329467773,742,9984.0
10330,0.322917640209198,40.927635192871094,723,7088.0,70.63829803466797,1286,9984.0
10340,0.32334819436073303,40.31943130493164,722,7088.0,99.43617248535156,1699,9984.0
10350,0.32151445746421814,35.14105224609375,416,7088.0,119.09961700439453,1986,9984.0
10360,0.3221323490142822,6.125135898590088,-94,7088.0,113.45252990722656,1747,9984.0
10370,0.32207950949668884,-24.66959571838379,-564,7088.0,75.93160247802734,887,9984.0
10380,0.32202446460723877,-51.26142120361328,-896,7088.0,9.295516967773438,-71,9984.0
10390,0.32263994216918945,-56.41849136352539,-882,7088.0,-41.75403594970703,-990,9984.0
10400,0.32282495498657227,-40.827152252197266,-512,7088.0,-100.90511322021484,-1937,9984.0
10410,0.3232184946537018,-22.794200897216797,-309,7088.0,-134.28004455566406,-2245,9984.0
10420,0.3232852518558502,7.664608001708984,362,7088.0,-150.01451110839844,-2545,9984.0
10430,0.3233219385147095,32.35542678833008,492,7088.0,-141.41644287109375,-2060,9984.0
10440,0.3256946802139282,28.87318992614746,452,7088.0,-110.31294250488281,-1721,9984.0
10450,0.3259759247303009,7.321415901184082,-40,7088.0,-85.40642547607422,-1217,9984.0
10460,0.3272746503353119,-16.509483337402344,-398,7088.0,-33.92865753173828,-195,9984.0
10470,0.3290724456310272,-15.555678367614746,-140,7088.0,23.624998092651367,787,9984.0
10480,0.3296763300895691,5.951252460479736,362,7088.0,82.8011474609375,1401,9984.0
10490,0.3311504125595093,29.176530838012695,510,7088.0,111.93444061279297,1954,9984.0
10500,0.3326556384563446,35.8133430480957,477,7088.0,117.83668518066406,1956,9984.0
10510,0.33395010232925415,23.549270629882812,385,7088.0,109.6136245727539,1695,9984.0
10520,0.33302071690559387,10.075855255126953,68,7088.0,95.1859130859375,1458,9984.0
10530,0.33529791235923767,5.698684215545654,105,7088.0,60.2763786315918,650,9984.0
10540,0.336620956659317,4.158321380615234,85,7088.0,23.59611701965332,179,9984.0
10550,0.3380759656429291,11.1121244430542,263,7088.0,-12.217191696166992,-381,9984.0
10560,0.3380419909954071,17.81207275390625,352,7088.0,-42.42682647705078,-921,9984.0
10570,0.3393535614013672,20.05046272277832,300,7088.0,-53.650272369384766,-857,9984.0
10580,0.3407144546508789,16.247604370117188,193,7088.0,-47.209285736083984,-666,9984.0
10590,0.34189265966415405,9.202319145202637,146,7088.0,-34.452327728271484,-440,9984.0
10600,0.3429904580116272,-0.6681787371635437,-43,7088.0,-10.348039627075195,-18,9984.0
10610,0.3429396152496338,-11.455631256103516,-240,7088.0,19.273969650268555,509,9984.0
10620,0.34397265315055847,-23.45875358581543,-409,7088.0,56.07413864135742,1097,9984.0
10630,0.3447607457637787,-34.05147171020508,-502,7088.0,86.0851821899414,1381,9984.0
10640,0.3450310230255127,-35.46257019042969,-511,7088.0,91.80146789550781,1366,9984.0
10650,0.34612733125686646,-33.01108932495117,-547,7088.0,68.40973663330078,987,9984.0
10660,0.34632745385169983,-21.351030349731445,-320,7088.0,39.813297271728516,622,9984.0
10670,0.34654927253723145,-8.385592460632324,-66,7088.0,11.04980182647705,21,9984.0
10680,0.34660637378692627,-8.08371639251709,-163,7088.0,-21.453123092651367,-473,9984.0
10690,0.34652945399284363,-7.3823065757751465,-136,7088.0,-48.414955139160156,-806,9984.0
10700,0.3484579920768738,-2.6927237510681152,-41,7088.0,-69.58168029785156,-1141,9984.0
10710,0.3484693169593811,-1.0395220518112183,52,7088.0,-74.40409851074219,-1266,9984.0
10720,0.34861600399017334,1.0002222061157227,38,7088.0,-67.98833465576172,-1104,9984.0
10730,0.34901243448257446,1.1357762813568115,3,7088.0,-47.07698059082031,-664,9984.0
10740,0.34869956970214844,0.5563740134239197,-98,7088.0,-9.202194213867188,57,9984.0
10750,0.3487936556339264,-1.2708568572998047,-100,7088.0,29.72618865966797,772,9984.0
10760,0.3489263951778412,5.192879676818848,34,7088.0,64.05789947509766,1220,9984.0
10770,0.3489282727241516,4.848034858703613,87,7088.0,86.87246704101562,1534,9984.0
10780,0.34793248772621155,1.3898354768753052,56,7088.0,92.54061889648438,1405,9984.0
10790,0.34752973914146423,2.1599769592285156,94,7088.0,68.89994049072266,914,9984.0
10800,0.3475017249584198,-2.221186399459839,-192,7088.0,27.33148765563965,298,9984.0
10810,0.34819847345352173,-15.58071231842041,-227,7088.0,-16.168798446655273,-621,9984.0
10820,0.3488505482673645,-24.514009475708008,-470,7088.0,-56.4703254699707,-1055,9984.0
10830,0.3494226336479187,-25.934255599975586,-357,7088.0,-89.96888732910156,-1567,9984.0
10840,0.34962183237075806,-15.984333038330078,-193,7088.0,-111.34319305419922,-1965,9984.0
10850,0.3500337600708008,-1.8162055015563965,4,7088.0,-122.741455078125,-1987,9984.0
10860,0.35031893849372864,6.395535945892334,43,7088.0,-118.93560791015625,-1812,9984.0
10870,0.3502136170864105,7.32534122467041,203,7088.0,-108.94673919677734,-1710,9984.0
10880,0.35053807497024536,17.57450294494629,407,7088.0,-76.9731216430664,-1174,9984.0
10890,0.3508840799331665,27.804658889770508,553,7088.0,-26.021642684936523,-175,9984.0
10900,0.3536124527454376,43.96814727783203,714,7088.0,28.667888641357422,610,9984.0
10910,0.3547298312187195,47.85295486450195,690,7088.0,76.52890014648438,1437,9984.0
10920,0.35038816928863525,33.48936080932617,386,7088.0,103.35421752929688,1833,9984.0
10930,0.3507491946220398,14.690948486328125,164,7088.0,112.36854553222656,1940,9984.0
10940,0.3518940508365631,-3.7132771015167236,-93,7088.0,100.76124572753906,1542,9984.0
10950,0.35202422738075256,-14.389792442321777,-248,7088.0,65.88253021240234,895,9984.0
10960,0.34980401396751404,-15.93850040435791,-363,7088.0,24.896142959594727,295,9984.0
10970,0.35007208585739136,-20.235607147216797,-261,7088.0,-11.546649932861328,-475,9984.0
10980,0.35024744272232056,-19.366985321044922,-302,7088.0,-46.209598541259766,-788,9984.0
10990,0.3504642844200134,-11.734081268310547,-183,7088.0,-71.96002960205078,-1206,9984.0
11000,0.3492627441883087,-9.555318832397461,-104,7088.0,-82.1398696899414,-1462,9984.0
11010,0.34928610920906067,-8.101334571838379,-136,7088.0,-83.48406982421875,-1295,9984.0
11020,0.34955543279647827,1.5471445322036743,28,7088.0,-64.5144271850586,-813,9984.0
11030,0.3498343527317047,22.977294921875,492,7088.0,-27.236587524414062,-275,9984.0
11040,0.3502891957759857,20.618038177490234,287,7088.0,4.052669048309326,128,9984.0
11050,0.34799668192863464,9.717206954956055,212,7088.0,40.7593994140625,769,9984.0
11060,0.3482612073421478,10.443855285644531,160,7088.0,72.06867218017578,1263,9984.0
11070,0.34833717346191406,10.322145462036133,104,7088.0,91.65420532226562,1560,9984.0
11080,0.34816402196884155,8.602099418640137,45,7088.0,91.30896759033203,1533,9984.0
11090,0.3468453288078308,11.573208808898926,199,7088.0,66.33451843261719,897,9984.0
11100,0.34735578298568726,3.3031222820281982,-124,7088.0,32.60782241821289,307,9984.0
11110,0.3476746678352356,-23.898408889770508,-611,7088.0,0.8769110441207886,-82,9984.0
11120,0.3479190766811371,-53.11035919189453,-914,7088.0,-33.18037796020508,-734,9984.0
11130,0.34957027435302734,-62.45939636230469,-899,7088.0,-65.30006408691406,-1316,9984.0
11140,0.34976568818092346,-44.589054107666016,-652,7088.0,-90.41356658935547,-1547,9984.0
11150,0.34997376799583435,-16.948577880859375,-80,7088.0,-102.89073944091797,-1638,9984.0
11160,0.34993264079093933,6.949538707733154,210,7088.0,-91.28524780273438,-1465,9984.0
11170,0.35010600090026855,15.736656188964844,254,7088.0,-66.77104949951172,-864,9984.0
11180,0.34950828552246094,18.339250564575195,280,7088.0,-21.541255950927734,-16,9984.0
11190,0.3496564030647278,27.55494499206543,475,7088.0,30.770767211914062,861,9984.0
11200,0.35049891471862793,30.34188461303711,499,7088.0,67.41149139404297,1294,9984.0
11210,0.35127362608909607,23.543209075927734,389,7088.0,88.15363311767578,1378,9984.0
11220,0.35071542859077454,12.9368257522583,251,7088.0,88.60575103759766,1343,9984.0
11230,0.3507533669471741,-1.0256736278533936,-180,7088.0,72.08543395996094,1108,9984.0
11240,0.35083135962486267,-17.732942581176758,-382,7088.0,51.6170768737793,650,9984.0
11250,0.3510318100452423,-26.393709182739258,-434,7088.0,18.038127899169922,28,9984.0
11260,0.3512986898422241,-27.159523010253906,-470,7088.0,-15.653216361999512,-325,9984.0
11270,0.35214686393737793,-13.535735130310059,-117,7088.0,-32.792236328125,-713,9984.0
11280,0.3524059057235718,6.224658012390137,199,7088.0,-41.28517532348633,-773,9984.0
11290,0.35283344984054565,17.31488037109375,211,7088.0,-49.86146926879883,-679,9984.0
11300,0.353241503238678,15.309956550598145,198,7088.0,-37.02046585083008,-487,9984.0
11310,0.35413944721221924,14.213109016418457,307,7088.0,-9.027994155883789,-42,9984.0
11320,0.3545170724391937,18.29265594482422,332,7088.0,25.685380935668945,546,9984.0
11330,0.3549761176109314,23.872272491455078,346,7088.0,51.42433547973633,1017,9984.0
11340,0.3553886413574219,22.021087646484375,282,7088.0,67.2292251586914,1242,9984.0
11350,0.3570730686187744,16.899307250976562,373,7088.0,75.35322570800781,1170,9984.0
11360,0.35743576288223267,22.27497673034668,397,7088.0,72.18866729736328,1110,9984.0
11370,0.3574763834476471,25.086896896362305,369,7088.0,54.360233306884766,880,9984.0
11380,0.35752570629119873,26.225341796875,513,7088.0,27.41261100769043,160,9984.0
11390,0.3583286702632904,32.244873046875,454,7088.0,0.45438912510871887,-31,9984.0
11400,0.3604191243648529,15.907383918762207,136,7088.0,-9.211443901062012,-109,9984.0
11410,0.3603835999965668,-9.41351318359375,-177,7088.0,-13.39883804321289,-284,9984.0
11420,0.3604816794395447,-18.899457931518555,-299,7088.0,-11.108784675598145,-206,9984.0
11430,0.3605771064758301,-17.434518814086914,-316,7088.0,-5.328959941864014,49,9984.0
11440,0.3623228669166565,-17.0122013092041,-349,7088.0,0.06952590495347977,51,9984.0
11450,0.3626389801502228,-20.025468826293945,-307,7088.0,-7.652605056762695,-231,9984.0
11460,0.3630172610282898,-27.336748123168945,-460,7088.0,-14.216785430908203,-279,9984.0
11470,0.3634188175201416,-30.760452270507812,-523,7088.0,-10.963598251342773,-96,9984.0
11480,0.363712340593338,-20.103845596313477,-281,7088.0,11.679760932922363,400,9984.0
11490,0.3635689914226532,4.6477179527282715,291,7088.0,33.42934036254883,537,9984.0
11500,0.36366841197013855,32.46503448486328,594,7088.0,41.9011116027832,686,9984.0
11510,0.3641243278980255,36.044429779052734,463,7088.0,33.52906036376953,525,9984.0
11520,0.3641621172428131,13.946785926818848,114,7088.0,13.045900344848633,108,9984.0
11530,0.36507129669189453,-12.98353099822998,-253,7088.0,-14.261619567871094,-485,9984.0
11540,0.36529648303985596,-22.7403621673584,-434,7088.0,-50.31833267211914,-932,9984.0
11550,0.36533358693122864,-18.365127563476562,-276,7088.0,-76.76001739501953,-1289,9984.0
11560,0.3651956617832184,-11.371930122375488,-62,7088.0,-79.95991516113281,-1375,9984.0
11570,0.36527541279792786,-8.405318260192871,-69,7088.0,-80.38240814208984,-1444,9984.0
11580,0.3653751015663147,-2.5630991458892822,-9,7088.0,-76.88882446289062,-1207,9984.0
11590,0.36577925086021423,-0.12464971095323563,-47,7088.0,-66.6033706665039,-935,9984.0
11600,0.3660200238227844,-2.6330418586730957,-188,7088.0,-34.31179428100586,-278,9984.0
11610,0.36655884981155396,-19.93605613708496,-395,7088.0,19.076025009155273,603,9984.0
11620,0.36670610308647156,-35.719932556152344,-613,7088.0,67.08924865722656,1294,9984.0
11630,0.36707547307014465,-38.24888229370117,-520,7088.0,96.32789611816406,1542,9984.0
11640,0.3673231601715088,-35.84311294555664,-570,7088.0,96.03636932373047,1551,9984.0
11650,0.36769962310791016,-34.85222244262695,-564,7088.0,79.62017822265625,1237,9984.0
11660,0.36775141954421997,-21.340106964111328,-230,7088.0,59.43937683105469,916,9984.0
11670,0.3680158853530884,4.998881816864014,296,7088.0,33.095726013183594,314,9984.0
11680,0.3691384494304657,39.63824462890625,737,7088.0,-8.72879695892334,-276,9984.0
11690,0.3695147931575775,63.72742462158203,1262,7088.0,-54.20780563354492,-1174,9984.0
11700,0.36920827627182007,89.15243530273438,1519,7088.0,-88.51737213134766,-1516,9984.0
11710,0.36910560727119446,97.49004364013672,1492,7088.0,-104.82390594482422,-1637,9984.0
11720,0.3701429069042206,85.16520690917969,1404,7088.0,-111.22637939453125,-1872,9984.0
11730,0.36995258927345276,66.66744232177734,1029,7088.0,-108.9953384399414,-1843,9984.0
11740,0.36916589736938477,27.4031982421875,254,7088.0,-100.4030532836914,-1610,9984.0
11750,0.36701321601867676,-28.422868728637695,-709,7088.0,-75.01766204833984,-1160,9984.0
11760,0.3686709702014923,-72.39385223388672,-1382,7088.0,-32.658172607421875,-417,9984.0
11770,0.3692467510700226,-100.4570541381836,-1664,7088.0,8.989264488220215,250,9984.0
11780,0.36987435817718506,-106.14850616455078,-1694,7088.0,43.3558349609375,860,9984.0
11790,0.36844098567962646,-89.65255737304688,-1397,7088.0,68.21842193603516,1212,9984.0
11800,0.36917001008987427,-66.13494873046875,-992,7088.0,78.07313537597656,1413,9984.0
11810,0.3694227933883667,-35.8040771484375,-323,7088.0,77.8238754272461,1069,9984.0
11820,0.3694028854370117,0.3786942958831787,171,7088.0,58.22367477416992,811,9984.0
11830,0.370394229888916,34.0770263671875,833,7088.0,29.73207664489746,284,9984.0
11840,0.3677024841308594,60.38638687133789,1074,7088.0,5.788024425506592,13,9984.0
11850,0.3675929605960846,74.02363586425781,1156,7088.0,-9.891119003295898,-152,9984.0
11860,0.36742502450942993,77.10375213623047,1304,7088.0,-23.46970558166504,-458,9984.0
11870,0.36745086312294006,72.49250030517578,1177,7088.0,-29.271930694580078,-576,9984.0
11880,0.365718811750412,57.558921813964844,701,7088.0,-20.880172729492188,-333,9984.0
11890,0.36557722091674805,10.564281463623047,-137,7088.0,-13.328262329101562,-202,9984.0
11900,0.3657073676586151,-30.811506271362305,-659,7088.0,-3.198693037033081,-18,9984.0
11910,0.36616790294647217,-48.777923583984375,-776,7088.0,28.474945068359375,575,9984.0
11920,0.36597543954849243,-53.229835510253906,-950,7088.0,51.919403076171875,866,9984.0
11930,0.3646281659603119,-60.09202575683594,-944,7088.0,65.03285217285156,1066,9984.0
11940,0.364307701587677,-58.67702102661133,-986,7088.0,64.48384857177734,1049,9984.0
11950,0.3638521134853363,-54.28132247924805,-951,7088.0,58.797119140625,844,9984.0
11960,0.36432209610939026,-52.47604751586914,-722,7088.0,44.181644439697266,506,9984.0
11970,0.3627481758594513,-39.64763641357422,-596,7088.0,28.50895118713379,485,9984.0
11980,0.36242783069610596,-23.64777374267578,-195,7088.0,16.395936965942383,77,9984.0
11990,0.3626629114151001,7.195751667022705,321,7088.0,-7.557351589202881,-281,9984.0
12000,0.3628111779689789,53.15068817138672,1055,7088.0,-38.947689056396484,-674,9984.0
12010,0.36226871609687805,78.5943603515625,1392,7088.0,-47.283660888671875,-842,9984.0
12020,0.36242786049842834,88.84739685058594,1413,7088.0,-39.188926696777344,-541,9984.0
12030,0.3625833988189697,74.92111206054688,1062,7088.0,-22.79533576965332,-218,9984.0
12040,0.3629765510559082,42.83662796020508,548,7088.0,-7.835990905761719,48,9984.0
12050,0.3644290566444397,9.414732933044434,-3,7088.0,13.109487533569336,402,9984.0
12060,0.36314111948013306,-14.76906681060791,-323,7088.0,41.29764938354492,895,9984.0
12070,0.36338791251182556,-32.053768157958984,-529,7088.0,65.95020294189453,1229,9984.0
12080,0.3635958731174469,-36.160274505615234,-592,7088.0,74.44202423095703,1182,9984.0
12090,0.3638954758644104,-34.15081024169922,-442,7088.0,66.51985168457031,915,9984.0
12100,0.3613675832748413,-26.17979621887207,-408,7088.0,47.62813949584961,695,9984.0
12110,0.3609364628791809,-17.330854415893555,-288,7088.0,20.75639533996582,270,9984.0
12120,0.36126086115837097,-2.1927120685577393,74,7088.0,-6.326744079589844,-201,9984.0
12130,0.361224502325058,16.32710838317871,418,7088.0,-23.423904418945312,-544,9984.0
12140,0.3600115478038788,29.38286018371582,449,7088.0,-34.65032958984375,-584,9984.0
12150,0.3598704934120178,34.22620391845703,500,7088.0,-48.10069274902344,-753,9984.0
12160,0.35977885127067566,32.83302307128906,464,7088.0,-52.27165985107422,-711,9984.0
12170,0.35996487736701965,26.61292266845703,352,7088.0,-36.999290466308594,-463,9984.0
12180,0.359772652387619,18.326513290405273,240,7088.0,-11.337546348571777,55,9984.0
12190,0.3609561324119568,2.368293046951294,-50,7088.0,14.89743709564209,451,9984.0
12200,0.36105838418006897,-24.990243911743164,-514,7088.0,37.653385162353516,781,9984.0
12210,0.3611496686935425,-45.17192459106445,-815,7088.0,47.48820877075195,910,9984.0
12220,0.36107417941093445,-55.71440505981445,-914,7088.0,47.84267044067383,714,9984.0
12230,0.36020970344543457,-54.046085357666016,-739,7088.0,35.493831634521484,358,9984.0
12240,0.3600727319717407,-38.839454650878906,-525,7088.0,9.920289993286133,24,9984.0
12250,0.3600168824195862,-20.98714256286621,-236,7088.0,-18.166189193725586,-357,9984.0
12260,0.3602665662765503,1.924723744392395,155,7088.0,-44.03293228149414,-837,9984.0
12270,0.36026814579963684,14.169191360473633,272,7088.0,-56.28606033325195,-1017,9984.0
12280,0.35963088274002075,27.163606643676758,410,7088.0,-61.134090423583984,-923,9984.0
12290,0.35959556698799133,29.725311279296875,464,7088.0,-53.843109130859375,-764,9984.0
12300,0.35959094762802124,32.21379852294922,541,7088.0,-46.38003921508789,-636,9984.0
12310,0.359565794467926,30.959793090820312,442,7088.0,-37.51639938354492,-493,9984.0
12320,0.35731154680252075,19.866994857788086,229,7088.0,-28.02872657775879,-282,9984.0
12330,0.35780829191207886,0.797441303730011,-101,7088.0,-14.287452697753906,-108,9984.0
12340,0.35807880759239197,-22.36554718017578,-477,7088.0,-8.834953308105469,-20,9984.0
12350,0.358586847782135,-49.997528076171875,-933,7088.0,3.069432020187378,198,9984.0
12360,0.3564265966415405,-66.89952850341797,-1173,7088.0,20.130342483520508,499,9984.0
12370,0.356207013130188,-78.56884002685547,-1354,7088.0,27.922136306762695,494,9984.0
12380,0.3558045029640198,-67.86309051513672,-1007,7088.0,30.203514099121094,475,9984.0
12390,0.3551623821258545,-58.1844596862793,-833,7088.0,30.34480857849121,317,9984.0
12400,0.35427433252334595,-53.387142181396484,-813,7088.0,14.057400703430176,108,9984.0
12410,0.3551618754863739,-38.40269088745117,-442,7088.0,-2.387326955795288,-112,9984.0
12420,0.35468319058418274,-4.348589897155762,105,7088.0,-14.265830993652344,-281,9984.0
12430,0.3547798991203308,25.133487701416016,609,7088.0,-33.73527526855469,-605,9984.0
12440,0.35543370246887207,60.70683670043945,1238,7088.0,-55.734806060791016,-1128,9984.0
12450,0.35478338599205017,87.0685806274414,1509,7088.0,-77.71631622314453,-1341,9984.0
12460,0.355178564786911,96.97067260742188,1571,7088.0,-87.4898910522461,-1390,9984.0
12470,0.3554672598838806,93.2609634399414,1316,7088.0,-79.57401275634766,-1145,9984.0
12480,0.3555484712123871,62.81636047363281,841,7088.0,-61.94480895996094,-713,9984.0
12490,0.3561868965625763,22.766733169555664,137,7088.0,-25.879592895507812,-72,9984.0
12500,0.35726335644721985,-17.54581069946289,-439,7088.0,18.701313018798828,710,9984.0
12510,0.35779863595962524,-43.124671936035156,-884,7088.0,61.088871002197266,1210,9984.0
12520,0.358196496963501,-64.22334289550781,-1196,7088.0,81.0239028930664,1423,9984.0
12530,0.3580911457538605,-74.8384017944336,-1176,7088.0,82.1144027709961,1305,9984.0
12540,0.35837575793266296,-69.87788391113281,-1005,7088.0,69.25112915039062,982,9984.0
12550,0.35836416482925415,-52.36279296875,-758,7088.0,48.456398010253906,669,9984.0
12560,0.3587121069431305,-27.49906349182129,-214,7088.0,26.220487594604492,261,9984.0
12570,0.3586908280849457,7.179670333862305,228,7088.0,4.228732109069824,-64,9984.0
12580,0.3596121668815613,44.508426666259766,913,7088.0,-14.841508865356445,-359,9984.0
12590,0.3610706627368927,67.20551300048828,1111,7088.0,-38.73180389404297,-644,9984.0
12600,0.3616592288017273,72.88834381103516,1281,7088.0,-51.5495491027832,-906,9984.0
12610,0.3624987304210663,66.9235610961914,1067,7088.0,-59.71612548828125,-1002,9984.0
12620,0.36351391673088074,46.41805648803711,567,7088.0,-55.949485778808594,-831,9984.0
12630,0.36468273401260376,20.184743881225586,179,7088.0,-31.978229522705078,-273,9984.0
12640,0.36520785093307495,-1.2784706354141235,-54,7088.0,1.8580626249313354,232,9984.0
12650,0.3658303916454315,-9.70798110961914,-165,7088.0,25.773923873901367,493,9984.0
12660,0.36633288860321045,-21.1737003326416,-326,7088.0,41.606632232666016,627,9984.0
12670,0.36852121353149414,-27.29276466369629,-459,7088.0,47.89121627807617,790,9984.0
12680,0.36872804164886475,-30.97650146484375,-563,7088.0,42.4899787902832,769,9984.0
12690,0.3689268231391907,-31.921470642089844,-486,7088.0,39.7419548034668,530,9984.0
12700,0.36949586868286133,-20.397979736328125,-235,7088.0,29.506113052368164,369,9984.0
12710,0.3702841103076935,-1.3872897624969482,70,7088.0,7.856191158294678,79,9984.0
12720,0.3719838559627533,17.565074920654297,363,7088.0,-14.335627555847168,-418,9984.0
12730,0.37298980355262756,27.155426025390625,418,7088.0,-37.02099609375,-593,9984.0
12740,0.37369444966316223,21.19513702392578,362,7088.0,-44.329063415527344,-796,9984.0
12750,0.3745681941509247,3.6167657375335693,-30,7088.0,-41.06569290161133,-664,9984.0
12760,0.37502411007881165,-10.159518241882324,-247,7088.0,-28.582416534423828,-281,9984.0
12770,0.375571072101593,-13.851654052734375,-198,7088.0,-8.097821235656738,-57,9984.0
12780,0.37614601850509644,-12.423215866088867,-102,7088.0,16.112668991088867,278,9984.0
12790,0.3765352964401245,-8.754735946655273,-185,7088.0,39.67489242553711,758,9984.0
12800,0.37781959772109985,-4.0953779220581055,-28,7088.0,51.28530502319336,923,9984.0
12810,0.3779139518737793,15.98362922668457,356,7088.0,49.00768280029297,585,9984.0
12820,0.37817081809043884,28.07554054260254,449,7088.0,25.503135681152344,383,9984.0
12830,0.3780726492404938,28.875486373901367,560,7088.0,6.108404159545898,34,9984.0
12840,0.3781735301017761,25.79191017150879,287,7088.0,-7.90589714050293,-231,9984.0
12850,0.3792773187160492,8.342255592346191,43,7088.0,-24.627246856689453,-476,9984.0
12860,0.37972909212112427,-3.942880392074585,-59,7088.0,-47.73249435424805,-864,9984.0
12870,0.3796287775039673,-2.7756736278533936,-57,7088.0,-61.53499221801758,-1078,9984.0
12880,0.3795618712902069,-13.983100891113281,-336,7088.0,-55.887176513671875,-818,9984.0
12890,0.3794821500778198,-23.360321044921875,-382,7088.0,-50.35363006591797,-728,9984.0
12900,0.3791760504245758,-26.914302825927734,-400,7088.0,-40.08956527709961,-676,9984.0
12910,0.378981351852417,-35.29629898071289,-523,7088.0,-13.608606338500977,-123,9984.0
12920,0.37852942943573,-22.807649612426758,-346,7088.0,19.322599411010742,517,9984.0
12930,0.37829825282096863,-5.579010486602783,-17,7088.0,50.58549118041992,977,9984.0
12940,0.3751523494720459,8.825699806213379,243,7088.0,66.62335205078125,1041,9984.0
12950,0.3745775520801544,25.072940826416016,445,7088.0,60.29649353027344,1029,9984.0
12960,0.37395936250686646,36.542518615722656,635,7088.0,48.24739456176758,583,9984.0
12970,0.3729298710823059,38.04142761230469,517,7088.0,31.16193962097168,500,9984.0
12980,0.3708778917789459,29.8872127532959,515,7088.0,15.595623016357422,4,9984.0
12990,0.370156466960907,13.921195983886719,104,7088.0,-17.54262351989746,-375,9984.0
13000,0.37028682231903076,-2.1824874877929688,-9,7088.0,-52.835968017578125,-1002,9984.0
13010,0.37026193737983704,-22.145389556884766,-486,7088.0,-67.83905029296875,-1151,9984.0
13020,0.36867350339889526,-33.593379974365234,-557,7088.0,-74.21167755126953,-1194,9984.0
13030,0.36849990487098694,-24.84515380859375,-265,7088.0,-59.12567901611328,-936,9984.0
13040,0.3683769106864929,-14.999357223510742,-208,7088.0,-31.602680206298828,-396,9984.0
13050,0.36831191182136536,-9.10492992401123,-252,7088.0,-5.0880608558654785,177,9984.0
13060,0.36823123693466187,-8.984485626220703,-42,7088.0,23.291027069091797,474,9984.0
13070,0.3643280863761902,-0.8930375576019287,63,7088.0,46.412086486816406,841,9984.0
13080,0.36380720138549805,9.540568351745605,111,7088.0,60.328704833984375,1057,9984.0
13090,0.3630305230617523,18.315935134887695,416,7088.0,57.876251220703125,859,9984.0
13100,0.36252278089523315,30.1872501373291,494,7088.0,45.461585998535156,741,9984.0
13110,0.3618941009044647,35.496177673339844,605,7088.0,26.615427017211914,190,9984.0
13120,0.36111587285995483,28.57030487060547,357,7088.0,-4.052656650543213,-289,9984.0
13130,0.36045369505882263,15.595763206481934,206,7088.0,-36.90818405151367,-747,9984.0
13140,0.3597041368484497,5.052414894104004,21,7088.0,-57.39279556274414,-1125,9984.0
13150,0.3592870533466339,-0.836262583732605,-85,7088.0,-83.2726821899414,-1467,9984.0
13160,0.3579900860786438,-4.425460338592529,-61,7088.0,-102.21817016601562,-1666,9984.0
13170,0.3572919964790344,1.012044906616211,143,7088.0,-83.52780151367188,-1220,9984.0
13180,0.3565977215766907,0.5288689136505127,-14,7088.0,-47.87537384033203,-655,9984.0
13190,0.3563375174999237,-1.7860208749771118,-111,7088.0,-5.477881908416748,361,9984.0
13200,0.35531002283096313,-12.321490287780762,-292,7088.0,48.67400360107422,1213,9984.0
13210,0.3553212583065033,-14.67751407623291,-291,7088.0,98.315673828125,1720,9984.0
13220,0.3550249934196472,-10.877724647521973,-97,7088.0,123.13189697265625,1984,9984.0
13230,0.35444849729537964,-12.963042259216309,-263,7088.0,108.8923110961914,1575,9984.0
13240,0.35650724172592163,-15.295952796936035,-261,7088.0,75.72041320800781,1078,9984.0
13250,0.3559178113937378,-18.900463104248047,-223,7088.0,41.88425064086914,449,9984.0
13260,0.3557252585887909,-14.843247413635254,-270,7088.0,14.210445404052734,131,9984.0
13270,0.35569825768470764,-7.014565944671631,-21,7088.0,-14.263928413391113,-343,9984.0
13280,0.3558960556983948,-1.398612380027771,66,7088.0,-43.008419036865234,-903,9984.0
13290,0.35921943187713623,1.5732223987579346,-43,7088.0,-71.73551940917969,-1283,9984.0
13300,0.3597674071788788,-5.640388488769531,-130,7088.0,-81.60103607177734,-1368,9984.0
13310,0.3603106737136841,-16.187767028808594,-326,7088.0,-60.97456741333008,-773,9984.0
13320,0.3615393042564392,-16.40629005432129,-178,7088.0,-26.68309211730957,-338,9984.0
13330,0.3638700246810913,-9.403813362121582,-166,7088.0,10.73291015625,436,9984.0
13340,0.3648250699043274,0.9213218688964844,58,7088.0,51.226654052734375,1060,9984.0
13350,0.3656080663204193,8.64447021484375,142,7088.0,83.96055603027344,1411,9984.0
13360,0.3661808967590332,9.801678657531738,117,7088.0,95.72120666503906,1574,9984.0
13370,0.3665028512477875,7.498108863830566,162,7088.0,80.8082504272461,1208,9984.0
13380,0.36948761343955994,15.225876808166504,294,7088.0,47.730194091796875,591,9984.0
13390,0.3700907826423645,25.941194534301758,403,7088.0,7.571432590484619,13,9984.0
13400,0.3710111379623413,32.78260803222656,631,7088.0,-22.06470489501953,-512,9984.0
13410,0.37173470854759216,27.79567527770996,352,7088.0,-31.740365982055664,-442,9984.0
13420,0.3775176405906677,12.923649787902832,146,7088.0,-40.78047561645508,-699,9984.0
13430,0.3784211277961731,-3.9624478816986084,-59,7088.0,-44.85154342651367,-840,9984.0
13440,0.3795572519302368,-12.445565223693848,-354,7088.0,-49.10269546508789,-748,9984.0
13450,0.3806346654891968,-29.394916534423828,-541,7088.0,-49.23222732543945,-634,9984.0
13460,0.3835447430610657,-33.08148193359375,-455,7088.0,-25.61273956298828,-427,9984.0
13470,0.3845672607421875,-17.562864303588867,-131,7088.0,-10.31218433380127,-119,9984.0
13480,0.38583439588546753,5.033267021179199,126,7088.0,9.600192070007324,268,9984.0
13490,0.38695186376571655,17.215660095214844,223,7088.0,28.06072998046875,595,9984.0
13500,0.3879392445087433,9.700236320495605,107,7088.0,43.93009567260742,900,9984.0
13510,0.38882651925086975,0.35200440883636475,41,7088.0,54.93626403808594,834,9984.0
13520,0.38956549763679504,-13.51983642578125,-217,7088.0,49.004276275634766,618,9984.0
13530,0.39016473293304443,-21.62367057800293,-397,7088.0,25.632556915283203,340,9984.0
13540,0.3907373249530792,-30.38069725036621,-590,7088.0,0.591425359249115,44,9984.0
13550,0.3944507837295532,-35.09077835083008,-560,7088.0,-12.791169166564941,-219,9984.0
13560,0.39500802755355835,-26.762296676635742,-323,7088.0,-15.183332443237305,-359,9984.0
13570,0.3957847058773041,-17.26036834716797,-251,7088.0,-17.892751693725586,-324,9984.0
13580,0.3963751494884491,-8.961553573608398,-124,7088.0,-28.93172264099121,-530,9984.0
13590,0.39687690138816833,-3.524266481399536,47,7088.0,-42.813682556152344,-802,9984.0
13600,0.39687657356262207,6.779901504516602,228,7088.0,-43.40639114379883,-789,9984.0
13610,0.39760106801986694,27.127824783325195,492,7088.0,-31.491291046142578,-302,9984.0
13620,0.3981059193611145,39.18106460571289,607,7088.0,-0.19623547792434692,106,9984.0
13630,0.3985965847969055,31.781715393066406,450,7088.0,19.751996994018555,459,9984.0
13640,0.3949868083000183,18.940393447875977,263,7088.0,34.24184799194336,671,9984.0
13650,0.3947732150554657,5.442122936248779,107,7088.0,50.13059997558594,912,9984.0
13660,0.39435601234436035,0.3453238904476166,90,7088.0,52.09175109863281,704,9984.0
13670,0.3936542570590973,-4.4107584953308105,-58,7088.0,33.86183166503906,331,9984.0
13680,0.39254751801490784,-3.237701892852783,-16,7088.0,10.045455932617188,100,9984.0
13690,0.39177489280700684,2.680462121963501,-6,7088.0,-4.502204895019531,21,9984.0
13700,0.39080601930618286,1.931207299232483,43,7088.0,-9.709257125854492,-224,9984.0
13710,0.38984519243240356,-8.083671569824219,-196,7088.0,-9.939535140991211,-273,9984.0
13720,0.38881930708885193,-24.721738815307617,-476,7088.0,-21.19945526123047,-354,9984.0
13730,0.3894153833389282,-32.077117919921875,-619,7088.0,-37.18967056274414,-581,9984.0
13740,0.3883638381958008,-44.64457702636719,-780,7088.0,-48.81886672973633,-871,9984.0
13750,0.3873352110385895,-51.786827087402344,-790,7088.0,-45.6353874206543,-682,9984.0
13760,0.38633039593696594,-37.20021057128906,-458,7088.0,-37.962310791015625,-592,9984.0
13770,0.3853570222854614,-4.978673458099365,61,7088.0,-37.12506866455078,-399,9984.0
13780,0.3845917582511902,22.364578247070312,528,7088.0,-5.640406608581543,128,9984.0
13790,0.38397306203842163,35.505393981933594,644,7088.0,31.820646286010742,615,9984.0
13800,0.38303831219673157,35.19789505004883,489,7088.0,57.25619888305664,1148,9984.0
13810,0.38186129927635193,26.638389587402344,362,7088.0,70.29327392578125,1146,9984.0
13820,0.3775583505630493,20.284252166748047,405,7088.0,66.43083190917969,865,9984.0
13830,0.3762841522693634,23.939477920532227,281,7088.0,41.28229522705078,517,9984.0
13840,0.37498027086257935,13.790865898132324,265,7088.0,4.659082412719727,-302,9984.0
13850,0.374003142118454,-4.491469860076904,-146,7088.0,-27.229333877563477,-535,9984.0
13860,0.37304431200027466,-19.892166137695312,-458,7088.0,-51.94646453857422,-913,9984.0
13870,0.3720291256904602,-26.54526138305664,-296,7088.0,-69.3724594116211,-1249,9984.0
13880,0.371023952960968,-11.116488456726074,-191,7088.0,-77.380126953125,-1228,9984.0
13890,0.37075158953666687,-13.024491310119629,-296,7088.0,-72.88658142089844,-1003,9984.0
13900,0.3676385283470154,-8.159873962402344,-8,7088.0,-39.61370849609375,-421,9984.0
13910,0.3673855662345886,12.231592178344727,363,7088.0,2.2909157276153564,213,9984.0
13920,0.3676031827926636,38.04648971557617,634,7088.0,41.411033630371094,898,9984.0
13930,0.36785563826560974,57.985443115234375,1106,7088.0,78.65602111816406,1387,9984.0
13940,0.36788350343704224,66.4173812866211,1059,7088.0,108.20620727539062,1879,9984.0
13950,0.3651198744773865,50.27726745605469,673,7088.0,111.52330017089844,1750,9984.0
13960,0.36481666564941406,29.16120147705078,359,7088.0,81.95880889892578,1073,9984.0
13970,0.3643668591976166,8.079974174499512,9,7088.0,38.569358825683594,434,9984.0
13980,0.3645354211330414,-12.429829597473145,-239,7088.0,-7.603882312774658,-346,9984.0
13990,0.3645426630973816,-26.344480514526367,-454,7088.0,-40.738800048828125,-764,9984.0
14000,0.3646368384361267,-26.07663345336914,-351,7088.0,-60.92604064941406,-1112,9984.0
