timestamp,kalman.stateZ,gyro.x,gyro.xRaw,gyro.xVariance,gyro.y,gyro.yRaw,gyro.yVariance
0,0.32433998584747314,0.45032739639282227,7,6036.0,-1.546600103378296,-20,9863.0
10,0.3243368864059448,0.4011169970035553,9,6036.0,-2.328352212905884,-38,9863.0
20,0.32493871450424194,0.6916698813438416,14,6036.0,-2.509773015975952,-38,9863.0
30,0.3249676525592804,0.3040505349636078,3,6036.0,-3.009099245071411,-47,9863.0
40,0.32501736283302307,-0.37412071228027344,-7,6036.0,-3.1931660175323486,-56,9863.0
50,0.3250320851802826,-0.5590980052947998,-8,6036.0,-3.691603183746338,-57,9863.0
60,0.325851172208786,-0.43599462509155273,-5,6036.0,-3.658082962036133,-54,9863.0
70,0.3259521722793579,-0.05556671321392059,6,6036.0,-3.886803388595581,-61,9863.0
80,0.32605278491973877,0.16168147325515747,10,6036.0,-3.808931827545166,-56,9863.0
90,0.3261466324329376,0.7424102425575256,12,6036.0,-3.22390079498291,-49,9863.0
100,0.32649528980255127,0.2589161694049835,0,6036.0,-3.475236177444458,-54,9863.0
110,0.326604962348938,0.42074528336524963,-2,6036.0,-3.08139705657959,-41,9863.0
120,0.326730340719223,-0.5236517190933228,-1,6036.0,-2.7395553588867188,-36,9863.0
130,0.32684388756752014,-0.5127407908439636,-4,6036.0,-2.2854220867156982,-36,9863.0
140,0.32695621252059937,-0.4683317542076111,-2,6036.0,-1.9904112815856934,-24,9863.0
150,0.32666146755218506,0.09550104290246964,5,6036.0,-1.0851861238479614,-11,9863.0
160,0.3267613649368286,0.16494740545749664,9,6036.0,-0.5444521307945251,5,9863.0
170,0.3268532156944275,0.5047761797904968,8,6036.0,-0.10148506611585617,4,9863.0
180,0.3269459009170532,-1.1533374786376953,-12,6036.0,-0.2716817557811737,-4,9863.0
190,0.32739681005477905,0.5266533493995667,19,6036.0,-1.3616611957550049,-21,9863.0
200,0.32753705978393555,1.396536111831665,41,6036.0,-4.1154255867004395,-86,9863.0
210,0.32770711183547974,1.2048760652542114,39,6036.0,-10.391900062561035,-194,9863.0
220,0.32791081070899963,0.8823731541633606,32,6036.0,-16.05817222595215,-290,9863.0
230,0.3281399607658386,2.844409465789795,14,6036.0,-25.366313934326172,-432,9863.0
240,0.327132910490036,3.1203794479370117,35,6036.0,-34.27780532836914,-561,9863.0
250,0.32759758830070496,1.388190507888794,43,6036.0,-40.95037841796875,-684,9863.0
260,0.32785123586654663,0.8250237703323364,38,6036.0,-45.02324295043945,-757,9863.0
270,0.3279708921909332,3.1314029693603516,-10,6036.0,-47.739524841308594,-737,9863.0
280,0.32937613129615784,-0.7832632660865784,-20,6036.0,-45.096500396728516,-761,9863.0
290,0.33009669184684753,0.6739376187324524,85,6036.0,-37.22428894042969,-546,9863.0
300,0.33031392097473145,2.486748695373535,10,6036.0,-31.138935089111328,-455,9863.0
310,0.33109232783317566,1.5502722263336182,53,6036.0,-20.6204891204834,-250,9863.0
320,0.3313620090484619,0.788429856300354,74,6036.0,-8.820700645446777,-193,9863.0
330,0.3335091471672058,2.425445556640625,26,6036.0,-0.2484017163515091,33,9863.0
340,0.3341432809829712,1.971389889717102,-9,6036.0,7.36012601852417,337,9863.0
350,0.33485716581344604,1.3967140913009644,-3,6036.0,15.463406562805176,343,9863.0
360,0.33538559079170227,0.19439566135406494,57,6036.0,22.18914794921875,287,9863.0
370,0.33451104164123535,0.17914128303527832,25,6036.0,24.664823532104492,291,9863.0
380,0.3348342776298523,-0.4704850912094116,-1,6036.0,22.745677947998047,442,9863.0
390,0.3354271352291107,1.0131628513336182,-6,6036.0,21.64681053161621,404,9863.0
400,0.3358696401119232,1.242465853691101,64,6036.0,19.614479064941406,283,9863.0
410,0.33380818367004395,1.8527289628982544,49,6036.0,16.398841857910156,175,9863.0
420,0.33412930369377136,1.125727891921997,66,6036.0,11.897452354431152,47,9863.0
430,0.33447346091270447,1.59871244430542,-34,6036.0,6.688928604125977,73,9863.0
440,0.3348287343978882,0.0708274394273758,-2,6036.0,0.4099022150039673,1,9863.0
450,0.3351783752441406,-0.024891790002584457,-80,6036.0,-4.605339050292969,-28,9863.0
460,0.33464565873146057,2.7445766925811768,-49,6036.0,-7.755918979644775,-11,9863.0
470,0.33497053384780884,-1.2495534420013428,-74,6036.0,-9.901899337768555,-90,9863.0
480,0.33525991439819336,0.13427038490772247,-141,6036.0,-14.67877197265625,-3,9863.0
490,0.3354739844799042,-1.4500945806503296,-138,6036.0,-12.159857749938965,-195,9863.0
500,0.334195613861084,0.18748581409454346,-132,6036.0,-11.896342277526855,-83,9863.0
510,0.3342672288417816,-0.5314192771911621,-53,6036.0,-8.148273468017578,-69,9863.0
520,0.3344827890396118,1.1029959917068481,-12,6036.0,-2.9816842079162598,-38,9863.0
530,0.33455631136894226,1.6095350980758667,75,6036.0,2.2901792526245117,18,9863.0
540,0.3346565365791321,3.51432466506958,96,6036.0,6.2845282554626465,-96,9863.0
550,0.3347609341144562,2.671139717102051,77,6036.0,6.543961048126221,3,9863.0
560,0.33471325039863586,-0.18411213159561157,4,6036.0,5.5194268226623535,30,9863.0
570,0.3346189558506012,1.6997743844985962,-1,6036.0,8.209379196166992,195,9863.0
580,0.334444135427475,-1.4731619358062744,-7,6036.0,6.1224822998046875,219,9863.0
590,0.3351975977420807,-2.376195192337036,-123,6036.0,8.353903770446777,137,9863.0
600,0.3350416421890259,0.018502971157431602,-83,6036.0,4.2957763671875,141,9863.0
610,0.335036963224411,2.422623872756958,33,6036.0,3.043767213821411,137,9863.0
620,0.33493146300315857,0.8636019229888916,60,6036.0,4.68896484375,-83,9863.0
630,0.3340849280357361,1.550557017326355,67,6036.0,1.6554168462753296,-137,9863.0
640,0.33389812707901,0.2885262966156006,40,6036.0,-5.474063396453857,-143,9863.0
650,0.3336140513420105,0.4954882860183716,42,6036.0,-11.318042755126953,-273,9863.0
660,0.3332202732563019,0.41020825505256653,21,6036.0,-13.230253219604492,-176,9863.0
670,0.33291834592819214,-1.6342674493789673,-58,6036.0,-12.936830520629883,-92,9863.0
680,0.3330954611301422,-1.4292688369750977,-87,6036.0,-10.822976112365723,-182,9863.0
690,0.33287885785102844,-0.20323194563388824,-24,6036.0,-7.67987060546875,-98,9863.0
700,0.3327041268348694,-1.0957729816436768,49,6036.0,-4.902012348175049,-150,9863.0
710,0.33254215121269226,-1.1264493465423584,35,6036.0,-3.9397315979003906,-168,9863.0
720,0.3333407938480377,-1.3250058889389038,-63,6036.0,-1.7312482595443726,159,9863.0
730,0.3332187235355377,1.2085896730422974,-38,6036.0,1.7002819776535034,79,9863.0
740,0.3330894410610199,0.734815776348114,-48,6036.0,2.9458014965057373,-67,9863.0
750,0.3330041170120239,-0.6507924795150757,60,6036.0,7.201965808868408,102,9863.0
760,0.33455055952072144,-0.7292376756668091,66,6036.0,12.414693832397461,142,9863.0
770,0.3346245288848877,-0.7502705454826355,-78,6036.0,15.954389572143555,337,9863.0
780,0.3346365988254547,0.07020353525876999,-23,6036.0,12.317508697509766,440,9863.0
790,0.3346641957759857,-2.265195846557617,-45,6036.0,15.559258460998535,166,9863.0
800,0.3347052037715912,-0.611417829990387,62,6036.0,12.53600788116455,-22,9863.0
810,0.3334254026412964,1.356535792350769,100,6036.0,8.012572288513184,136,9863.0
820,0.33354946970939636,1.4558501243591309,82,6036.0,3.7672126293182373,127,9863.0
830,0.33363401889801025,0.3900042772293091,-90,6036.0,4.0303544998168945,59,9863.0
840,0.33371657133102417,1.8580751419067383,-44,6036.0,-3.7422118186950684,117,9863.0
850,0.3347068130970001,-2.04156231880188,4,6036.0,-4.490138530731201,-125,9863.0
860,0.3349170982837677,0.5156185626983643,61,6036.0,-5.983095169067383,-295,9863.0
870,0.33507752418518066,-0.39492782950401306,92,6036.0,-4.993166923522949,-130,9863.0
880,0.3352214992046356,0.2552746534347534,29,6036.0,-7.364512920379639,98,9863.0
890,0.33539390563964844,2.117412805557251,-26,6036.0,-0.21157605946063995,-29,9863.0
900,0.33516013622283936,1.0816506147384644,-11,6036.0,-0.253711462020874,50,9863.0
910,0.3355770409107208,-0.6802334785461426,80,6036.0,2.823364734649658,5,9863.0
920,0.33597952127456665,-0.10658163577318192,46,6036.0,5.706566333770752,-14,9863.0
930,0.33635178208351135,-1.384111762046814,-55,6036.0,4.7118330001831055,151,9863.0
940,0.3354208171367645,-0.4236707091331482,-53,6036.0,3.485682487487793,179,9863.0
950,0.3358742892742157,-1.0975708961486816,2,6036.0,2.6281542778015137,-102,9863.0
960,0.3363500237464905,1.8545951843261719,49,6036.0,-3.7804200649261475,-151,9863.0
970,0.33674415946006775,1.4375625848770142,122,6036.0,-3.716177225112915,-68,9863.0
980,0.3370787501335144,0.28777238726615906,48,6036.0,-4.080112934112549,-47,9863.0
990,0.33615222573280334,0.7641154527664185,-79,6036.0,-6.029737949371338,-74,9863.0
1000,0.3365256190299988,-1.6599472761154175,-38,6036.0,-5.6328206062316895,-58,9863.0
1010,0.3369540274143219,-3.9716644287109375,-14,6036.0,-3.4605448246002197,-165,9863.0
1020,0.3373201787471771,-2.3362910747528076,14,6036.0,-4.102834224700928,-149,9863.0
1030,0.3367311954498291,-1.6322654485702515,60,6036.0,-5.683725357055664,65,9863.0
1040,0.33707505464553833,0.14283059537410736,-2,6036.0,-3.6765973567962646,-84,9863.0
1050,0.33751973509788513,2.4600934982299805,-43,6036.0,-2.184074640274048,-22,9863.0
1060,0.3380556106567383,2.5540637969970703,100,6036.0,1.4776315689086914,-17,9863.0
1070,0.3371645510196686,0.9612883925437927,124,6036.0,5.502705097198486,1,9863.0
1080,0.33764156699180603,0.2912209928035736,-37,6036.0,2.590498924255371,116,9863.0
1090,0.3380868136882782,-2.2561166286468506,-92,6036.0,2.556185483932495,150,9863.0
1100,0.3385552763938904,-4.57134485244751,-75,6036.0,2.9099113941192627,-47,9863.0
1110,0.3390795886516571,-1.293688178062439,18,6036.0,1.937659502029419,-24,9863.0
1120,0.3360253572463989,-0.7470670938491821,57,6036.0,1.5784327983856201,61,9863.0
1130,0.336482971906662,2.087277889251709,23,6036.0,3.0499160289764404,101,9863.0
1140,0.3369099497795105,3.934849262237549,-23,6036.0,4.211183071136475,42,9863.0
1150,0.3372862637042999,1.713944673538208,46,6036.0,6.155548572540283,15,9863.0
1160,0.3375978469848633,-0.8222540616989136,22,6036.0,7.848545074462891,13,9863.0
1170,0.33811163902282715,-3.029386281967163,-84,6036.0,5.431791305541992,113,9863.0
1180,0.33866065740585327,-5.587052822113037,-127,6036.0,2.6623315811157227,198,9863.0
1190,0.3391524851322174,-5.2361249923706055,-96,6036.0,1.4749280214309692,24,9863.0
1200,0.33959585428237915,-2.6247498989105225,13,6036.0,1.3667702674865723,-158,9863.0
1210,0.33775296807289124,2.759476900100708,120,6036.0,-2.6826834678649902,-24,9863.0
1220,0.3381766974925995,5.790240287780762,82,6036.0,-6.26258659362793,97,9863.0
1230,0.3386629521846771,6.481385707855225,24,6036.0,-0.22245320677757263,-68,9863.0
1240,0.33916717767715454,4.744441509246826,22,6036.0,-1.3044005632400513,-43,9863.0
1250,0.33633309602737427,-1.8579269647598267,-30,6036.0,-1.1425682306289673,102,9863.0
1260,0.3364975154399872,-2.9733192920684814,-89,6036.0,-2.999521493911743,22,9863.0
1270,0.33660513162612915,-3.4432029724121094,-102,6036.0,-1.0148773193359375,-64,9863.0
1280,0.3367176353931427,-0.8782669901847839,39,6036.0,-0.705203652381897,-69,9863.0
1290,0.3369311988353729,0.3661646246910095,58,6036.0,-1.254650592803955,37,9863.0
1300,0.3371419310569763,0.8071474432945251,-5,6036.0,0.7791516780853271,65,9863.0
1310,0.33737513422966003,0.18803660571575165,-30,6036.0,2.6773924827575684,-124,9863.0
1320,0.3375839293003082,1.5592787265777588,76,6036.0,0.20380689203739166,31,9863.0
1330,0.3377320468425751,0.10830976814031601,-22,6036.0,1.1621556282043457,156,9863.0
1340,0.3366960287094116,2.4796695709228516,44,6036.0,0.5545961856842041,34,9863.0
1350,0.3366268277168274,0.39455726742744446,61,6036.0,-0.011724865064024925,-12,9863.0
1360,0.3365422785282135,0.656030535697937,-40,6036.0,0.09292491525411606,-67,9863.0
1370,0.3364146053791046,0.11715936660766602,37,6036.0,-0.07384383678436279,-79,9863.0
1380,0.33573806285858154,-0.06996192038059235,-50,6036.0,-1.1164519786834717,135,9863.0
1390,0.33561593294143677,0.06441155821084976,14,6036.0,1.3084391355514526,61,9863.0
1400,0.3354545533657074,-0.7171550393104553,-4,6036.0,1.5221118927001953,151,9863.0
1410,0.33524972200393677,-0.03575750067830086,-29,6036.0,3.7169055938720703,-1,9863.0
1420,0.33537644147872925,-0.8144465684890747,63,6036.0,3.204212188720703,5,9863.0
1430,0.3350673019886017,-1.023550033569336,-18,6036.0,3.5962719917297363,-55,9863.0
1440,0.3346799314022064,0.9533312320709229,46,6036.0,1.7548784017562866,-79,9863.0
1450,0.33416181802749634,1.4134513139724731,-41,6036.0,2.0786476135253906,-16,9863.0
1460,0.3336085081100464,2.1557064056396484,99,6036.0,-1.2959637641906738,-55,9863.0
1470,0.33473435044288635,1.5935965776443481,-24,6036.0,-2.1638035774230957,74,9863.0
1480,0.33412718772888184,1.287724494934082,21,6036.0,-3.8571670055389404,-12,9863.0
1490,0.33350589871406555,-0.44813859462738037,-38,6036.0,-4.971923351287842,114,9863.0
1500,0.33286118507385254,0.04663730785250664,4,6036.0,-4.016458988189697,-14,9863.0
1510,0.33385583758354187,1.7028727531433105,-8,6036.0,-4.50725793838501,112,9863.0
1520,0.33332034945487976,1.3485187292099,29,6036.0,-2.978471040725708,-161,9863.0
1530,0.3327982425689697,1.1410503387451172,20,6036.0,-1.6904293298721313,22,9863.0
1540,0.33230817317962646,-1.1761927604675293,10,6036.0,1.802259087562561,-148,9863.0
1550,0.3318040668964386,-0.3105691373348236,27,6036.0,3.2996625900268555,-38,9863.0
1560,0.33349570631980896,-0.18011333048343658,53,6036.0,4.6705827713012695,-75,9863.0
1570,0.3330211043357849,0.7011528015136719,-7,6036.0,4.498440265655518,41,9863.0
1580,0.33248481154441833,1.8098580837249756,65,6036.0,5.581273555755615,56,9863.0
1590,0.3318867087364197,0.7794737219810486,-78,6036.0,4.450356960296631,211,9863.0
1600,0.3337893784046173,-1.6841682195663452,10,6036.0,6.398793697357178,126,9863.0
1610,0.33334481716156006,-1.6749330759048462,-83,6036.0,2.5531346797943115,213,9863.0
1620,0.3328947126865387,-0.6416859030723572,-7,6036.0,2.62280535697937,70,9863.0
1630,0.33246690034866333,-0.23101168870925903,-18,6036.0,1.8947733640670776,107,9863.0
1640,0.3348396420478821,4.376168727874756,46,6036.0,0.19757385551929474,108,9863.0
1650,0.3344028890132904,1.816299557685852,-31,6036.0,0.12115147709846497,110,9863.0
1660,0.333901584148407,-0.15015292167663574,5,6036.0,-0.7151140570640564,62,9863.0
1670,0.3333806097507477,0.034431006759405136,-56,6036.0,-3.5294594764709473,54,9863.0
1680,0.3328936696052551,-1.5003565549850464,49,6036.0,-2.6222853660583496,-156,9863.0
1690,0.3337686061859131,-3.012253522872925,-68,6036.0,-3.52774715423584,-83,9863.0
1700,0.3336232900619507,-4.423493385314941,-76,6036.0,-2.666995048522949,-214,9863.0
1710,0.3334854245185852,-2.7224948406219482,-9,6036.0,-4.891978740692139,-86,9863.0
1720,0.3333524167537689,0.04032798111438751,19,6036.0,-4.788823127746582,-223,9863.0
1730,0.33549782633781433,2.045293092727661,92,6036.0,-4.3950700759887695,-27,9863.0
1740,0.33555153012275696,2.9022812843322754,25,6036.0,-3.1224653720855713,-81,9863.0
1750,0.3355405330657959,3.093068838119507,20,6036.0,-2.3498027324676514,140,9863.0
1760,0.3354490101337433,0.8811309337615967,-20,6036.0,-1.0724241733551025,83,9863.0
1770,0.33533796668052673,-2.448565721511841,-46,6036.0,0.07514945417642593,187,9863.0
1780,0.33755308389663696,-1.9704532623291016,-64,6036.0,0.7358500361442566,100,9863.0
1790,0.33747872710227966,-3.9127025604248047,-45,6036.0,2.2639153003692627,23,9863.0
1800,0.3374110758304596,-2.5975563526153564,-23,6036.0,1.8216174840927124,-105,9863.0
1810,0.33741283416748047,-0.2449818104505539,51,6036.0,1.0694308280944824,-60,9863.0
1820,0.3389064073562622,0.3032691180706024,21,6036.0,3.884119987487793,-180,9863.0
1830,0.33911409974098206,3.420248031616211,104,6036.0,-0.7513076066970825,-25,9863.0
1840,0.33941319584846497,0.6103767156600952,-35,6036.0,0.2724687159061432,-33,9863.0
1850,0.339712917804718,0.9016019701957703,10,6036.0,-2.3456506729125977,117,9863.0
1860,0.339170902967453,-0.3575240969657898,-73,6036.0,-1.8342236280441284,84,9863.0
1870,0.3393183648586273,-2.1984288692474365,14,6036.0,-1.9351329803466797,35,9863.0
1880,0.33944186568260193,-1.0741608142852783,-73,6036.0,-2.1992876529693604,57,9863.0
1890,0.3395354151725769,-2.110726833343506,20,6036.0,0.8384280800819397,-143,9863.0
1900,0.33966830372810364,1.397943377494812,-16,6036.0,0.21768957376480103,30,9863.0
1910,0.3390984535217285,1.3547887802124023,20,6036.0,2.2633142471313477,-39,9863.0
1920,0.33914914727211,1.951642394065857,23,6036.0,1.4314998388290405,204,9863.0
1930,0.33916062116622925,-0.2518140971660614,-39,6036.0,5.138265609741211,166,9863.0
1940,0.3391212522983551,-0.9819880723953247,60,6036.0,4.341490268707275,182,9863.0
1950,0.338637113571167,0.37653371691703796,-34,6036.0,5.071197032928467,65,9863.0
1960,0.33865711092948914,-0.9477936029434204,62,6036.0,3.2290780544281006,-73,9863.0
1970,0.3387102782726288,0.9031361937522888,2,6036.0,2.689397096633911,-21,9863.0
1980,0.3388068974018097,-0.04218931868672371,25,6036.0,4.002923488616943,-88,9863.0
1990,0.3389454185962677,-1.5094116926193237,-15,6036.0,1.2133952379226685,58,9863.0
2000,0.3379228711128235,-1.5560845136642456,-50,6036.0,0.045872412621974945,5,9863.0
2010,0.3381325900554657,-0.6481413245201111,2,6036.0,-0.6288807988166809,74,9863.0
2020,0.33840757608413696,0.5939770936965942,5,6036.0,-0.8221961259841919,34,9863.0
2030,0.33871006965637207,1.436455488204956,71,6036.0,-2.995577573776245,-151,9863.0
2040,0.3387851119041443,2.063563823699951,37,6036.0,-0.2574577331542969,-64,9863.0
2050,0.3391777276992798,1.120910406112671,-16,6036.0,1.184786081314087,-114,9863.0
2060,0.33956462144851685,0.714928925037384,36,6036.0,1.9433236122131348,24,9863.0
2070,0.3399868607521057,-2.0338094234466553,-80,6036.0,-1.223284125328064,48,9863.0
2080,0.33906298875808716,-1.4609788656234741,-4,6036.0,-2.2090353965759277,-4,9863.0
2090,0.3394515812397003,-2.150003433227539,-84,6036.0,-3.024837017059326,40,9863.0
2100,0.33994266390800476,-2.8566174507141113,-18,6036.0,-0.8604235649108887,-208,9863.0
2110,0.34044986963272095,-0.39547184109687805,39,6036.0,0.029650963842868805,-33,9863.0
2120,0.34102359414100647,1.1875964403152466,-37,6036.0,1.039533257484436,35,9863.0
2130,0.3400436341762543,1.8238613605499268,43,6036.0,0.7812345027923584,85,9863.0
2140,0.3406960964202881,2.856179714202881,28,6036.0,0.12833213806152344,127,9863.0
2150,0.34140804409980774,1.8585026264190674,-6,6036.0,2.588935375213623,-44,9863.0
2160,0.34217527508735657,0.15846429765224457,21,6036.0,3.2556042671203613,-33,9863.0
2170,0.3401448726654053,-1.7032326459884644,-106,6036.0,3.788735866546631,128,9863.0
2180,0.34087997674942017,-3.100493907928467,-38,6036.0,3.1970508098602295,28,9863.0
2190,0.3416684865951538,-2.667217969894409,-18,6036.0,2.5235161781311035,98,9863.0
2200,0.3425293564796448,-0.5530481338500977,-42,6036.0,3.86716365814209,22,9863.0
2210,0.34344014525413513,0.8460801243782043,26,6036.0,2.6908910274505615,-118,9863.0
2220,0.3416564166545868,0.960942804813385,48,6036.0,0.9088173508644104,91,9863.0
2230,0.34248828887939453,0.2552679181098938,-6,6036.0,-1.4109958410263062,52,9863.0
2240,0.3432691693305969,0.5202649235725403,43,6036.0,-3.0569908618927,-139,9863.0
2250,0.3440238833427429,0.33843955397605896,-4,6036.0,-4.221055507659912,-129,9863.0
2260,0.34105491638183594,-1.0690339803695679,-82,6036.0,-5.3485822677612305,-47,9863.0
2270,0.34155943989753723,-0.6045711636543274,34,6036.0,-4.225633144378662,-41,9863.0
2280,0.34206682443618774,-1.5909473896026611,18,6036.0,-3.0485012531280518,1,9863.0
2290,0.34258225560188293,-0.46569424867630005,-27,6036.0,-1.268430233001709,-31,9863.0
2300,0.34312883019447327,0.3705917298793793,12,6036.0,-0.5673344135284424,-40,9863.0
2310,0.34112682938575745,0.7475780248641968,55,6036.0,0.7642180323600769,137,9863.0
2320,0.34170597791671753,1.0612447261810303,-2,6036.0,1.6242015361785889,124,9863.0
2330,0.34238457679748535,1.2967115640640259,6,6036.0,3.344568967819214,-98,9863.0
2340,0.34313997626304626,0.798175573348999,30,6036.0,3.4030556678771973,52,9863.0
2350,0.3410801291465759,-0.10355135798454285,49,6036.0,3.1440720558166504,148,9863.0
2360,0.34182146191596985,0.36598214507102966,-50,6036.0,3.7159719467163086,50,9863.0
2370,0.3425678014755249,0.5020150542259216,11,6036.0,4.5409345626831055,-37,9863.0
2380,0.343287855386734,-0.31514233350753784,36,6036.0,2.270817756652832,114,9863.0
2390,0.34107640385627747,-0.8246364593505859,-37,6036.0,-0.44517871737480164,145,9863.0
2400,0.3415309190750122,-0.44596442580223083,4,6036.0,-0.3125849962234497,-101,9863.0
2410,0.34192341566085815,0.9509714245796204,45,6036.0,-2.8705568313598633,-96,9863.0
2420,0.3422941565513611,0.6704884767532349,20,6036.0,-4.7093353271484375,81,9863.0
2430,0.34274300932884216,1.715559482574463,-11,6036.0,-5.286197662353516,-53,9863.0
2440,0.3396535813808441,-1.0387418270111084,28,6036.0,-4.173540115356445,-187,9863.0
2450,0.3401009142398834,0.5097836852073669,-28,6036.0,-4.856064796447754,-89,9863.0
2460,0.34061524271965027,-1.1595460176467896,-63,6036.0,-3.3683314323425293,-5,9863.0
2470,0.34113624691963196,-1.6670283079147339,39,6036.0,-0.9288409352302551,-37,9863.0
2480,0.3396109640598297,-1.6273362636566162,12,6036.0,2.928925037384033,49,9863.0
2490,0.3399389982223511,0.6172506213188171,-51,6036.0,5.724674701690674,185,9863.0
2500,0.3402072489261627,0.26268184185028076,7,6036.0,8.971648216247559,164,9863.0
2510,0.34041282534599304,-0.3558110296726227,69,6036.0,9.062490463256836,210,9863.0
2520,0.33846592903137207,2.292095899581909,-14,6036.0,10.867956161499023,163,9863.0
2530,0.3385193943977356,1.990207314491272,24,6036.0,11.228019714355469,99,9863.0
2540,0.33861371874809265,1.441736102104187,66,6036.0,8.110492706298828,170,9863.0
2550,0.33886945247650146,-0.26909756660461426,-31,6036.0,6.604429244995117,172,9863.0
2560,0.33909308910369873,-1.7395892143249512,-16,6036.0,4.913827419281006,-43,9863.0
2570,0.3368336856365204,-1.338884949684143,24,6036.0,1.254634141921997,-121,9863.0
2580,0.3369710147380829,-1.1792641878128052,-32,6036.0,-2.653975486755371,62,9863.0
2590,0.33707892894744873,0.03708822652697563,-7,6036.0,-5.661993503570557,-41,9863.0
2600,0.33708304166793823,-0.14069880545139313,28,6036.0,-7.856523513793945,-206,9863.0
2610,0.3357774019241333,0.23935075104236603,20,6036.0,-7.4722137451171875,-89,9863.0
2620,0.3356055021286011,0.7493221759796143,-52,6036.0,-7.781818389892578,-192,9863.0
2630,0.3353329002857208,-0.5261645317077637,21,6036.0,-7.449559688568115,-79,9863.0
2640,0.3350945711135864,1.3839342594146729,39,6036.0,-8.042787551879883,28,9863.0
2650,0.3348378539085388,1.2002160549163818,-25,6036.0,-4.401971817016602,-24,9863.0
2660,0.3359387516975403,1.0209141969680786,49,6036.0,-0.7719343900680542,-95,9863.0
2670,0.33585429191589355,2.4729065895080566,-34,6036.0,-0.16908271610736847,92,9863.0
2680,0.3358488380908966,-0.6246414184570312,-26,6036.0,2.098118543624878,14,9863.0
2690,0.3359471559524536,-0.891025722026825,7,6036.0,0.8267573714256287,95,9863.0
2700,0.3357541263103485,-1.6330974102020264,-64,6036.0,2.4366471767425537,65,9863.0
2710,0.33598753809928894,-1.488147258758545,12,6036.0,2.0761351585388184,-170,9863.0
2720,0.33630260825157166,1.326427936553955,46,6036.0,1.0604625940322876,-5,9863.0
2730,0.3367387652397156,1.5821460485458374,-20,6036.0,0.8643288612365723,46,9863.0
2740,0.33608704805374146,0.8988358378410339,77,6036.0,0.8463819622993469,29,9863.0
2750,0.33697307109832764,0.4967784583568573,3,6036.0,1.438391923904419,61,9863.0
2760,0.33743563294410706,-0.5359891057014465,-29,6036.0,3.354501962661743,-31,9863.0
2770,0.33790096640586853,-0.639406681060791,31,6036.0,2.4028000831604004,-44,9863.0
2780,0.33830878138542175,-1.1403385400772095,-45,6036.0,1.846724510192871,236,9863.0
2790,0.3368689715862274,-0.12728990614414215,-45,6036.0,3.0674915313720703,96,9863.0
2800,0.3370336592197418,-1.494410753250122,16,6036.0,1.0671977996826172,5,9863.0
2810,0.3370969891548157,-0.46649298071861267,-22,6036.0,1.1599631309509277,35,9863.0
2820,0.33711230754852295,0.181899294257164,-12,6036.0,1.4138669967651367,25,9863.0
2830,0.33627691864967346,0.7596409320831299,82,6036.0,-0.299384742975235,57,9863.0
2840,0.33612141013145447,2.2032623291015625,18,6036.0,-0.5176591873168945,103,9863.0
2850,0.33592742681503296,1.198629379272461,-21,6036.0,-0.3247089684009552,-74,9863.0
2860,0.33572977781295776,-0.5498214960098267,32,6036.0,0.42698168754577637,-122,9863.0
2870,0.33558541536331177,-0.2964458167552948,-39,6036.0,-1.6917144060134888,115,9863.0
2880,0.33612456917762756,-0.6288495063781738,-67,6036.0,-0.8221415281295776,18,9863.0
2890,0.33620601892471313,-2.40433931350708,29,6036.0,1.0064460039138794,25,9863.0
2900,0.3363702595233917,-0.903274655342102,-15,6036.0,0.19252534210681915,-18,9863.0
2910,0.3366309404373169,-0.21278046071529388,-20,6036.0,0.5222418904304504,-96,9863.0
2920,0.33584654331207275,1.4038950204849243,88,6036.0,1.2045557498931885,17,9863.0
2930,0.33620908856391907,2.714627981185913,14,6036.0,0.3017469346523285,176,9863.0
2940,0.33662283420562744,3.3449435234069824,69,6036.0,1.4804702997207642,35,9863.0
2950,0.337056964635849,2.185515880584717,67,6036.0,3.0819547176361084,-32,9863.0
2960,0.33654293417930603,-0.6955045461654663,-42,6036.0,3.033036231994629,48,9863.0
2970,0.3368227779865265,-3.0016722679138184,-58,6036.0,0.6517293453216553,10,9863.0
2980,0.3370060324668884,-3.8232388496398926,-3,6036.0,-0.6039639711380005,132,9863.0
2990,0.3371272087097168,-3.661609649658203,-62,6036.0,-0.2368437796831131,38,9863.0
3000,0.33721715211868286,-2.016566514968872,-47,6036.0,-2.0705645084381104,-104,9863.0
3010,0.3359780013561249,0.9495543837547302,50,6036.0,-3.323054790496826,-92,9863.0
3020,0.3359568119049072,3.4147231578826904,88,6036.0,-5.610180854797363,-34,9863.0
3030,0.3359658718109131,3.8246142864227295,17,6036.0,-4.70172119140625,-11,9863.0
3040,0.33601173758506775,2.9430739879608154,50,6036.0,-2.6312060356140137,-195,9863.0
3050,0.3352903127670288,0.7904813289642334,16,6036.0,-1.482765555381775,45,9863.0
3060,0.3353874981403351,-1.8259086608886719,-80,6036.0,-2.174433708190918,75,9863.0
3070,0.3355252742767334,-4.647553443908691,-78,6036.0,-2.4445743560791016,-11,9863.0
3080,0.33569785952568054,-4.9847331047058105,-44,6036.0,-0.6660788655281067,21,9863.0
3090,0.3351367712020874,-2.8280763626098633,-99,6036.0,-0.07983849942684174,-42,9863.0
3100,0.3351854085922241,-0.9545063376426697,34,6036.0,-0.12501443922519684,-7,9863.0
3110,0.335216760635376,0.7657455205917358,31,6036.0,-1.4224847555160522,96,9863.0
3120,0.33529216051101685,3.0254034996032715,6,6036.0,-0.3265810012817383,40,9863.0
3130,0.3353140354156494,2.878098249435425,100,6036.0,2.5287344455718994,-142,9863.0
3140,0.33519816398620605,3.3966927528381348,40,6036.0,3.6310083866119385,92,9863.0
3150,0.33519476652145386,0.3053451180458069,-27,6036.0,4.106828689575195,109,9863.0
3160,0.3352198004722595,0.6138594150543213,29,6036.0,4.271800518035889,112,9863.0
3170,0.335183709859848,-1.1749811172485352,-23,6036.0,4.0872955322265625,94,9863.0
3180,0.3351152539253235,-2.631575107574463,-75,6036.0,4.713588714599609,-47,9863.0
3190,0.3351474702358246,-3.5503413677215576,-9,6036.0,3.080825090408325,-2,9863.0
3200,0.33528032898902893,-2.7693817615509033,-65,6036.0,0.978156566619873,165,9863.0
3210,0.3354298174381256,0.2109794169664383,23,6036.0,-0.8674905896186829,46,9863.0
3220,0.33561772108078003,1.4645441770553589,79,6036.0,0.1818847805261612,-52,9863.0
3230,0.33509331941604614,3.931084394454956,51,6036.0,2.2057368755340576,61,9863.0
3240,0.33521807193756104,3.960502862930298,38,6036.0,0.9223039746284485,-39,9863.0
3250,0.33531057834625244,3.2472546100616455,64,6036.0,-2.3343846797943115,63,9863.0
3260,0.33542951941490173,2.2391531467437744,13,6036.0,-3.9947876930236816,64,9863.0
3270,0.3368319571018219,-0.7177175879478455,-68,6036.0,-2.064859628677368,-80,9863.0
3280,0.3369194567203522,-2.7059521675109863,5,6036.0,-0.04281141236424446,-124,9863.0
3290,0.3369302451610565,-2.551090717315674,-81,6036.0,0.29612767696380615,52,9863.0
3300,0.33689507842063904,-3.608273983001709,-69,6036.0,2.668581247329712,65,9863.0
3310,0.3357939124107361,-2.9741227626800537,14,6036.0,0.867879331111908,-9,9863.0
3320,0.33568450808525085,-1.4369145631790161,-14,6036.0,1.6591242551803589,79,9863.0
3330,0.3356168866157532,-0.010233144275844097,-42,6036.0,1.4521445035934448,-112,9863.0
3340,0.3356326222419739,2.9871954917907715,79,6036.0,1.7636421918869019,59,9863.0
3350,0.33574625849723816,4.112003326416016,19,6036.0,-0.7234386205673218,188,9863.0
3360,0.33597081899642944,3.263690710067749,47,6036.0,1.278576374053955,59,9863.0
3370,0.3362605571746826,0.6295793056488037,76,6036.0,3.221714735031128,-24,9863.0
3380,0.3366168141365051,-2.6850993633270264,-96,6036.0,2.2430577278137207,70,9863.0
3390,0.33698156476020813,-3.751850128173828,-73,6036.0,0.21011720597743988,50,9863.0
3400,0.3352609872817993,-3.7648820877075195,-13,6036.0,-0.8576465249061584,6,9863.0
3410,0.3354206383228302,-0.8830568194389343,-8,6036.0,-2.4286398887634277,45,9863.0
3420,0.33553287386894226,1.7812769412994385,-13,6036.0,-2.153979778289795,-179,9863.0
3430,0.33553895354270935,2.9676928520202637,76,6036.0,-2.3872485160827637,-159,9863.0
3440,0.3364006578922272,3.3205361366271973,63,6036.0,-4.678910255432129,34,9863.0
3450,0.3362621068954468,1.8027307987213135,-8,6036.0,-3.4382598400115967,-50,9863.0
3460,0.33612000942230225,-1.4294601678848267,47,6036.0,-2.7920970916748047,-173,9863.0
3470,0.3359464406967163,-2.32360577583313,-59,6036.0,-2.9749300479888916,-55,9863.0
3480,0.33579185605049133,-2.9525811672210693,-60,6036.0,-3.1757490634918213,9,9863.0
3490,0.33540940284729004,-2.4988012313842773,16,6036.0,-3.43125057220459,-23,9863.0
3500,0.33534908294677734,-1.3269104957580566,-11,6036.0,-4.070008754730225,45,9863.0
3510,0.33537110686302185,0.9168845415115356,-27,6036.0,-1.188438057899475,-130,9863.0
3520,0.3354918658733368,1.662081241607666,49,6036.0,0.49817657470703125,-17,9863.0
3530,0.33578091859817505,0.5633569955825806,8,6036.0,0.28709277510643005,155,9863.0
3540,0.33596324920654297,-0.17100314795970917,-28,6036.0,2.3434219360351562,22,9863.0
3550,0.3361606299877167,-1.00123929977417,52,6036.0,3.8908143043518066,-74,9863.0
3560,0.33636239171028137,-0.11478537321090698,-25,6036.0,3.018447160720825,61,9863.0
3570,0.3365391492843628,1.4737282991409302,37,6036.0,2.6339833736419678,101,9863.0
3580,0.33599698543548584,3.152442455291748,87,6036.0,5.7337470054626465,105,9863.0
3590,0.33607345819473267,1.8544399738311768,-7,6036.0,5.394765377044678,177,9863.0
3600,0.33611801266670227,0.03848361223936081,-77,6036.0,6.7894721031188965,36,9863.0
3610,0.336093932390213,-1.8549823760986328,-33,6036.0,6.019852161407471,140,9863.0
3620,0.335629403591156,-3.456820011138916,-40,6036.0,4.463077068328857,253,9863.0
3630,0.3355388343334198,-0.20736628770828247,-22,6036.0,3.3946785926818848,63,9863.0
3640,0.3355429768562317,0.7657817006111145,91,6036.0,1.6663461923599243,-125,9863.0
3650,0.3355889320373535,2.8658456802368164,100,6036.0,-0.9138196706771851,-40,9863.0
3660,0.3358655869960785,2.2173542976379395,37,6036.0,-3.361989974975586,66,9863.0
3670,0.33599913120269775,0.6904081106185913,4,6036.0,-3.264198064804077,-30,9863.0
3680,0.3361131250858307,-1.6863267421722412,20,6036.0,-2.4808592796325684,-192,9863.0
3690,0.33616021275520325,-2.89418625831604,-70,6036.0,-1.5067161321640015,48,9863.0
3700,0.3361130356788635,-1.0983327627182007,-53,6036.0,-3.208937883377075,21,9863.0
3710,0.33517295122146606,-1.8571962118148804,19,6036.0,-1.575879454612732,14,9863.0
3720,0.334833025932312,-0.336588978767395,11,6036.0,0.6267518401145935,46,9863.0
3730,0.3344190716743469,1.4107723236083984,-39,6036.0,3.2552847862243652,11,9863.0
3740,0.3339853286743164,3.148425579071045,94,6036.0,3.6279850006103516,27,9863.0
3750,0.33335739374160767,2.6228325366973877,38,6036.0,2.1156671047210693,159,9863.0
3760,0.3329942524433136,1.5104001760482788,3,6036.0,4.344855308532715,72,9863.0
3770,0.3326725363731384,0.06001074239611626,24,6036.0,6.086285591125488,-79,9863.0
3780,0.33243122696876526,0.15670335292816162,-4,6036.0,4.863862991333008,97,9863.0
3790,0.3322790265083313,-1.3017789125442505,-47,6036.0,4.413889408111572,43,9863.0
3800,0.3328796327114105,-1.1077920198440552,-1,6036.0,0.8092361688613892,57,9863.0
3810,0.3328927755355835,-2.197373390197754,-27,6036.0,-0.7850773334503174,74,9863.0
3820,0.3329438269138336,-1.6230124235153198,-31,6036.0,-3.606841564178467,-132,9863.0
3830,0.3330720365047455,0.8643922805786133,63,6036.0,-5.069797992706299,-178,9863.0
3840,0.3342619836330414,1.985398530960083,-7,6036.0,-6.146575927734375,-14,9863.0
3850,0.3343510031700134,1.8641772270202637,30,6036.0,-6.083591938018799,-32,9863.0
3860,0.3343926668167114,-0.27415117621421814,22,6036.0,-4.853208065032959,-46,9863.0
3870,0.33435195684432983,0.05465037748217583,-26,6036.0,-4.52681827545166,-11,9863.0
3880,0.3349025845527649,-1.0111229419708252,-49,6036.0,-2.745150089263916,-194,9863.0
3890,0.3347620666027069,0.03596682474017143,60,6036.0,-2.7895495891571045,7,9863.0
3900,0.3345790207386017,0.43722161650657654,-18,6036.0,-4.888761520385742,43,9863.0
3910,0.3343409597873688,-2.211765766143799,-7,6036.0,-3.4869818687438965,-122,9863.0
3920,0.33404621481895447,-1.0307810306549072,27,6036.0,-2.930720806121826,-127,9863.0
3930,0.3342851996421814,-1.755495548248291,-70,6036.0,-0.680443525314331,-6,9863.0
3940,0.3340417444705963,0.38827943801879883,43,6036.0,-0.3607383668422699,-15,9863.0
3950,0.33384352922439575,2.1851422786712646,91,6036.0,0.038688164204359055,158,9863.0
3960,0.33369430899620056,3.1034417152404785,-3,6036.0,2.2794673442840576,50,9863.0
3970,0.33413636684417725,0.5338783264160156,32,6036.0,2.7071447372436523,-108,9863.0
3980,0.33413752913475037,-0.5727693438529968,-29,6036.0,4.362405300140381,180,9863.0
3990,0.33423087000846863,-0.24849523603916168,-70,6036.0,4.66995096206665,188,9863.0
4000,0.33439210057258606,-1.5965701341629028,22,6036.0,5.241654872894287,132,9863.0
4010,0.33440348505973816,-0.3921332061290741,-17,6036.0,7.177675247192383,121,9863.0
4020,0.33468472957611084,-0.2636938691139221,-62,6036.0,9.447393417358398,56,9863.0
4030,0.3349709212779999,0.05143153294920921,52,6036.0,6.938674449920654,42,9863.0
4040,0.3352981507778168,0.2727054953575134,-7,6036.0,3.2088208198547363,200,9863.0
4050,0.3354607820510864,0.434295654296875,-9,6036.0,2.491691827774048,53,9863.0
4060,0.33573639392852783,-0.7545923590660095,31,6036.0,1.638839602470398,-172,9863.0
4070,0.3357691168785095,0.4887884259223938,44,6036.0,0.3160492777824402,25,9863.0
4080,0.3357401192188263,-0.7674580216407776,-54,6036.0,-0.1833372414112091,105,9863.0
4090,0.33570218086242676,-0.6946105360984802,17,6036.0,-0.31406334042549133,31,9863.0
4100,0.33580049872398376,-1.1049431562423706,31,6036.0,-0.36827346682548523,12,9863.0
4110,0.3358016312122345,-0.19140495359897614,-77,6036.0,0.6983063220977783,14,9863.0
4120,0.3358300030231476,-0.9957126975059509,-2,6036.0,2.5233190059661865,9,9863.0
4130,0.3358660936355591,-0.38610485196113586,34,6036.0,1.662035346031189,100,9863.0
4140,0.3358968198299408,2.451603412628174,2,6036.0,2.164996862411499,118,9863.0
4150,0.33552631735801697,1.8571171760559082,32,6036.0,5.097766876220703,-165,9863.0
4160,0.3354686200618744,3.9243221282958984,56,6036.0,2.739311456680298,35,9863.0
4170,0.3353618383407593,1.65985107421875,-2,6036.0,2.204080104827881,189,9863.0
4180,0.33516761660575867,-0.3861374258995056,-37,6036.0,2.391481876373291,73,9863.0
4190,0.334571897983551,-3.8824622631073,-15,6036.0,2.151867389678955,-56,9863.0
4200,0.334265798330307,-3.396225690841675,-80,6036.0,-2.146742820739746,-30,9863.0
4210,0.3339642882347107,-1.831272006034851,-42,6036.0,-3.9257445335388184,-1,9863.0
4220,0.3337027430534363,-0.04988063499331474,29,6036.0,-5.406606197357178,-80,9863.0
4230,0.33349764347076416,1.4945461750030518,28,6036.0,-6.04454231262207,-25,9863.0
4240,0.3323909044265747,2.493391275405884,7,6036.0,-5.595105171203613,-205,9863.0
4250,0.33231937885284424,2.1002213954925537,92,6036.0,-5.881228446960449,-233,9863.0
4260,0.3323163688182831,1.9522510766983032,48,6036.0,-5.401149749755859,24,9863.0
4270,0.3323957324028015,0.7775636911392212,-13,6036.0,-4.342880725860596,-2,9863.0
4280,0.33427661657333374,-0.20035849511623383,-26,6036.0,-1.709360957145691,-123,9863.0
4290,0.3344413638114929,-0.039919257164001465,58,6036.0,-1.2381877899169922,-35,9863.0
4300,0.33456847071647644,-0.7371300458908081,-45,6036.0,-0.028785964474081993,168,9863.0
4310,0.33461734652519226,-1.1073617935180664,-47,6036.0,0.8295981287956238,41,9863.0
4320,0.33476412296295166,-2.2013187408447266,8,6036.0,3.1153886318206787,-82,9863.0
4330,0.3347444534301758,-1.492836594581604,-39,6036.0,4.109978199005127,64,9863.0
4340,0.3347495496273041,0.8160979747772217,-13,6036.0,3.059366226196289,-22,9863.0
4350,0.33476585149765015,1.6152068376541138,89,6036.0,2.375041961669922,27,9863.0
4360,0.3348469138145447,0.8753714561462402,10,6036.0,0.9664667248725891,55,9863.0
4370,0.3349687457084656,1.3212828636169434,-38,6036.0,1.918582797050476,-21,9863.0
4380,0.33512330055236816,1.1001098155975342,63,6036.0,2.5714848041534424,0,9863.0
4390,0.33530017733573914,0.013246135786175728,1,6036.0,2.1700499057769775,212,9863.0
4400,0.3354673981666565,-0.36211028695106506,-63,6036.0,5.007102012634277,136,9863.0
4410,0.33536484837532043,-4.250906944274902,-34,6036.0,6.065915107727051,-85,9863.0
4420,0.33541885018348694,-3.5069007873535156,-22,6036.0,4.136446475982666,88,9863.0
4430,0.33537864685058594,-3.44663667678833,-91,6036.0,1.7257128953933716,93,9863.0
4440,0.33523818850517273,0.096428781747818,4,6036.0,0.1953812837600708,-19,9863.0
4450,0.3354559540748596,0.8594005107879639,98,6036.0,0.8620762825012207,-77,9863.0
4460,0.3352460265159607,1.90007483959198,-26,6036.0,0.7734242677688599,-6,9863.0
4470,0.33505022525787354,3.2335078716278076,38,6036.0,-0.5602056384086609,57,9863.0
4480,0.3349204957485199,2.1121139526367188,65,6036.0,0.8706918954849243,63,9863.0
4490,0.3348406255245209,1.6624234914779663,-23,6036.0,-0.22095347940921783,96,9863.0
4500,0.33484458923339844,0.01279777754098177,-55,6036.0,1.0895382165908813,-34,9863.0
4510,0.33473140001296997,-2.146984815597534,-2,6036.0,0.6590777635574341,-115,9863.0
4520,0.3345741927623749,-0.9265539646148682,4,6036.0,-2.7485787868499756,91,9863.0
4530,0.3343256413936615,-0.3705333471298218,-37,6036.0,-4.203696250915527,0,9863.0
4540,0.335124135017395,-1.6997382640838623,54,6036.0,-3.404008388519287,-182,9863.0
4550,0.3347465693950653,2.2381813526153564,66,6036.0,-2.3016178607940674,-133,9863.0
4560,0.3343617618083954,2.3103010654449463,-11,6036.0,-1.5766109228134155,39,9863.0
4570,0.3339928686618805,3.3244762420654297,63,6036.0,-2.1774001121520996,13,9863.0
4580,0.33368557691574097,0.2575371265411377,39,6036.0,-2.418743848800659,-2,9863.0
4590,0.33353888988494873,-0.6068854331970215,-51,6036.0,-2.036790370941162,18,9863.0
4600,0.33329471945762634,-2.540287733078003,-54,6036.0,-1.7202930450439453,-129,9863.0
4610,0.3330795466899872,-1.854134202003479,-11,6036.0,-2.3016576766967773,58,9863.0
4620,0.3328308165073395,-0.8545596599578857,-13,6036.0,-4.253541946411133,76,9863.0
4630,0.3331179618835449,1.5044234991073608,14,6036.0,-3.9613003730773926,-126,9863.0
4640,0.33279913663864136,2.4087917804718018,100,6036.0,-4.0018744468688965,-167,9863.0
4650,0.33238890767097473,1.9391050338745117,-30,6036.0,-1.9497300386428833,-24,9863.0
4660,0.33192598819732666,0.3969680666923523,22,6036.0,-1.8824700117111206,-18,9863.0
4670,0.3339201509952545,-2.4196605682373047,-14,6036.0,-2.285820722579956,23,9863.0
4680,0.33353540301322937,-3.147610902786255,-64,6036.0,-0.18134334683418274,16,9863.0
4690,0.3331654965877533,-2.2095422744750977,-28,6036.0,0.8407575488090515,-156,9863.0
4700,0.33279746770858765,0.82722407579422,22,6036.0,-1.349207878112793,116,9863.0
4710,0.33247289061546326,2.8159797191619873,3,6036.0,1.453139305114746,143,9863.0
4720,0.3329346776008606,2.597080945968628,93,6036.0,2.029475212097168,73,9863.0
4730,0.332797110080719,2.178237199783325,34,6036.0,4.254291534423828,79,9863.0
4740,0.33273404836654663,0.31540030241012573,-75,6036.0,6.3678789138793945,48,9863.0
4750,0.3327261507511139,-1.7752134799957275,12,6036.0,5.619396209716797,67,9863.0
4760,0.33362266421318054,-2.3128817081451416,-66,6036.0,3.3545925617218018,186,9863.0
4770,0.33373382687568665,-1.4322293996810913,-17,6036.0,3.11099910736084,39,9863.0
4780,0.3338477909564972,-1.4263010025024414,67,6036.0,6.260700702667236,-62,9863.0
4790,0.33399438858032227,0.8808304667472839,-2,6036.0,3.7799766063690186,86,9863.0
4800,0.33406153321266174,2.2150394916534424,21,6036.0,2.070218563079834,19,9863.0
4810,0.33402693271636963,1.625976800918579,43,6036.0,1.5326802730560303,125,9863.0
4820,0.33395978808403015,0.7863800525665283,-1,6036.0,-0.2717280983924866,83,9863.0
4830,0.3338087499141693,-0.8976775407791138,-59,6036.0,-0.020229045301675797,-64,9863.0
4840,0.33358240127563477,-2.2964298725128174,2,6036.0,-0.9434317946434021,-75,9863.0
4850,0.3340042233467102,-2.2542030811309814,-38,6036.0,-1.4824601411819458,104,9863.0
4860,0.3337172269821167,-1.0022423267364502,-30,6036.0,-1.0020244121551514,71,9863.0
4870,0.33345645666122437,-0.6501182317733765,42,6036.0,0.7927243709564209,-126,9863.0
4880,0.33326855301856995,2.280104875564575,54,6036.0,0.016105148941278458,14,9863.0
4890,0.3331614136695862,1.7320939302444458,-29,6036.0,0.30069664120674133,-27,9863.0
4900,0.3339032232761383,2.544821262359619,44,6036.0,1.2866700887680054,35,9863.0
4910,0.33403605222702026,-0.5250170230865479,30,6036.0,3.1846232414245605,131,9863.0
4920,0.33422890305519104,-0.19785968959331512,-70,6036.0,2.2754812240600586,40,9863.0
4930,0.3344387412071228,-1.316096305847168,-35,6036.0,1.5977476835250854,55,9863.0
4940,0.3351733684539795,-0.5243152379989624,38,6036.0,-0.9392299652099609,59,9863.0
4950,0.33534881472587585,-0.2753882110118866,-17,6036.0,-0.28570616245269775,79,9863.0
4960,0.33547717332839966,0.18693943321704865,-34,6036.0,0.7635744214057922,-54,9863.0
4970,0.33554607629776,0.5608965158462524,37,6036.0,-2.2778372764587402,-179,9863.0
4980,0.3357566297054291,0.6483104228973389,13,6036.0,-3.354451894760132,62,9863.0
4990,0.3359068036079407,-0.24954980611801147,-45,6036.0,-5.149040222167969,4,9863.0
5000,0.33611026406288147,-1.8463722467422485,-41,6036.0,-5.1547160148620605,-188,9863.0
5010,0.33636054396629333,-0.8190944194793701,32,6036.0,-4.3075103759765625,-128,9863.0
5020,0.3366731107234955,0.5518752932548523,-23,6036.0,-6.224165439605713,45,9863.0
5030,0.33595699071884155,2.1271002292633057,30,6036.0,-6.036435604095459,-16,9863.0
5040,0.3362015187740326,1.9222275018692017,77,6036.0,-3.9800360202789307,-191,9863.0
5050,0.33639073371887207,2.663572072982788,22,6036.0,-2.885814666748047,-22,9863.0
5060,0.3365143835544586,0.9699636697769165,-29,6036.0,-1.0956051349639893,78,9863.0
5070,0.336746484041214,-2.0216615200042725,-7,6036.0,1.9513474702835083,-82,9863.0
5080,0.3368544280529022,-3.8359270095825195,23,6036.0,0.6587352752685547,7,9863.0
5090,0.3370393216609955,-2.496013641357422,-125,6036.0,0.12116594612598419,51,9863.0
5100,0.33729392290115356,-0.5295118689537048,-28,6036.0,-1.5823266506195068,45,9863.0
5110,0.33738523721694946,0.4543384909629822,71,6036.0,-0.801337480545044,-21,9863.0
5120,0.3377598226070404,2.7995500564575195,10,6036.0,0.9624847769737244,-6,9863.0
5130,0.3381364643573761,1.8586620092391968,-17,6036.0,1.8092068433761597,90,9863.0
5140,0.33847084641456604,0.7335155010223389,43,6036.0,2.6731879711151123,11,9863.0
5150,0.3387286067008972,-0.03607393056154251,26,6036.0,0.8057459592819214,-35,9863.0
5160,0.3382304310798645,-2.0485599040985107,-87,6036.0,3.4032368659973145,113,9863.0
5170,0.3383699357509613,-1.199271559715271,-68,6036.0,0.7683570981025696,134,9863.0
5180,0.3386053740978241,-1.1146243810653687,-3,6036.0,2.954458713531494,39,9863.0
5190,0.33894217014312744,0.5890230536460876,35,6036.0,1.221961259841919,-43,9863.0
5200,0.3384387493133545,-0.06634537130594254,-64,6036.0,2.7778286933898926,96,9863.0
5210,0.3388493061065674,0.8021301031112671,-17,6036.0,0.5382092595100403,103,9863.0
5220,0.33923283219337463,-0.6163284182548523,52,6036.0,2.292149782180786,-47,9863.0
5230,0.3395751714706421,1.4177117347717285,26,6036.0,2.0683348178863525,11,9863.0
5240,0.33995485305786133,1.224685788154602,-11,6036.0,-0.6735852956771851,164,9863.0
5250,0.3376423418521881,1.150489091873169,-35,6036.0,0.9618440270423889,29,9863.0
5260,0.3380635976791382,-0.2502693831920624,68,6036.0,1.768364667892456,-173,9863.0
5270,0.33852580189704895,1.186688780784607,65,6036.0,0.45918211340904236,-22,9863.0
5280,0.3389423191547394,0.39140868186950684,2,6036.0,-2.2650225162506104,132,9863.0
5290,0.33796507120132446,-0.5084366798400879,-73,6036.0,-0.27563053369522095,20,9863.0
5300,0.3381847143173218,-3.02443790435791,-17,6036.0,3.034529685974121,-93,9863.0
5310,0.3384552001953125,-1.9754198789596558,19,6036.0,2.188350200653076,41,9863.0
5320,0.33878761529922485,-0.41175591945648193,13,6036.0,-0.6117985248565674,162,9863.0
5330,0.3390590250492096,-0.12507086992263794,-52,6036.0,1.8499330282211304,17,9863.0
5340,0.3392728865146637,1.0520851612091064,10,6036.0,1.9319696426391602,-8,9863.0
5350,0.33936646580696106,-0.07277089357376099,92,6036.0,0.3327344059944153,3,9863.0
5360,0.33935293555259705,1.170941948890686,58,6036.0,-0.12681245803833008,-47,9863.0
5370,0.33935871720314026,1.6828333139419556,-73,6036.0,0.32680219411849976,33,9863.0
5380,0.3372584581375122,1.9244383573532104,-8,6036.0,-2.6058766841888428,58,9863.0
5390,0.33723050355911255,-1.611361026763916,16,6036.0,-2.511075019836426,-134,9863.0
5400,0.3371307849884033,-0.5668824911117554,2,6036.0,-6.127439498901367,-184,9863.0
5410,0.3369356691837311,-1.7757678031921387,-53,6036.0,-3.849065065383911,48,9863.0
5420,0.33602115511894226,0.4104320704936981,-17,6036.0,-2.428591012954712,-61,9863.0
5430,0.33585023880004883,-0.1700425148010254,12,6036.0,-3.575928211212158,-124,9863.0
5440,0.335806667804718,0.6774678230285645,36,6036.0,-2.7088518142700195,-35,9863.0
5450,0.33587646484375,0.3441712558269501,-14,6036.0,-3.4734065532684326,83,9863.0
5460,0.33593833446502686,0.9277328848838806,-12,6036.0,-2.0370686054229736,-29,9863.0
5470,0.33597320318222046,-0.22861404716968536,30,6036.0,-0.3313817083835602,-188,9863.0
5480,0.3359878659248352,-0.308991938829422,20,6036.0,-0.9109629392623901,75,9863.0
5490,0.33606401085853577,-0.6026831865310669,-28,6036.0,-1.1032592058181763,186,9863.0
5500,0.3362298309803009,-0.4310738444328308,-6,6036.0,4.9521613121032715,-40,9863.0
5510,0.33548498153686523,-0.5928277969360352,91,6036.0,6.622922420501709,-35,9863.0
5520,0.3357529044151306,-0.22821904718875885,38,6036.0,6.293321132659912,167,9863.0
5530,0.33599555492401123,0.5835484862327576,-35,6036.0,4.609781742095947,125,9863.0
5540,0.3361596465110779,-1.1619542837142944,-38,6036.0,5.384768009185791,5,9863.0
5550,0.3357793092727661,-1.1682357788085938,27,6036.0,3.619126319885254,36,9863.0
5560,0.33586591482162476,-1.760197639465332,12,6036.0,4.7655205726623535,154,9863.0
5570,0.33598703145980835,-0.5077332258224487,-39,6036.0,3.526949644088745,57,9863.0
5580,0.3361327648162842,1.3605824708938599,-16,6036.0,1.8434956073760986,-88,9863.0
5590,0.33626291155815125,-0.08635131269693375,-9,6036.0,2.2607929706573486,30,9863.0
5600,0.3358057737350464,1.2008404731750488,52,6036.0,0.11228971928358078,-7,9863.0
5610,0.33575141429901123,1.5126923322677612,-6,6036.0,2.1845734119415283,19,9863.0
5620,0.3356125056743622,-1.2005621194839478,-60,6036.0,1.2943083047866821,76,9863.0
5630,0.3355007469654083,-1.2921373844146729,-10,6036.0,0.45153072476387024,-27,9863.0
5640,0.33528614044189453,-1.3743966817855835,18,6036.0,-0.09660407900810242,-150,9863.0
5650,0.3352705240249634,-0.5845903754234314,-29,6036.0,-0.9843197464942932,65,9863.0
5660,0.3351966142654419,0.8218839168548584,21,6036.0,-3.1322176456451416,159,9863.0
5670,0.3350474238395691,-0.33163756132125854,-11,6036.0,2.7009341716766357,-58,9863.0
5680,0.3349193036556244,0.9779531359672546,116,6036.0,0.6412609815597534,-98,9863.0
5690,0.33476385474205017,-0.7566521167755127,18,6036.0,3.020616292953491,112,9863.0
5700,0.3347127437591553,0.9308985471725464,-10,6036.0,-0.8067837357521057,126,9863.0
5710,0.3347261846065521,0.05989665910601616,-39,6036.0,-0.7419773936271667,-30,9863.0
5720,0.33477485179901123,0.4454951286315918,11,6036.0,-0.8092087507247925,-102,9863.0
5730,0.3341180384159088,1.0674195289611816,42,6036.0,-2.9404029846191406,20,9863.0
5740,0.33404049277305603,1.4461826086044312,-9,6036.0,-4.821333408355713,27,9863.0
5750,0.3339427709579468,-0.8280086517333984,-9,6036.0,-3.492750644683838,-259,9863.0
5760,0.33387547731399536,-1.9647763967514038,82,6036.0,-5.0665082931518555,-188,9863.0
5770,0.33353471755981445,-1.8226301670074463,2,6036.0,-8.153491020202637,78,9863.0
5780,0.33358097076416016,0.46098098158836365,-33,6036.0,-6.9333109855651855,-35,9863.0
5790,0.3336419463157654,-1.3198561668395996,15,6036.0,-4.01694917678833,-222,9863.0
5800,0.33371204137802124,-0.44817858934402466,37,6036.0,-3.273674249649048,-108,9863.0
5810,0.3336939513683319,0.7391037344932556,28,6036.0,-3.5800979137420654,82,9863.0
5820,0.33375659584999084,0.9357631802558899,-28,6036.0,-0.9573588967323303,-3,9863.0
5830,0.33374613523483276,-0.839560329914093,-18,6036.0,0.12011785805225372,-111,9863.0
5840,0.333829402923584,-1.1455450057983398,47,6036.0,-2.792012929916382,23,9863.0
5850,0.3339979648590088,-0.48758822679519653,5,6036.0,-1.3447562456130981,90,9863.0
5860,0.3345409333705902,-0.0777662843465805,-44,6036.0,1.7274465560913086,-67,9863.0
5870,0.3348160982131958,0.7698933482170105,17,6036.0,2.47859263420105,15,9863.0
5880,0.33506134152412415,0.6410834193229675,48,6036.0,1.574561357498169,149,9863.0
5890,0.3352626860141754,0.9175772666931152,-36,6036.0,4.425972938537598,76,9863.0
5900,0.3360249400138855,0.72639000415802,-1,6036.0,5.8359479904174805,16,9863.0
5910,0.33625632524490356,0.3813842535018921,70,6036.0,5.477267265319824,55,9863.0
5920,0.3365497887134552,-1.0521010160446167,-14,6036.0,5.520797252655029,211,9863.0
5930,0.33687537908554077,-0.7177227139472961,-55,6036.0,7.383060455322266,155,9863.0
5940,0.33718228340148926,-2.0700342655181885,-52,6036.0,7.147286415100098,80,9863.0
5950,0.33615168929100037,-1.6248116493225098,24,6036.0,3.3643267154693604,52,9863.0
5960,0.3362380862236023,0.6241191029548645,103,6036.0,2.348156452178955,6,9863.0
5970,0.3362119495868683,0.06942500919103622,-77,6036.0,2.3810932636260986,26,9863.0
5980,0.3361995816230774,1.3531391620635986,-12,6036.0,0.0958666056394577,64,9863.0
5990,0.33654627203941345,-0.4256434440612793,69,6036.0,-0.93748939037323,-53,9863.0
6000,0.3366560637950897,-0.8941635489463806,54,6036.0,0.04856078326702118,-112,9863.0
6010,0.33668532967567444,-0.5027037858963013,-75,6036.0,1.4293652772903442,42,9863.0
6020,0.3366600573062897,0.8441004157066345,-47,6036.0,-0.8054341673851013,61,9863.0
6030,0.3366815149784088,1.9586431980133057,47,6036.0,-1.1699436902999878,-104,9863.0
6040,0.3357267379760742,0.6931723356246948,84,6036.0,-0.5804362297058105,-98,9863.0
6050,0.33588188886642456,0.6298895478248596,41,6036.0,-2.720454692840576,29,9863.0
6060,0.33605852723121643,-0.35605648159980774,-54,6036.0,-2.658658504486084,64,9863.0
6070,0.3361528515815735,-2.1964566707611084,-18,6036.0,-0.6645636558532715,-127,9863.0
6080,0.3353596031665802,-1.0091774463653564,-8,6036.0,-0.4575255811214447,-100,9863.0
6090,0.3355017602443695,-1.2500355243682861,-13,6036.0,-1.0633735656738281,99,9863.0
6100,0.3357360363006592,0.10811031609773636,-16,6036.0,-0.2586389482021332,125,9863.0
6110,0.3360210955142975,2.495469331741333,-67,6036.0,2.1147141456604004,-69,9863.0
6120,0.33538535237312317,3.729588747024536,29,6036.0,2.9228553771972656,34,9863.0
6130,0.33553048968315125,-0.39498963952064514,95,6036.0,3.788135528564453,109,9863.0
6140,0.33566468954086304,0.5426908135414124,-20,6036.0,2.957871198654175,55,9863.0
6150,0.33585914969444275,-1.6639171838760376,-115,6036.0,-0.2284812182188034,58,9863.0
6160,0.3360665440559387,-1.8600409030914307,-15,6036.0,-2.1609253883361816,-22,9863.0
6170,0.33465850353240967,-2.721414089202881,28,6036.0,-0.37091264128685,-185,9863.0
6180,0.334764301776886,0.4273383915424347,-21,6036.0,-2.9704926013946533,-16,9863.0
6190,0.33485928177833557,1.830287218093872,14,6036.0,-7.688441276550293,73,9863.0
6200,0.33497461676597595,2.243638753890991,-8,6036.0,-3.052664279937744,-78,9863.0
6210,0.33349424600601196,1.8644795417785645,67,6036.0,-2.169868230819702,-204,9863.0
6220,0.3336414098739624,0.2453153431415558,63,6036.0,-3.9784281253814697,-75,9863.0
6230,0.3337896466255188,-1.69888174533844,-31,6036.0,-3.4615206718444824,-62,9863.0
6240,0.3338509500026703,-3.0840744972229004,-128,6036.0,-3.203080177307129,-23,9863.0
6250,0.33385229110717773,-4.2320122718811035,-92,6036.0,-3.2385947704315186,20,9863.0
6260,0.33312660455703735,-3.6965885162353516,39,6036.0,-1.4456275701522827,-194,9863.0
6270,0.3331843912601471,-0.5955370664596558,59,6036.0,-3.0191643238067627,-89,9863.0
6280,0.33326971530914307,3.682938575744629,86,6036.0,-0.8909804821014404,148,9863.0
6290,0.33329498767852783,6.457170486450195,46,6036.0,1.2049497365951538,133,9863.0
6300,0.3335554301738739,4.314211845397949,39,6036.0,5.836644172668457,-33,9863.0
6310,0.33350780606269836,0.5563952922821045,39,6036.0,7.658124923706055,80,9863.0
6320,0.33346638083457947,-3.126399040222168,-31,6036.0,6.897140026092529,261,9863.0
6330,0.3334982991218567,-2.8152194023132324,-98,6036.0,6.870058536529541,184,9863.0
6340,0.3333885669708252,-3.0093817710876465,-67,6036.0,8.695430755615234,60,9863.0
6350,0.3334655463695526,-1.4762167930603027,68,6036.0,8.409500122070312,71,9863.0
6360,0.33347830176353455,1.331109642982483,76,6036.0,6.882766246795654,180,9863.0
6370,0.33346250653266907,3.401843786239624,-1,6036.0,6.2982330322265625,127,9863.0
6380,0.3335550129413605,1.9760419130325317,-30,6036.0,3.7743637561798096,53,9863.0
6390,0.33310428261756897,-0.0614517442882061,30,6036.0,-0.9147893786430359,-29,9863.0
6400,0.33330559730529785,-2.654407501220703,90,6036.0,-2.2496800422668457,-206,9863.0
6410,0.3334978520870209,1.374938726425171,51,6036.0,-4.763123989105225,-121,9863.0
6420,0.3336365818977356,0.12179549783468246,-48,6036.0,-5.897585868835449,66,9863.0
6430,0.33426445722579956,3.564337730407715,17,6036.0,-7.777430534362793,-68,9863.0
6440,0.33450308442115784,0.5456920862197876,91,6036.0,-5.535336971282959,-275,9863.0
6450,0.334744393825531,3.848026752471924,35,6036.0,-4.906546115875244,-104,9863.0
6460,0.3349016010761261,-0.5840339660644531,51,6036.0,-8.033533096313477,-10,9863.0
6470,0.3349387049674988,-2.2886457443237305,-100,6036.0,-4.226322650909424,-48,9863.0
6480,0.3365428149700165,-2.857647657394409,-55,6036.0,-3.148625373840332,-82,9863.0
6490,0.33670496940612793,-2.7992477416992188,14,6036.0,-1.6820124387741089,-14,9863.0
6500,0.336862713098526,-2.3507437705993652,-15,6036.0,0.05985501408576965,59,9863.0
6510,0.33703580498695374,0.44203445315361023,-66,6036.0,2.51103138923645,117,9863.0
6520,0.33518654108047485,1.1257221698760986,-59,6036.0,5.197705268859863,164,9863.0
6530,0.3351893723011017,1.1359612941741943,56,6036.0,4.310129165649414,37,9863.0
6540,0.335193932056427,-0.8310432434082031,0,6036.0,7.3689045906066895,44,9863.0
6550,0.33529725670814514,-0.5971555113792419,-53,6036.0,4.795640468597412,179,9863.0
6560,0.33610543608665466,-1.471958041191101,-45,6036.0,5.660323143005371,181,9863.0
6570,0.33644339442253113,-1.5458526611328125,2,6036.0,5.633756637573242,-108,9863.0
6580,0.336783766746521,-0.5595019459724426,4,6036.0,6.426461219787598,8,9863.0
6590,0.3371686339378357,3.4154181480407715,171,6036.0,0.5705016255378723,121,9863.0
6600,0.33764803409576416,5.382172107696533,77,6036.0,-0.2868797183036804,27,9863.0
6610,0.33795878291130066,3.8628900051116943,45,6036.0,-0.9310874342918396,-140,9863.0
6620,0.33847758173942566,6.736336708068848,105,6036.0,-4.468196868896484,-94,9863.0
6630,0.3388802111148834,3.435544729232788,96,6036.0,-7.002984046936035,-117,9863.0
6640,0.3390757143497467,1.4695781469345093,33,6036.0,-6.725042343139648,-94,9863.0
6650,0.33834919333457947,-2.1263527870178223,-123,6036.0,-3.3417327404022217,17,9863.0
6660,0.3384949266910553,-3.5084152221679688,-82,6036.0,-2.537710428237915,-63,9863.0
6670,0.338614284992218,-4.772321701049805,-56,6036.0,-3.84597110748291,-170,9863.0
6680,0.3385842740535736,-5.077609062194824,-77,6036.0,-2.513230323791504,37,9863.0
6690,0.3383536636829376,-1.938063621520996,-58,6036.0,-5.512372016906738,75,9863.0
6700,0.33622175455093384,1.5846803188323975,18,6036.0,-1.820449709892273,-53,9863.0
6710,0.33571264147758484,11.75614070892334,288,6036.0,-0.8252225518226624,-139,9863.0
6720,0.33511921763420105,16.7902889251709,215,6036.0,-0.35679247975349426,81,9863.0
6730,0.3343040943145752,11.799348831176758,177,6036.0,-3.094815254211426,52,9863.0
6740,0.33063173294067383,12.127798080444336,181,6036.0,-4.808055877685547,-205,9863.0
6750,0.3293633460998535,7.8050127029418945,176,6036.0,-5.121069431304932,-101,9863.0
6760,0.32756349444389343,5.999830722808838,66,6036.0,-5.4704813957214355,41,9863.0
6770,0.325617253780365,0.7197472453117371,11,6036.0,-3.118759870529175,-137,9863.0
6780,0.32453373074531555,-3.9754505157470703,-54,6036.0,-1.4436674118041992,-3,9863.0
6790,0.3226413428783417,-13.41305160522461,-414,6036.0,-0.3768376410007477,145,9863.0
6800,0.3209855854511261,-43.78411102294922,-826,6036.0,6.6033806800842285,63,9863.0
6810,0.3199886381626129,-59.46752166748047,-922,6036.0,8.31266975402832,134,9863.0
6820,0.31874778866767883,-38.7518196105957,-422,6036.0,9.339750289916992,-60,9863.0
6830,0.3158363699913025,-3.1379008293151855,197,6036.0,13.603376388549805,157,9863.0
6840,0.3145447075366974,23.259666442871094,398,6036.0,15.015515327453613,239,9863.0
6850,0.31321340799331665,38.24055480957031,721,6036.0,10.754395484924316,67,9863.0
6860,0.31178563833236694,41.895992279052734,664,6036.0,4.5283403396606445,154,9863.0
6870,0.31106263399124146,44.650184631347656,650,6036.0,-3.0825979709625244,13,9863.0
6880,0.30999913811683655,25.012577056884766,244,6036.0,-4.515376091003418,47,9863.0
6890,0.3090592622756958,-2.9593024253845215,-217,6036.0,-4.87467622756958,-95,9863.0
6900,0.30850473046302795,-22.36326789855957,-347,6036.0,2.1290972232818604,-153,9863.0
6910,0.30824965238571167,-23.28736114501953,-410,6036.0,3.6208488941192627,80,9863.0
6920,0.30767616629600525,-26.52446746826172,-437,6036.0,4.0766754150390625,-28,9863.0
6930,0.307916522026062,-30.040124893188477,-485,6036.0,2.960714340209961,189,9863.0
6940,0.3085559010505676,-21.671770095825195,-336,6036.0,1.326857089996338,145,9863.0
6950,0.30938196182250977,-1.7989542484283447,44,6036.0,1.4868521690368652,32,9863.0
6960,0.3093322515487671,6.386905670166016,128,6036.0,3.1397640705108643,99,9863.0
6970,0.31025704741477966,9.983664512634277,106,6036.0,4.69598913192749,63,9863.0
6980,0.3112291991710663,8.917040824890137,222,6036.0,7.394280433654785,-109,9863.0
6990,0.312233030796051,16.118051528930664,287,6036.0,5.04921293258667,12,9863.0
7000,0.3112935423851013,19.127857208251953,239,6036.0,2.1301097869873047,-9,9863.0
7010,0.3121475279331207,18.157209396362305,306,6036.0,-1.1892685890197754,-17,9863.0
7020,0.3130818009376526,12.441841125488281,194,6036.0,-2.53250789642334,70,9863.0
7030,0.31392934918403625,9.002378463745117,102,6036.0,-3.0058765411376953,-48,9863.0
7040,0.31445106863975525,7.628737449645996,175,6036.0,-1.8873766660690308,-196,9863.0
7050,0.3146529197692871,6.654202938079834,77,6036.0,-2.206740140914917,-8,9863.0
7060,0.3148444890975952,4.0257568359375,35,6036.0,-3.8885457515716553,-19,9863.0
7070,0.3147834539413452,-0.36846455931663513,44,6036.0,-6.9468560218811035,-207,9863.0
7080,0.3144597113132477,-4.071446418762207,-98,6036.0,-10.367471694946289,-139,9863.0
7090,0.3114866018295288,-7.207195281982422,-132,6036.0,-8.847740173339844,-184,9863.0
7100,0.3103601038455963,-7.027000427246094,-71,6036.0,-7.976614952087402,0,9863.0
7110,0.3090131878852844,-4.577881813049316,-80,6036.0,-3.948232650756836,26,9863.0
7120,0.30728423595428467,-6.396299362182617,-70,6036.0,1.6598727703094482,-87,9863.0
7130,0.305185467004776,-3.405104398727417,-36,6036.0,1.0395958423614502,90,9863.0
7140,0.3027535080909729,2.358145236968994,44,6036.0,3.417142629623413,101,9863.0
7150,0.30003446340560913,10.06231689453125,238,6036.0,2.0439791679382324,200,9863.0
7160,0.29705163836479187,16.349903106689453,205,6036.0,1.2006802558898926,85,9863.0
7170,0.29391545057296753,13.511835098266602,271,6036.0,2.3097221851348877,44,9863.0
7180,0.29264378547668457,8.277315139770508,101,6036.0,3.928786039352417,-44,9863.0
7190,0.2894311249256134,-0.7258786559104919,-63,6036.0,5.043942451477051,14,9863.0
7200,0.2863582968711853,-9.911541938781738,-127,6036.0,8.67090892791748,-38,9863.0
7210,0.28337201476097107,-15.055561065673828,-346,6036.0,13.525832176208496,232,9863.0
7220,0.28183799982070923,-20.04079818725586,-281,6036.0,16.533584594726562,350,9863.0
7230,0.2790830135345459,-23.298336029052734,-378,6036.0,20.10016441345215,210,9863.0
7240,0.2771456241607666,-22.545177459716797,-288,6036.0,22.47083854675293,286,9863.0
7250,0.2754455506801605,-16.012157440185547,-66,6036.0,22.39971160888672,317,9863.0
7260,0.2738693952560425,-5.082250595092773,-72,6036.0,22.072067260742188,454,9863.0
7270,0.27322351932525635,-0.842499315738678,4,6036.0,20.350732803344727,437,9863.0
7280,0.27251970767974854,6.650206565856934,33,6036.0,14.006536483764648,171,9863.0
7290,0.27199435234069824,8.755838394165039,147,6036.0,8.724019050598145,98,9863.0
7300,0.2717093527317047,8.773722648620605,218,6036.0,1.265289068222046,-231,9863.0
7310,0.27289703488349915,4.865765571594238,115,6036.0,-5.489554405212402,-33,9863.0
7320,0.27316251397132874,3.8943734169006348,208,6036.0,-5.628266334533691,-28,9863.0
7330,0.27344024181365967,11.83555793762207,78,6036.0,-11.561195373535156,-65,9863.0
7340,0.2735576033592224,14.162945747375488,176,6036.0,-9.425705909729004,9,9863.0
7350,0.2737075388431549,16.123355865478516,202,6036.0,-4.3350653648376465,-33,9863.0
7360,0.27525049448013306,14.210265159606934,169,6036.0,-3.3005950450897217,109,9863.0
7370,0.2755342423915863,12.584980964660645,113,6036.0,-1.2377991676330566,-50,9863.0
7380,0.27587610483169556,0.44856083393096924,-151,6036.0,-0.28873640298843384,115,9863.0
7390,0.2763359844684601,-6.1511101722717285,-93,6036.0,-1.7449898719787598,80,9863.0
7400,0.2787126302719116,-10.120684623718262,-191,6036.0,-2.1281192302703857,-17,9863.0
7410,0.2789479196071625,-9.515741348266602,-211,6036.0,-3.0394127368927,55,9863.0
7420,0.2790157198905945,-2.898564577102661,-67,6036.0,-3.4775497913360596,-26,9863.0
7430,0.2788178622722626,-3.733738422393799,-82,6036.0,-1.5760998725891113,118,9863.0
7440,0.279939740896225,1.654968023300171,46,6036.0,-1.5502362251281738,79,9863.0
7450,0.27956831455230713,4.412168025970459,34,6036.0,1.5269361734390259,144,9863.0
7460,0.2791586220264435,9.22507095336914,197,6036.0,5.334548473358154,184,9863.0
7470,0.27837809920310974,14.362992286682129,200,6036.0,10.291083335876465,136,9863.0
7480,0.277589350938797,14.750561714172363,211,6036.0,7.944620609283447,365,9863.0
7490,0.2773105204105377,14.160843849182129,155,6036.0,7.140408039093018,235,9863.0
7500,0.27661383152008057,9.24966049194336,195,6036.0,9.591315269470215,290,9863.0
7510,0.27569764852523804,4.705402851104736,33,6036.0,9.169975280761719,320,9863.0
7520,0.2745574712753296,-1.5632425546646118,-116,6036.0,10.616857528686523,150,9863.0
7530,0.2754415273666382,-9.240102767944336,-95,6036.0,11.57772159576416,180,9863.0
7540,0.27477923035621643,-14.725972175598145,-294,6036.0,13.210579872131348,254,9863.0
7550,0.2740395665168762,-15.155567169189453,-277,6036.0,12.636221885681152,349,9863.0
7560,0.2730165719985962,-17.605642318725586,-174,6036.0,15.870481491088867,248,9863.0
7570,0.27184775471687317,-13.104676246643066,-333,6036.0,12.209766387939453,197,9863.0
7580,0.27173912525177,-16.98959732055664,-289,6036.0,7.918484687805176,296,9863.0
7590,0.2707366347312927,-18.63426399230957,-403,6036.0,6.682611465454102,158,9863.0
7600,0.2694946527481079,-15.587882041931152,-305,6036.0,2.66347336769104,171,9863.0
7610,0.26834508776664734,-10.530010223388672,-140,6036.0,-0.4522949755191803,-119,9863.0
7620,0.2671241760253906,-2.450817823410034,-80,6036.0,2.13679575920105,-78,9863.0
7630,0.2659664452075958,7.211446762084961,235,6036.0,5.184770107269287,-34,9863.0
7640,0.2648555338382721,13.720429420471191,335,6036.0,6.596973419189453,-66,9863.0
7650,0.2639203667640686,21.085098266601562,432,6036.0,7.985866546630859,154,9863.0
7660,0.2616766095161438,24.256376266479492,493,6036.0,11.340150833129883,108,9863.0
7670,0.26031285524368286,24.937572479248047,354,6036.0,11.324715614318848,259,9863.0
7680,0.258718341588974,22.532678604125977,430,6036.0,13.729948043823242,399,9863.0
7690,0.25735610723495483,22.5213680267334,264,6036.0,12.237147331237793,357,9863.0
7700,0.2560422718524933,19.612409591674805,185,6036.0,15.449422836303711,406,9863.0
7710,0.2531541883945465,13.57606029510498,104,6036.0,14.836421012878418,323,9863.0
7720,0.25193068385124207,13.422445297241211,222,6036.0,14.037214279174805,206,9863.0
7730,0.2510685622692108,6.1895060539245605,110,6036.0,12.522817611694336,19,9863.0
7740,0.25027644634246826,0.6034414768218994,11,6036.0,10.996857643127441,49,9863.0
7750,0.2501446604728699,-1.5008565187454224,26,6036.0,5.234058856964111,168,9863.0
7760,0.24944572150707245,-3.1698641777038574,30,6036.0,2.0781333446502686,113,9863.0
7770,0.2490512728691101,-1.766001582145691,-91,6036.0,-0.15011411905288696,16,9863.0
7780,0.24865667521953583,-2.807832717895508,-69,6036.0,-2.459925889968872,-43,9863.0
7790,0.24841739237308502,-4.329013824462891,-25,6036.0,4.378159999847412,50,9863.0
7800,0.2466239035129547,-1.561895489692688,111,6036.0,-2.940751075744629,-80,9863.0
7810,0.24628514051437378,-4.686969757080078,-92,6036.0,-2.0765435695648193,-29,9863.0
7820,0.2461279034614563,-3.8005707263946533,-180,6036.0,-4.603237628936768,74,9863.0
7830,0.24603323638439178,-4.092679977416992,-95,6036.0,-3.701874017715454,0,9863.0
7840,0.243341863155365,-4.526283264160156,-25,6036.0,-4.259832859039307,-123,9863.0
7850,0.2429400384426117,-6.341551303863525,19,6036.0,-1.6178795099258423,-153,9863.0
7860,0.24259082973003387,-5.53809118270874,-126,6036.0,0.13830812275409698,-30,9863.0
7870,0.2422451674938202,2.944019079208374,-54,6036.0,-6.348271369934082,68,9863.0
7880,0.24115243554115295,8.114879608154297,189,6036.0,-5.85037088394165,-92,9863.0
7890,0.24072667956352234,10.384561538696289,221,6036.0,-3.95440673828125,-302,9863.0
7900,0.240121528506279,8.93905258178711,178,6036.0,-5.548413276672363,-46,9863.0
7910,0.23982402682304382,6.461056709289551,11,6036.0,-0.06851451098918915,57,9863.0
7920,0.23951241374015808,1.0679967403411865,-91,6036.0,-4.697259902954102,44,9863.0
7930,0.23757855594158173,-5.107251167297363,-56,6036.0,-2.0384418964385986,-120,9863.0
7940,0.23724253475666046,-4.6165876388549805,-9,6036.0,-3.0349481105804443,-254,9863.0
7950,0.23671573400497437,-5.470427513122559,0,6036.0,-1.5895261764526367,-71,9863.0
7960,0.2362000048160553,-5.426331043243408,-138,6036.0,-3.34957218170166,-30,9863.0
7970,0.23548151552677155,-3.768068790435791,-133,6036.0,-0.2525104880332947,94,9863.0
7980,0.2351682037115097,-5.320763111114502,-104,6036.0,3.377305269241333,105,9863.0
7990,0.2345345914363861,-2.3591978549957275,-37,6036.0,10.259727478027344,85,9863.0
8000,0.23377595841884613,0.9084070324897766,104,6036.0,8.887320518493652,139,9863.0
8010,0.23362600803375244,0.41867443919181824,-5,6036.0,11.225077629089355,163,9863.0
8020,0.23304320871829987,3.1421895027160645,-43,6036.0,6.972699165344238,255,9863.0
8030,0.23274938762187958,2.8718972206115723,4,6036.0,7.675261497497559,49,9863.0
8040,0.232092022895813,2.3190431594848633,94,6036.0,7.533196926116943,70,9863.0
8050,0.23105919361114502,0.19804826378822327,84,6036.0,7.465247631072998,219,9863.0
8060,0.2298893928527832,-1.806945562362671,5,6036.0,9.221961975097656,251,9863.0
8070,0.22919154167175293,2.329768180847168,-58,6036.0,8.601068496704102,159,9863.0
8080,0.22850379347801208,2.5580854415893555,46,6036.0,8.437944412231445,6,9863.0
8090,0.22741064429283142,3.7467639446258545,133,6036.0,7.968173027038574,-4,9863.0
8100,0.22802194952964783,5.310528755187988,62,6036.0,4.276188373565674,244,9863.0
8110,0.22818346321582794,5.57235860824585,48,6036.0,9.099003791809082,174,9863.0
8120,0.22757358849048615,6.926316261291504,91,6036.0,4.168196678161621,169,9863.0
8130,0.22682607173919678,2.2820820808410645,103,6036.0,9.396623611450195,123,9863.0
8140,0.22657626867294312,0.9650031924247742,95,6036.0,6.5938568115234375,207,9863.0
8150,0.22824542224407196,0.5249719023704529,-100,6036.0,10.219010353088379,183,9863.0
8160,0.22790776193141937,1.1664297580718994,22,6036.0,9.616156578063965,66,9863.0
8170,0.2275918573141098,-0.0693863183259964,71,6036.0,6.647668361663818,-35,9863.0
8180,0.22702792286872864,-1.4956034421920776,28,6036.0,4.179348468780518,14,9863.0
8190,0.22846612334251404,-2.3882968425750732,-62,6036.0,7.047173500061035,96,9863.0
8200,0.22843103110790253,-2.670062303543091,-80,6036.0,6.304341793060303,178,9863.0
8210,0.22914116084575653,-6.4974260330200195,-116,6036.0,10.5897855758667,180,9863.0
8220,0.22869496047496796,-5.2940354347229,1,6036.0,13.358158111572266,192,9863.0
8230,0.23246833682060242,-2.536379337310791,1,6036.0,14.165390014648438,324,9863.0
8240,0.23255589604377747,0.5875163674354553,-6,6036.0,12.283805847167969,369,9863.0
8250,0.2332424819469452,2.884200096130371,-8,6036.0,17.405899047851562,323,9863.0
8260,0.23318220674991608,1.0936793088912964,125,6036.0,17.394113540649414,98,9863.0
8270,0.23414573073387146,1.5723979473114014,117,6036.0,12.887252807617188,226,9863.0
8280,0.23784728348255157,-0.8071156144142151,-31,6036.0,9.411210060119629,177,9863.0
8290,0.23836752772331238,-0.4417427182197571,-103,6036.0,6.982387065887451,195,9863.0
8300,0.23818495869636536,-0.4954776167869568,-84,6036.0,6.86356782913208,-44,9863.0
8310,0.23907770216464996,-3.6089673042297363,-1,6036.0,1.7899919748306274,-74,9863.0
8320,0.2415885180234909,-5.366584300994873,-98,6036.0,4.14879846572876,20,9863.0
8330,0.24234089255332947,-5.617153644561768,-177,6036.0,2.9485995769500732,209,9863.0
8340,0.24218732118606567,-6.24242639541626,-225,6036.0,4.459052562713623,47,9863.0
8350,0.24357843399047852,-9.242850303649902,-161,6036.0,4.882956027984619,34,9863.0
8360,0.24446754157543182,-9.130256652832031,-49,6036.0,3.2295949459075928,-9,9863.0
8370,0.24902521073818207,-8.136725425720215,-69,6036.0,2.540644884109497,133,9863.0
8380,0.24889351427555084,-7.996955871582031,-150,6036.0,3.283604383468628,197,9863.0
8390,0.25001275539398193,-5.394773960113525,-144,6036.0,6.9443206787109375,154,9863.0
8400,0.2507455348968506,-6.578741073608398,-105,6036.0,2.604356288909912,16,9863.0
8410,0.2520882487297058,-4.140793800354004,-27,6036.0,4.56128454208374,-109,9863.0
8420,0.2518281042575836,-2.842062473297119,54,6036.0,1.5676170587539673,-35,9863.0
8430,0.2525404989719391,-1.780998945236206,-50,6036.0,-2.731619358062744,-34,9863.0
8440,0.2531640827655792,0.7734671235084534,-41,6036.0,0.10594519227743149,49,9863.0
8450,0.25311604142189026,2.6932270526885986,-50,6036.0,4.158848285675049,193,9863.0
8460,0.25294560194015503,0.919386625289917,-32,6036.0,7.111456871032715,22,9863.0
8470,0.2527047395706177,0.5056053996086121,19,6036.0,10.14753246307373,8,9863.0
8480,0.25303328037261963,-1.8095375299453735,-6,6036.0,9.623151779174805,167,9863.0
8490,0.2532864809036255,-1.4187843799591064,-45,6036.0,9.991668701171875,193,9863.0
8500,0.25108566880226135,0.00029352502315305173,-100,6036.0,10.725067138671875,278,9863.0
8510,0.2511717677116394,0.2869081497192383,-38,6036.0,9.013068199157715,74,9863.0
8520,0.2507787346839905,0.20793463289737701,38,6036.0,1.7497947216033936,-98,9863.0
8530,0.25039055943489075,2.38224720954895,66,6036.0,2.004270315170288,107,9863.0
8540,0.2494385540485382,3.193909168243408,-19,6036.0,-0.16697558760643005,106,9863.0
8550,0.24887284636497498,3.148179769515991,12,6036.0,-0.2502080798149109,-82,9863.0
8560,0.24861305952072144,4.076606273651123,133,6036.0,-3.2234046459198,-130,9863.0
8570,0.2482580840587616,6.389646530151367,139,6036.0,-5.059781551361084,-75,9863.0
8580,0.24752692878246307,6.29536247253418,-3,6036.0,-3.2540550231933594,45,9863.0
8590,0.24730601906776428,4.719788074493408,89,6036.0,-0.08479980379343033,-17,9863.0
8600,0.2468971312046051,2.919732093811035,85,6036.0,0.5787398815155029,-83,9863.0
8610,0.24700012803077698,1.071459412574768,6,6036.0,4.71539831161499,113,9863.0
8620,0.24664105474948883,0.5231063961982727,-25,6036.0,1.4897453784942627,0,9863.0
8630,0.24884770810604095,-3.2904603481292725,8,6036.0,1.2928260564804077,-137,9863.0
8640,0.24905431270599365,-1.9767236709594727,40,6036.0,-2.693413257598877,102,9863.0
8650,0.24928395450115204,-0.17467805743217468,-76,6036.0,-4.115505695343018,-2,9863.0
8660,0.24958017468452454,1.07418692111969,51,6036.0,-6.1540207862854,-171,9863.0
8670,0.24976828694343567,2.0282247066497803,83,6036.0,-6.340113162994385,-58,9863.0
8680,0.2498481273651123,2.065669298171997,3,6036.0,-8.978799819946289,-124,9863.0
8690,0.24987564980983734,3.207488536834717,66,6036.0,-9.086061477661133,-214,9863.0
8700,0.24989652633666992,2.6274914741516113,130,6036.0,-7.095033645629883,-79,9863.0
8710,0.2498982697725296,1.7054353952407837,-52,6036.0,-10.277584075927734,-30,9863.0
8720,0.24960048496723175,-0.2864917814731598,-18,6036.0,-5.589333534240723,-172,9863.0
8730,0.24975503981113434,-2.280477285385132,35,6036.0,-4.112039566040039,-131,9863.0
8740,0.24980053305625916,-2.6848886013031006,-76,6036.0,-4.346435070037842,35,9863.0
8750,0.2500069737434387,-2.5923523902893066,-68,6036.0,-2.66528058052063,-22,9863.0
8760,0.2518808841705322,-0.7197434902191162,42,6036.0,1.6967060565948486,-51,9863.0
8770,0.2521224915981293,1.0691198110580444,16,6036.0,2.3512754440307617,129,9863.0
8780,0.2523593306541443,3.2551538944244385,44,6036.0,0.5703308582305908,47,9863.0
8790,0.2522854208946228,8.531411170959473,133,6036.0,-0.5566233992576599,-108,9863.0
8800,0.2527686059474945,7.1585187911987305,160,6036.0,-2.6835319995880127,38,9863.0
8810,0.2539865970611572,9.53791618347168,67,6036.0,-3.065288543701172,123,9863.0
8820,0.2543918192386627,7.129145622253418,101,6036.0,-0.43657854199409485,-167,9863.0
8830,0.2548614740371704,4.229607105255127,69,6036.0,1.3712668418884277,-144,9863.0
8840,0.2551363706588745,1.6158051490783691,85,6036.0,0.6208000183105469,59,9863.0
8850,0.256790429353714,-1.5615768432617188,-80,6036.0,-2.0825090408325195,-6,9863.0
8860,0.25740891695022583,-2.912797212600708,-74,6036.0,-0.12086144089698792,-104,9863.0
8870,0.25785744190216064,-5.046097755432129,-38,6036.0,-2.628974437713623,-84,9863.0
8880,0.25824978947639465,-4.38218355178833,-55,6036.0,-3.0551867485046387,-19,9863.0
8890,0.2599746584892273,-3.3709044456481934,-126,6036.0,-8.598548889160156,-73,9863.0
8900,0.26024824380874634,-4.803792476654053,-74,6036.0,-8.827831268310547,-187,9863.0
8910,0.2607148587703705,-4.816797256469727,-35,6036.0,-7.665587425231934,-205,9863.0
8920,0.2611227333545685,-3.2687747478485107,-79,6036.0,-8.17354679107666,-131,9863.0
8930,0.26144590973854065,-1.7728770971298218,-50,6036.0,-8.048073768615723,7,9863.0
8940,0.264750599861145,-0.996380627155304,36,6036.0,0.018547749146819115,-75,9863.0
8950,0.2651267945766449,1.738722324371338,92,6036.0,1.1403281688690186,-22,9863.0
8960,0.2653949558734894,3.0276196002960205,42,6036.0,2.8857803344726562,117,9863.0
8970,0.26557615399360657,3.215731620788574,-16,6036.0,9.627758026123047,173,9863.0
8980,0.26793333888053894,3.7868106365203857,26,6036.0,11.259002685546875,126,9863.0
8990,0.26876944303512573,3.181461811065674,96,6036.0,14.085840225219727,177,9863.0
9000,0.2692917585372925,2.4883532524108887,69,6036.0,13.757699966430664,290,9863.0
9010,0.269815057516098,3.0580697059631348,-18,6036.0,12.189164161682129,293,9863.0
9020,0.2707436680793762,1.8067938089370728,-45,6036.0,9.737919807434082,213,9863.0
9030,0.2713468670845032,0.06086026504635811,-8,6036.0,10.070509910583496,44,9863.0
9040,0.271892249584198,-1.3864144086837769,56,6036.0,6.394960880279541,6,9863.0
9050,0.27235379815101624,-1.7889872789382935,33,6036.0,2.2644946575164795,79,9863.0
9060,0.2727338969707489,-3.4228765964508057,-95,6036.0,1.3069952726364136,115,9863.0
9070,0.27562132477760315,-7.297389507293701,-192,6036.0,1.7079046964645386,117,9863.0
9080,0.27598023414611816,-8.173401832580566,-162,6036.0,-0.20726163685321808,-14,9863.0
9090,0.2763948142528534,-8.192948341369629,-135,6036.0,-1.646384358406067,-98,9863.0
9100,0.2766464948654175,-7.53579568862915,-8,6036.0,-0.32146552205085754,-167,9863.0
9110,0.2773062586784363,-5.961265563964844,25,6036.0,0.46270036697387695,-95,9863.0
9120,0.27738216519355774,-4.2143449783325195,72,6036.0,3.176206588745117,57,9863.0
9130,0.2772180140018463,-3.745206832885742,5,6036.0,9.31313705444336,123,9863.0
9140,0.2775130271911621,-5.12433385848999,-70,6036.0,6.860912322998047,238,9863.0
9150,0.2775941789150238,-5.783088684082031,-106,6036.0,3.743351459503174,184,9863.0
9160,0.2784498631954193,-10.77125072479248,-273,6036.0,5.728755950927734,287,9863.0
9170,0.27835652232170105,-14.30226993560791,-312,6036.0,6.0328779220581055,121,9863.0
9180,0.27806833386421204,-12.03458023071289,-223,6036.0,-1.559482216835022,84,9863.0
9190,0.27789604663848877,-9.246683120727539,-194,6036.0,-0.4205852746963501,29,9863.0
9200,0.27933260798454285,-8.506204605102539,-135,6036.0,1.6292619705200195,-24,9863.0
9210,0.2788350284099579,-9.999770164489746,-182,6036.0,1.7252236604690552,-109,9863.0
9220,0.2787812352180481,-9.150887489318848,-162,6036.0,-5.6137847900390625,-137,9863.0
9230,0.278434693813324,-14.979769706726074,-233,6036.0,-1.1415022611618042,-104,9863.0
9240,0.27903804183006287,-13.648161888122559,-158,6036.0,0.10354786366224289,-183,9863.0
9250,0.27863889932632446,-13.901754379272461,-108,6036.0,-1.5604960918426514,-179,9863.0
9260,0.27821940183639526,-10.477845191955566,-71,6036.0,-0.011539190076291561,-229,9863.0
9270,0.27773961424827576,-6.3799567222595215,2,6036.0,0.0007246994646266103,-215,9863.0
9280,0.27767881751060486,-8.294490814208984,-7,6036.0,-0.5065984129905701,-174,9863.0
9290,0.2804625928401947,-7.725317001342773,-33,6036.0,1.5957388877868652,-130,9863.0
9300,0.28062522411346436,-7.84329080581665,5,6036.0,-0.229145810008049,-205,9863.0
9310,0.2805634140968323,-5.764843463897705,-11,6036.0,0.3454449474811554,-34,9863.0
9320,0.28075549006462097,-2.569575071334839,34,6036.0,0.8433641791343689,-25,9863.0
9330,0.28202587366104126,-0.9468294382095337,104,6036.0,4.846990585327148,112,9863.0
9340,0.28231099247932434,2.4964568614959717,72,6036.0,7.849639892578125,125,9863.0
9350,0.28254860639572144,2.1979825496673584,80,6036.0,8.823847770690918,18,9863.0
9360,0.28295037150382996,1.3126130104064941,122,6036.0,4.7679572105407715,13,9863.0
9370,0.28315186500549316,1.0588390827178955,28,6036.0,4.647517204284668,22,9863.0
9380,0.28508567810058594,-0.5636130571365356,25,6036.0,2.512758255004883,-102,9863.0
9390,0.28558582067489624,0.1964583396911621,45,6036.0,-3.6963460445404053,-126,9863.0
9400,0.28614166378974915,-0.5765691995620728,-22,6036.0,-3.985098123550415,-104,9863.0
9410,0.2867835462093353,-3.3235743045806885,-25,6036.0,-8.615608215332031,-217,9863.0
9420,0.28872641921043396,-3.8608551025390625,-50,6036.0,-7.6372175216674805,-180,9863.0
9430,0.28935810923576355,-4.058308124542236,-56,6036.0,-6.285096168518066,-173,9863.0
9440,0.28993263840675354,-2.4896602630615234,-41,6036.0,-4.943953037261963,-142,9863.0
9450,0.290355384349823,-0.6172499656677246,-11,6036.0,-6.846373081207275,8,9863.0
9460,0.290231853723526,-1.5106761455535889,-34,6036.0,-3.334829092025757,43,9863.0
9470,0.2908349931240082,-2.0469307899475098,-51,6036.0,-3.5030248165130615,72,9863.0
9480,0.29137879610061646,-4.490983009338379,-100,6036.0,-2.0434153079986572,-26,9863.0
9490,0.2919386923313141,-6.682888507843018,-125,6036.0,0.3182496726512909,-27,9863.0
9500,0.2924729585647583,-7.368074893951416,-153,6036.0,0.16499173641204834,-54,9863.0
9510,0.2889564633369446,-7.955418109893799,-102,6036.0,-1.0843702554702759,-126,9863.0
9520,0.28898781538009644,-5.366441249847412,-63,6036.0,-3.2019572257995605,-140,9863.0
9530,0.289140522480011,-3.1043689250946045,14,6036.0,3.0883474349975586,-81,9863.0
9540,0.2891627848148346,-0.29042312502861023,99,6036.0,0.9548311233520508,-5,9863.0
9550,0.2894761264324188,3.174923896789551,94,6036.0,4.777863025665283,-40,9863.0
9560,0.28947916626930237,4.950498104095459,123,6036.0,2.024293899536133,-1,9863.0
9570,0.28943073749542236,6.09039831161499,144,6036.0,3.8981006145477295,-25,9863.0
9580,0.2894350290298462,3.535181760787964,109,6036.0,2.675349712371826,7,9863.0
9590,0.28930288553237915,1.655072808265686,36,6036.0,6.6432952880859375,29,9863.0
9600,0.2907097041606903,-0.6234667897224426,15,6036.0,5.632708549499512,-13,9863.0
9610,0.290645956993103,-2.3596580028533936,4,6036.0,1.1228424310684204,-24,9863.0
9620,0.29059699177742004,-3.832934856414795,-16,6036.0,2.493821382522583,-57,9863.0
9630,0.29057949781417847,-4.209432601928711,21,6036.0,0.03423724323511124,-28,9863.0
9640,0.29067564010620117,-3.301734209060669,-8,6036.0,4.601625919342041,2,9863.0
9650,0.2906634211540222,-0.14374031126499176,46,6036.0,0.5401207804679871,-56,9863.0
9660,0.29078179597854614,-0.39854973554611206,34,6036.0,5.713601589202881,27,9863.0
9670,0.29094016551971436,2.723235607147217,86,6036.0,4.330019950866699,-92,9863.0
9680,0.2899281680583954,1.8938437700271606,146,6036.0,6.8471574783325195,-32,9863.0
9690,0.2900890111923218,2.518845319747925,97,6036.0,5.311956882476807,-17,9863.0
9700,0.29029881954193115,4.085019111633301,128,6036.0,1.2885262966156006,-86,9863.0
9710,0.2904930114746094,2.871415615081787,159,6036.0,-2.1901395320892334,-130,9863.0
9720,0.2907194197177887,4.8312249183654785,128,6036.0,-1.9015886783599854,-85,9863.0
9730,0.29055169224739075,2.990231990814209,137,6036.0,-3.9818174839019775,-117,9863.0
9740,0.29085251688957214,2.7738752365112305,57,6036.0,-5.539137840270996,-90,9863.0
9750,0.29114437103271484,2.1442782878875732,53,6036.0,-3.7925620079040527,-181,9863.0
9760,0.2914346158504486,2.259894371032715,124,6036.0,-2.7330892086029053,-118,9863.0
9770,0.2898913323879242,2.8868496417999268,99,6036.0,-2.7346649169921875,-132,9863.0
9780,0.29008105397224426,3.413043975830078,123,6036.0,-0.32741785049438477,-98,9863.0
9790,0.2903561294078827,4.282562732696533,108,6036.0,-2.9161105155944824,-114,9863.0
9800,0.29064875841140747,5.925523281097412,123,6036.0,0.7478460669517517,-17,9863.0
9810,0.2890634536743164,3.457736015319824,134,6036.0,4.098939895629883,-25,9863.0
9820,0.28917205333709717,5.491739273071289,169,6036.0,-0.5742348432540894,-63,9863.0
9830,0.28926363587379456,6.294863700866699,148,6036.0,1.9118971824645996,-30,9863.0
9840,0.28937917947769165,5.143583297729492,118,6036.0,2.031625986099243,-36,9863.0
9850,0.2895139753818512,6.144827842712402,126,6036.0,-1.5728825330734253,-80,9863.0
9860,0.2893773019313812,5.146810531616211,125,6036.0,-2.6367993354797363,-214,9863.0
9870,0.28949978947639465,4.494776725769043,146,6036.0,-4.486289024353027,-214,9863.0
9880,0.28959113359451294,4.070096492767334,124,6036.0,-3.5529582500457764,-192,9863.0
9890,0.28979751467704773,2.817143440246582,86,6036.0,1.4000029563903809,-123,9863.0
9900,0.28884339332580566,1.4139541387557983,67,6036.0,-0.4099561870098114,-51,9863.0
9910,0.28897711634635925,-0.7029639482498169,65,6036.0,0.5620570778846741,-49,9863.0
9920,0.2890644669532776,1.6786401271820068,92,6036.0,-1.620129942893982,-147,9863.0
9930,0.2891359329223633,1.068410038948059,-26,6036.0,-0.5753316879272461,-115,9863.0
9940,0.2893029451370239,-0.6621242165565491,-3,6036.0,-1.2081103324890137,-89,9863.0
9950,0.28808802366256714,0.8905028700828552,61,6036.0,0.35056641697883606,-51,9863.0
9960,0.28821220993995667,0.9940974712371826,37,6036.0,-0.8009101748466492,-66,9863.0
9970,0.2882799804210663,1.2936378717422485,13,6036.0,-0.4412260055541992,-14,9863.0
9980,0.2882833182811737,0.9959567785263062,49,6036.0,-2.124544382095337,-60,9863.0
9990,0.2897503674030304,1.4885026216506958,27,6036.0,0.06131798028945923,110,9863.0
10000,0.2899172604084015,2.868433713912964,-40,6036.0,-0.45707422494888306,104,9863.0
10010,0.2901400029659271,2.725829601287842,-68,6036.0,2.037997007369995,95,9863.0
10020,0.2904314398765564,2.6109509468078613,-68,6036.0,-0.8286657929420471,175,9863.0
10030,0.2915715277194977,1.6721811294555664,-31,6036.0,3.4034290313720703,85,9863.0
10040,0.2919982075691223,1.829616665840149,-5,6036.0,-0.1600365936756134,16,9863.0
10050,0.2925514578819275,3.8248698711395264,51,6036.0,0.7202262282371521,120,9863.0
10060,0.2931232154369354,3.971930742263794,17,6036.0,0.9729630351066589,135,9863.0
10070,0.29372844099998474,3.936539888381958,-19,6036.0,1.500854730606079,76,9863.0
10080,0.2954100966453552,2.9488115310668945,-17,6036.0,0.545020580291748,82,9863.0
10090,0.29613545536994934,0.8722138404846191,-20,6036.0,-2.6032655239105225,135,9863.0
10100,0.29693248867988586,2.2185652256011963,-32,6036.0,-0.7755175232887268,36,9863.0
10110,0.2977289855480194,2.728874683380127,34,6036.0,1.400835394859314,22,9863.0
10120,0.2987414598464966,2.6197919845581055,49,6036.0,-3.6871278285980225,34,9863.0
10130,0.2997014820575714,3.354224920272827,7,6036.0,-2.643341541290283,67,9863.0
10140,0.30063292384147644,1.333315134048462,-26,6036.0,-1.3702318668365479,41,9863.0
10150,0.3015374541282654,0.8090319037437439,-36,6036.0,-1.4362493753433228,43,9863.0
10160,0.30244192481040955,0.9130200743675232,-44,6036.0,0.42090216279029846,86,9863.0
10170,0.3036176264286041,0.17298269271850586,-62,6036.0,-1.7578831911087036,156,9863.0
10180,0.3046269118785858,-0.4549521207809448,-79,6036.0,-2.166300058364868,-10,9863.0
10190,0.30556347966194153,-0.17950916290283203,-15,6036.0,-2.68969988822937,27,9863.0
10200,0.30648136138916016,-0.14007055759429932,-19,6036.0,-0.8141981363296509,44,9863.0
10210,0.30764421820640564,1.5948381423950195,6,6036.0,-1.99423348903656,27,9863.0
10220,0.30860042572021484,2.4207239151000977,-8,6036.0,-3.5907626152038574,-30,9863.0
10230,0.3096339702606201,1.063990592956543,-5,6036.0,-3.0062263011932373,-130,9863.0
10240,0.31057390570640564,-0.5610878467559814,-1,6036.0,-4.386220455169678,-84,9863.0
10250,0.3113008141517639,-1.2659040689468384,-24,6036.0,-3.3108034133911133,-154,9863.0
10260,0.31216877698898315,-3.590487241744995,-19,6036.0,-2.79728102684021,-113,9863.0
10270,0.31308138370513916,-3.2705817222595215,-60,6036.0,-0.6096015572547913,-87,9863.0
10280,0.31384122371673584,-1.336411714553833,-8,6036.0,-2.8173303604125977,-138,9863.0
10290,0.31468644738197327,-0.9816800951957703,-14,6036.0,-1.7660390138626099,-67,9863.0
10300,0.31602713465690613,-0.4385012984275818,18,6036.0,-1.726309061050415,-9,9863.0
10310,0.3167722225189209,-0.5034478902816772,0,6036.0,3.5876550674438477,71,9863.0
10320,0.31744149327278137,1.0503511428833008,6,6036.0,-0.014251942746341228,35,9863.0
10330,0.31804630160331726,2.93963360786438,49,6036.0,-1.6022989749908447,26,9863.0
10340,0.31836792826652527,3.4932851791381836,50,6036.0,-3.1601104736328125,58,9863.0
10350,0.3187665641307831,2.4187746047973633,15,6036.0,-1.1463239192962646,39,9863.0
10360,0.31916093826293945,1.4912662506103516,-10,6036.0,-2.621062755584717,9,9863.0
10370,0.31949183344841003,-0.24391816556453705,-4,6036.0,-3.044419050216675,-82,9863.0
10380,0.3197949230670929,-1.6178550720214844,7,6036.0,-1.4117766618728638,16,9863.0
10390,0.3189798891544342,-2.377115488052368,-6,6036.0,1.2935304641723633,-39,9863.0
10400,0.31918075680732727,-3.180170774459839,-29,6036.0,0.027051111683249474,-66,9863.0
10410,0.3193399906158447,-2.511310338973999,-46,6036.0,0.6252532005310059,-40,9863.0
10420,0.31946495175361633,-1.1683624982833862,9,6036.0,0.5412496328353882,-102,9863.0
10430,0.31854355335235596,-0.6083974838256836,14,6036.0,2.9018797874450684,-36,9863.0
10440,0.3185317814350128,-0.5283137559890747,29,6036.0,1.0925284624099731,-86,9863.0
10450,0.31845566630363464,0.15874812006950378,29,6036.0,2.499337673187256,29,9863.0
10460,0.31830912828445435,-0.3162992298603058,11,6036.0,1.9146407842636108,91,9863.0
10470,0.31733396649360657,0.14586636424064636,21,6036.0,1.909696102142334,-46,9863.0
10480,0.3171108365058899,-2.3586623668670654,15,6036.0,3.4262421131134033,42,9863.0
10490,0.3167901039123535,-2.989280939102173,-7,6036.0,1.6353864669799805,-14,9863.0
10500,0.31650596857070923,-2.4808273315429688,-58,6036.0,1.6831626892089844,-7,9863.0
10510,0.31607431173324585,-4.5921711921691895,-12,6036.0,-0.5759106278419495,-54,9863.0
10520,0.31470876932144165,-2.699387550354004,31,6036.0,0.8067434430122375,-70,9863.0
10530,0.314399391412735,1.3597379922866821,54,6036.0,-2.1999166011810303,-42,9863.0
10540,0.31384921073913574,-0.7241978645324707,32,6036.0,3.614049196243286,-13,9863.0
10550,0.31343239545822144,-0.38228121399879456,58,6036.0,6.587817192077637,-32,9863.0
10560,0.3137432932853699,-1.6439746618270874,95,6036.0,1.9036626815795898,-146,9863.0
10570,0.31351611018180847,1.5189177989959717,65,6036.0,1.3273531198501587,1,9863.0
10580,0.3131481111049652,0.7260056138038635,111,6036.0,0.5672782063484192,-96,9863.0
10590,0.3126829266548157,-1.6715259552001953,-23,6036.0,-2.222576379776001,-15,9863.0
10600,0.3119417726993561,-1.6395641565322876,-156,6036.0,-2.0182230472564697,145,9863.0
10610,0.3123278319835663,-2.460883140563965,-189,6036.0,-6.5369696617126465,11,9863.0
10620,0.3116438090801239,-2.7700958251953125,-151,6036.0,-5.022716522216797,-68,9863.0
10630,0.31112879514694214,-3.133207082748413,-67,6036.0,-6.830060005187988,-48,9863.0
10640,0.31057485938072205,-3.4730846881866455,-75,6036.0,-2.2611608505249023,-132,9863.0
10650,0.3113324046134949,-4.200984954833984,6,6036.0,-1.386608600616455,-102,9863.0
10660,0.31118953227996826,-3.9111669063568115,31,6036.0,0.5109366774559021,-93,9863.0
10670,0.3111327886581421,-6.590656280517578,-22,6036.0,5.863213062286377,118,9863.0
10680,0.311123251914978,-2.335299015045166,-84,6036.0,-2.7507758140563965,156,9863.0
10690,0.31389060616493225,-2.3854644298553467,-125,6036.0,2.72967267036438,82,9863.0
10700,0.3142848014831543,0.49138638377189636,-38,6036.0,2.119049310684204,153,9863.0
10710,0.314789354801178,2.9270100593566895,-1,6036.0,-0.4479459226131439,40,9863.0
10720,0.3154655992984772,0.9721972346305847,92,6036.0,2.009939193725586,-122,9863.0
10730,0.3162340521812439,1.1012120246887207,15,6036.0,-1.191443920135498,-109,9863.0
10740,0.31859269738197327,1.1848359107971191,67,6036.0,-0.9934753775596619,27,9863.0
10750,0.31941038370132446,3.622326135635376,158,6036.0,-0.2950930595397949,-24,9863.0
10760,0.32030490040779114,1.8951468467712402,85,6036.0,-1.0208901166915894,-23,9863.0
10770,0.32114484906196594,4.4225382804870605,106,6036.0,-4.032688617706299,-103,9863.0
10780,0.32507914304733276,4.8478240966796875,107,6036.0,-6.134498119354248,-191,9863.0
10790,0.32620760798454285,1.8762041330337524,32,6036.0,-2.3159589767456055,-147,9863.0
10800,0.3273746371269226,1.7788326740264893,-11,6036.0,-3.4722166061401367,-32,9863.0
10810,0.3285512626171112,1.0656349658966064,53,6036.0,-1.7024070024490356,-50,9863.0
10820,0.3297780752182007,-2.2781758308410645,-20,6036.0,-0.7435887455940247,-92,9863.0
10830,0.33143290877342224,-0.22864890098571777,-34,6036.0,-1.4904398918151855,-59,9863.0
10840,0.33265650272369385,-1.191080927848816,42,6036.0,-1.852306604385376,-167,9863.0
10850,0.33384159207344055,0.03663333132863045,8,6036.0,-4.6428327560424805,-197,9863.0
10860,0.3349713981151581,0.5350207090377808,27,6036.0,-2.4457037448883057,-162,9863.0
10870,0.33724063634872437,1.157257080078125,50,6036.0,-3.130629062652588,-162,9863.0
10880,0.33841559290885925,1.3244236707687378,50,6036.0,-3.573399782180786,-64,9863.0
10890,0.3395654857158661,1.94603431224823,36,6036.0,-2.1572136878967285,-39,9863.0
10900,0.34065327048301697,1.3459373712539673,37,6036.0,-2.77746319770813,43,9863.0
10910,0.33911043405532837,1.4193150997161865,25,6036.0,-2.4826197624206543,94,9863.0
10920,0.33985060453414917,0.44054117798805237,-29,6036.0,-0.30580127239227295,123,9863.0
10930,0.3404652178287506,-0.9009430408477783,-53,6036.0,-2.166780710220337,34,9863.0
10940,0.341037780046463,-2.6110153198242188,-51,6036.0,-1.6115354299545288,-73,9863.0
10950,0.3415132761001587,-3.584590435028076,-58,6036.0,-1.468238353729248,-95,9863.0
10960,0.33996158838272095,-4.760412216186523,-36,6036.0,0.7347244024276733,-136,9863.0
10970,0.3401515483856201,-4.860475063323975,-63,6036.0,1.4454888105392456,-52,9863.0
10980,0.3402794897556305,-5.523775577545166,-57,6036.0,5.150407791137695,-10,9863.0
10990,0.3403979241847992,-4.0240936279296875,-35,6036.0,3.954566478729248,129,9863.0
11000,0.34100815653800964,-2.7265286445617676,-29,6036.0,6.841422080993652,122,9863.0
11010,0.3409651219844818,-1.5366953611373901,6,6036.0,8.777125358581543,278,9863.0
11020,0.3407807946205139,-0.8007786273956299,-19,6036.0,8.0377836227417,296,9863.0
11030,0.3405238389968872,0.3074672818183899,-26,6036.0,5.610140800476074,242,9863.0
11040,0.3401406705379486,2.4559166431427,3,6036.0,6.513424873352051,177,9863.0
11050,0.33889251947402954,1.044309377670288,-3,6036.0,2.8572936058044434,40,9863.0
11060,0.3384280502796173,2.3427956104278564,-13,6036.0,0.5476109981536865,136,9863.0
11070,0.33793288469314575,1.5551904439926147,-44,6036.0,2.468480348587036,99,9863.0
11080,0.3374052941799164,1.6250542402267456,-26,6036.0,1.0211524963378906,76,9863.0
11090,0.3376961052417755,-0.5257114171981812,-26,6036.0,-1.4456688165664673,124,9863.0
11100,0.3372451961040497,-0.45247530937194824,-55,6036.0,-0.04344453662633896,40,9863.0
11110,0.33683183789253235,0.540763795375824,-27,6036.0,2.250725269317627,127,9863.0
11120,0.33642590045928955,-0.37311089038848877,-69,6036.0,4.669444561004639,176,9863.0
11130,0.33637914061546326,-0.11116472631692886,-70,6036.0,3.533907651901245,126,9863.0
11140,0.336021363735199,-1.0039472579956055,-66,6036.0,7.120209693908691,245,9863.0
11150,0.33575278520584106,0.11024641990661621,-17,6036.0,3.523531675338745,251,9863.0
11160,0.3355565071105957,0.2765234708786011,-35,6036.0,7.153434753417969,154,9863.0
11170,0.3354440927505493,1.0946258306503296,-11,6036.0,5.529379367828369,165,9863.0
11180,0.3363860249519348,0.938905656337738,19,6036.0,6.422586917877197,94,9863.0
11190,0.3363773822784424,0.6073408722877502,20,6036.0,4.072459697723389,-78,9863.0
11200,0.33635810017585754,-0.35654252767562866,36,6036.0,4.789327621459961,-23,9863.0
11210,0.3362448215484619,-1.1111226081848145,22,6036.0,-1.4342976808547974,-59,9863.0
11220,0.3360298275947571,0.6784826517105103,50,6036.0,1.3537278175354004,-110,9863.0
11230,0.3358492851257324,-1.0244700908660889,102,6036.0,-0.7033634781837463,-38,9863.0
11240,0.3356487452983856,-0.5068564414978027,19,6036.0,0.10253801196813583,-2,9863.0
11250,0.33536648750305176,-0.9656121730804443,71,6036.0,3.922268867492676,-93,9863.0
11260,0.33503657579421997,-1.9101265668869019,171,6036.0,2.9859607219696045,-147,9863.0
11270,0.3346673548221588,1.8753979206085205,81,6036.0,0.5037186145782471,-65,9863.0
11280,0.3342832028865814,2.017847776412964,25,6036.0,-0.18603140115737915,-52,9863.0
11290,0.33392444252967834,-0.5603227615356445,57,6036.0,-0.6575658917427063,47,9863.0
11300,0.3336166739463806,0.7660536170005798,-68,6036.0,-0.3178255558013916,108,9863.0
11310,0.33280664682388306,-0.006260258611291647,-77,6036.0,1.0519403219223022,28,9863.0
11320,0.3325798213481903,-1.7743438482284546,-26,6036.0,1.7717872858047485,66,9863.0
11330,0.3322847783565521,1.1230521202087402,-33,6036.0,0.7878391146659851,151,9863.0
11340,0.3319712281227112,-0.6145947575569153,-76,6036.0,3.5074501037597656,96,9863.0
11350,0.3321715295314789,-0.7284026145935059,-87,6036.0,1.35232675075531,73,9863.0
11360,0.33187103271484375,1.102697730064392,-90,6036.0,2.4636342525482178,118,9863.0
11370,0.33164840936660767,-1.6393420696258545,-102,6036.0,3.155841827392578,158,9863.0
11380,0.33147305250167847,-1.781182885169983,-77,6036.0,4.2367424964904785,48,9863.0
11390,0.3312762975692749,-0.6166483163833618,-12,6036.0,2.8732099533081055,107,9863.0
11400,0.33267509937286377,-2.480073928833008,65,6036.0,-0.2918115258216858,53,9863.0
11410,0.33256441354751587,-0.8309746384620667,44,6036.0,-4.293067932128906,-96,9863.0
11420,0.3323749601840973,-0.04048686847090721,89,6036.0,-2.1573197841644287,-146,9863.0
11430,0.332194983959198,-0.1779049038887024,103,6036.0,-0.432669073343277,-88,9863.0
11440,0.3347422778606415,-0.08863060176372528,91,6036.0,-1.89345383644104,-253,9863.0
11450,0.3347591161727905,0.5104633569717407,138,6036.0,0.19539588689804077,-253,9863.0
11460,0.33484572172164917,1.5935698747634888,170,6036.0,-5.364622116088867,-101,9863.0
11470,0.3349554240703583,2.3975813388824463,92,6036.0,-1.514465093612671,-46,9863.0
11480,0.33506104350090027,2.258809804916382,32,6036.0,-0.08382047712802887,7,9863.0
11490,0.33594876527786255,1.6947078704833984,-14,6036.0,-0.8234361410140991,108,9863.0
11500,0.33614063262939453,0.4308111369609833,-88,6036.0,-0.6582303047180176,126,9863.0
11510,0.3362922668457031,-2.1979153156280518,-57,6036.0,5.130564212799072,120,9863.0
11520,0.3365226686000824,-1.7336119413375854,-118,6036.0,2.0204672813415527,19,9863.0
11530,0.33802878856658936,-2.011461019515991,-124,6036.0,-0.5537222623825073,101,9863.0
11540,0.33833184838294983,-2.9390034675598145,-135,6036.0,-1.380113124847412,88,9863.0
11550,0.3386622965335846,-2.112478017807007,-129,6036.0,-3.883901596069336,1,9863.0
11560,0.3389241397380829,-1.4072668552398682,-63,6036.0,-6.810478687286377,21,9863.0
11570,0.3413347005844116,-1.0765180587768555,-77,6036.0,-4.811487674713135,81,9863.0
11580,0.34160715341567993,-0.04644550755620003,-31,6036.0,-2.372965097427368,-70,9863.0
11590,0.3418309688568115,1.1116331815719604,41,6036.0,-1.5486265420913696,34,9863.0
11600,0.3420425057411194,2.1946654319763184,57,6036.0,-1.1415283679962158,19,9863.0
11610,0.34223318099975586,3.7928109169006348,49,6036.0,3.644529104232788,45,9863.0
11620,0.3442416489124298,2.645407199859619,80,6036.0,3.1633005142211914,51,9863.0
11630,0.3444679379463196,4.84657621383667,99,6036.0,-0.8661750555038452,75,9863.0
11640,0.34459784626960754,2.4462130069732666,59,6036.0,2.655651569366455,21,9863.0
11650,0.3445548415184021,0.3100334107875824,18,6036.0,2.92642879486084,-2,9863.0
11660,0.3466315269470215,-0.5177748799324036,52,6036.0,-3.837804079055786,-34,9863.0
11670,0.3466218113899231,-2.9478816986083984,-31,6036.0,-2.6272969245910645,-109,9863.0
11680,0.34658464789390564,-3.0759429931640625,-44,6036.0,-3.987569808959961,-98,9863.0
11690,0.34649986028671265,-4.099499225616455,-12,6036.0,-5.194393634796143,-154,9863.0
11700,0.34630316495895386,-2.391883373260498,29,6036.0,-6.335811614990234,-218,9863.0
11710,0.34755077958106995,1.286025881767273,46,6036.0,-5.544023036956787,-151,9863.0
11720,0.3473721444606781,-1.5185081958770752,58,6036.0,-3.091261625289917,2,9863.0
11730,0.347181111574173,1.295756220817566,45,6036.0,-0.9480465054512024,-62,9863.0
11740,0.34696054458618164,1.3282818794250488,45,6036.0,3.3340747356414795,-109,9863.0
11750,0.34880518913269043,-0.7922019958496094,103,6036.0,2.2321624755859375,-89,9863.0
11760,0.348623126745224,-0.6567196249961853,75,6036.0,1.27711820602417,-60,9863.0
11770,0.3483409881591797,0.21371044218540192,1,6036.0,-0.8148015737533569,-89,9863.0
11780,0.34802138805389404,-0.5602923631668091,62,6036.0,-2.7794220447540283,-129,9863.0
11790,0.3508782386779785,-4.36889123916626,-3,6036.0,1.2589324712753296,-38,9863.0
11800,0.350706547498703,-3.347825765609741,-2,6036.0,-3.144979953765869,-152,9863.0
11810,0.3506014347076416,-4.071579456329346,29,6036.0,-2.572291374206543,-221,9863.0
11820,0.3503734767436981,-2.8748128414154053,47,6036.0,-4.682016372680664,-158,9863.0
11830,0.35007739067077637,-0.01980900950729847,27,6036.0,-5.116116046905518,-149,9863.0
11840,0.3533364236354828,-0.07335992157459259,63,6036.0,-4.7875165939331055,-243,9863.0
11850,0.35332486033439636,-1.7939445972442627,61,6036.0,-2.46097731590271,-140,9863.0
11860,0.3534080982208252,0.3332778215408325,46,6036.0,-1.6285984516143799,-77,9863.0
11870,0.3534723222255707,1.3394569158554077,68,6036.0,0.793103814125061,-167,9863.0
11880,0.35726743936538696,0.18951316177845,114,6036.0,1.955463171005249,-83,9863.0
11890,0.3574536144733429,2.1144421100616455,116,6036.0,2.843440532684326,50,9863.0
11900,0.357614129781723,1.4339958429336548,31,6036.0,5.453402996063232,22,9863.0
11910,0.3578627407550812,1.15211021900177,39,6036.0,4.400786399841309,20,9863.0
11920,0.3607267141342163,1.051045536994934,69,6036.0,4.086120128631592,-50,9863.0
11930,0.3609510362148285,-0.11463743448257446,10,6036.0,-1.075405478477478,-91,9863.0
11940,0.3611757159233093,0.5447903275489807,27,6036.0,-2.425041675567627,-139,9863.0
11950,0.36135292053222656,0.7485653758049011,49,6036.0,-5.55159330368042,-113,9863.0
11960,0.36153119802474976,1.435192346572876,60,6036.0,-7.454181671142578,-116,9863.0
11970,0.36302804946899414,1.9776328802108765,38,6036.0,-6.787039756774902,-35,9863.0
11980,0.363261342048645,1.1417697668075562,45,6036.0,-4.516289234161377,8,9863.0
11990,0.36354324221611023,1.5940463542938232,11,6036.0,-4.701117515563965,71,9863.0
12000,0.36375680565834045,1.123148798942566,-10,6036.0,-5.622056007385254,-4,9863.0
12010,0.36584270000457764,-0.3146671652793884,-44,6036.0,-3.9310224056243896,-10,9863.0
12020,0.36599576473236084,-0.5298141837120056,-17,6036.0,-1.968096137046814,15,9863.0
12030,0.36603236198425293,-2.293490171432495,-30,6036.0,-0.793304443359375,-64,9863.0
12040,0.3660517930984497,-1.6259125471115112,-7,6036.0,-0.5200822949409485,-112,9863.0
12050,0.3660600781440735,-0.7983279228210449,-19,6036.0,-2.821326494216919,-80,9863.0
12060,0.36719807982444763,-1.4923408031463623,-2,6036.0,-1.26598060131073,-88,9863.0
12070,0.36715060472488403,-1.393739938735962,-28,6036.0,-4.742961883544922,-121,9863.0
12080,0.36703187227249146,-2.665571451187134,-50,6036.0,-0.18501396477222443,59,9863.0
12090,0.36686190962791443,-1.896309733390808,-35,6036.0,-0.4278815686702728,72,9863.0
12100,0.3683449327945709,-1.5720365047454834,-24,6036.0,-2.189382314682007,154,9863.0
12110,0.3681502938270569,-0.8122485876083374,-17,6036.0,-0.07097772508859634,84,9863.0
12120,0.3679141402244568,0.20091305673122406,60,6036.0,3.173769950866699,16,9863.0
12130,0.36762574315071106,1.4491544961929321,22,6036.0,4.016834735870361,54,9863.0
12140,0.36752545833587646,0.20530331134796143,14,6036.0,4.367441177368164,4,9863.0
12150,0.36704200506210327,-0.8091827034950256,-13,6036.0,5.619375705718994,18,9863.0
12160,0.36647623777389526,0.1993073970079422,10,6036.0,5.364744663238525,59,9863.0
12170,0.3658636808395386,-0.8599146604537964,15,6036.0,5.018862724304199,-31,9863.0
12180,0.36521852016448975,-0.9993746280670166,-22,6036.0,2.7638607025146484,-29,9863.0
12190,0.3668246865272522,-2.4978725910186768,12,6036.0,0.9347373247146606,29,9863.0
12200,0.3663432002067566,-1.55010187625885,2,6036.0,1.117307186126709,30,9863.0
12210,0.3658503592014313,-0.3833394944667816,4,6036.0,-0.7881866097450256,56,9863.0
12220,0.36528170108795166,-1.2942311763763428,7,6036.0,0.9946747422218323,124,9863.0
12230,0.3651879131793976,-0.21085743606090546,-9,6036.0,-0.6906622052192688,161,9863.0
12240,0.36456814408302307,-0.4081367552280426,-2,6036.0,0.7581769824028015,78,9863.0
12250,0.3639243543148041,-0.30164986848831177,-44,6036.0,2.8247811794281006,133,9863.0
12260,0.3632458448410034,-1.316942811012268,-71,6036.0,3.9160730838775635,186,9863.0
12270,0.3625376522541046,-2.0813982486724854,-66,6036.0,2.0257375240325928,99,9863.0
12280,0.36198288202285767,-3.0466346740722656,-102,6036.0,7.641335487365723,213,9863.0
12290,0.3612377643585205,-2.801572561264038,-111,6036.0,6.499528408050537,241,9863.0
12300,0.3604690134525299,-4.328389644622803,-113,6036.0,8.409061431884766,211,9863.0
12310,0.35966813564300537,-4.052702903747559,-127,6036.0,1.519881010055542,49,9863.0
12320,0.36091309785842896,-1.834469199180603,-63,6036.0,0.10387963056564331,71,9863.0
12330,0.3602738678455353,1.4392786026000977,-35,6036.0,-4.348485946655273,54,9863.0
12340,0.35968416929244995,1.341586947441101,-45,6036.0,-1.3797032833099365,41,9863.0
12350,0.3590855002403259,2.0520997047424316,-70,6036.0,-1.1739023923873901,113,9863.0
12360,0.35866934061050415,2.850328207015991,5,6036.0,1.9262807369232178,180,9863.0
12370,0.3581210970878601,1.0728265047073364,-41,6036.0,2.046302318572998,216,9863.0
12380,0.35762667655944824,1.5820337533950806,-15,6036.0,4.1006975173950195,85,9863.0
12390,0.3571602702140808,-0.7551544904708862,-46,6036.0,4.793312072753906,137,9863.0
12400,0.35670673847198486,1.306296467781067,-17,6036.0,4.040167331695557,171,9863.0
12410,0.35798928141593933,-1.8138232231140137,-103,6036.0,7.366771221160889,193,9863.0
12420,0.3577233552932739,-1.1982934474945068,-58,6036.0,3.770763874053955,55,9863.0
12430,0.35755935311317444,-1.2702771425247192,-35,6036.0,2.6099839210510254,124,9863.0
12440,0.3573921322822571,-2.702401876449585,5,6036.0,1.0508358478546143,38,9863.0
12450,0.35873791575431824,-1.5137574672698975,-22,6036.0,2.481349229812622,3,9863.0
12460,0.35867801308631897,-0.19935257732868195,1,6036.0,1.2424107789993286,-85,9863.0
12470,0.35862988233566284,1.4622290134429932,64,6036.0,-1.6331151723861694,-44,9863.0
12480,0.35868343710899353,2.179579257965088,66,6036.0,-4.531846046447754,13,9863.0
12490,0.35875922441482544,2.3854498863220215,22,6036.0,1.1061376333236694,-40,9863.0
12500,0.3581498861312866,3.2654640674591064,81,6036.0,-1.0391850471496582,-20,9863.0
12510,0.3582988381385803,-0.21078439056873322,20,6036.0,2.6169567108154297,28,9863.0
12520,0.3584427237510681,-1.8335174322128296,-16,6036.0,1.2854434251785278,3,9863.0
12530,0.3586156666278839,-2.3711376190185547,-18,6036.0,1.281416654586792,-83,9863.0
12540,0.35806626081466675,-2.251225471496582,-6,6036.0,0.2879825234413147,-61,9863.0
12550,0.35825589299201965,-3.5025832653045654,-10,6036.0,0.982036292552948,0,9863.0
12560,0.35844600200653076,-2.4863152503967285,-2,6036.0,-2.9436676502227783,-28,9863.0
12570,0.3585911989212036,-1.2905827760696411,20,6036.0,0.06392481923103333,-3,9863.0
12580,0.35803669691085815,-0.8639652729034424,39,6036.0,-1.3398151397705078,-26,9863.0
12590,0.3581683039665222,2.2874643802642822,37,6036.0,-0.510517418384552,59,9863.0
12600,0.3583940267562866,3.0788276195526123,93,6036.0,0.08013717830181122,19,9863.0
12610,0.3586682081222534,0.6434487700462341,46,6036.0,2.335523843765259,51,9863.0
12620,0.3589162230491638,3.6850128173828125,14,6036.0,-2.238436222076416,37,9863.0
12630,0.3583899140357971,1.5856095552444458,-16,6036.0,-2.3998942375183105,16,9863.0
12640,0.35856202244758606,0.6266161203384399,-14,6036.0,-3.626040458679199,-7,9863.0
12650,0.3587116003036499,0.3076895773410797,4,6036.0,-2.0355937480926514,91,9863.0
12660,0.35882270336151123,1.2174005508422852,48,6036.0,-1.020384430885315,100,9863.0
12670,0.3565087616443634,1.9235966205596924,9,6036.0,1.641547679901123,81,9863.0
12680,0.35634347796440125,2.174494981765747,-1,6036.0,-1.6225165128707886,159,9863.0
12690,0.35619688034057617,3.1335344314575195,4,6036.0,-3.381513833999634,69,9863.0
12700,0.3560733497142792,3.1109023094177246,31,6036.0,-5.345418930053711,10,9863.0
12710,0.3559210002422333,1.953406572341919,-15,6036.0,-3.2002484798431396,19,9863.0
12720,0.35451412200927734,1.3434571027755737,37,6036.0,-5.731696128845215,-98,9863.0
12730,0.35424545407295227,2.0636844635009766,15,6036.0,-4.412809371948242,0,9863.0
12740,0.35390472412109375,0.6378899812698364,-41,6036.0,-0.8713885545730591,41,9863.0
12750,0.3535463809967041,-0.2996385097503662,-48,6036.0,-1.2373346090316772,-65,9863.0
12760,0.35268279910087585,-1.5911186933517456,2,6036.0,-0.2664707899093628,15,9863.0
12770,0.3522748351097107,0.31184446811676025,-51,6036.0,0.013463997282087803,73,9863.0
12780,0.3519105911254883,0.7013905048370361,-38,6036.0,-1.8183411359786987,11,9863.0
12790,0.3515569567680359,-1.0262730121612549,-56,6036.0,-2.4020297527313232,42,9863.0
12800,0.3503572344779968,0.5117890238761902,-83,6036.0,0.26482805609703064,107,9863.0
12810,0.3499521315097809,-1.0841847658157349,-130,6036.0,1.928959846496582,106,9863.0
12820,0.34959322214126587,-1.7385406494140625,-45,6036.0,-0.3133470118045807,109,9863.0
12830,0.34924617409706116,-1.8171682357788086,-84,6036.0,-2.279587507247925,40,9863.0
12840,0.348891019821167,-1.0313255786895752,-34,6036.0,-1.6379516124725342,100,9863.0
12850,0.34858086705207825,0.6044143438339233,-31,6036.0,-1.7017871141433716,66,9863.0
12860,0.34822744131088257,1.1475989818572998,-39,6036.0,-1.2760155200958252,-27,9863.0
12870,0.3479204475879669,1.219633936882019,44,6036.0,1.7866073846817017,-15,9863.0
12880,0.34769758582115173,-1.0565001964569092,53,6036.0,1.891531229019165,-22,9863.0
12890,0.34694552421569824,-1.5237936973571777,32,6036.0,3.4406192302703857,-39,9863.0
12900,0.3470086455345154,-0.3052466809749603,42,6036.0,4.839608669281006,-110,9863.0
12910,0.3471313416957855,-1.9232800006866455,136,6036.0,2.899488687515259,-214,9863.0
12920,0.34727537631988525,-3.7383930683135986,132,6036.0,6.244877815246582,-48,9863.0
12930,0.34808051586151123,-0.05013398453593254,65,6036.0,3.570577621459961,38,9863.0
12940,0.3483215868473053,1.3943750858306885,11,6036.0,2.5469915866851807,68,9863.0
12950,0.34842631220817566,2.5331597328186035,0,6036.0,3.4012744426727295,88,9863.0
12960,0.3484876751899719,3.726707935333252,-2,6036.0,1.8494584560394287,179,9863.0
12970,0.34851887822151184,3.496673822402954,-67,6036.0,-0.46127912402153015,129,9863.0
12980,0.3462202250957489,2.559054136276245,-115,6036.0,2.0408241748809814,173,9863.0
12990,0.34592580795288086,2.353644371032715,-64,6036.0,1.4716219902038574,120,9863.0
13000,0.3455848693847656,1.973680019378662,-54,6036.0,1.4617178440093994,158,9863.0
13010,0.34516641497612,-2.207775592803955,-80,6036.0,-1.4840596914291382,16,9863.0
13020,0.3428640365600586,-0.31402239203453064,4,6036.0,1.089766025543213,-118,9863.0
13030,0.34233754873275757,-1.4809777736663818,43,6036.0,3.270082950592041,-60,9863.0
13040,0.3418720066547394,-1.836031198501587,69,6036.0,-1.2524635791778564,-57,9863.0
13050,0.3415093421936035,-0.8026705384254456,60,6036.0,0.8007909059524536,-61,9863.0
13060,0.34411725401878357,-3.0922915935516357,61,6036.0,0.6024754643440247,-23,9863.0
13070,0.34389349818229675,-1.2170994281768799,19,6036.0,1.0408272743225098,93,9863.0
13080,0.3436848223209381,2.0972161293029785,-41,6036.0,0.26761680841445923,208,9863.0
13090,0.34342196583747864,0.21096843481063843,-93,6036.0,2.1785924434661865,172,9863.0
13100,0.34308165311813354,1.0197149515151978,-132,6036.0,0.7735126614570618,15,9863.0
13110,0.3454965054988861,1.94113290309906,-17,6036.0,1.2185451984405518,72,9863.0
13120,0.345467209815979,1.0974392890930176,31,6036.0,4.958728790283203,26,9863.0
13130,0.34542813897132874,2.7863051891326904,42,6036.0,2.732687473297119,-65,9863.0
13140,0.34540456533432007,2.5779545307159424,171,6036.0,2.773622751235962,-170,9863.0
13150,0.3484974205493927,2.2132186889648438,173,6036.0,0.528386116027832,-151,9863.0
13160,0.34883591532707214,-0.7690268158912659,124,6036.0,0.2727710008621216,-84,9863.0
13170,0.34922322630882263,-0.41017767786979675,21,6036.0,-0.16185405850410461,75,9863.0
13180,0.34964799880981445,1.3506076335906982,-51,6036.0,-2.1938884258270264,104,9863.0
13190,0.35010918974876404,-0.3574298918247223,-31,6036.0,-0.3244890868663788,56,9863.0
13200,0.3516705334186554,1.6505988836288452,-30,6036.0,0.2270761877298355,91,9863.0
13210,0.3521548807621002,1.1651611328125,-59,6036.0,-0.9893128871917725,35,9863.0
13220,0.3527206778526306,0.5482059121131897,-81,6036.0,1.0670245885849,89,9863.0
13230,0.35329827666282654,-0.4000442326068878,-59,6036.0,-0.5890666842460632,19,9863.0
13240,0.35559797286987305,0.6357175707817078,-36,6036.0,-2.4468119144439697,2,9863.0
13250,0.35643744468688965,-1.7969411611557007,-6,6036.0,-0.366402268409729,-5,9863.0
13260,0.35725900530815125,0.22669152915477753,-29,6036.0,-2.783970832824707,25,9863.0
13270,0.3580704927444458,-0.6633720993995667,30,6036.0,-1.4793622493743896,-33,9863.0
13280,0.35882723331451416,3.3287558555603027,58,6036.0,-4.131059169769287,-88,9863.0
13290,0.3621034324169159,3.0520825386047363,61,6036.0,-5.922693729400635,11,9863.0
13300,0.36303433775901794,2.8505265712738037,-5,6036.0,-1.791860580444336,34,9863.0
13310,0.3638714551925659,2.744920253753662,78,6036.0,-5.190100193023682,-46,9863.0
13320,0.3647100329399109,1.2482398748397827,33,6036.0,-4.6174092292785645,-29,9863.0
13330,0.3651587665081024,1.0838992595672607,-32,6036.0,-9.184761047363281,-19,9863.0
13340,0.36586371064186096,-1.6638329029083252,-22,6036.0,-7.999819755554199,-56,9863.0
13350,0.36653032898902893,-0.23871678113937378,-11,6036.0,-11.06588363647461,-88,9863.0
13360,0.36716246604919434,-0.7686040997505188,-61,6036.0,-8.742313385009766,-173,9863.0
13370,0.36665597558021545,-2.284372329711914,-22,6036.0,-10.509268760681152,-185,9863.0
13380,0.36713242530822754,-3.4124808311462402,-69,6036.0,-4.163370609283447,-207,9863.0
13390,0.36754271388053894,-3.1704323291778564,-43,6036.0,-2.7460098266601562,-191,9863.0
13400,0.36784881353378296,-2.6991453170776367,-24,6036.0,-0.6523094773292542,-91,9863.0
13410,0.368091881275177,-1.9732887744903564,16,6036.0,2.476137399673462,4,9863.0
13420,0.368686318397522,-1.4873307943344116,5,6036.0,2.5435123443603516,56,9863.0
13430,0.36885982751846313,-0.377249538898468,33,6036.0,2.552581310272217,140,9863.0
13440,0.36893951892852783,0.5869669318199158,1,6036.0,3.122647762298584,109,9863.0
13450,0.3689211905002594,-0.8272554874420166,22,6036.0,1.1363544464111328,88,9863.0
13460,0.36881569027900696,1.1082204580307007,42,6036.0,-1.501632809638977,106,9863.0
13470,0.36859145760536194,1.59969162940979,0,6036.0,0.25439855456352234,77,9863.0
13480,0.3682824373245239,0.1748117059469223,-43,6036.0,-0.07059132307767868,89,9863.0
13490,0.36794716119766235,1.1811432838439941,-29,6036.0,0.30509576201438904,119,9863.0
13500,0.3669559061527252,0.930824875831604,-25,6036.0,-0.28267306089401245,85,9863.0
13510,0.36652642488479614,-0.2350609451532364,-6,6036.0,-3.2663018703460693,38,9863.0
13520,0.366073876619339,-1.4618244171142578,-51,6036.0,-0.8652915358543396,27,9863.0
13530,0.36556708812713623,-2.4190096855163574,-75,6036.0,-0.9968374967575073,-26,9863.0
13540,0.36503034830093384,-2.7414348125457764,-42,6036.0,1.6328421831130981,-26,9863.0
13550,0.36525124311447144,-2.290316343307495,-36,6036.0,2.5315401554107666,106,9863.0
13560,0.3647158145904541,-0.39068663120269775,-32,6036.0,5.002201557159424,88,9863.0
13570,0.36420613527297974,-0.9750787019729614,-26,6036.0,0.16334781050682068,-31,9863.0
13580,0.36372554302215576,-1.405373454093933,-37,6036.0,4.845654010772705,70,9863.0
13590,0.3635235130786896,0.5019821524620056,-36,6036.0,3.134222984313965,87,9863.0
13600,0.3630245327949524,2.0067408084869385,13,6036.0,3.9805896282196045,72,9863.0
13610,0.3625435531139374,-0.8529723882675171,28,6036.0,4.156806945800781,62,9863.0
13620,0.36204633116722107,2.3515820503234863,16,6036.0,2.2026782035827637,117,9863.0
13630,0.36148756742477417,0.45835840702056885,-12,6036.0,-0.265501469373703,33,9863.0
13640,0.3607558608055115,0.791496753692627,-8,6036.0,-0.8078582286834717,32,9863.0
13650,0.36018434166908264,1.7537702322006226,-33,6036.0,0.4894811809062958,105,9863.0
13660,0.3595806956291199,0.7008343935012817,-81,6036.0,-0.925778329372406,121,9863.0
13670,0.35899361968040466,-1.5073758363723755,-99,6036.0,2.7896926403045654,137,9863.0
13680,0.35959869623184204,-4.2028584480285645,-130,6036.0,2.0819432735443115,67,9863.0
13690,0.3591877818107605,-4.133017063140869,-155,6036.0,5.560333728790283,209,9863.0
13700,0.3588015139102936,-2.8731300830841064,-98,6036.0,6.8063836097717285,211,9863.0
13710,0.35836419463157654,-3.736309766769409,-127,6036.0,5.531983375549316,205,9863.0
13720,0.35759660601615906,-1.9352656602859497,-53,6036.0,5.617624759674072,86,9863.0
13730,0.3572970926761627,-1.4874231815338135,-14,6036.0,4.392979621887207,140,9863.0
13740,0.3571022152900696,-3.2934348583221436,-7,6036.0,4.277108192443848,123,9863.0
13750,0.3569219708442688,-2.2123334407806396,19,6036.0,1.8769824504852295,-73,9863.0
13760,0.3568037152290344,0.48500508069992065,77,6036.0,4.830550193786621,-87,9863.0
13770,0.3566548228263855,2.4605937004089355,194,6036.0,-0.8031420111656189,-142,9863.0
13780,0.35645005106925964,1.8740730285644531,143,6036.0,-0.3499292731285095,-72,9863.0
13790,0.3561464250087738,3.842499017715454,72,6036.0,-1.6418354511260986,-18,9863.0
13800,0.35578420758247375,5.849123001098633,129,6036.0,-5.629031181335449,-12,9863.0
13810,0.35593852400779724,4.6027092933654785,25,6036.0,-4.025198936462402,-83,9863.0
13820,0.35565221309661865,2.2186648845672607,-21,6036.0,-5.030056953430176,18,9863.0
13830,0.35535284876823425,0.835155725479126,-77,6036.0,-1.6790261268615723,122,9863.0
13840,0.3551175892353058,-1.3378098011016846,-88,6036.0,-2.125854253768921,54,9863.0
13850,0.3557046949863434,-4.430678844451904,-128,6036.0,-2.2541394233703613,-2,9863.0
13860,0.3554726243019104,-3.123131275177002,-111,6036.0,-2.334428548812866,128,9863.0
13870,0.3552783131599426,-2.8661375045776367,-121,6036.0,4.183892726898193,197,9863.0
13880,0.35506486892700195,-2.963884115219116,-99,6036.0,3.115230083465576,91,9863.0
13890,0.3548925817012787,-2.6436283588409424,-82,6036.0,5.6749114990234375,99,9863.0
13900,0.35479533672332764,-0.7620830535888672,19,6036.0,2.675403356552124,-8,9863.0
13910,0.3546571135520935,0.562682032585144,105,6036.0,0.4847155809402466,21,9863.0
13920,0.3545885682106018,-0.2159184217453003,51,6036.0,0.7506669163703918,-49,9863.0
13930,0.35450631380081177,1.4044759273529053,96,6036.0,-4.6631669998168945,-264,9863.0
13940,0.3541870415210724,0.0714845284819603,98,6036.0,-6.10828161239624,-221,9863.0
13950,0.3539004325866699,-0.9211838245391846,71,6036.0,-4.073513507843018,-241,9863.0
13960,0.3535696268081665,1.171811819076538,63,6036.0,-1.1266766786575317,-121,9863.0
13970,0.3531067669391632,-2.8375115394592285,31,6036.0,0.7848583459854126,-15,9863.0
13980,0.35259008407592773,-2.53703236579895,70,6036.0,-1.3749388456344604,-21,9863.0
13990,0.3537878692150116,0.2941800653934479,42,6036.0,0.4612743556499481,104,9863.0
14000,0.3532039225101471,-1.5041075944900513,42,6036.0,0.4523743689060211,89,9863.0
14010,0.35267314314842224,-1.374032974243164,-107,6036.0,-0.8902066946029663,54,9863.0
14020,0.35213321447372437,-1.4899598360061646,-94,6036.0,-2.025815963745117,47,9863.0
14030,0.3539988398551941,0.02948818728327751,-94,6036.0,-4.2932329177856445,118,9863.0
14040,0.35379087924957275,1.0443058013916016,-63,6036.0,-4.2994771003723145,29,9863.0
14050,0.3535696864128113,2.8589348793029785,-70,6036.0,-2.919440507888794,19,9863.0
14060,0.35328352451324463,3.3816416263580322,-2,6036.0,-0.2049514353275299,-1,9863.0
14070,0.35304462909698486,1.2909424304962158,58,6036.0,4.163551330566406,-17,9863.0
14080,0.3560084104537964,-1.6144520044326782,58,6036.0,4.484950542449951,-18,9863.0
14090,0.3557244837284088,-1.7900452613830566,70,6036.0,5.636892318725586,-84,9863.0
14100,0.35548660159111023,-1.1949951648712158,73,6036.0,3.641140937805176,-98,9863.0
14110,0.3553334176540375,-1.713163137435913,96,6036.0,0.5466346740722656,-15,9863.0
14120,0.35855963826179504,-2.1137683391571045,13,6036.0,0.995479941368103,11,9863.0
14130,0.3585827350616455,-0.17619261145591736,-63,6036.0,-1.4787615537643433,71,9863.0
14140,0.3586136996746063,0.4359528422355652,-48,6036.0,-3.533900737762451,20,9863.0
14150,0.3586407005786896,-0.9173509478569031,-77,6036.0,-4.775808334350586,7,9863.0
14160,0.36200687289237976,2.0336999893188477,-104,6036.0,-6.864264965057373,3,9863.0
14170,0.36229512095451355,0.4018460512161255,-102,6036.0,-3.0199944972991943,105,9863.0
14180,0.3625505268573761,0.053525034338235855,-71,6036.0,-1.840226650238037,108,9863.0
14190,0.3628324568271637,0.4065106213092804,-55,6036.0,3.0469257831573486,139,9863.0
14200,0.36308732628822327,2.3552372455596924,5,6036.0,1.2525602579116821,59,9863.0
14210,0.36677491664886475,1.6693806648254395,35,6036.0,2.507190227508545,62,9863.0
14220,0.3670053482055664,2.438044786453247,46,6036.0,-1.5248228311538696,20,9863.0
