timestamp,kalman.stateZ,gyro.x,gyro.xRaw,gyro.xVariance,gyro.y,gyro.yRaw,gyro.yVariance
0,0.2789132297039032,0.4558204412460327,8,8124.0,-2.644597291946411,-55,9909.0
10,0.27897125482559204,0.23107846081256866,8,8124.0,-3.798121213912964,-65,9909.0
20,0.27903228998184204,0.08088866621255875,0,8124.0,-4.78883695602417,-79,9909.0
30,0.2791399657726288,-0.033641982823610306,-1,8124.0,-5.562191963195801,-95,9909.0
40,0.27944839000701904,-0.21180225908756256,5,8124.0,-6.513894081115723,-115,9909.0
50,0.27953487634658813,-0.11020413786172867,1,8124.0,-7.384115219116211,-117,9909.0
60,0.27959784865379333,-0.1653132289648056,2,8124.0,-7.934014320373535,-133,9909.0
70,0.2797119617462158,-0.3024390637874603,4,8124.0,-8.41774845123291,-138,9909.0
80,0.27980607748031616,-0.12303058803081512,1,8124.0,-8.924766540527344,-141,9909.0
90,0.2787667214870453,0.35954511165618896,3,8124.0,-8.820470809936523,-145,9909.0
100,0.27880439162254333,0.26212939620018005,4,8124.0,-8.85134220123291,-149,9909.0
110,0.27886122465133667,0.04923752322793007,6,8124.0,-9.078539848327637,-144,9909.0
120,0.2788422703742981,-0.04821765422821045,-2,8124.0,-8.64489459991455,-147,9909.0
130,0.27890095114707947,-0.0007880380726419389,-3,8124.0,-8.216666221618652,-133,9909.0
140,0.2789039611816406,-0.010477479547262192,0,8124.0,-7.863190650939941,-130,9909.0
150,0.278896689414978,-0.03497867286205292,0,8124.0,-7.134322643280029,-112,9909.0
160,0.2790204882621765,-0.013246099464595318,6,8124.0,-6.687607765197754,-104,9909.0
170,0.2789848744869232,0.4767443537712097,9,8124.0,-5.9300384521484375,-97,9909.0
180,0.27902838587760925,0.6968187689781189,9,8124.0,-4.6967973709106445,-69,9909.0
190,0.27905702590942383,0.7489855885505676,19,8124.0,-3.00870943069458,-39,9909.0
200,0.27910080552101135,2.109938144683838,34,8124.0,-2.1561408042907715,-47,9909.0
210,0.2791600227355957,2.910147190093994,65,8124.0,-1.4507144689559937,-7,9909.0
220,0.2779601514339447,5.4348955154418945,115,8124.0,-1.422847867012024,-15,9909.0
230,0.2779545187950134,6.804905891418457,140,8124.0,1.732967734336853,-7,9909.0
240,0.2779481112957001,6.857242584228516,131,8124.0,2.5059213638305664,47,9909.0
250,0.27799367904663086,5.7518744468688965,112,8124.0,2.6659204959869385,61,9909.0
260,0.27854400873184204,4.152350425720215,98,8124.0,2.774117946624756,52,9909.0
270,0.27875158190727234,3.2287449836730957,121,8124.0,1.8814823627471924,4,9909.0
280,0.27886825799942017,3.8027970790863037,142,8124.0,-0.6434236168861389,-94,9909.0
290,0.27902093529701233,7.787237644195557,76,8124.0,-2.2038519382476807,-51,9909.0
300,0.2790573537349701,1.395748257637024,-15,8124.0,-3.083350419998169,-35,9909.0
310,0.27910754084587097,0.7208743691444397,29,8124.0,-4.518723011016846,-74,9909.0
320,0.27916014194488525,0.6784443855285645,16,8124.0,-5.279961109161377,-47,9909.0
330,0.2792057693004608,1.0831719636917114,-6,8124.0,-5.597774028778076,-118,9909.0
340,0.2792465090751648,1.8012171983718872,59,8124.0,-4.887088775634766,-68,9909.0
350,0.279165118932724,2.327509641647339,10,8124.0,-5.640635967254639,-81,9909.0
360,0.27923986315727234,1.40782630443573,54,8124.0,-3.5904440879821777,-124,9909.0
370,0.27925702929496765,0.9979638457298279,10,8124.0,-3.577939748764038,25,9909.0
380,0.27928411960601807,0.17758803069591522,1,8124.0,-1.2201348543167114,-48,9909.0
390,0.2803666889667511,0.5195250511169434,-23,8124.0,0.6018643975257874,12,9909.0
400,0.2804773449897766,1.04948890209198,7,8124.0,2.0192954540252686,142,9909.0
410,0.2805901765823364,0.7163276076316833,41,8124.0,4.007251739501953,1,9909.0
420,0.28070566058158875,0.3571149706840515,21,8124.0,6.264703273773193,7,9909.0
430,0.2808106541633606,0.725162148475647,31,8124.0,3.6203935146331787,53,9909.0
440,0.28014206886291504,1.7885257005691528,-31,8124.0,2.7292163372039795,188,9909.0
450,0.28019431233406067,0.4585600793361664,-5,8124.0,3.498326539993286,-89,9909.0
460,0.2802835702896118,0.2889290452003479,82,8124.0,4.140052795410156,-168,9909.0
470,0.2803429961204529,-0.010897225700318813,35,8124.0,1.1256874799728394,61,9909.0
480,0.2802557051181793,0.32220813632011414,-53,8124.0,-2.514559507369995,207,9909.0
490,0.2803027331829071,-0.05536334589123726,-68,8124.0,-3.6358723640441895,77,9909.0
500,0.28035616874694824,-0.3842397928237915,-6,8124.0,-3.140803337097168,-199,9909.0
510,0.2804180383682251,-1.2776685953140259,86,8124.0,-0.9362693428993225,-350,9909.0
520,0.2806776463985443,-0.9469525814056396,150,8124.0,-0.5723235607147217,-271,9909.0
530,0.28076574206352234,-0.35204142332077026,88,8124.0,-0.33580726385116577,-23,9909.0
540,0.28084710240364075,-0.15436746180057526,-11,8124.0,-0.31133633852005005,188,9909.0
550,0.28093135356903076,0.2810336947441101,-95,8124.0,-0.2035297453403473,242,9909.0
560,0.28102803230285645,-0.15611578524112701,-109,8124.0,0.3853633999824524,179,9909.0
570,0.28026437759399414,-0.6249096393585205,-60,8124.0,4.234982490539551,62,9909.0
580,0.2802790701389313,-1.8095290660858154,-35,8124.0,5.749383449554443,6,9909.0
590,0.280286580324173,-2.048689365386963,13,8124.0,4.950772285461426,-15,9909.0
600,0.2802579402923584,-0.16227851808071136,35,8124.0,5.241729259490967,38,9909.0
610,0.28008654713630676,-2.5538721084594727,3,8124.0,3.8046276569366455,28,9909.0
620,0.27994298934936523,-0.6891322135925293,19,8124.0,4.3247880935668945,14,9909.0
630,0.2797742784023285,-0.3311235010623932,38,8124.0,3.293214797973633,46,9909.0
640,0.27961236238479614,-0.6020222306251526,16,8124.0,1.7474445104599,58,9909.0
650,0.2794293761253357,1.769033432006836,-2,8124.0,0.7767971754074097,-63,9909.0
660,0.27958646416664124,1.1497875452041626,10,8124.0,1.947432518005371,-63,9909.0
670,0.27956876158714294,4.492040157318115,-21,8124.0,-2.6701202392578125,-39,9909.0
680,0.27956435084342957,2.402639627456665,-4,8124.0,-1.8546782732009888,-75,9909.0
690,0.2795816659927368,2.6230387687683105,-26,8124.0,-3.7447025775909424,-9,9909.0
700,0.2797655463218689,0.7490930557250977,-23,8124.0,-3.7165348529815674,117,9909.0
710,0.27980557084083557,0.19407962262630463,-84,8124.0,-3.172194242477417,-6,9909.0
720,0.27969011664390564,0.8237513303756714,-104,8124.0,-2.978870391845703,150,9909.0
730,0.2794908285140991,-0.37161800265312195,-126,8124.0,-3.2058966159820557,12,9909.0
740,0.28065645694732666,-0.4064229428768158,-25,8124.0,-1.6093839406967163,-5,9909.0
750,0.28046661615371704,-0.555055558681488,25,8124.0,0.366158127784729,-181,9909.0
760,0.2802494466304779,-0.6224486231803894,61,8124.0,2.029477119445801,-196,9909.0
770,0.2799963653087616,-1.1813584566116333,145,8124.0,1.4895325899124146,-253,9909.0
780,0.27976298332214355,1.6475257873535156,145,8124.0,4.185458183288574,-167,9909.0
790,0.2789516746997833,1.6489959955215454,83,8124.0,2.954542875289917,-165,9909.0
800,0.2787282168865204,1.486004114151001,82,8124.0,2.8273239135742188,-201,9909.0
810,0.27850303053855896,0.5819745659828186,115,8124.0,0.9495422840118408,-183,9909.0
820,0.2783023715019226,-0.559630274772644,90,8124.0,1.1087594032287598,-94,9909.0
830,0.2796114385128021,-1.7161922454833984,29,8124.0,-0.4652741849422455,-22,9909.0
840,0.27957266569137573,-1.7118110656738281,32,8124.0,-1.2723170518875122,48,9909.0
850,0.27960294485092163,-1.4691828489303589,-17,8124.0,-1.799476981163025,101,9909.0
860,0.27957314252853394,-1.160570740699768,-65,8124.0,-1.3224939107894897,104,9909.0
870,0.2795051336288452,-1.0183606147766113,-99,8124.0,-2.884850263595581,118,9909.0
880,0.2788366973400116,-0.3935951888561249,-86,8124.0,-3.8329412937164307,137,9909.0
890,0.2787141501903534,-0.24431964755058289,-110,8124.0,-4.022600173950195,147,9909.0
900,0.2785455584526062,-0.3757636249065399,-119,8124.0,-3.3691823482513428,170,9909.0
910,0.2783917188644409,-0.8627837300300598,-93,8124.0,-2.326876401901245,154,9909.0
920,0.2801092267036438,-0.43144306540489197,-126,8124.0,-2.105031967163086,124,9909.0
930,0.28009605407714844,-0.6264009475708008,-114,8124.0,-0.6695131659507751,84,9909.0
940,0.28013327717781067,1.1061489582061768,-28,8124.0,-1.4696080684661865,18,9909.0
950,0.2801733613014221,-1.9183080196380615,-49,8124.0,1.6410837173461914,10,9909.0
960,0.2805176079273224,0.8567416667938232,-20,8124.0,1.8871113061904907,13,9909.0
970,0.2805810570716858,0.9631205201148987,-66,8124.0,-0.27350544929504395,-74,9909.0
980,0.28062745928764343,2.2182116508483887,-20,8124.0,4.118021011352539,-112,9909.0
990,0.28063955903053284,0.8222687840461731,59,8124.0,3.5446834564208984,-44,9909.0
1000,0.2805982530117035,1.8958760499954224,103,8124.0,2.495318651199341,100,9909.0
1010,0.28111422061920166,3.1625640392303467,-25,8124.0,2.4797263145446777,118,9909.0
1020,0.28102368116378784,3.902564525604248,5,8124.0,-1.064573049545288,204,9909.0
1030,0.2808976173400879,0.07711013406515121,-41,8124.0,0.12482661008834839,195,9909.0
1040,0.2806929647922516,1.6412615776062012,-64,8124.0,-0.7587113380432129,181,9909.0
1050,0.280642032623291,1.6680024862289429,-60,8124.0,-3.4783754348754883,170,9909.0
1060,0.28039827942848206,0.7561470866203308,-19,8124.0,-4.393855094909668,146,9909.0
1070,0.2801720201969147,-0.11458639800548553,-84,8124.0,-4.760950565338135,193,9909.0
1080,0.279973566532135,0.3143083453178406,-142,8124.0,-5.558082103729248,134,9909.0
1090,0.27978789806365967,2.36348557472229,-43,8124.0,-5.125229835510254,14,9909.0
1100,0.28001073002815247,-0.876710832118988,-74,8124.0,-4.227392673492432,72,9909.0
1110,0.27973672747612,1.3744620084762573,-41,8124.0,-6.224634647369385,121,9909.0
1120,0.27941739559173584,-0.6360184550285339,11,8124.0,-2.896784782409668,66,9909.0
1130,0.2790214419364929,1.6730469465255737,40,8124.0,-2.3157572746276855,32,9909.0
1140,0.2799530625343323,0.9553117156028748,102,8124.0,-0.1853950172662735,23,9909.0
1150,0.27972105145454407,0.8699073195457458,99,8124.0,0.6108477115631104,-22,9909.0
1160,0.27956923842430115,0.08705346286296844,91,8124.0,4.517956256866455,-114,9909.0
1170,0.27940016984939575,-0.1920165866613388,94,8124.0,4.69326639175415,-147,9909.0
1180,0.2806781828403473,0.5438438057899475,84,8124.0,3.9583661556243896,-64,9909.0
1190,0.28069087862968445,0.8186087608337402,-31,8124.0,5.398376941680908,-47,9909.0
1200,0.28067779541015625,-0.8961860537528992,40,8124.0,4.127761363983154,45,9909.0
1210,0.28050681948661804,0.24824807047843933,-25,8124.0,1.9072662591934204,36,9909.0
1220,0.2802911102771759,0.5787681341171265,-88,8124.0,-0.0668475553393364,-21,9909.0
1230,0.28130677342414856,-0.6718623638153076,-10,8124.0,-0.6710500717163086,63,9909.0
1240,0.28123876452445984,-2.6807801723480225,-72,8124.0,-1.9271591901779175,104,9909.0
1250,0.28104233741760254,1.2292287349700928,-80,8124.0,-1.8301146030426025,106,9909.0
1260,0.2808598577976227,0.7391712069511414,-156,8124.0,-3.245267629623413,-30,9909.0
1270,0.2804972529411316,0.2736300230026245,-4,8124.0,0.6020580530166626,-173,9909.0
1280,0.2804955840110779,-0.827002763748169,153,8124.0,-1.0615419149398804,-108,9909.0
1290,0.2804241478443146,-0.926700234413147,107,8124.0,1.5368764400482178,-101,9909.0
1300,0.2802511751651764,-0.6906358003616333,-16,8124.0,1.9157737493515015,-25,9909.0
1310,0.280040979385376,0.18387404084205627,-10,8124.0,2.2055702209472656,178,9909.0
1320,0.27978435158729553,-1.1940501928329468,9,8124.0,2.971068859100342,139,9909.0
1330,0.27959853410720825,0.41709089279174805,56,8124.0,3.185535430908203,-55,9909.0
1340,0.279497355222702,1.050153374671936,44,8124.0,0.8642891645431519,-54,9909.0
1350,0.2794707417488098,2.352633476257324,2,8124.0,-1.487091302871704,-39,9909.0
1360,0.2796519100666046,1.046913981437683,46,8124.0,-0.28487154841423035,-16,9909.0
1370,0.27954983711242676,1.0698734521865845,-50,8124.0,-0.5784749984741211,19,9909.0
1380,0.2793921232223511,-0.17213644087314606,-49,8124.0,-1.304845929145813,89,9909.0
1390,0.2791234254837036,-0.7770107984542847,70,8124.0,-1.3607735633850098,-141,9909.0
1400,0.2792527973651886,-1.333335280418396,17,8124.0,0.2779281437397003,-180,9909.0
1410,0.27900680899620056,-1.1920700073242188,-112,8124.0,-0.6823184490203857,154,9909.0
1420,0.278854101896286,-1.428415060043335,-85,8124.0,-0.05847401171922684,121,9909.0
1430,0.27870792150497437,-1.7852728366851807,74,8124.0,3.2726714611053467,-53,9909.0
1440,0.2785305082798004,0.1478434056043625,25,8124.0,2.0924739837646484,-12,9909.0
1450,0.27938488125801086,0.9850460290908813,-54,8124.0,2.16180682182312,103,9909.0
1460,0.2792612910270691,0.4610496759414673,-4,8124.0,2.8718972206115723,53,9909.0
1470,0.2792247533798218,-0.8890030384063721,37,8124.0,3.212416410446167,51,9909.0
1480,0.2792956531047821,0.2555065155029297,-5,8124.0,1.6091971397399902,-70,9909.0
1490,0.28120535612106323,-0.3780554533004761,14,8124.0,1.0687767267227173,58,9909.0
1500,0.281562864780426,-0.03220009803771973,-113,8124.0,0.2588663399219513,63,9909.0
1510,0.281908243894577,-0.4422512948513031,-20,8124.0,0.6777483224868774,84,9909.0
1520,0.2821752429008484,-0.9913293719291687,113,8124.0,0.6590499877929688,-195,9909.0
1530,0.28225013613700867,0.9729905128479004,47,8124.0,-1.3555175065994263,-136,9909.0
1540,0.28288909792900085,0.3995535373687744,-106,8124.0,-2.542642593383789,85,9909.0
1550,0.2828194200992584,-0.32718363404273987,18,8124.0,-0.759518563747406,111,9909.0
1560,0.2827540338039398,-0.5157865881919861,67,8124.0,-0.7018154859542847,-202,9909.0
1570,0.28270062804222107,0.33792296051979065,30,8124.0,-0.06618399173021317,-35,9909.0
1580,0.28237420320510864,1.0092419385910034,-57,8124.0,-1.3937463760375977,64,9909.0
1590,0.282245934009552,0.3885956406593323,24,8124.0,-2.0677688121795654,-24,9909.0
1600,0.28212839365005493,-0.22597767412662506,0,8124.0,-0.6358398199081421,17,9909.0
1610,0.2820676565170288,-1.5598196983337402,-18,8124.0,2.3298449516296387,-20,9909.0
1620,0.2816638946533203,-0.5631198287010193,21,8124.0,1.5264015197753906,-34,9909.0
1630,0.2816847860813141,0.09276372939348221,-87,8124.0,0.5128440856933594,201,9909.0
1640,0.2817898988723755,1.9467600584030151,-60,8124.0,-0.22409845888614655,111,9909.0
1650,0.2819820046424866,-0.2400086224079132,142,8124.0,2.611395835876465,-85,9909.0
1660,0.2821339964866638,0.8574929237365723,49,8124.0,1.1228983402252197,-48,9909.0
1670,0.2833326458930969,1.4137799739837646,-113,8124.0,-0.4359254240989685,104,9909.0
1680,0.2834343910217285,0.7991908192634583,2,8124.0,-0.5234420895576477,140,9909.0
1690,0.2835141718387604,1.0889803171157837,79,8124.0,0.3450716435909271,-181,9909.0
1700,0.2835770547389984,1.3188178539276123,36,8124.0,-3.1480674743652344,-66,9909.0
1710,0.2829824686050415,1.0820975303649902,-74,8124.0,-3.849555730819702,48,9909.0
1720,0.2828809320926666,-0.6753207445144653,24,8124.0,-3.6978366374969482,-58,9909.0
1730,0.28268852829933167,-2.0838162899017334,-23,8124.0,-3.0354397296905518,-83,9909.0
1740,0.2824341356754303,-1.632203459739685,26,8124.0,-2.588196277618408,-74,9909.0
1750,0.282169371843338,-1.8590881824493408,-44,8124.0,-1.2880805730819702,-111,9909.0
1760,0.2818962633609772,-0.9161278009414673,-23,8124.0,-1.6556882858276367,173,9909.0
1770,0.2817840874195099,1.27750825881958,2,8124.0,-0.435099720954895,30,9909.0
1780,0.2817901372909546,0.7933439016342163,166,8124.0,0.7813711166381836,-176,9909.0
1790,0.28182125091552734,1.426527738571167,20,8124.0,1.4848815202713013,1,9909.0
1800,0.280278742313385,2.0311713218688965,-82,8124.0,0.513516902923584,198,9909.0
1810,0.2801428437232971,2.183424234390259,43,8124.0,1.1072537899017334,38,9909.0
1820,0.2799815535545349,1.7406495809555054,52,8124.0,2.1217222213745117,-35,9909.0
1830,0.27987849712371826,0.3892557919025421,-61,8124.0,2.1287834644317627,43,9909.0
1840,0.2802596688270569,0.1928545981645584,2,8124.0,0.9561989903450012,108,9909.0
1850,0.2802412509918213,1.0122544765472412,-39,8124.0,-2.602562189102173,-64,9909.0
1860,0.28031206130981445,0.9921984076499939,7,8124.0,-4.251411437988281,-58,9909.0
1870,0.28043505549430847,-0.6260313391685486,-7,8124.0,-4.154381275177002,-142,9909.0
1880,0.2805419862270355,-0.4968075752258301,-68,8124.0,-6.080016136169434,-8,9909.0
1890,0.28277280926704407,-0.941657304763794,-18,8124.0,-5.866888046264648,-5,9909.0
1900,0.2827950417995453,-1.5458042621612549,77,8124.0,-3.93027400970459,-248,9909.0
1910,0.28271859884262085,-1.956513524055481,-46,8124.0,-1.4078431129455566,18,9909.0
1920,0.28262168169021606,0.6073917150497437,-53,8124.0,-1.9753893613815308,36,9909.0
1930,0.2823569178581238,0.768062174320221,-34,8124.0,1.2959177494049072,157,9909.0
1940,0.2822985351085663,0.5446239113807678,61,8124.0,4.699582576751709,72,9909.0
1950,0.2822345793247223,0.8051038980484009,10,8124.0,6.134815216064453,146,9909.0
1960,0.28210771083831787,0.11010618507862091,16,8124.0,7.211590766906738,27,9909.0
1970,0.28186577558517456,1.0198092460632324,-28,8124.0,6.28153133392334,128,9909.0
1980,0.2827456593513489,1.9082425832748413,-12,8124.0,5.105931758880615,44,9909.0
1990,0.28239691257476807,2.486701726913452,123,8124.0,2.448373317718506,-22,9909.0
2000,0.28199729323387146,1.5908706188201904,-62,8124.0,-0.10308089852333069,21,9909.0
2010,0.2815891206264496,-0.4590861201286316,-83,8124.0,-2.1790196895599365,126,9909.0
2020,0.2811341881752014,-1.6015241146087646,85,8124.0,-2.8039166927337646,-232,9909.0
2030,0.28076624870300293,0.46631091833114624,-2,8124.0,-5.505715370178223,-123,9909.0
2040,0.28035685420036316,0.0013529632706195116,-84,8124.0,-6.206270694732666,70,9909.0
2050,0.2798879146575928,0.3460332155227661,77,8124.0,-5.098485469818115,-177,9909.0
2060,0.2807433009147644,1.1792725324630737,26,8124.0,-4.627599716186523,-83,9909.0
2070,0.28025710582733154,1.2081352472305298,-2,8124.0,-2.147118330001831,-51,9909.0
2080,0.2797507345676422,0.5953888297080994,-44,8124.0,-0.47198814153671265,95,9909.0
2090,0.2791598439216614,1.4954907894134521,48,8124.0,0.8663409948348999,-4,9909.0
2100,0.2784588634967804,1.9903732538223267,47,8124.0,3.9899470806121826,3,9909.0
2110,0.2803530991077423,1.07669997215271,-94,8124.0,5.080401420593262,274,9909.0
2120,0.2798309326171875,-0.4184081256389618,76,8124.0,6.677957534790039,33,9909.0
2130,0.279342383146286,0.5988527536392212,21,8124.0,6.325087070465088,55,9909.0
2140,0.278874009847641,1.554983139038086,-49,8124.0,3.8317325115203857,159,9909.0
2150,0.2805984616279602,1.357607364654541,55,8124.0,3.4196841716766357,17,9909.0
2160,0.28017011284828186,2.0638427734375,-11,8124.0,1.412280559539795,-20,9909.0
2170,0.27969613671302795,0.9538148045539856,36,8124.0,0.12932910025119781,54,9909.0
2180,0.2791711390018463,2.9398117065429688,-10,8124.0,-2.620978355407715,-75,9909.0
2190,0.2786572575569153,0.09673787653446198,138,8124.0,-2.703634023666382,-172,9909.0
2200,0.2811160683631897,-0.004284576512873173,-91,8124.0,-3.8855395317077637,-43,9909.0
2210,0.2808021903038025,-2.6002557277679443,-6,8124.0,-4.663161754608154,-3,9909.0
2220,0.2804960608482361,-2.81193208694458,37,8124.0,-4.528270244598389,-285,9909.0
2230,0.28019261360168457,-1.5697758197784424,-108,8124.0,-5.567377090454102,61,9909.0
2240,0.2831363081932068,-1.8335610628128052,14,8124.0,-3.037379026412964,-119,9909.0
2250,0.28291183710098267,-0.6935702562332153,-18,8124.0,-0.9889736175537109,-48,9909.0
2260,0.2826288342475891,-0.07644020020961761,22,8124.0,2.09761905670166,43,9909.0
2270,0.28226375579833984,-0.596401572227478,-78,8124.0,3.7704386711120605,146,9909.0
2280,0.2826642394065857,0.25489601492881775,108,8124.0,7.2495951652526855,-39,9909.0
2290,0.2822350263595581,-0.03885214030742645,-50,8124.0,5.791158199310303,161,9909.0
2300,0.2817727029323578,0.33963602781295776,-52,8124.0,5.705193996429443,140,9909.0
2310,0.2812843918800354,-2.288240432739258,93,8124.0,7.854079723358154,15,9909.0
2320,0.28077784180641174,0.2838556170463562,-43,8124.0,4.414948463439941,103,9909.0
2330,0.28161102533340454,-0.1964585781097412,34,8124.0,1.8813904523849487,41,9909.0
2340,0.28124111890792847,-0.07920707762241364,-24,8124.0,-1.986331582069397,-101,9909.0
2350,0.2809359133243561,-0.3482722043991089,15,8124.0,-3.8450119495391846,-11,9909.0
2360,0.28071296215057373,-1.2097352743148804,34,8124.0,-4.889747142791748,-131,9909.0
2370,0.2823944389820099,-0.9175621867179871,76,8124.0,-4.524130344390869,-215,9909.0
2380,0.2825605273246765,2.132298469543457,-39,8124.0,-8.473928451538086,-35,9909.0
2390,0.2828550338745117,1.5582644939422607,-7,8124.0,-6.542427062988281,-31,9909.0
2400,0.28322699666023254,-0.49314215779304504,82,8124.0,-3.2546539306640625,-211,9909.0
2410,0.2838207185268402,-0.5649657249450684,-86,8124.0,-1.5493979454040527,97,9909.0
2420,0.2842240333557129,-0.4284267723560333,11,8124.0,0.9710730314254761,-20,9909.0
2430,0.2846158742904663,-0.8827335238456726,4,8124.0,1.5474103689193726,45,9909.0
2440,0.284885436296463,-1.668359637260437,9,8124.0,4.444057941436768,-11,9909.0
2450,0.28504839539527893,-0.07696644216775894,-64,8124.0,4.249673843383789,178,9909.0
2460,0.28472182154655457,-0.5276622772216797,65,8124.0,4.357923984527588,4,9909.0
2470,0.28474926948547363,-1.6106131076812744,37,8124.0,3.725858211517334,-57,9909.0
2480,0.28474822640419006,1.0254871845245361,-76,8124.0,1.0049470663070679,220,9909.0
2490,0.2847753167152405,1.0815308094024658,52,8124.0,-0.19618219137191772,-100,9909.0
2500,0.2856733202934265,1.1152461767196655,69,8124.0,-0.023209907114505768,-30,9909.0
2510,0.28576111793518066,2.118582248687744,-36,8124.0,-2.5106680393218994,-32,9909.0
2520,0.2859005928039551,1.177039623260498,34,8124.0,-2.6780741214752197,-9,9909.0
2530,0.2861202359199524,-0.4680096209049225,-20,8124.0,-2.390282154083252,-121,9909.0
2540,0.28641217947006226,-1.0096467733383179,51,8124.0,-4.000669002532959,-80,9909.0
2550,0.2849840819835663,-1.7293899059295654,-109,8124.0,-1.8970251083374023,78,9909.0
2560,0.28534194827079773,0.062220800668001175,-68,8124.0,-4.247934818267822,-112,9909.0
2570,0.2858196198940277,-1.2315880060195923,107,8124.0,0.35189929604530334,-166,9909.0
2580,0.28636983036994934,-0.2840285003185272,-61,8124.0,-1.0715640783309937,30,9909.0
2590,0.2853820323944092,-1.7042813301086426,-52,8124.0,2.1636009216308594,108,9909.0
2600,0.2859098017215729,-1.9865366220474243,7,8124.0,4.514042854309082,8,9909.0
2610,0.28642329573631287,-1.1055748462677002,-25,8124.0,2.933433771133423,72,9909.0
2620,0.28685182332992554,0.1926681101322174,20,8124.0,2.632457971572876,78,9909.0
2630,0.28597313165664673,0.6247195601463318,-43,8124.0,1.9076727628707886,60,9909.0
2640,0.28620073199272156,0.2614607810974121,120,8124.0,1.591849684715271,-109,9909.0
2650,0.28641247749328613,2.657351016998291,102,8124.0,-2.434464931488037,-158,9909.0
2660,0.2866741418838501,1.883589744567871,-33,8124.0,-3.308232069015503,84,9909.0
2670,0.28696370124816895,-0.5854248404502869,91,8124.0,-3.1501739025115967,-202,9909.0
2680,0.2857457399368286,-0.2268703430891037,3,8124.0,-5.138028621673584,-100,9909.0
2690,0.28604066371917725,-0.8458630442619324,-99,8124.0,-2.3672561645507812,86,9909.0
2700,0.28638070821762085,0.10205890983343124,66,8124.0,-2.4605557918548584,-132,9909.0
2710,0.2867208421230316,-0.4315698444843292,0,8124.0,-2.2421793937683105,-2,9909.0
2720,0.2850470244884491,-0.7702062726020813,-18,8124.0,-1.0581469535827637,-51,9909.0
2730,0.2850967347621918,-0.04157419875264168,-18,8124.0,-0.2763689458370209,109,9909.0
2740,0.2850084602832794,-1.0098720788955688,4,8124.0,3.310410976409912,-35,9909.0
2750,0.28480806946754456,1.2277661561965942,105,8124.0,2.025515556335449,-10,9909.0
2760,0.28453943133354187,1.3307609558105469,-86,8124.0,2.2803609371185303,163,9909.0
2770,0.28439733386039734,-0.8991243243217468,68,8124.0,3.8217320442199707,-31,9909.0
2780,0.28398409485816956,0.5674660205841064,52,8124.0,1.6031684875488281,-54,9909.0
2790,0.2835705876350403,0.4690445065498352,-109,8124.0,-0.0019197050714865327,124,9909.0
2800,0.2831496000289917,0.6122183203697205,115,8124.0,-0.22822962701320648,-110,9909.0
2810,0.2826586961746216,3.2494726181030273,23,8124.0,-3.1754329204559326,-34,9909.0
2820,0.2822345793247223,3.453068256378174,33,8124.0,-4.307804584503174,-4,9909.0
2830,0.28187379240989685,3.030825614929199,93,8124.0,-5.286346912384033,-125,9909.0
2840,0.2815512418746948,1.6398375034332275,51,8124.0,-3.778374433517456,-112,9909.0
2850,0.2823488116264343,0.9898562431335449,-29,8124.0,-3.5389528274536133,61,9909.0
2860,0.2823537290096283,-0.5188809633255005,42,8124.0,-0.40081852674484253,-141,9909.0
2870,0.2823493480682373,0.08597854524850845,-18,8124.0,-0.3912758231163025,41,9909.0
2880,0.2823628783226013,-1.4153448343276978,-80,8124.0,4.445826530456543,156,9909.0
2890,0.28254228830337524,-1.8123642206192017,70,8124.0,7.430647850036621,-30,9909.0
2900,0.2836308181285858,0.2746131122112274,-82,8124.0,3.6298446655273438,173,9909.0
2910,0.28378069400787354,-1.0098226070404053,21,8124.0,6.272348880767822,77,9909.0
2920,0.2838502526283264,-0.8267759084701538,-48,8124.0,4.637494087219238,44,9909.0
2930,0.2838440239429474,-3.423734426498413,-47,8124.0,5.278171539306641,152,9909.0
2940,0.28512293100357056,-1.6929173469543457,-87,8124.0,3.330246686935425,27,9909.0
2950,0.28525030612945557,-3.4762768745422363,76,8124.0,2.9023969173431396,-59,9909.0
2960,0.28544414043426514,-0.9117326736450195,-132,8124.0,-1.4759055376052856,82,9909.0
2970,0.2857409715652466,-0.8604912757873535,91,8124.0,-2.2553532123565674,-161,9909.0
2980,0.28611162304878235,0.2837664783000946,-17,8124.0,-4.152340888977051,-77,9909.0
2990,0.2856205999851227,0.9483188986778259,-24,8124.0,-6.206867218017578,-1,9909.0
3000,0.28598496317863464,1.215430736541748,120,8124.0,-5.419794082641602,-273,9909.0
3010,0.2862856686115265,1.7005302906036377,-25,8124.0,-3.6631734371185303,63,9909.0
3020,0.2865648865699768,1.6892297267913818,45,8124.0,-2.139704704284668,-128,9909.0
3030,0.2864815890789032,0.5178831815719604,4,8124.0,0.8259484171867371,58,9909.0
3040,0.2866615355014801,0.7730509042739868,-35,8124.0,1.5555763244628906,30,9909.0
3050,0.28677573800086975,0.08012914657592773,-53,8124.0,3.6260149478912354,174,9909.0
3060,0.286844402551651,-0.8887404203414917,99,8124.0,5.627255439758301,-61,9909.0
3070,0.2857609689235687,-1.6376006603240967,-111,8124.0,6.255960941314697,185,9909.0
3080,0.2856796085834503,-0.9724279046058655,17,8124.0,3.420135736465454,67,9909.0
3090,0.28557416796684265,-1.4924278259277344,43,8124.0,5.83468770980835,-19,9909.0
3100,0.2854408621788025,-0.07781831175088882,-99,8124.0,1.6633708477020264,120,9909.0
3110,0.2853794991970062,-0.5608312487602234,107,8124.0,2.3870694637298584,-124,9909.0
3120,0.2855266332626343,0.846706211566925,-57,8124.0,-1.8100700378417969,8,9909.0
3130,0.2854043245315552,1.5446726083755493,51,8124.0,-4.618372917175293,-86,9909.0
3140,0.285235732793808,1.9829106330871582,35,8124.0,-5.1580281257629395,-86,9909.0
3150,0.2849937081336975,2.3146865367889404,58,8124.0,-5.885221004486084,-78,9909.0
3160,0.28439074754714966,1.2351651191711426,-16,8124.0,-6.163766384124756,-28,9909.0
3170,0.2839762270450592,0.371165931224823,24,8124.0,-4.884563446044922,-222,9909.0
3180,0.28359806537628174,0.3797402083873749,7,8124.0,-3.4686079025268555,-60,9909.0
3190,0.2830265760421753,0.39171233773231506,-90,8124.0,-0.6590627431869507,118,9909.0
3200,0.2824300527572632,-1.058889627456665,-17,8124.0,4.70889139175415,81,9909.0
3210,0.28284981846809387,1.793675184249878,-82,8124.0,2.858238697052002,242,9909.0
3220,0.28227242827415466,0.05502384901046753,47,8124.0,7.674808502197266,51,9909.0
3230,0.28168463706970215,0.004830137360841036,-29,8124.0,7.173038959503174,81,9909.0
3240,0.2810264229774475,-0.07572300732135773,39,8124.0,5.112982749938965,109,9909.0
3250,0.2833748757839203,-0.04660480096936226,28,8124.0,4.444084644317627,-77,9909.0
3260,0.2828073501586914,-0.4757727384567261,-97,8124.0,1.802840232849121,154,9909.0
3270,0.28227752447128296,1.288845419883728,117,8124.0,-3.469212293624878,-174,9909.0
3280,0.28182950615882874,0.7125166654586792,-107,8124.0,-4.137105941772461,-1,9909.0
3290,0.28508812189102173,-1.6883964538574219,44,8124.0,-2.607837677001953,-105,9909.0
3300,0.2849467098712921,-1.6067396402359009,-52,8124.0,-4.6301655769348145,-44,9909.0
3310,0.28481948375701904,-2.2396304607391357,-17,8124.0,-3.8026018142700195,-117,9909.0
3320,0.28469955921173096,-1.0914723873138428,-46,8124.0,-3.475349187850952,-25,9909.0
3330,0.28462931513786316,-2.4271180629730225,-29,8124.0,-1.238592267036438,-6,9909.0
3340,0.2851262390613556,-1.7344311475753784,12,8124.0,1.572159767150879,37,9909.0
3350,0.28512707352638245,0.7163088917732239,-44,8124.0,2.6702792644500732,57,9909.0
3360,0.2850957214832306,0.4698334336280823,69,8124.0,3.167603015899658,57,9909.0
3370,0.28499022126197815,1.0266411304473877,6,8124.0,4.307809352874756,115,9909.0
3380,0.2848922312259674,-0.8804939985275269,-54,8124.0,9.389939308166504,120,9909.0
3390,0.2846935987472534,-0.4826861023902893,49,8124.0,5.143275737762451,71,9909.0
3400,0.28448110818862915,-0.2727757692337036,-50,8124.0,4.929368019104004,133,9909.0
3410,0.28425487875938416,0.26605185866355896,60,8124.0,2.5595641136169434,-47,9909.0
3420,0.28403931856155396,0.35777294635772705,-19,8124.0,-1.1634374856948853,29,9909.0
3430,0.2837502360343933,0.5716507434844971,31,8124.0,-3.4777214527130127,-103,9909.0
3440,0.2834564745426178,0.060587722808122635,-21,8124.0,-4.857475757598877,-55,9909.0
3450,0.2832220494747162,0.283995121717453,-66,8124.0,-4.648975849151611,-71,9909.0
3460,0.2831403911113739,-0.4581400454044342,77,8124.0,-3.406970500946045,-111,9909.0
3470,0.28464949131011963,-0.12825211882591248,-76,8124.0,-4.13877534866333,36,9909.0
3480,0.2847330868244171,-0.17900077998638153,107,8124.0,-3.0224783420562744,-223,9909.0
3490,0.2847626805305481,1.2150102853775024,-60,8124.0,-2.262657880783081,165,9909.0
3500,0.28476616740226746,0.7095510363578796,109,8124.0,-0.773887038230896,-197,9909.0
3510,0.2844635546207428,0.8423406481742859,-86,8124.0,3.533059597015381,152,9909.0
3520,0.28445544838905334,1.9699163436889648,70,8124.0,4.013510704040527,13,9909.0
3530,0.2844189405441284,0.9876306056976318,48,8124.0,4.0082478523254395,44,9909.0
3540,0.28431692719459534,0.7524996995925903,-27,8124.0,5.019292831420898,144,9909.0
3550,0.28412607312202454,0.5107665061950684,58,8124.0,5.85537576675415,-92,9909.0
3560,0.2837620675563812,2.1566410064697266,-79,8124.0,-0.32345104217529297,225,9909.0
3570,0.28335922956466675,0.5990715026855469,119,8124.0,0.8252506256103516,-106,9909.0
3580,0.28294846415519714,0.042793430387973785,-101,8124.0,-1.957388997077942,22,9909.0
3590,0.2825814187526703,-1.9999557733535767,86,8124.0,-2.183992862701416,-101,9909.0
3600,0.2853691577911377,-1.152600646018982,-77,8124.0,-7.0466389656066895,-25,9909.0
3610,0.2851993143558502,-0.5777106881141663,18,8124.0,-6.4564995765686035,-182,9909.0
3620,0.2850266396999359,0.1736249476671219,-17,8124.0,-5.975249767303467,-55,9909.0
3630,0.2848632037639618,-0.011765830218791962,28,8124.0,-3.276592493057251,-113,9909.0
3640,0.2847122848033905,0.2190038412809372,21,8124.0,-4.545137882232666,-130,9909.0
3650,0.28547847270965576,0.3058718144893646,-60,8124.0,-2.9035494327545166,76,9909.0
3660,0.2852993607521057,0.7467669248580933,116,8124.0,-2.3158750534057617,-167,9909.0
3670,0.28508272767066956,0.4313696026802063,-69,8124.0,0.3104264438152313,189,9909.0
3680,0.28479087352752686,0.43459227681159973,34,8124.0,3.6422510147094727,-15,9909.0
3690,0.28509610891342163,1.3413029909133911,-35,8124.0,1.5586239099502563,73,9909.0
3700,0.28478729724884033,0.7718053460121155,70,8124.0,3.010174512863159,42,9909.0
3710,0.2844288945198059,0.9374121427536011,9,8124.0,4.046173095703125,8,9909.0
3720,0.28403452038764954,0.9756401777267456,-64,8124.0,1.2109203338623047,60,9909.0
3730,0.28378769755363464,-0.4413290023803711,77,8124.0,-0.10136526077985764,-89,9909.0
3740,0.28346800804138184,-0.0746406838297844,-123,8124.0,-4.183468341827393,71,9909.0
3750,0.2831909656524658,-1.248730182647705,83,8124.0,-4.089432239532471,-244,9909.0
3760,0.28288355469703674,-0.7646711468696594,-135,8124.0,-5.117299556732178,109,9909.0
3770,0.28253045678138733,-2.046808958053589,-21,8124.0,-5.7848591804504395,-230,9909.0
3780,0.28316906094551086,-0.679192066192627,-29,8124.0,-4.674422264099121,68,9909.0
3790,0.28288108110427856,-0.5787765979766846,-3,8124.0,-1.7000091075897217,-102,9909.0
3800,0.28257468342781067,-0.6216264963150024,9,8124.0,0.48827019333839417,11,9909.0
3810,0.2822299897670746,1.838397741317749,5,8124.0,1.2309664487838745,140,9909.0
3820,0.2831156849861145,2.11061954498291,114,8124.0,2.8327715396881104,-106,9909.0
3830,0.2828632593154907,1.8185256719589233,-86,8124.0,4.07705545425415,211,9909.0
3840,0.28264811635017395,1.450758695602417,133,8124.0,4.882871627807617,-67,9909.0
3850,0.28244778513908386,2.258291482925415,-93,8124.0,2.008693218231201,164,9909.0
3860,0.28223350644111633,0.21519817411899567,75,8124.0,0.5676259994506836,92,9909.0
3870,0.28434324264526367,0.24631619453430176,-53,8124.0,1.5282669067382812,112,9909.0
3880,0.2842802405357361,-0.21069172024726868,-42,8124.0,0.9101715683937073,-75,9909.0
3890,0.28419479727745056,-0.020633071660995483,-6,8124.0,-2.41562557220459,21,9909.0
3900,0.28407496213912964,0.4450782835483551,99,8124.0,-4.60461950302124,-116,9909.0
3910,0.284284383058548,1.9765037298202515,-79,8124.0,-5.227868556976318,5,9909.0
3920,0.28419357538223267,0.31662246584892273,109,8124.0,-4.564545631408691,-239,9909.0
3930,0.2841649055480957,-0.12445709109306335,-90,8124.0,-4.28218412399292,125,9909.0
3940,0.28411543369293213,-2.174767017364502,66,8124.0,-0.6752701997756958,-48,9909.0
3950,0.2844197452068329,-1.6440984010696411,-47,8124.0,3.4204065799713135,93,9909.0
3960,0.28443095088005066,-1.1562541723251343,-50,8124.0,3.2826802730560303,108,9909.0
3970,0.28443440794944763,-2.0707008838653564,25,8124.0,5.844593524932861,-3,9909.0
3980,0.28438302874565125,-0.5249497294425964,-100,8124.0,8.090315818786621,267,9909.0
3990,0.28426486253738403,-0.7047995328903198,80,8124.0,5.701402187347412,41,9909.0
4000,0.2859884202480316,-1.3355731964111328,-99,8124.0,7.268366813659668,173,9909.0
4010,0.2858901917934418,1.8344640731811523,83,8124.0,2.2360994815826416,-131,9909.0
4020,0.28580206632614136,0.8758271336555481,55,8124.0,0.4732101857662201,51,9909.0
4030,0.2857174873352051,1.7049001455307007,34,8124.0,-1.347907304763794,-13,9909.0
4040,0.2862035036087036,1.6201003789901733,-8,8124.0,-0.8011412620544434,-88,9909.0
4050,0.28626343607902527,0.9716153740882874,69,8124.0,-2.834735155105591,-124,9909.0
4060,0.2863614559173584,1.4393147230148315,-72,8124.0,-3.832097053527832,96,9909.0
4070,0.2864290475845337,0.42741191387176514,133,8124.0,-0.706695020198822,-184,9909.0
4080,0.28646332025527954,-0.5136699676513672,-138,8124.0,1.592409610748291,232,9909.0
4090,0.2871010899543762,-0.8087313175201416,89,8124.0,1.7775105237960815,-90,9909.0
4100,0.287148118019104,-1.4047526121139526,-82,8124.0,3.3789312839508057,59,9909.0
4110,0.28717201948165894,-2.996997356414795,-7,8124.0,5.738120079040527,80,9909.0
4120,0.2871647775173187,-1.1830873489379883,5,8124.0,3.3600990772247314,111,9909.0
4130,0.2883012294769287,-0.901089608669281,-43,8124.0,4.550999164581299,18,9909.0
4140,0.2884500324726105,-1.2381069660186768,-64,8124.0,2.098710775375366,79,9909.0
4150,0.2885311245918274,-2.3940541744232178,50,8124.0,0.35233357548713684,20,9909.0
4160,0.2886028289794922,-0.7931882739067078,-54,8124.0,-1.0561742782592773,71,9909.0
4170,0.2891697287559509,-0.3241530954837799,15,8124.0,-2.904951333999634,-106,9909.0
4180,0.28920918703079224,1.0734354257583618,-37,8124.0,-0.7554929852485657,38,9909.0
4190,0.28922176361083984,1.7710535526275635,45,8124.0,-0.20223160088062286,-58,9909.0
4200,0.28924956917762756,2.423456907272339,69,8124.0,-1.2536351680755615,-21,9909.0
4210,0.2893349230289459,3.0191025733947754,36,8124.0,-0.3697850704193115,76,9909.0
4220,0.2905546724796295,2.532604932785034,55,8124.0,-0.038512252271175385,-49,9909.0
4230,0.2907807528972626,1.653367519378662,-4,8124.0,1.1940600872039795,-29,9909.0
4240,0.2910016179084778,0.8842669129371643,13,8124.0,-2.523266553878784,52,9909.0
4250,0.2911967933177948,0.23734347522258759,0,8124.0,1.0157513618469238,10,9909.0
4260,0.2907969355583191,-2.4963161945343018,-77,8124.0,2.48577880859375,-10,9909.0
4270,0.29087573289871216,-1.4626760482788086,-26,8124.0,1.1949963569641113,30,9909.0
4280,0.2909327447414398,-2.1469826698303223,14,8124.0,2.864881992340088,44,9909.0
4290,0.2910116910934448,-0.8719859719276428,-56,8124.0,-2.685279130935669,9,9909.0
4300,0.2911204695701599,-1.003886342048645,18,8124.0,-2.1011836528778076,-133,9909.0
4310,0.28956738114356995,0.24074958264827728,-58,8124.0,-3.569159507751465,15,9909.0
4320,0.2895476222038269,-1.054097056388855,-5,8124.0,-3.3352537155151367,-71,9909.0
4330,0.2895018458366394,0.38204729557037354,8,8124.0,-2.9469287395477295,-56,9909.0
4340,0.2894386351108551,-1.5236049890518188,-11,8124.0,1.5596319437026978,24,9909.0
4350,0.2891786992549896,2.0408027172088623,29,8124.0,-3.732060670852661,-114,9909.0
4360,0.289075642824173,1.313169002532959,66,8124.0,-2.1466763019561768,7,9909.0
4370,0.2890254557132721,2.502346992492676,17,8124.0,-3.034130573272705,63,9909.0
4380,0.28901201486587524,1.593345046043396,86,8124.0,-1.1158177852630615,-120,9909.0
4390,0.2893907427787781,1.9954872131347656,-21,8124.0,-2.2689411640167236,113,9909.0
4400,0.2893275022506714,-0.0027988282963633537,159,8124.0,0.5626906156539917,-129,9909.0
4410,0.28923678398132324,-0.7124578356742859,-163,8124.0,-2.618408679962158,70,9909.0
4420,0.289164662361145,-2.0992069244384766,30,8124.0,1.1120591163635254,-125,9909.0
4430,0.2890639007091522,-2.385577917098999,-72,8124.0,2.3439087867736816,67,9909.0
4440,0.29015854001045227,-1.6803652048110962,-38,8124.0,-0.4321240186691284,19,9909.0
4450,0.2901920974254608,1.0491727590560913,-7,8124.0,1.2279103994369507,8,9909.0
4460,0.2902560234069824,1.1881166696548462,103,8124.0,-0.819684624671936,-75,9909.0
4470,0.29028329253196716,3.1646807193756104,-22,8124.0,-3.4264657497406006,24,9909.0
4480,0.2901601493358612,4.308401107788086,74,8124.0,-4.149868488311768,-190,9909.0
4490,0.29016175866127014,3.9081051349639893,67,8124.0,-4.285109519958496,-45,9909.0
4500,0.290139764547348,3.2713711261749268,60,8124.0,-5.773097038269043,-85,9909.0
4510,0.2901092767715454,-0.42589861154556274,10,8124.0,0.04501479119062424,-47,9909.0
4520,0.2900846004486084,-1.919809341430664,-67,8124.0,-0.10827326029539108,-12,9909.0
4530,0.28960782289505005,-1.9909697771072388,-40,8124.0,1.2695215940475464,50,9909.0
4540,0.2895142436027527,-0.9913886785507202,38,8124.0,-1.3913357257843018,0,9909.0
4550,0.28936490416526794,-2.518242597579956,-9,8124.0,2.960521936416626,-72,9909.0
4560,0.28921788930892944,-3.213589668273926,-151,8124.0,-0.25079721212387085,80,9909.0
4570,0.2882242500782013,-4.064617156982422,63,8124.0,-0.47820380330085754,-154,9909.0
4580,0.2880619168281555,-4.378668785095215,-153,8124.0,-0.9943776726722717,84,9909.0
4590,0.2879224717617035,-1.54910409450531,58,8124.0,-1.898728847503662,-142,9909.0
4600,0.2877906560897827,0.12992772459983826,3,8124.0,-2.0620248317718506,-4,9909.0
4610,0.2877887785434723,3.914043426513672,86,8124.0,-4.248840808868408,-18,9909.0
4620,0.2876773476600647,4.708398342132568,19,8124.0,-2.361419200897217,-56,9909.0
4630,0.2876114845275879,3.856315851211548,117,8124.0,-1.5146578550338745,-113,9909.0
4640,0.28753793239593506,5.2177276611328125,71,8124.0,-1.0613055229187012,-9,9909.0
4650,0.28742125630378723,3.088837146759033,-10,8124.0,-0.17705003917217255,113,9909.0
4660,0.2879147231578827,0.5462926030158997,147,8124.0,5.162031173706055,-134,9909.0
4670,0.2878274917602539,-0.5473001599311829,-87,8124.0,5.01079797744751,143,9909.0
4680,0.2877630293369293,-1.3530524969100952,-20,8124.0,6.234659671783447,46,9909.0
4690,0.287718266248703,-2.1076738834381104,-88,8124.0,4.741710186004639,143,9909.0
4700,0.2885974645614624,-2.5448479652404785,26,8124.0,4.619359493255615,-129,9909.0
4710,0.28861910104751587,-4.42083740234375,-178,8124.0,1.9671145677566528,102,9909.0
4720,0.2886646091938019,-5.321166515350342,-64,8124.0,-0.3735775053501129,-14,9909.0
4730,0.288731187582016,-1.4237534999847412,28,8124.0,-4.748383045196533,-85,9909.0
4740,0.28884732723236084,-1.3501497507095337,-146,8124.0,-1.1578892469406128,62,9909.0
4750,0.2906988263130188,0.44038811326026917,59,8124.0,-1.2644165754318237,-155,9909.0
4760,0.2909299433231354,1.3440864086151123,-2,8124.0,-0.06386146694421768,0,9909.0
4770,0.2911641597747803,0.915165364742279,93,8124.0,-0.025605177506804466,-22,9909.0
4780,0.291430801153183,2.63270902633667,-24,8124.0,-2.725275993347168,83,9909.0
4790,0.2919580042362213,1.3514317274093628,104,8124.0,0.9899256229400635,-77,9909.0
4800,0.29221636056900024,1.1357214450836182,39,8124.0,3.173485517501831,47,9909.0
4810,0.2924748659133911,-1.4071223735809326,-83,8124.0,4.0318427085876465,104,9909.0
4820,0.2926941215991974,-0.8669339418411255,40,8124.0,5.515934467315674,-16,9909.0
4830,0.2921207547187805,-0.7279011607170105,-28,8124.0,5.996665000915527,86,9909.0
4840,0.29227152466773987,-1.2417349815368652,31,8124.0,4.7941741943359375,120,9909.0
4850,0.29241445660591125,1.288216471672058,-46,8124.0,1.0322856903076172,192,9909.0
4860,0.2925035059452057,0.8202962875366211,124,8124.0,2.7465744018554688,-169,9909.0
4870,0.292548805475235,0.8317737579345703,-117,8124.0,1.8382095098495483,111,9909.0
4880,0.29151561856269836,-0.7223284840583801,92,8124.0,-1.148776650428772,-36,9909.0
4890,0.2915083169937134,0.36366233229637146,7,8124.0,0.06023448333144188,-21,9909.0
4900,0.29150232672691345,1.5577067136764526,7,8124.0,-2.467402935028076,-23,9909.0
4910,0.2915149927139282,0.8030051589012146,18,8124.0,-3.5307376384735107,-23,9909.0
4920,0.2901003956794739,1.871688723564148,74,8124.0,0.24047766625881195,59,9909.0
4930,0.29003626108169556,3.4493720531463623,108,8124.0,-2.208890914916992,-124,9909.0
4940,0.2899933159351349,0.7468540668487549,-186,8124.0,1.051005244255066,163,9909.0
4950,0.2899903953075409,-2.6421027183532715,67,8124.0,1.078220248222351,-56,9909.0
4960,0.2900104224681854,-2.006685495376587,-48,8124.0,2.2489233016967773,129,9909.0
4970,0.29046452045440674,-1.909975290298462,-6,8124.0,2.072746515274048,48,9909.0
4980,0.29051437973976135,-0.5847308039665222,-68,8124.0,4.060792446136475,79,9909.0
4990,0.29061686992645264,0.528153121471405,111,8124.0,3.4771738052368164,-76,9909.0
5000,0.29078638553619385,2.040198564529419,-89,8124.0,1.4034404754638672,5,9909.0
5010,0.29026082158088684,1.4755035638809204,64,8124.0,2.475630044937134,148,9909.0
5020,0.2904144823551178,1.3076233863830566,23,8124.0,0.7676849365234375,-180,9909.0
5030,0.29053664207458496,0.11253058165311813,-13,8124.0,0.004820068832486868,1,9909.0
5040,0.2906535565853119,-0.31755056977272034,29,8124.0,1.467673897743225,20,9909.0
5050,0.2916754186153412,-0.785366952419281,-11,8124.0,0.396493136882782,33,9909.0
5060,0.2918725311756134,-0.8436861634254456,60,8124.0,-0.39609456062316895,-178,9909.0
5070,0.292035847902298,0.6615293025970459,-154,8124.0,-1.1915048360824585,129,9909.0
5080,0.29213541746139526,-0.6382315754890442,77,8124.0,-3.1373987197875977,-55,9909.0
5090,0.29222363233566284,-1.974717378616333,-71,8124.0,1.3290354013442993,36,9909.0
5100,0.29217401146888733,-2.4880075454711914,-64,8124.0,0.9034068584442139,31,9909.0
5110,0.29220712184906006,-0.1500542312860489,-26,8124.0,0.5486118793487549,13,9909.0
5120,0.29222914576530457,1.2403367757797241,76,8124.0,-1.9563915729522705,37,9909.0
5130,0.2921510934829712,1.0856775045394897,109,8124.0,-0.13700291514396667,-77,9909.0
5140,0.2915722131729126,2.7163589000701904,-78,8124.0,-1.7909743785858154,209,9909.0
5150,0.2914047837257385,0.15121562778949738,97,8124.0,0.6262485384941101,-208,9909.0
5160,0.2912425994873047,1.4735552072525024,-2,8124.0,-1.1664067506790161,-10,9909.0
5170,0.291046679019928,0.6583576202392578,41,8124.0,-1.1835579872131348,-18,9909.0
5180,0.2908730208873749,0.8380175232887268,-23,8124.0,-0.9232200384140015,20,9909.0
5190,0.29070279002189636,1.231203556060791,-5,8124.0,-1.8625526428222656,1,9909.0
5200,0.29050591588020325,0.4378374218940735,115,8124.0,0.23704545199871063,-310,9909.0
5210,0.29029324650764465,0.7387106418609619,-90,8124.0,-0.5215230584144592,134,9909.0
5220,0.2900686264038086,-1.0946043729782104,8,8124.0,-0.8413034081459045,25,9909.0
5230,0.29059991240501404,-1.987938404083252,-60,8124.0,-0.23043043911457062,68,9909.0
5240,0.2904238998889923,0.26671281456947327,66,8124.0,-1.4264931678771973,-19,9909.0
5250,0.2902507781982422,1.3634586334228516,80,8124.0,0.24246925115585327,-90,9909.0
5260,0.29010167717933655,2.4970712661743164,-90,8124.0,-5.574514389038086,5,9909.0
5270,0.2927083373069763,0.01382875069975853,16,8124.0,2.3160293102264404,5,9909.0
5280,0.29277142882347107,-1.5474294424057007,-47,8124.0,2.327604055404663,84,9909.0
5290,0.29281991720199585,-1.313692331314087,3,8124.0,1.019496202468872,7,9909.0
5300,0.2929505705833435,-1.1198549270629883,33,8124.0,2.4765005111694336,-82,9909.0
5310,0.29307684302330017,-0.5826913118362427,-280,8124.0,5.130655288696289,176,9909.0
5320,0.2931772768497467,-0.25388413667678833,97,8124.0,0.9232383370399475,58,9909.0
5330,0.29332205653190613,-0.37626954913139343,32,8124.0,-0.7697576284408569,-50,9909.0
5340,0.2934485077857971,-0.09959711879491806,18,8124.0,-0.956596314907074,22,9909.0
5350,0.2935475707054138,0.4173505902290344,80,8124.0,-0.9355480074882507,-92,9909.0
5360,0.2929874062538147,1.5945011377334595,-70,8124.0,-4.271002292633057,128,9909.0
5370,0.2930333614349365,1.0297064781188965,81,8124.0,-3.680143117904663,-82,9909.0
5380,0.29306086897850037,1.9674955606460571,76,8124.0,0.479763925075531,61,9909.0
5390,0.293082594871521,2.496255397796631,8,8124.0,1.5904736518859863,112,9909.0
5400,0.293083518743515,1.2329721450805664,46,8124.0,2.147033452987671,52,9909.0
5410,0.2938232719898224,0.5303542613983154,-60,8124.0,0.7032499313354492,183,9909.0
5420,0.2937951982021332,0.16710498929023743,62,8124.0,-0.6760892868041992,-106,9909.0
5430,0.293744832277298,-0.5127424001693726,-54,8124.0,-5.430267810821533,-41,9909.0
5440,0.29365772008895874,-4.648862361907959,-159,8124.0,-3.813934564590454,48,9909.0
5450,0.2948670983314514,-3.354147434234619,-49,8124.0,-1.083579182624817,-38,9909.0
5460,0.2947840392589569,-3.452063798904419,-115,8124.0,-0.16003300249576569,70,9909.0
5470,0.29478275775909424,-0.21460755169391632,72,8124.0,-0.8133362531661987,-104,9909.0
5480,0.29469308257102966,0.40684694051742554,2,8124.0,1.8982138633728027,-87,9909.0
5490,0.2945812940597534,2.246596574783325,-135,8124.0,-0.0628666952252388,158,9909.0
5500,0.29642802476882935,-0.44600504636764526,58,8124.0,1.9051111936569214,-8,9909.0
5510,0.296496719121933,-1.612403392791748,-16,8124.0,4.844822406768799,84,9909.0
5520,0.2965511679649353,0.32473644614219666,48,8124.0,1.6934839487075806,44,9909.0
5530,0.296624094247818,-0.1843024641275406,77,8124.0,-1.0595937967300415,-175,9909.0
5540,0.2981799840927124,-1.1058940887451172,-224,8124.0,-4.4202494621276855,246,9909.0
5550,0.29846736788749695,-4.5214128494262695,-68,8124.0,-0.3142979145050049,-46,9909.0
5560,0.29864072799682617,-0.7637426257133484,-5,8124.0,0.5687488913536072,-62,9909.0
5570,0.29882529377937317,-0.5061663389205933,76,8124.0,1.5172946453094482,12,9909.0
5580,0.2989646792411804,2.8775174617767334,195,8124.0,-0.7978811264038086,-84,9909.0
5590,0.29905131459236145,1.7714781761169434,-76,8124.0,0.1293424516916275,140,9909.0
5600,0.2992463707923889,0.29787543416023254,61,8124.0,1.7340580224990845,21,9909.0
5610,0.2993406653404236,3.5751750469207764,98,8124.0,-0.650824785232544,-25,9909.0
5620,0.29944881796836853,1.601790428161621,-14,8124.0,0.8905224204063416,48,9909.0
5630,0.299410343170166,1.9103814363479614,3,8124.0,-0.17584814131259918,-77,9909.0
5640,0.2994920313358307,1.6985735893249512,-60,8124.0,-2.63543438911438,106,9909.0
5650,0.2995285987854004,0.39381730556488037,142,8124.0,1.2578414678573608,73,9909.0
5660,0.2996741235256195,3.4687418937683105,-17,8124.0,0.8064389228820801,-57,9909.0
5670,0.2995121479034424,1.6130396127700806,20,8124.0,-1.5247266292572021,-53,9909.0
5680,0.29959532618522644,0.5638769268989563,1,8124.0,0.640401303768158,43,9909.0
5690,0.2996758818626404,0.8735047578811646,-41,8124.0,0.19720196723937988,104,9909.0
5700,0.29977166652679443,0.9998993277549744,141,8124.0,3.4453468322753906,-30,9909.0
5710,0.2999403476715088,-0.8583117723464966,-42,8124.0,3.1539268493652344,59,9909.0
5720,0.2993558943271637,0.9106309413909912,-53,8124.0,0.6538196802139282,50,9909.0
5730,0.29942744970321655,-1.8581898212432861,-8,8124.0,-0.2861020565032959,-84,9909.0
5740,0.2995089292526245,-0.7117230892181396,-73,8124.0,0.33533069491386414,49,9909.0
5750,0.2995304763317108,1.9446648359298706,107,8124.0,-6.636984825134277,-217,9909.0
5760,0.2997913956642151,-1.0378786325454712,-5,8124.0,0.5251339077949524,-64,9909.0
5770,0.29980772733688354,-1.6305097341537476,-171,8124.0,-6.888538360595703,126,9909.0
5780,0.2997882068157196,-2.5530800819396973,46,8124.0,-2.029420852661133,-22,9909.0
5790,0.29976552724838257,-2.1393866539001465,-84,8124.0,-2.524991750717163,25,9909.0
5800,0.2994718551635742,-1.7049510478973389,9,8124.0,-0.2203523963689804,-122,9909.0
5810,0.2994585335254669,-1.8087987899780273,-42,8124.0,1.0389254093170166,-58,9909.0
5820,0.2994230389595032,2.0029118061065674,-125,8124.0,3.80682373046875,219,9909.0
5830,0.2994793653488159,0.674509584903717,74,8124.0,2.8024511337280273,48,9909.0
5840,0.29951077699661255,0.7960106134414673,-4,8124.0,4.69377326965332,102,9909.0
5850,0.29978078603744507,2.888766050338745,71,8124.0,2.8511898517608643,58,9909.0
5860,0.29985135793685913,1.4115649461746216,85,8124.0,2.37760591506958,-120,9909.0
5870,0.299863338470459,3.2587244510650635,-89,8124.0,2.9114089012145996,153,9909.0
5880,0.30012479424476624,-0.09479042887687683,-22,8124.0,1.1874184608459473,-20,9909.0
5890,0.300078809261322,-0.6031044125556946,1,8124.0,3.0820977687835693,36,9909.0
5900,0.30042704939842224,-0.43003401160240173,-23,8124.0,2.895606279373169,210,9909.0
5910,0.3004508316516876,1.0820176601409912,143,8124.0,1.0647170543670654,-183,9909.0
5920,0.3007873594760895,0.9511460661888123,-49,8124.0,1.1609432697296143,0,9909.0
5930,0.30012544989585876,-0.023763665929436684,-63,8124.0,0.06188683211803436,86,9909.0
5940,0.300454705953598,-2.724724054336548,9,8124.0,4.9539313316345215,55,9909.0
5950,0.3004717230796814,-2.602745294570923,-73,8124.0,7.1766037940979,187,9909.0
5960,0.30068913102149963,-1.8823543787002563,38,8124.0,8.740239143371582,-3,9909.0
5970,0.3008882999420166,-0.014008743688464165,19,8124.0,7.115299701690674,20,9909.0
5980,0.30065950751304626,1.793228030204773,-160,8124.0,9.027627944946289,330,9909.0
5990,0.30088311433792114,3.1062886714935303,92,8124.0,4.460641860961914,42,9909.0
6000,0.30116701126098633,3.9982333183288574,66,8124.0,-0.31185466051101685,-41,9909.0
6010,0.30175402760505676,3.0093307495117188,46,8124.0,-0.8855165243148804,1,9909.0
6020,0.30260491371154785,2.0450990200042725,129,8124.0,-4.105854511260986,-156,9909.0
6030,0.30339235067367554,3.134965419769287,-75,8124.0,-6.006168842315674,39,9909.0
6040,0.30340778827667236,1.6065731048583984,-14,8124.0,-5.212355613708496,-45,9909.0
6050,0.3043166399002075,-2.0912890434265137,53,8124.0,-2.981520414352417,-119,9909.0
6060,0.30432045459747314,-3.4978086948394775,-89,8124.0,-0.43774130940437317,16,9909.0
6070,0.30616146326065063,-5.405668258666992,-42,8124.0,4.104022026062012,-79,9909.0
6080,0.30616670846939087,-3.7351465225219727,-167,8124.0,2.5494728088378906,78,9909.0
6090,0.30663517117500305,-2.362349510192871,-86,8124.0,0.3717763125896454,84,9909.0
6100,0.3070838153362274,-3.2433531284332275,80,8124.0,1.4598580598831177,-157,9909.0
6110,0.3061716854572296,-2.2780921459198,-70,8124.0,-1.2489417791366577,10,9909.0
6120,0.3065488040447235,-0.24307887256145477,59,8124.0,-2.6778786182403564,-54,9909.0
6130,0.30689364671707153,1.348626732826233,-3,8124.0,-2.5958170890808105,6,9909.0
6140,0.30719417333602905,2.546562910079956,8,8124.0,-3.376579999923706,-15,9909.0
6150,0.307297945022583,2.694547414779663,192,8124.0,-4.392965316772461,-380,9909.0
6160,0.3075934946537018,3.5447583198547363,-105,8124.0,-2.650663375854492,-6,9909.0
6170,0.3078462779521942,0.627519428730011,-11,8124.0,1.7223374843597412,-79,9909.0
6180,0.30807217955589294,0.3222914934158325,-24,8124.0,-1.9956260919570923,13,9909.0
6190,0.3082338273525238,0.3418744206428528,-2,8124.0,-0.20033112168312073,-31,9909.0
6200,0.30823779106140137,0.8727015852928162,68,8124.0,-3.1042680740356445,-76,9909.0
6210,0.3083595037460327,-2.067221164703369,-151,8124.0,1.022339940071106,184,9909.0
6220,0.30845996737480164,-3.423133611679077,-33,8124.0,-0.9109144806861877,44,9909.0
6230,0.3085334002971649,-3.5339488983154297,-99,8124.0,-1.0802322626113892,82,9909.0
6240,0.30875787138938904,-0.8660485148429871,-1,8124.0,-4.6555352210998535,-29,9909.0
6250,0.308832585811615,1.2858773469924927,-53,8124.0,-5.300017833709717,-281,9909.0
6260,0.3088894486427307,4.5140790939331055,-89,8124.0,-5.864884376525879,-68,9909.0
6270,0.30893436074256897,-0.5175681114196777,89,8124.0,-1.1799073219299316,16,9909.0
6280,0.3085879981517792,-0.21154847741127014,-46,8124.0,1.9369964599609375,37,9909.0
6290,0.30880025029182434,-1.4713160991668701,15,8124.0,-0.2797892391681671,-68,9909.0
6300,0.3088052570819855,-1.4359900951385498,-60,8124.0,0.06521902978420258,-17,9909.0
6310,0.30875638127326965,-5.07867956161499,-123,8124.0,4.326138019561768,187,9909.0
6320,0.30870088934898376,-3.4320905208587646,2,8124.0,1.4897767305374146,27,9909.0
6330,0.30921581387519836,-0.6883561611175537,-46,8124.0,1.9587033987045288,58,9909.0
6340,0.3092396557331085,-1.0666266679763794,16,8124.0,0.5311774611473083,-10,9909.0
6350,0.3092826306819916,0.42386046051979065,72,8124.0,0.2682395577430725,-110,9909.0
6360,0.30937695503234863,2.0866973400115967,-35,8124.0,-3.7902166843414307,69,9909.0
6370,0.31008028984069824,2.747959613800049,59,8124.0,-4.712675094604492,-33,9909.0
6380,0.31023308634757996,1.7610679864883423,142,8124.0,-2.743428945541382,-151,9909.0
6390,0.31040212512016296,2.3236777782440186,11,8124.0,-2.0598702430725098,74,9909.0
6400,0.31057068705558777,0.9141844511032104,67,8124.0,2.005770444869995,26,9909.0
6410,0.3107278645038605,-0.10986430943012238,91,8124.0,1.4134224653244019,-136,9909.0
6420,0.3097321689128876,0.24033191800117493,-151,8124.0,-0.27852749824523926,203,9909.0
6430,0.309821218252182,-0.3324890434741974,68,8124.0,-1.8782577514648438,-106,9909.0
6440,0.30991417169570923,-1.5196765661239624,-29,8124.0,-1.02548086643219,65,9909.0
6450,0.31005367636680603,-1.3332561254501343,-35,8124.0,3.9018495082855225,103,9909.0
6460,0.3093782365322113,-1.1835912466049194,83,8124.0,6.2212934494018555,-73,9909.0
6470,0.30954915285110474,-4.575694561004639,-147,8124.0,10.297048568725586,189,9909.0
6480,0.309713214635849,-1.3381799459457397,-71,8124.0,-0.7121639251708984,90,9909.0
6490,0.3099052309989929,0.5746827721595764,52,8124.0,-0.5986372828483582,-3,9909.0
6500,0.31076672673225403,2.745595932006836,56,8124.0,-2.0670440196990967,-72,9909.0
6510,0.31097275018692017,1.8071980476379395,109,8124.0,-3.228379487991333,-110,9909.0
6520,0.3112180531024933,4.53727912902832,183,8124.0,-3.434953212738037,-240,9909.0
6530,0.31147706508636475,0.46748265624046326,23,8124.0,-3.318201780319214,28,9909.0
6540,0.31175994873046875,0.21234729886054993,-42,8124.0,2.3666274547576904,136,9909.0
6550,0.31280890107154846,-1.5180927515029907,45,8124.0,4.996211528778076,15,9909.0
6560,0.3131013512611389,-1.0019160509109497,-73,8124.0,5.5443830490112305,214,9909.0
6570,0.3133809268474579,-0.8145001530647278,16,8124.0,5.042182922363281,130,9909.0
6580,0.3136662542819977,-3.7617712020874023,152,8124.0,5.6156768798828125,-161,9909.0
6590,0.31508299708366394,-1.955220341682434,-41,8124.0,0.8499699234962463,53,9909.0
6600,0.3154022693634033,-0.41804957389831543,-19,8124.0,2.151519298553467,19,9909.0
6610,0.3156910240650177,-0.9202207326889038,44,8124.0,0.49450787901878357,-20,9909.0
6620,0.3159148693084717,5.977890968322754,112,8124.0,3.0008394718170166,126,9909.0
6630,0.31612709164619446,10.474770545959473,-35,8124.0,4.330379009246826,204,9909.0
6640,0.31579679250717163,-6.907876491546631,-44,8124.0,7.435583591461182,-129,9909.0
6650,0.31605011224746704,-14.929323196411133,-214,8124.0,5.540034294128418,49,9909.0
6660,0.31638118624687195,-17.520305633544922,-318,8124.0,-1.5483195781707764,53,9909.0
6670,0.3167344331741333,-14.340069770812988,-182,8124.0,3.6309053897857666,-13,9909.0
6680,0.31630799174308777,-9.776047706604004,-170,8124.0,4.707304954528809,-20,9909.0
6690,0.3167405128479004,-1.5355169773101807,-44,8124.0,-2.118547201156616,91,9909.0
6700,0.3167495131492615,8.27224349975586,275,8124.0,-6.833388805389404,-98,9909.0
6710,0.31752216815948486,17.222023010253906,386,8124.0,-1.2720558643341064,-136,9909.0
6720,0.319347620010376,25.749061584472656,318,8124.0,-4.03993558883667,-38,9909.0
6730,0.3194131553173065,27.11201286315918,277,8124.0,-7.334500789642334,38,9909.0
6740,0.3198450803756714,27.226266860961914,389,8124.0,-4.125621318817139,-153,9909.0
6750,0.32060521841049194,13.249109268188477,286,8124.0,-3.298619270324707,-270,9909.0
6760,0.32064545154571533,16.957300186157227,148,8124.0,-11.317431449890137,-103,9909.0
6770,0.3229236304759979,10.542160987854004,158,8124.0,-6.244185447692871,-41,9909.0
6780,0.323694109916687,9.915628433227539,219,8124.0,-2.23962664604187,-139,9909.0
6790,0.32417991757392883,14.61326789855957,192,8124.0,-3.5755300521850586,24,9909.0
6800,0.3243434429168701,17.42701530456543,220,8124.0,-1.570559024810791,90,9909.0
6810,0.3264736235141754,16.286945343017578,323,8124.0,-0.027948888018727303,-84,9909.0
6820,0.32671910524368286,12.0560884475708,182,8124.0,0.9764661192893982,31,9909.0
6830,0.3271978199481964,9.807402610778809,17,8124.0,-2.6591408252716064,-31,9909.0
6840,0.3277074992656708,9.71998405456543,80,8124.0,-8.243633270263672,-5,9909.0
6850,0.3277800679206848,12.225395202636719,302,8124.0,-4.472139358520508,-240,9909.0
6860,0.3291114568710327,15.213770866394043,280,8124.0,-6.689173698425293,-130,9909.0
6870,0.329491525888443,17.59397315979004,341,8124.0,-6.59060525894165,49,9909.0
6880,0.329630047082901,21.535192489624023,326,8124.0,-5.2842864990234375,-74,9909.0
6890,0.3299374282360077,18.209516525268555,194,8124.0,2.8891751766204834,68,9909.0
6900,0.33031219244003296,17.57642936706543,255,8124.0,-1.6608976125717163,113,9909.0
6910,0.3303164839744568,20.201040267944336,492,8124.0,2.8846869468688965,-137,9909.0
6920,0.3306632339954376,22.675195693969727,323,8124.0,5.223138332366943,57,9909.0
6930,0.33073297142982483,26.538543701171875,334,8124.0,7.101606369018555,227,9909.0
6940,0.33103251457214355,21.430103302001953,421,8124.0,4.410109519958496,38,9909.0
6950,0.3310197591781616,18.83664894104004,269,8124.0,4.969886779785156,155,9909.0
6960,0.3310529589653015,13.544841766357422,186,8124.0,6.824247360229492,182,9909.0
6970,0.3310064375400543,7.0869832038879395,284,8124.0,5.122077465057373,-95,9909.0
6980,0.3308860659599304,3.3552041053771973,14,8124.0,4.131198406219482,56,9909.0
6990,0.33099469542503357,-0.786179780960083,-111,8124.0,-2.0000956058502197,42,9909.0
7000,0.3308165967464447,-6.282185077667236,-106,8124.0,-6.995842456817627,-98,9909.0
7010,0.33061251044273376,-12.270238876342773,-246,8124.0,-5.958699703216553,-83,9909.0
7020,0.3304097056388855,-15.661821365356445,-311,8124.0,-4.889795780181885,22,9909.0
7030,0.3307253122329712,-22.830835342407227,-249,8124.0,1.223488688468933,-153,9909.0
7040,0.33050304651260376,-16.136043548583984,-192,8124.0,-2.004004716873169,-101,9909.0
7050,0.33022984862327576,-14.793828010559082,-360,8124.0,-2.401092290878296,121,9909.0
7060,0.33037081360816956,-12.772202491760254,-149,8124.0,1.4780948162078857,37,9909.0
7070,0.33026042580604553,-8.828386306762695,-90,8124.0,5.773354530334473,39,9909.0
7080,0.33062121272087097,-8.00455093383789,-173,8124.0,4.206636905670166,119,9909.0
7090,0.3305070996284485,-8.018974304199219,-118,8124.0,4.762221813201904,139,9909.0
7100,0.3304103910923004,-9.827521324157715,-35,8124.0,2.2957146167755127,-70,9909.0
7110,0.3303566873073578,-10.116496086120605,-49,8124.0,-5.369277477264404,-213,9909.0
7120,0.3309311866760254,-11.664937019348145,-201,8124.0,-2.046915054321289,93,9909.0
7130,0.33103156089782715,-9.396753311157227,-227,8124.0,4.3479156494140625,225,9909.0
7140,0.3309173583984375,-14.07740592956543,-131,8124.0,3.0342957973480225,-16,9909.0
7150,0.3309301435947418,-16.695186614990234,-297,8124.0,1.6256670951843262,32,9909.0
7160,0.3292500972747803,-18.548904418945312,-385,8124.0,3.558485507965088,168,9909.0
7170,0.3293532431125641,-21.09047508239746,-276,8124.0,4.439172744750977,49,9909.0
7180,0.3291010856628418,-20.77197265625,-203,8124.0,6.035845756530762,-153,9909.0
7190,0.3294028639793396,-22.836261749267578,-489,8124.0,4.210291862487793,208,9909.0
7200,0.3294941484928131,-22.71739387512207,-331,8124.0,8.126546859741211,67,9909.0
7210,0.32936498522758484,-24.005102157592773,-301,8124.0,9.363707542419434,88,9909.0
7220,0.32930871844291687,-23.6248722076416,-404,8124.0,7.950389862060547,250,9909.0
7230,0.32941174507141113,-18.413761138916016,-390,8124.0,6.870923042297363,289,9909.0
7240,0.32958298921585083,-14.658256530761719,-161,8124.0,8.018941879272461,188,9909.0
7250,0.3279014825820923,-12.064653396606445,55,8124.0,4.99513578414917,69,9909.0
7260,0.3278551399707794,-10.896943092346191,-185,8124.0,-1.8685585260391235,51,9909.0
7270,0.3280961215496063,-4.06302547454834,-101,8124.0,-0.9937151670455933,113,9909.0
7280,0.3281271755695343,-6.725792407989502,-33,8124.0,2.6536128520965576,-67,9909.0
7290,0.3282528221607208,-6.143442153930664,-141,8124.0,-1.2953715324401855,65,9909.0
7300,0.32700681686401367,-4.059581279754639,-186,8124.0,2.8745014667510986,205,9909.0
7310,0.32700780034065247,-4.04420280456543,-65,8124.0,1.038246989250183,-31,9909.0
7320,0.3272351920604706,-7.57662296295166,-207,8124.0,7.278229236602783,176,9909.0
7330,0.3274201452732086,-11.731755256652832,-174,8124.0,7.359898567199707,155,9909.0
7340,0.3273293673992157,-11.509218215942383,-53,8124.0,9.4381685256958,-19,9909.0
7350,0.3274194598197937,-10.614616394042969,-228,8124.0,5.73526668548584,-77,9909.0
7360,0.3277359902858734,-12.370443344116211,-332,8124.0,3.0361669063568115,152,9909.0
7370,0.32794204354286194,-10.510146141052246,-161,8124.0,1.7514324188232422,3,9909.0
7380,0.3272647261619568,-10.541460990905762,-221,8124.0,-0.5178088545799255,18,9909.0
7390,0.32742661237716675,-9.10621452331543,-181,8124.0,-3.2758851051330566,68,9909.0
7400,0.3277171850204468,-6.02925968170166,-47,8124.0,-0.14910897612571716,-130,9909.0
7410,0.3279772996902466,-4.558300971984863,-63,8124.0,-5.00524377822876,-28,9909.0
7420,0.32829463481903076,-0.8925886154174805,-39,8124.0,-2.6561925411224365,95,9909.0
7430,0.327085942029953,4.712384223937988,147,8124.0,-5.547137260437012,-136,9909.0
7440,0.32731080055236816,5.498335838317871,51,8124.0,-2.912534713745117,148,9909.0
7450,0.3276471197605133,4.124388694763184,116,8124.0,0.399763286113739,128,9909.0
7460,0.3279346823692322,3.4358861446380615,-5,8124.0,4.272037029266357,40,9909.0
7470,0.3289046287536621,3.254354953765869,58,8124.0,6.720498085021973,148,9909.0
7480,0.3292957842350006,2.1079893112182617,77,8124.0,11.475630760192871,73,9909.0
7490,0.32968324422836304,2.323279857635498,-89,8124.0,16.68773078918457,306,9909.0
7500,0.32996681332588196,4.765867233276367,77,8124.0,9.328296661376953,142,9909.0
7510,0.330529123544693,2.5569210052490234,55,8124.0,8.604928970336914,20,9909.0
7520,0.33117520809173584,3.10986328125,-113,8124.0,0.4477091133594513,-40,9909.0
7530,0.33158454298973083,4.971258163452148,46,8124.0,1.0894734859466553,56,9909.0
7540,0.33202555775642395,-3.590954303741455,25,8124.0,-4.214879512786865,-237,9909.0
7550,0.3323952853679657,-5.544001579284668,-124,8124.0,-8.567550659179688,-130,9909.0
7560,0.3313124477863312,-5.342496871948242,-42,8124.0,-10.326160430908203,-247,9909.0
7570,0.3316420316696167,-4.535658359527588,60,8124.0,-8.900274276733398,-400,9909.0
7580,0.33190882205963135,-4.519575595855713,-174,8124.0,-6.831738471984863,9,9909.0
7590,0.33219286799430847,-2.889345645904541,-8,8124.0,-4.732926845550537,-39,9909.0
7600,0.3326549232006073,-0.08160391449928284,33,8124.0,-0.2792465388774872,-21,9909.0
7610,0.33290615677833557,3.0270333290100098,-15,8124.0,1.6683286428451538,282,9909.0
7620,0.33318594098091125,-0.9067084193229675,32,8124.0,2.124454975128174,130,9909.0
7630,0.33342278003692627,2.5469019412994385,90,8124.0,4.064087390899658,44,9909.0
7640,0.33378440141677856,0.9982101321220398,-65,8124.0,4.061561107635498,208,9909.0
7650,0.3328744173049927,4.667842388153076,36,8124.0,0.03484128788113594,-62,9909.0
7660,0.33318641781806946,-0.3905636668205261,87,8124.0,-2.0147125720977783,-143,9909.0
7670,0.333499014377594,-2.650329351425171,-94,8124.0,-5.049059867858887,-37,9909.0
7680,0.3338674008846283,-1.9968410730361938,-47,8124.0,-7.6066999435424805,-100,9909.0
7690,0.33448633551597595,-2.370042324066162,106,8124.0,-3.192006826400757,-254,9909.0
7700,0.33483681082725525,-1.1057584285736084,-76,8124.0,-7.711468696594238,-107,9909.0
7710,0.3352315127849579,-1.637404203414917,-62,8124.0,-5.13639497756958,-60,9909.0
7720,0.33559438586235046,-1.6719322204589844,70,8124.0,-4.352686882019043,-242,9909.0
7730,0.3359701931476593,-2.4008498191833496,-48,8124.0,-0.051081132143735886,64,9909.0
7740,0.3359090983867645,-0.82257479429245,9,8124.0,3.2209970951080322,101,9909.0
7750,0.3362143933773041,1.3557742834091187,114,8124.0,4.032088756561279,-48,9909.0
7760,0.33652257919311523,2.2857508659362793,16,8124.0,6.459550380706787,163,9909.0
7770,0.33678627014160156,4.801183223724365,9,8124.0,2.30914568901062,166,9909.0
7780,0.3366003632545471,5.419376850128174,211,8124.0,4.864711284637451,24,9909.0
7790,0.3368155062198639,9.56025505065918,124,8124.0,-0.602977454662323,53,9909.0
7800,0.3370485007762909,8.759783744812012,105,8124.0,0.16191312670707703,69,9909.0
7810,0.3372756838798523,10.198099136352539,259,8124.0,2.427788734436035,-150,9909.0
7820,0.3380727767944336,8.175704002380371,108,8124.0,-1.1935211420059204,-41,9909.0
7830,0.338344931602478,7.918798923492432,111,8124.0,-1.618042230606079,-5,9909.0
7840,0.33863013982772827,4.291714668273926,176,8124.0,2.713894844055176,-43,9909.0
7850,0.33890068531036377,0.34140288829803467,-36,8124.0,4.985195159912109,153,9909.0
7860,0.33923667669296265,-1.3190220594406128,-55,8124.0,7.132608890533447,153,9909.0
7870,0.3385174572467804,1.2278754711151123,44,8124.0,6.993929386138916,47,9909.0
7880,0.33875688910484314,1.7782247066497803,-145,8124.0,2.6292471885681152,148,9909.0
7890,0.33899474143981934,1.6334195137023926,81,8124.0,-0.9405204057693481,-30,9909.0
7900,0.339208722114563,0.6963593363761902,124,8124.0,-3.8218994140625,-33,9909.0
7910,0.34078556299209595,3.973898410797119,13,8124.0,-2.9949748516082764,52,9909.0
7920,0.34107524156570435,4.970785617828369,170,8124.0,-4.149934768676758,-125,9909.0
7930,0.34136855602264404,4.031426429748535,170,8124.0,-6.419674396514893,-261,9909.0
7940,0.34166714549064636,2.3131227493286133,-44,8124.0,-0.8197660446166992,118,9909.0
7950,0.3419693410396576,3.6542038917541504,124,8124.0,0.15682357549667358,-91,9909.0
7960,0.3438791334629059,3.5710651874542236,-21,8124.0,0.46115750074386597,44,9909.0
7970,0.3442557454109192,-0.9179626703262329,-96,8124.0,-0.27983418107032776,193,9909.0
7980,0.34463098645210266,2.693427801132202,177,8124.0,0.9077341556549072,-57,9909.0
7990,0.34500935673713684,2.4564003944396973,7,8124.0,-2.1128153800964355,72,9909.0
8000,0.3468298614025116,3.011353015899658,94,8124.0,0.7436815500259399,-18,9909.0
8010,0.34724393486976624,1.9673285484313965,166,8124.0,0.1384015679359436,-187,9909.0
8020,0.3477154076099396,3.7391834259033203,-43,8124.0,0.26639875769615173,95,9909.0
8030,0.34819597005844116,6.601510524749756,196,8124.0,0.10998517274856567,-29,9909.0
8040,0.3480447232723236,9.3067045211792,110,8124.0,1.8942692279815674,36,9909.0
8050,0.3484533727169037,6.69642448425293,45,8124.0,2.3635284900665283,116,9909.0
8060,0.3488583564758301,6.513617515563965,189,8124.0,0.998920738697052,-85,9909.0
8070,0.3492428958415985,5.326422214508057,-16,8124.0,3.919752836227417,144,9909.0
8080,0.34965622425079346,1.544887900352478,83,8124.0,4.278372764587402,31,9909.0
8090,0.35042476654052734,0.6774809956550598,40,8124.0,5.030235767364502,27,9909.0
8100,0.3508126735687256,0.03461054712533951,-4,8124.0,2.6805357933044434,117,9909.0
8110,0.3511945903301239,0.9574418663978577,113,8124.0,7.647156238555908,-38,9909.0
8120,0.35152220726013184,2.410212278366089,38,8124.0,-2.163275718688965,-119,9909.0
8130,0.352279394865036,0.1654433161020279,146,8124.0,0.24713821709156036,-52,9909.0
8140,0.35265040397644043,1.4842315912246704,-1,8124.0,1.6334295272827148,49,9909.0
8150,0.35298725962638855,2.3400630950927734,142,8124.0,3.2236156463623047,30,9909.0
8160,0.35331860184669495,0.1470259130001068,-42,8124.0,1.6863893270492554,105,9909.0
8170,0.35360831022262573,2.368055820465088,11,8124.0,7.101388931274414,113,9909.0
8180,0.3525220453739166,1.838248372077942,44,8124.0,3.337118148803711,-98,9909.0
8190,0.35278382897377014,-1.1057982444763184,-119,8124.0,-0.20536188781261444,58,9909.0
8200,0.35300469398498535,-5.921769142150879,-17,8124.0,3.0439651012420654,-57,9909.0
8210,0.3532298505306244,-6.84320592880249,-161,8124.0,-3.4604218006134033,21,9909.0
8220,0.3556351661682129,-6.817084789276123,-29,8124.0,-4.768751621246338,-195,9909.0
8230,0.35598665475845337,-9.876260757446289,-113,8124.0,-4.963496685028076,-1,9909.0
8240,0.3563450276851654,-5.345544338226318,-47,8124.0,-0.6082740426063538,-58,9909.0
8250,0.3566999137401581,-3.4800498485565186,-21,8124.0,-2.1346657276153564,-115,9909.0
8260,0.3563063144683838,1.5306652784347534,-143,8124.0,5.722822666168213,172,9909.0
8270,0.3566296398639679,-2.85798978805542,-60,8124.0,2.283188819885254,141,9909.0
8280,0.3569645285606384,-4.469114780426025,-181,8124.0,4.914680480957031,165,9909.0
8290,0.3573087453842163,-5.784200191497803,-24,8124.0,1.5610156059265137,-55,9909.0
8300,0.3576430380344391,-5.908802032470703,-77,8124.0,0.6234562993049622,-42,9909.0
8310,0.3584577143192291,-2.386939525604248,-71,8124.0,-1.845822811126709,72,9909.0
8320,0.3587912321090698,-1.6087530851364136,66,8124.0,-0.9373921751976013,-135,9909.0
8330,0.35911402106285095,4.961822986602783,-122,8124.0,0.1982647329568863,190,9909.0
8340,0.35940438508987427,2.9477670192718506,50,8124.0,-2.996163845062256,-41,9909.0
8350,0.3590009808540344,3.5183138847351074,1,8124.0,-2.4567389488220215,47,9909.0
8360,0.3591667413711548,1.9704599380493164,49,8124.0,-2.513887643814087,-31,9909.0
8370,0.359307199716568,0.05309424176812172,-10,8124.0,0.21109718084335327,-26,9909.0
8380,0.35943490266799927,-3.0790889263153076,-77,8124.0,-1.4108110666275024,7,9909.0
8390,0.35946840047836304,-3.381162166595459,19,8124.0,0.019282624125480652,-152,9909.0
8400,0.35973551869392395,-5.8710832595825195,-216,8124.0,0.5531853437423706,136,9909.0
8410,0.3597249388694763,-7.131118297576904,-131,8124.0,0.1329849809408188,91,9909.0
8420,0.3597325086593628,-7.163513660430908,-171,8124.0,-0.9271455407142639,82,9909.0
8430,0.3597593605518341,-5.154055118560791,-120,8124.0,-3.2884249687194824,50,9909.0
8440,0.35945531725883484,-5.202624797821045,48,8124.0,-0.7837489247322083,-109,9909.0
8450,0.35942673683166504,-4.509904384613037,-95,8124.0,-4.036797046661377,2,9909.0
8460,0.35941368341445923,-2.3401618003845215,25,8124.0,-3.2698304653167725,-83,9909.0
8470,0.35942360758781433,-3.8042755126953125,-31,8124.0,-2.3748815059661865,-189,9909.0
8480,0.3592550754547119,-3.2034003734588623,-171,8124.0,1.2240045070648193,75,9909.0
8490,0.35927921533584595,-4.229692459106445,-27,8124.0,-2.6029999256134033,-46,9909.0
8500,0.3593043088912964,-4.491865158081055,-111,8124.0,-0.1840001791715622,42,9909.0
8510,0.359342098236084,-3.553731918334961,-154,8124.0,1.4488654136657715,169,9909.0
8520,0.35935649275779724,-4.6042938232421875,-83,8124.0,1.7069236040115356,33,9909.0
8530,0.358437180519104,-2.1197803020477295,-19,8124.0,1.5878853797912598,51,9909.0
8540,0.3584214746952057,2.8103530406951904,-1,8124.0,0.1325490027666092,173,9909.0
8550,0.35841476917266846,4.217242240905762,186,8124.0,-1.6821088790893555,-51,9909.0
8560,0.3584057688713074,3.8850958347320557,104,8124.0,2.3038487434387207,36,9909.0
8570,0.35822272300720215,3.8040952682495117,44,8124.0,-2.092259407043457,32,9909.0
8580,0.35814717411994934,2.652275800704956,129,8124.0,-3.599335193634033,-218,9909.0
8590,0.3582058548927307,0.5456893444061279,-53,8124.0,-7.671005725860596,-183,9909.0
8600,0.3581656515598297,-4.144664287567139,-110,8124.0,-5.725152969360352,-26,9909.0
8610,0.3572944700717926,-3.1576151847839355,3,8124.0,-4.924637794494629,-128,9909.0
8620,0.35720956325531006,-1.9420617818832397,-28,8124.0,-5.022428035736084,-42,9909.0
8630,0.357154905796051,-4.255504608154297,-99,8124.0,2.619900703430176,115,9909.0
8640,0.3570839464664459,-0.6168352365493774,37,8124.0,-0.10919243842363358,-14,9909.0
8650,0.3569905161857605,1.6952381134033203,40,8124.0,1.242258906364441,15,9909.0
8660,0.356896311044693,2.4013185501098633,-132,8124.0,1.6944133043289185,270,9909.0
8670,0.35687515139579773,2.4877569675445557,91,8124.0,-0.467760294675827,-82,9909.0
8680,0.3568343222141266,3.4394900798797607,21,8124.0,-3.097140312194824,-36,9909.0
8690,0.35678961873054504,2.579216480255127,-61,8124.0,-2.4226677417755127,61,9909.0
8700,0.35565266013145447,1.7505804300308228,29,8124.0,0.277584969997406,-96,9909.0
8710,0.3555874228477478,-1.4495574235916138,-79,8124.0,-2.2499423027038574,6,9909.0
8720,0.35550668835639954,-3.6414575576782227,-112,8124.0,-2.8722753524780273,25,9909.0
8730,0.3554220497608185,-2.854759454727173,-25,8124.0,0.7970559597015381,-167,9909.0
8740,0.35534951090812683,-6.308875560760498,-128,8124.0,-1.8377183675765991,66,9909.0
8750,0.3547518253326416,-3.814154863357544,-2,8124.0,0.18659941852092743,169,9909.0
8760,0.3546943664550781,-0.1890701949596405,-54,8124.0,-2.6784861087799072,-137,9909.0
8770,0.35466447472572327,1.765973687171936,-81,8124.0,0.11600778251886368,164,9909.0
8780,0.3546764552593231,1.6507295370101929,104,8124.0,3.9345357418060303,-62,9909.0
8790,0.3552241921424866,2.418394088745117,15,8124.0,1.7270804643630981,-28,9909.0
8800,0.3553156852722168,2.509819984436035,-58,8124.0,1.1506372690200806,103,9909.0
8810,0.35543057322502136,0.7859593629837036,57,8124.0,1.5278772115707397,-55,9909.0
8820,0.35555654764175415,0.6835194230079651,17,8124.0,-0.8519874811172485,-5,9909.0
8830,0.3550499379634857,-3.0324714183807373,-107,8124.0,-0.35426580905914307,179,9909.0
8840,0.35519134998321533,0.23666024208068848,96,8124.0,-0.4408123195171356,-147,9909.0
8850,0.3553493916988373,0.3856681287288666,-26,8124.0,-1.4814460277557373,-71,9909.0
8860,0.3555114269256592,-1.579207181930542,-81,8124.0,-6.984902858734131,-33,9909.0
8870,0.3557204306125641,-0.19049808382987976,72,8124.0,-3.610718250274658,-181,9909.0
8880,0.35726144909858704,0.5260709524154663,-38,8124.0,-3.2749061584472656,54,9909.0
8890,0.35760965943336487,2.6962335109710693,51,8124.0,-4.277245044708252,-4,9909.0
8900,0.35796618461608887,2.433439016342163,141,8124.0,1.670462727546692,-47,9909.0
8910,0.3583770990371704,2.9371910095214844,-130,8124.0,-0.31638303399086,266,9909.0
8920,0.35771095752716064,2.799046754837036,128,8124.0,2.203427314758301,12,9909.0
8930,0.3580893874168396,3.1947824954986572,59,8124.0,7.763738632202148,74,9909.0
8940,0.3584263026714325,3.2503859996795654,-96,8124.0,7.088637828826904,292,9909.0
8950,0.3587638735771179,3.6073696613311768,110,8124.0,7.583423614501953,38,9909.0
8960,0.35906943678855896,0.42232462763786316,-55,8124.0,5.064056873321533,125,9909.0
8970,0.3593091070652008,-1.1619248390197754,-72,8124.0,-1.8445682525634766,71,9909.0
8980,0.3596198856830597,-2.3610754013061523,75,8124.0,0.8211539387702942,-95,9909.0
8990,0.3599415719509125,1.0193860530853271,-62,8124.0,-5.831472396850586,30,9909.0
9000,0.3602558970451355,2.6729848384857178,79,8124.0,-8.785375595092773,-58,9909.0
9010,0.3611277639865875,-0.8612945079803467,85,8124.0,-5.900125026702881,-117,9909.0
9020,0.36147403717041016,0.5341606736183167,-87,8124.0,1.072743535041809,139,9909.0
9030,0.3618394732475281,-0.632480800151825,90,8124.0,-0.9868606925010681,-9,9909.0
9040,0.36216068267822266,0.8823105692863464,-16,8124.0,7.604000568389893,171,9909.0
9050,0.3634144961833954,-0.277202844619751,11,8124.0,10.674459457397461,183,9909.0
9060,0.3637005388736725,1.5997285842895508,192,8124.0,12.387677192687988,-77,9909.0
9070,0.36398500204086304,0.6551917791366577,-29,8124.0,6.879912853240967,229,9909.0
9080,0.36423033475875854,2.368424415588379,35,8124.0,1.0786480903625488,30,9909.0
9090,0.3644517958164215,-0.5210575461387634,85,8124.0,0.9860841631889343,-4,9909.0
9100,0.36293715238571167,-0.8684839010238647,-59,8124.0,-3.1795268058776855,126,9909.0
9110,0.3631296753883362,-0.6762568354606628,64,8124.0,-2.9021193981170654,-87,9909.0
9120,0.3632827699184418,-1.0547641515731812,22,8124.0,-1.951367735862732,-52,9909.0
9130,0.36339670419692993,1.0320277214050293,11,8124.0,-7.354466438293457,-53,9909.0
9140,0.36489084362983704,1.8778256177902222,181,8124.0,-2.399695873260498,-210,9909.0
9150,0.36510416865348816,1.8370518684387207,-32,8124.0,-0.6881007552146912,32,9909.0
9160,0.3653072714805603,2.2222402095794678,50,8124.0,3.173388957977295,50,9909.0
9170,0.36549830436706543,0.18688763678073883,18,8124.0,7.6186347007751465,60,9909.0
9180,0.36570003628730774,1.266394853591919,-70,8124.0,5.036181926727295,142,9909.0
9190,0.3656282424926758,-1.381983757019043,103,8124.0,6.401313781738281,-3,9909.0
9200,0.3658529222011566,-2.0580039024353027,-21,8124.0,2.125481128692627,53,9909.0
9210,0.366045206785202,-1.098140001296997,16,8124.0,2.2122020721435547,15,9909.0
9220,0.36617693305015564,0.6678734421730042,95,8124.0,-4.734776020050049,-260,9909.0
9230,0.3666166365146637,1.7920938730239868,-74,8124.0,-4.903657913208008,-17,9909.0
9240,0.36671388149261475,1.4367620944976807,18,8124.0,-6.317139148712158,-140,9909.0
9250,0.3668150007724762,-1.563498616218567,-4,8124.0,1.2653610706329346,-90,9909.0
9260,0.3669443726539612,-1.2294992208480835,-123,8124.0,0.009110241197049618,88,9909.0
9270,0.3666524887084961,-1.9200893640518188,24,8124.0,3.124765634536743,-7,9909.0
9280,0.36674124002456665,-0.5020782947540283,-19,8124.0,2.8167717456817627,4,9909.0
9290,0.36684226989746094,-2.2667829990386963,-64,8124.0,1.18234121799469,94,9909.0
9300,0.366956889629364,-2.1944870948791504,24,8124.0,5.026683807373047,-18,9909.0
9310,0.3670719861984253,-0.8579983711242676,-119,8124.0,-0.16530320048332214,35,9909.0
9320,0.36792999505996704,-3.113326072692871,-20,8124.0,0.7799396514892578,-35,9909.0
9330,0.36806270480155945,-3.764796018600464,-26,8124.0,2.8433496952056885,-59,9909.0
9340,0.36820265650749207,-2.1694297790527344,-68,8124.0,-2.6301467418670654,-39,9909.0
9350,0.36831802129745483,-3.3159003257751465,48,8124.0,2.04819917678833,-9,9909.0
9360,0.3682331442832947,-2.198469877243042,-110,8124.0,3.3212101459503174,-28,9909.0
9370,0.36829617619514465,-3.219259738922119,2,8124.0,-1.7584455013275146,211,9909.0
9380,0.3683735132217407,-2.3202507495880127,-9,8124.0,3.5704970359802246,78,9909.0
9390,0.36844298243522644,-1.7706378698349,-96,8124.0,3.123072862625122,143,9909.0
9400,0.36850759387016296,-1.2424416542053223,-95,8124.0,0.7251690626144409,325,9909.0
9410,0.3687497675418854,-2.231459379196167,-45,8124.0,-1.1844632625579834,11,9909.0
9420,0.36879149079322815,-1.4700440168380737,-82,8124.0,4.371345520019531,227,9909.0
9430,0.3688395917415619,-3.520693063735962,5,8124.0,1.8460614681243896,-39,9909.0
9440,0.3688797354698181,1.813603401184082,19,8124.0,0.7093076109886169,53,9909.0
9450,0.3685837984085083,3.4957668781280518,-24,8124.0,-0.38588616251945496,135,9909.0
9460,0.3686351478099823,2.0735509395599365,71,8124.0,1.8611044883728027,-143,9909.0
9470,0.36867713928222656,2.809488534927368,-50,8124.0,1.731303095817566,-44,9909.0
9480,0.36873385310173035,0.09840389341115952,-75,8124.0,-2.4272851943969727,24,9909.0
9490,0.36811989545822144,-2.3152222633361816,46,8124.0,3.5026910305023193,-74,9909.0
9500,0.36817285418510437,-1.3520872592926025,-56,8124.0,-3.09558367729187,-20,9909.0
9510,0.3682432770729065,-2.1165192127227783,-98,8124.0,-0.13659337162971497,79,9909.0
9520,0.3683239221572876,-2.9955203533172607,51,8124.0,1.724287748336792,-125,9909.0
9530,0.36838775873184204,-1.447907567024231,-55,8124.0,-2.568239212036133,-88,9909.0
9540,0.36710602045059204,1.1243044137954712,-55,8124.0,-4.503734111785889,28,9909.0
9550,0.3670988976955414,-1.0744521617889404,119,8124.0,-3.1899218559265137,-279,9909.0
9560,0.36708444356918335,-0.884066104888916,-37,8124.0,-8.54456615447998,-89,9909.0
9570,0.3670501708984375,-0.6446232199668884,-65,8124.0,2.225722312927246,112,9909.0
9580,0.36703357100486755,0.8547055125236511,144,8124.0,-0.1754089891910553,-122,9909.0
9590,0.36705437302589417,1.0981814861297607,16,8124.0,-2.688295841217041,48,9909.0
9600,0.3670763075351715,4.9248881340026855,48,8124.0,2.433809995651245,138,9909.0
9610,0.36711829900741577,5.353214263916016,196,8124.0,3.9505186080932617,-73,9909.0
9620,0.36714568734169006,3.122952699661255,-2,8124.0,3.2524702548980713,0,9909.0
9630,0.3675110340118408,2.9163849353790283,-6,8124.0,0.9949893355369568,138,9909.0
9640,0.367548406124115,0.8769514560699463,153,8124.0,0.6303447484970093,9,9909.0
9650,0.367584764957428,-0.07797472923994064,-11,8124.0,1.9295880794525146,-21,9909.0
9660,0.3676338791847229,2.470644474029541,-52,8124.0,1.1634384393692017,78,9909.0
9670,0.3674127161502838,1.3354401588439941,118,8124.0,0.07355371117591858,-130,9909.0
9680,0.3674549162387848,0.5926752686500549,-14,8124.0,1.7089999914169312,62,9909.0
9690,0.36753177642822266,1.3099284172058105,-27,8124.0,3.9453349113464355,157,9909.0
9700,0.3676004111766815,1.0452485084533691,91,8124.0,6.437525749206543,117,9909.0
9710,0.36623096466064453,-0.7822247743606567,44,8124.0,1.4993864297866821,26,9909.0
9720,0.3662765920162201,-1.1940115690231323,-128,8124.0,1.3097167015075684,128,9909.0
9730,0.36634597182273865,0.2976182997226715,61,8124.0,-9.024380683898926,-124,9909.0
9740,0.36645692586898804,-1.9477990865707397,53,8124.0,-7.724725723266602,-264,9909.0
9750,0.3665884733200073,-1.2068300247192383,-88,8124.0,-7.469589710235596,-14,9909.0
9760,0.36607852578163147,-1.6459323167800903,-41,8124.0,-5.4903717041015625,-79,9909.0
9770,0.3661682903766632,-4.006842136383057,54,8124.0,-0.34236133098602295,-148,9909.0
9780,0.36624252796173096,-2.5437023639678955,-83,8124.0,-1.9556666612625122,-98,9909.0
9790,0.3662942051887512,-0.06036905199289322,-31,8124.0,0.21371518075466156,72,9909.0
9800,0.36619728803634644,2.6088647842407227,67,8124.0,-2.412428855895996,-80,9909.0
9810,0.3662456274032593,-2.4560794830322266,-71,8124.0,6.442451477050781,107,9909.0
9820,0.36629483103752136,-2.157872438430786,-93,8124.0,4.085995674133301,216,9909.0
9830,0.36635616421699524,0.6511036157608032,41,8124.0,4.558145999908447,32,9909.0
9840,0.3664350211620331,-1.2746957540512085,-63,8124.0,0.7676565647125244,-48,9909.0
9850,0.3667484521865845,-1.2331546545028687,-114,8124.0,-3.584486246109009,63,9909.0
9860,0.36684802174568176,-0.8844692707061768,4,8124.0,-4.231635093688965,-85,9909.0
9870,0.3669281303882599,4.576082229614258,178,8124.0,-7.835019111633301,-413,9909.0
9880,0.36703723669052124,-0.28773805499076843,-84,8124.0,-9.57385540008545,-78,9909.0
9890,0.36670517921447754,0.8778772950172424,-40,8124.0,-7.05946683883667,-84,9909.0
9900,0.3667813241481781,-0.21494503319263458,76,8124.0,-6.997600555419922,-259,9909.0
9910,0.36685022711753845,1.0355778932571411,-39,8124.0,-4.082449913024902,-124,9909.0
9920,0.3668861985206604,1.114428997039795,-26,8124.0,-4.31701135635376,100,9909.0
9930,0.36776840686798096,-1.5992566347122192,83,8124.0,0.05506670102477074,-5,9909.0
9940,0.3679196834564209,0.9604508876800537,-25,8124.0,-0.12451442331075668,62,9909.0
9950,0.36801937222480774,1.4530292749404907,-35,8124.0,2.854557991027832,181,9909.0
9960,0.3681204617023468,-0.5028038024902344,-18,8124.0,2.4609618186950684,66,9909.0
9970,0.3682551980018616,2.5983715057373047,-98,8124.0,1.0401544570922852,-23,9909.0
9980,0.3691120147705078,0.633033275604248,53,8124.0,-1.911852478981018,79,9909.0
9990,0.36929750442504883,-1.4631991386413574,133,8124.0,-1.902956485748291,-107,9909.0
10000,0.36948874592781067,0.5568408370018005,-2,8124.0,-1.1853810548782349,-136,9909.0
10010,0.369686096906662,3.0104570388793945,23,8124.0,-1.8739864826202393,103,9909.0
10020,0.36911630630493164,4.248663425445557,171,8124.0,-0.32466480135917664,-100,9909.0
10030,0.36923423409461975,-0.31292667984962463,66,8124.0,1.5336825847625732,-51,9909.0
10040,0.36932364106178284,1.979114055633545,-48,8124.0,0.36297017335891724,157,9909.0
10050,0.3694005012512207,0.31774744391441345,52,8124.0,3.0996642112731934,9,9909.0
10060,0.36953261494636536,0.5128791928291321,96,8124.0,2.288019895553589,-71,9909.0
10070,0.37016308307647705,0.5890238881111145,-60,8124.0,-1.0605683326721191,72,9909.0
10080,0.37023240327835083,-1.0053520202636719,40,8124.0,-0.5542071461677551,-34,9909.0
10090,0.3703141212463379,2.7601535320281982,121,8124.0,1.2584567070007324,-127,9909.0
10100,0.3704218864440918,0.7262325882911682,-40,8124.0,0.43251821398735046,-122,9909.0
10110,0.37072572112083435,2.5517468452453613,33,8124.0,-1.2062101364135742,7,9909.0
10120,0.3708042502403259,1.4030817747116089,-20,8124.0,6.749696731567383,24,9909.0
10130,0.37085840106010437,2.0089902877807617,-10,8124.0,-5.5242695808410645,-48,9909.0
10140,0.37086939811706543,0.3461174964904785,-68,8124.0,-0.427202433347702,124,9909.0
10150,0.3701556324958801,0.5058857798576355,72,8124.0,-0.3990976810455322,-119,9909.0
10160,0.3701298236846924,-0.9781715869903564,5,8124.0,2.0551226139068604,-103,9909.0
10170,0.37007197737693787,0.8073865175247192,-54,8124.0,1.1687870025634766,140,9909.0
10180,0.37004542350769043,2.475571870803833,42,8124.0,4.202336311340332,48,9909.0
10190,0.3700239062309265,2.581023693084717,223,8124.0,-2.0914626121520996,-355,9909.0
10200,0.37077924609184265,1.4985231161117554,-56,8124.0,5.625938892364502,117,9909.0
10210,0.37082016468048096,4.3251214027404785,49,8124.0,2.8985443115234375,128,9909.0
10220,0.37085750699043274,1.5456407070159912,85,8124.0,5.093769073486328,122,9909.0
10230,0.37087467312812805,3.229459762573242,52,8124.0,0.6221602559089661,21,9909.0
10240,0.3709760010242462,-0.07516404241323471,-62,8124.0,4.9827704429626465,44,9909.0
10250,0.3710433542728424,1.5527158975601196,57,8124.0,3.4065802097320557,57,9909.0
10260,0.3711119592189789,-0.2064916342496872,65,8124.0,2.0436503887176514,-23,9909.0
10270,0.3712007403373718,-1.9560747146606445,-59,8124.0,0.8691186904907227,27,9909.0
10280,0.3712849020957947,2.1988365650177,-28,8124.0,-1.3225826025009155,168,9909.0
10290,0.37167105078697205,1.1764119863510132,67,8124.0,-1.2709814310073853,-60,9909.0
10300,0.3718011975288391,3.190551280975342,140,8124.0,-12.557637214660645,-349,9909.0
10310,0.37193894386291504,-0.6447241306304932,-86,8124.0,-2.6534321308135986,-52,9909.0
10320,0.3720589876174927,-1.1480090618133545,-26,8124.0,3.4888744354248047,90,9909.0
10330,0.37214240431785583,-3.954193115234375,99,8124.0,3.409510850906372,-90,9909.0
10340,0.37222838401794434,-4.564887523651123,-90,8124.0,3.436845064163208,39,9909.0
10350,0.3723149299621582,-3.4579226970672607,-126,8124.0,2.456775665283203,134,9909.0
10360,0.3724078834056854,-3.207766056060791,-4,8124.0,-1.1932241916656494,-62,9909.0
10370,0.37231284379959106,-4.696772575378418,12,8124.0,0.4677353799343109,-193,9909.0
10380,0.37241268157958984,-3.7032535076141357,-124,8124.0,0.7008557915687561,96,9909.0
10390,0.3724764585494995,-1.808008074760437,-12,8124.0,-1.5847612619400024,25,9909.0
10400,0.3725069761276245,0.49418777227401733,132,8124.0,-0.13936209678649902,-100,9909.0
10410,0.3725113272666931,4.028468608856201,55,8124.0,-4.09593391418457,-165,9909.0
10420,0.3730836510658264,5.445815086364746,-68,8124.0,-2.341770648956299,40,9909.0
10430,0.373053640127182,3.083444595336914,184,8124.0,-3.7536158561706543,-181,9909.0
10440,0.3730000853538513,4.197450160980225,89,8124.0,-1.3825782537460327,-225,9909.0
10450,0.3729079067707062,1.3758578300476074,-14,8124.0,-2.922393321990967,-44,9909.0
10460,0.37204641103744507,0.8329840898513794,77,8124.0,3.5229358673095703,-46,9909.0
10470,0.3718719780445099,2.3293886184692383,98,8124.0,2.6014902591705322,-137,9909.0
10480,0.37168267369270325,-3.0210022926330566,-136,8124.0,9.163421630859375,142,9909.0
10490,0.37147632241249084,-3.7790915966033936,-3,8124.0,9.707234382629395,54,9909.0
10500,0.371218204498291,-4.5684123039245605,53,8124.0,8.218924522399902,-99,9909.0
10510,0.36920323967933655,-1.75992751121521,-21,8124.0,3.9118576049804688,48,9909.0
10520,0.36880815029144287,-0.08642075210809708,26,8124.0,0.5988731384277344,11,9909.0
10530,0.36842554807662964,2.4503705501556396,158,8124.0,-0.9559900164604187,-158,9909.0
10540,0.3680456280708313,6.006129264831543,67,8124.0,-6.478287696838379,-129,9909.0
10550,0.3688601553440094,3.4872658252716064,-11,8124.0,-0.43947044014930725,54,9909.0
10560,0.36859798431396484,2.8829190731048584,56,8124.0,-1.2471873760223389,5,9909.0
10570,0.36836591362953186,1.3198410272598267,-42,8124.0,4.4310526847839355,-47,9909.0
10580,0.36815300583839417,-0.9849300980567932,9,8124.0,0.28906285762786865,106,9909.0
10590,0.36757752299308777,-4.5414719581604,-53,8124.0,1.8898522853851318,22,9909.0
10600,0.36738377809524536,-5.9430694580078125,-142,8124.0,-1.072064757347107,56,9909.0
10610,0.367175430059433,-7.117372035980225,-57,8124.0,-3.0009207725524902,26,9909.0
10620,0.3669661283493042,-4.986023426055908,8,8124.0,0.9992483258247375,-106,9909.0
10630,0.366776704788208,-3.2505266666412354,-136,8124.0,1.3781019449234009,40,9909.0
10640,0.36790841817855835,-5.44622278213501,-131,8124.0,2.873816967010498,188,9909.0
10650,0.36786237359046936,-0.8833440542221069,77,8124.0,2.169157028198242,-86,9909.0
10660,0.36784008145332336,3.838559865951538,67,8124.0,1.5864731073379517,5,9909.0
10670,0.36784592270851135,3.8685269355773926,-62,8124.0,-0.7290911078453064,61,9909.0
10680,0.3699265420436859,-0.053622111678123474,42,8124.0,-1.3937158584594727,-86,9909.0
10690,0.3701160252094269,2.438427209854126,89,8124.0,-3.544834852218628,-180,9909.0
10700,0.37031129002571106,0.4622899293899536,-92,8124.0,-2.9249861240386963,81,9909.0
10710,0.37051844596862793,-2.5272574424743652,46,8124.0,-4.429905414581299,-133,9909.0
10720,0.3707614243030548,-1.2112122774124146,-5,8124.0,-4.295274257659912,-142,9909.0
10730,0.370313435792923,-2.057396650314331,-147,8124.0,-2.903424024581909,94,9909.0
10740,0.3705303370952606,-4.781280994415283,-16,8124.0,3.297515869140625,-13,9909.0
10750,0.37075313925743103,-5.004547595977783,-95,8124.0,6.095256328582764,104,9909.0
10760,0.37098389863967896,-4.560666561126709,-138,8124.0,6.0913310050964355,183,9909.0
10770,0.3712283968925476,-3.9966633319854736,-15,8124.0,4.723787784576416,25,9909.0
10780,0.3714563250541687,-2.0096042156219482,-54,8124.0,2.6541318893432617,77,9909.0
10790,0.3716807961463928,-0.6264553070068359,-88,8124.0,1.8152403831481934,83,9909.0
10800,0.37192150950431824,-0.0171562060713768,47,8124.0,-4.019331455230713,-103,9909.0
10810,0.37171509861946106,2.2319014072418213,-32,8124.0,-7.281679630279541,-87,9909.0
10820,0.3719239830970764,3.1683359146118164,42,8124.0,-9.37232780456543,-178,9909.0
10830,0.37214261293411255,0.3029225468635559,209,8124.0,-9.512491226196289,-340,9909.0
10840,0.37234434485435486,3.2210960388183594,-48,8124.0,-6.959399223327637,28,9909.0
10850,0.37252840399742126,4.010810852050781,165,8124.0,-3.389403820037842,-188,9909.0
10860,0.37379035353660583,2.1558005809783936,-59,8124.0,7.311458587646484,181,9909.0
10870,0.37401431798934937,0.7556151151657104,-17,8124.0,8.188570976257324,80,9909.0
10880,0.3742634057998657,0.3067420721054077,50,8124.0,10.846634864807129,-49,9909.0
10890,0.37448763847351074,-0.44257602095603943,-82,8124.0,4.262192726135254,63,9909.0
10900,0.37729641795158386,-0.6404217481613159,79,8124.0,0.6774940490722656,-119,9909.0
10910,0.37763309478759766,-0.6576706171035767,-68,8124.0,-5.0394415855407715,5,9909.0
10920,0.3779902160167694,5.294004440307617,29,8124.0,-4.091866970062256,-34,9909.0
10930,0.3783109784126282,5.917595386505127,120,8124.0,-9.339715003967285,-260,9909.0
10940,0.37859436869621277,4.293749809265137,-60,8124.0,-11.082216262817383,-46,9909.0
10950,0.37861260771751404,1.7427235841751099,50,8124.0,-8.35857105255127,-200,9909.0
10960,0.37889668345451355,0.698653519153595,-23,8124.0,-3.9381062984466553,-64,9909.0
10970,0.37917572259902954,-0.49766698479652405,-62,8124.0,-4.345615863800049,-21,9909.0
10980,0.3793773651123047,-3.5203874111175537,-52,8124.0,-1.4794297218322754,-6,9909.0
10990,0.3789801001548767,-5.408632755279541,-184,8124.0,1.860612392425537,154,9909.0
11000,0.3790571987628937,-7.759582996368408,-20,8124.0,-0.18488356471061707,-172,9909.0
11010,0.3791177570819855,-5.31015157699585,-129,8124.0,0.2712021470069885,-12,9909.0
11020,0.37915417551994324,-2.21624493598938,-65,8124.0,-1.9400582313537598,-30,9909.0
11030,0.3782753646373749,1.3738607168197632,82,8124.0,-3.7369039058685303,-184,9909.0
11040,0.37818729877471924,-1.8109267950057983,-67,8124.0,-0.3388172686100006,72,9909.0
11050,0.37810254096984863,2.071737051010132,100,8124.0,1.332454800605774,-88,9909.0
11060,0.37799182534217834,0.6445702910423279,-12,8124.0,5.02164888381958,28,9909.0
11070,0.3778240978717804,1.3321024179458618,31,8124.0,1.2364550828933716,45,9909.0
11080,0.3772657811641693,0.590129554271698,131,8124.0,2.9883980751037598,-125,9909.0
11090,0.3770151138305664,0.5282022356987,-108,8124.0,3.8180251121520996,109,9909.0
11100,0.37675774097442627,-2.236400604248047,-13,8124.0,0.2762576639652252,-16,9909.0
11110,0.37650763988494873,-2.816997766494751,-18,8124.0,-0.0157476793974638,71,9909.0
11120,0.376884400844574,-1.930412769317627,-128,8124.0,-3.4206676483154297,304,9909.0
11130,0.376708060503006,-6.042557239532471,33,8124.0,2.220020055770874,-4,9909.0
11140,0.3765145540237427,-2.756500720977783,-21,8124.0,2.3235976696014404,54,9909.0
11150,0.37629687786102295,-1.4038827419281006,-120,8124.0,6.4333391189575195,235,9909.0
11160,0.37607356905937195,-0.7141599059104919,29,8124.0,8.79820728302002,95,9909.0
11170,0.3762561082839966,1.7261773347854614,-10,8124.0,2.472032070159912,29,9909.0
11180,0.37605851888656616,1.1642075777053833,-111,8124.0,8.278215408325195,201,9909.0
11190,0.3758704364299774,-0.6210070252418518,67,8124.0,5.848690509796143,-3,9909.0
11200,0.3757172226905823,-0.3712516725063324,-36,8124.0,2.0850753784179688,65,9909.0
11210,0.37565097212791443,-1.0655626058578491,-83,8124.0,-1.2307435274124146,194,9909.0
11220,0.37544378638267517,-0.6037586331367493,5,8124.0,5.392712593078613,53,9909.0
11230,0.37523937225341797,-0.6720225811004639,-91,8124.0,7.4397501945495605,104,9909.0
11240,0.37504416704177856,2.0717990398406982,64,8124.0,2.090728282928467,236,9909.0
11250,0.37570375204086304,0.5335124731063843,6,8124.0,5.857580184936523,-49,9909.0
11260,0.37554770708084106,3.01766300201416,-37,8124.0,-0.22355420887470245,130,9909.0
11270,0.3754180073738098,0.8516786694526672,65,8124.0,1.3899749517440796,-64,9909.0
11280,0.37528446316719055,0.061889976263046265,3,8124.0,-2.3921380043029785,-72,9909.0
11290,0.37516868114471436,-0.9504722356796265,-86,8124.0,-3.3451428413391113,30,9909.0
11300,0.3737999498844147,-1.1193095445632935,49,8124.0,-1.8907414674758911,-140,9909.0
11310,0.3736611306667328,1.0057311058044434,-30,8124.0,3.794755458831787,98,9909.0
11320,0.37353262305259705,1.1048866510391235,-84,8124.0,0.15964165329933167,30,9909.0
11330,0.37341856956481934,0.23280103504657745,69,8124.0,1.8480862379074097,-47,9909.0
11340,0.37314796447753906,2.5883467197418213,48,8124.0,-3.897878408432007,-139,9909.0
11350,0.3730432987213135,1.718880534172058,-80,8124.0,-1.2203388214111328,88,9909.0
11360,0.37293437123298645,-1.7182835340499878,44,8124.0,0.3557123839855194,-112,9909.0
11370,0.37283778190612793,-1.440763235092163,-63,8124.0,-0.25716063380241394,39,9909.0
11380,0.3727482259273529,-0.7207551002502441,-140,8124.0,-0.8879182934761047,187,9909.0
11390,0.3715314567089081,0.03380153328180313,38,8124.0,1.3249406814575195,-49,9909.0
11400,0.3714234232902527,0.8017503023147583,15,8124.0,-0.3423776924610138,-60,9909.0
11410,0.37131091952323914,2.447028398513794,-198,8124.0,-1.328584909439087,56,9909.0
11420,0.3711625039577484,1.446017861366272,57,8124.0,1.584823727607727,-78,9909.0
11430,0.370930016040802,1.3239877223968506,-59,8124.0,-2.2882001399993896,-75,9909.0
11440,0.3707408607006073,3.168718099594116,-71,8124.0,-5.635911464691162,111,9909.0
11450,0.3705309331417084,1.4281164407730103,26,8124.0,-6.108933448791504,-120,9909.0
11460,0.37032952904701233,1.6943447589874268,-9,8124.0,-4.230421543121338,35,9909.0
11470,0.37089598178863525,1.2778701782226562,-51,8124.0,-2.3512191772460938,152,9909.0
11480,0.3707861304283142,1.4447284936904907,60,8124.0,-1.0528005361557007,-39,9909.0
11490,0.3706565797328949,-3.6354410648345947,-81,8124.0,3.021162509918213,54,9909.0
11500,0.37050577998161316,-4.4941511154174805,-136,8124.0,1.5173752307891846,148,9909.0
11510,0.37033653259277344,-4.251514911651611,48,8124.0,3.3780713081359863,-83,9909.0
11520,0.3696233630180359,-5.809139728546143,-120,8124.0,3.002023458480835,49,9909.0
11530,0.3694455027580261,-5.470548629760742,-109,8124.0,-0.5859323143959045,105,9909.0
11540,0.3693276643753052,-1.807857871055603,95,8124.0,-1.2555159330368042,-53,9909.0
11550,0.3692358434200287,4.599606513977051,104,8124.0,-6.900407314300537,-150,9909.0
11560,0.37104877829551697,4.644144535064697,-31,8124.0,-4.331077575683594,50,9909.0
11570,0.37111783027648926,5.988072395324707,136,8124.0,-1.9637264013290405,-84,9909.0
11580,0.37119895219802856,4.437479019165039,100,8124.0,3.5677237510681152,27,9909.0
11590,0.3712802827358246,4.416674613952637,-9,8124.0,0.6685740947723389,108,9909.0
11600,0.3713954985141754,3.8925135135650635,111,8124.0,0.41871464252471924,6,9909.0
11610,0.3721935749053955,1.6526286602020264,81,8124.0,2.925680160522461,-6,9909.0
11620,0.37237074971199036,1.0619043111801147,-111,8124.0,-2.0211305618286133,178,9909.0
11630,0.37255778908729553,-1.6652820110321045,12,8124.0,-0.8755178451538086,-9,9909.0
11640,0.37277519702911377,-3.283386468887329,55,8124.0,-2.658761739730835,-37,9909.0
11650,0.37310072779655457,0.9915945529937744,-41,8124.0,1.9190828800201416,166,9909.0
11660,0.3733690083026886,-1.648074984550476,32,8124.0,0.09827479720115662,0,9909.0
11670,0.37365174293518066,-1.7874377965927124,13,8124.0,0.4346679449081421,-104,9909.0
11680,0.3738992512226105,3.3726489543914795,-57,8124.0,0.8105484843254089,195,9909.0
11690,0.3736838400363922,3.8585360050201416,89,8124.0,-1.667745590209961,-54,9909.0
11700,0.3738848567008972,2.0906124114990234,24,8124.0,0.43636295199394226,-1,9909.0
11710,0.3740805983543396,2.6824989318847656,9,8124.0,1.3521466255187988,177,9909.0
11720,0.3742775619029999,3.687009811401367,148,8124.0,1.35979163646698,-124,9909.0
11730,0.37448054552078247,2.2232789993286133,-45,8124.0,-5.6303839683532715,60,9909.0
11740,0.37533706426620483,0.3997335135936737,29,8124.0,1.5153645277023315,77,9909.0
11750,0.3756105601787567,2.008594036102295,203,8124.0,-1.6076178550720215,-197,9909.0
11760,0.37584999203681946,0.1365680694580078,-57,8124.0,0.34877902269363403,86,9909.0
11770,0.3760566711425781,2.3398959636688232,78,8124.0,3.5202012062072754,37,9909.0
11780,0.3754187226295471,3.4969732761383057,99,8124.0,1.0615876913070679,4,9909.0
11790,0.37553274631500244,3.1825456619262695,-38,8124.0,0.3309687674045563,98,9909.0
11800,0.3755812644958496,4.896879196166992,154,8124.0,3.6684458255767822,-28,9909.0
11810,0.375580757856369,3.9888641834259033,39,8124.0,-0.24017828702926636,-6,9909.0
11820,0.3755291700363159,1.5918030738830566,-120,8124.0,-0.024488819763064384,66,9909.0
11830,0.37604886293411255,-1.9195383787155151,13,8124.0,-3.642197608947754,-122,9909.0
11840,0.375908762216568,-2.750912666320801,-70,8124.0,-2.865246534347534,24,9909.0
11850,0.3757334053516388,-3.170179605484009,81,8124.0,-0.44273895025253296,-9,9909.0
11860,0.3755732476711273,-1.7888730764389038,73,8124.0,-1.005806565284729,-128,9909.0
11870,0.3739550709724426,1.9239789247512817,73,8124.0,0.4373357892036438,43,9909.0
11880,0.3736707270145416,2.554046630859375,183,8124.0,-2.59574818611145,-191,9909.0
11890,0.37336522340774536,3.1661109924316406,-12,8124.0,-3.819368839263916,-166,9909.0
11900,0.3730488121509552,0.3106006681919098,66,8124.0,-0.9907433390617371,-38,9909.0
11910,0.37270432710647583,1.7205950021743774,86,8124.0,-3.0295662879943848,-151,9909.0
11920,0.3712129294872284,-2.3086938858032227,-129,8124.0,-0.17568349838256836,-85,9909.0
11930,0.3708082139492035,0.29032954573631287,68,8124.0,-0.48596277832984924,-6,9909.0
11940,0.3703952729701996,0.14008605480194092,91,8124.0,3.2549052238464355,-90,9909.0
11950,0.3699966371059418,-1.3240844011306763,-149,8124.0,-0.5215387344360352,-72,9909.0
11960,0.37084463238716125,0.08007071167230606,-37,8124.0,2.5150954723358154,37,9909.0
11970,0.37057268619537354,-1.8495882749557495,63,8124.0,-3.0036208629608154,-130,9909.0
11980,0.37033218145370483,-2.9029040336608887,-53,8124.0,-4.053031921386719,-9,9909.0
11990,0.3701252043247223,-4.219933032989502,-113,8124.0,-4.928099155426025,99,9909.0
12000,0.36987724900245667,-1.566320538520813,35,8124.0,-0.3017674386501312,-94,9909.0
12010,0.36967262625694275,-1.2316038608551025,-32,8124.0,-0.7454298138618469,-188,9909.0
12020,0.3695172369480133,-0.1918714940547943,-123,8124.0,3.1975748538970947,149,9909.0
12030,0.3693615198135376,-1.4475535154342651,16,8124.0,-0.0844692811369896,-60,9909.0
12040,0.3692288398742676,-2.227618932723999,-24,8124.0,4.603831768035889,-15,9909.0
12050,0.3694550096988678,-0.3576131761074066,-30,8124.0,6.617266654968262,111,9909.0
12060,0.3694225251674652,-1.6468333005905151,9,8124.0,-4.8653178215026855,11,9909.0
12070,0.3693698048591614,-1.3379443883895874,108,8124.0,-2.4322948455810547,-200,9909.0
12080,0.36931321024894714,0.38566139340400696,-49,8124.0,4.248186111450195,39,9909.0
12090,0.36913660168647766,-1.4264882802963257,-103,8124.0,1.9535858631134033,124,9909.0
12100,0.3691360652446747,-3.6032192707061768,22,8124.0,-0.6966759562492371,-78,9909.0
12110,0.36909499764442444,-1.724858045578003,-53,8124.0,-5.008338928222656,-55,9909.0
12120,0.36909615993499756,-4.020482063293457,-156,8124.0,-2.1963295936584473,144,9909.0
12130,0.3686752915382385,-0.7056596875190735,58,8124.0,-1.865657091140747,-52,9909.0
12140,0.36867496371269226,-1.5120242834091187,-25,8124.0,4.390316009521484,33,9909.0
12150,0.3686632215976715,-1.055417776107788,-147,8124.0,4.346444129943848,232,9909.0
12160,0.36866357922554016,-0.07781617343425751,34,8124.0,1.2843215465545654,29,9909.0
12170,0.3686729967594147,-1.489745020866394,6,8124.0,5.52496337890625,20,9909.0
12180,0.36881569027900696,-0.7144201993942261,-70,8124.0,1.3537726402282715,139,9909.0
12190,0.3688879907131195,-0.8818065524101257,49,8124.0,-7.626180171966553,-192,9909.0
12200,0.36901620030403137,-1.200762152671814,91,8124.0,0.2761232554912567,-79,9909.0
12210,0.36916059255599976,-1.4521385431289673,-84,8124.0,3.9195616245269775,131,9909.0
12220,0.3709695339202881,-1.1932027339935303,55,8124.0,-0.011351056396961212,30,9909.0
12230,0.3709765076637268,0.7977405786514282,154,8124.0,0.23972494900226593,-108,9909.0
12240,0.37152260541915894,-0.6974035501480103,-75,8124.0,5.831471920013428,170,9909.0
12250,0.3715294897556305,-0.23639199137687683,103,8124.0,-4.483571529388428,-91,9909.0
12260,0.3720594644546509,0.8761382102966309,38,8124.0,1.4288361072540283,-116,9909.0
12270,0.3716368079185486,-1.3033437728881836,-144,8124.0,-2.314063310623169,88,9909.0
12280,0.3721618056297302,-3.7670395374298096,-8,8124.0,1.701257586479187,-2,9909.0
12290,0.3721758723258972,-3.602823257446289,-56,8124.0,1.7576383352279663,26,9909.0
12300,0.3724742829799652,-3.650449514389038,-179,8124.0,2.1698291301727295,207,9909.0
12310,0.37247058749198914,-1.7982105016708374,70,8124.0,2.6408331394195557,-30,9909.0
12320,0.3727492094039917,-0.28976359963417053,-31,8124.0,5.440108299255371,81,9909.0
12330,0.3730744421482086,1.727057695388794,16,8124.0,1.9741144180297852,104,9909.0
12340,0.3733721077442169,2.480140209197998,201,8124.0,-0.82706618309021,-272,9909.0
12350,0.3733871579170227,0.6186534762382507,-60,8124.0,-1.22935152053833,62,9909.0
12360,0.3736194968223572,-2.536113977432251,-34,8124.0,-1.370293140411377,-34,9909.0
12370,0.3738502264022827,-1.4862112998962402,25,8124.0,-4.9095048904418945,-128,9909.0
12380,0.3740710914134979,-2.4398131370544434,-204,8124.0,-2.951711893081665,43,9909.0
12390,0.3742654323577881,0.7680562734603882,50,8124.0,-3.493245840072632,-27,9909.0
12400,0.374276340007782,2.179656982421875,-22,8124.0,-1.3678737878799438,66,9909.0
12410,0.37440556287765503,2.950483798980713,7,8124.0,3.3749582767486572,108,9909.0
12420,0.37451663613319397,-0.746144711971283,113,8124.0,9.176630020141602,-78,9909.0
12430,0.37460070848464966,2.5767323970794678,-27,8124.0,0.6956413388252258,60,9909.0
12440,0.37402719259262085,1.6357855796813965,70,8124.0,1.7824336290359497,-19,9909.0
12450,0.3740417957305908,2.553410768508911,18,8124.0,-0.7948747873306274,11,9909.0
12460,0.3740125894546509,2.4172518253326416,137,8124.0,-3.0935442447662354,92,9909.0
12470,0.3739148676395416,-0.1170128732919693,-46,8124.0,-2.735776901245117,-130,9909.0
12480,0.37350356578826904,-0.5723443627357483,-6,8124.0,-4.334902763366699,20,9909.0
12490,0.37337785959243774,-0.5226672887802124,56,8124.0,-3.2552850246429443,-193,9909.0
12500,0.3732312023639679,1.5865644216537476,-113,8124.0,-5.588544845581055,-102,9909.0
12510,0.37307265400886536,3.8527750968933105,57,8124.0,-3.031033515930176,-42,9909.0
12520,0.37296727299690247,4.4773406982421875,44,8124.0,2.769735813140869,109,9909.0
12530,0.373301237821579,4.020646095275879,24,8124.0,4.784356117248535,145,9909.0
12540,0.37317490577697754,1.3067636489868164,112,8124.0,7.345417499542236,12,9909.0
12550,0.3730432987213135,-1.2334233522415161,-68,8124.0,6.065857887268066,158,9909.0
12560,0.3728920817375183,-2.7306714057922363,59,8124.0,5.55780553817749,-79,9909.0
12570,0.37247225642204285,-0.8154186606407166,-33,8124.0,0.2519591748714447,-44,9909.0
12580,0.3723399341106415,0.5745608806610107,-78,8124.0,-1.165439486503601,10,9909.0
12590,0.37221449613571167,0.1828499436378479,61,8124.0,0.21048294007778168,-74,9909.0
12600,0.3721080720424652,2.146071434020996,-97,8124.0,-0.8074696063995361,147,9909.0
12610,0.3720059394836426,3.2025680541992188,15,8124.0,-2.694422483444214,125,9909.0
12620,0.37115180492401123,2.4220449924468994,46,8124.0,-2.573695421218872,51,9909.0
12630,0.37099799513816833,2.238887071609497,-6,8124.0,5.815657138824463,156,9909.0
12640,0.37083858251571655,1.3256369829177856,194,8124.0,6.508525371551514,-63,9909.0
12650,0.37067341804504395,0.5387182831764221,-7,8124.0,5.177380084991455,148,9909.0
12660,0.36994436383247375,3.7579567432403564,76,8124.0,-0.5687164068222046,29,9909.0
12670,0.3698153793811798,-0.7758141160011292,-22,8124.0,-3.0507664680480957,-58,9909.0
12680,0.36967673897743225,-2.446990489959717,-132,8124.0,-1.6165313720703125,98,9909.0
12690,0.36946672201156616,-2.4060041904449463,92,8124.0,-3.8773863315582275,-182,9909.0
12700,0.3699166774749756,-1.4930850267410278,-63,8124.0,-4.628519535064697,-14,9909.0
12710,0.36977991461753845,-3.3102328777313232,13,8124.0,-1.9928085803985596,-122,9909.0
12720,0.36964547634124756,-1.4149103164672852,-18,8124.0,-4.63702917098999,-58,9909.0
12730,0.36951950192451477,-0.6621432900428772,-57,8124.0,1.36846923828125,38,9909.0
12740,0.36942142248153687,1.3804681301116943,71,8124.0,2.115356683731079,21,9909.0
12750,0.36842262744903564,3.2856717109680176,-101,8124.0,3.41212797164917,274,9909.0
12760,0.3683185279369354,1.794309377670288,112,8124.0,5.356200695037842,54,9909.0
12770,0.36823034286499023,0.39150792360305786,-73,8124.0,-0.3151845932006836,100,9909.0
12780,0.3681679368019104,-3.398202657699585,-18,8124.0,5.807446479797363,96,9909.0
12790,0.3677073121070862,-6.566422462463379,34,8124.0,0.317876935005188,-129,9909.0
12800,0.36771053075790405,-4.790802478790283,-233,8124.0,-2.687105178833008,69,9909.0
12810,0.36779722571372986,-8.465726852416992,-126,8124.0,-9.77951431274414,-163,9909.0
12820,0.3677976727485657,-7.014316082000732,-142,8124.0,-5.862998008728027,-55,9909.0
12830,0.36780956387519836,-5.023199558258057,-198,8124.0,-6.954896450042725,49,9909.0
12840,0.3670555651187897,-5.01329231262207,126,8124.0,-9.102873802185059,-282,9909.0
12850,0.36701083183288574,0.7976045608520508,-32,8124.0,-4.5488362312316895,-58,9909.0
12860,0.36692914366722107,4.37722635269165,113,8124.0,0.8503187894821167,-68,9909.0
12870,0.36686375737190247,2.7027504444122314,-10,8124.0,0.31925755739212036,132,9909.0
12880,0.36763009428977966,3.7452392578125,57,8124.0,3.262068033218384,60,9909.0
12890,0.36759281158447266,1.0285508632659912,72,8124.0,2.770857095718384,16,9909.0
12900,0.3675442039966583,1.6865688562393188,4,8124.0,7.689055919647217,127,9909.0
12910,0.3675026297569275,-0.1021948978304863,136,8124.0,7.0322465896606445,-85,9909.0
12920,0.36768969893455505,-3.1146905422210693,-182,8124.0,8.1809720993042,177,9909.0
12930,0.36774709820747375,-3.1893560886383057,-26,8124.0,2.497157096862793,-27,9909.0
12940,0.36781007051467896,-1.3424416780471802,-71,8124.0,-3.9630377292633057,-15,9909.0
12950,0.36791160702705383,-0.8755525350570679,-11,8124.0,-3.90873646736145,12,9909.0
12960,0.3679875135421753,-0.37282663583755493,91,8124.0,-3.455982208251953,-202,9909.0
12970,0.3676573634147644,1.7334829568862915,-64,8124.0,-7.820023059844971,-45,9909.0
12980,0.3677445948123932,-0.803838312625885,48,8124.0,-5.433862686157227,-147,9909.0
12990,0.3678760826587677,1.133345603942871,-35,8124.0,-5.419029235839844,43,9909.0
13000,0.367946982383728,2.0034570693969727,57,8124.0,-3.2294483184814453,-36,9909.0
13010,0.36801114678382874,2.9721181392669678,94,8124.0,0.2683520019054413,30,9909.0
13020,0.3680828809738159,0.8164399862289429,5,8124.0,6.1239142417907715,177,9909.0
13030,0.3681507706642151,3.084970712661743,80,8124.0,7.843494892120361,-13,9909.0
13040,0.3681747317314148,0.1045796200633049,-54,8124.0,7.736692905426025,307,9909.0
13050,0.3681812584400177,-1.9850202798843384,-66,8124.0,8.471105575561523,100,9909.0
13060,0.36852553486824036,-4.157128810882568,42,8124.0,6.30525016784668,-33,9909.0
13070,0.36864739656448364,-0.000337943434715271,-52,8124.0,-3.3353185653686523,13,9909.0
13080,0.3687587380409241,-0.10464242845773697,51,8124.0,-3.6939239501953125,-278,9909.0
13090,0.3688584864139557,4.969690322875977,-94,8124.0,-6.081867218017578,-169,9909.0
13100,0.36749377846717834,0.781487226486206,102,8124.0,-4.290732383728027,174,9909.0
13110,0.36756631731987,4.271629333496094,110,8124.0,1.5085355043411255,-37,9909.0
13120,0.36767858266830444,6.268386363983154,71,8124.0,1.9322079420089722,83,9909.0
13130,0.3677070438861847,6.334354400634766,195,8124.0,4.24588680267334,6,9909.0
13140,0.36785760521888733,6.478051662445068,15,8124.0,5.249252796173096,180,9909.0
13150,0.3679117262363434,4.433768272399902,172,8124.0,2.474534511566162,87,9909.0
13160,0.36798277497291565,3.584990978240967,149,8124.0,0.835928201675415,-98,9909.0
13170,0.36807337403297424,3.4526185989379883,21,8124.0,3.1438522338867188,46,9909.0
13180,0.3681398630142212,3.354876756668091,72,8124.0,2.6153757572174072,-92,9909.0
13190,0.3688974678516388,1.1327793598175049,17,8124.0,-2.8089544773101807,-119,9909.0
13200,0.36896681785583496,-1.581424355506897,-308,8124.0,-4.22617769241333,209,9909.0
13210,0.36908039450645447,-2.484321117401123,0,8124.0,-8.082000732421875,-244,9909.0
13220,0.36918213963508606,1.6209009885787964,-56,8124.0,-10.150917053222656,-117,9909.0
13230,0.3702983260154724,-1.0879805088043213,-30,8124.0,-3.2647247314453125,-67,9909.0
13240,0.37043070793151855,-0.9001838564872742,50,8124.0,-0.053426798433065414,-106,9909.0
13250,0.3705765902996063,-0.5618480443954468,-166,8124.0,5.527568817138672,305,9909.0
13260,0.3706977069377899,-1.0499526262283325,43,8124.0,3.3444132804870605,51,9909.0
13270,0.37077218294143677,1.1611977815628052,111,8124.0,2.218904972076416,-25,9909.0
13280,0.3716970682144165,2.1593174934387207,-17,8124.0,0.8091545701026917,65,9909.0
13290,0.37179672718048096,1.6034417152404785,94,8124.0,-1.0495541095733643,-110,9909.0
13300,0.3718416392803192,1.0118502378463745,66,8124.0,-1.3416683673858643,-134,9909.0
13310,0.37185943126678467,3.485304117202759,-175,8124.0,-7.352908134460449,164,9909.0
13320,0.37231558561325073,1.018628478050232,23,8124.0,-7.673079967498779,-118,9909.0
13330,0.37234318256378174,1.0183627605438232,-27,8124.0,-7.3385820388793945,-165,9909.0
13340,0.3723311722278595,1.6160846948623657,-53,8124.0,-3.0443243980407715,-72,9909.0
13350,0.3722507655620575,0.5426501035690308,143,8124.0,-0.7880460619926453,-198,9909.0
13360,0.372093141078949,0.6941508650779724,-5,8124.0,2.6714956760406494,48,9909.0
13370,0.3719724416732788,1.5665960311889648,-31,8124.0,0.6306865215301514,52,9909.0
13380,0.3717906177043915,-0.730110764503479,-6,8124.0,2.93078875541687,33,9909.0
13390,0.371548056602478,-1.8670727014541626,-112,8124.0,4.430428504943848,194,9909.0
13400,0.371280699968338,-1.916180968284607,22,8124.0,2.4794960021972656,-6,9909.0
13410,0.37099480628967285,-0.26431941986083984,33,8124.0,5.318778991699219,-120,9909.0
13420,0.37067297101020813,-3.7382543087005615,-124,8124.0,-0.8230819702148438,113,9909.0
13430,0.370347797870636,-3.1400468349456787,-25,8124.0,-0.1766030639410019,-20,9909.0
13440,0.37001311779022217,-2.4468743801116943,-39,8124.0,-0.29689115285873413,-87,9909.0
13450,0.3698042035102844,0.3092779815196991,-117,8124.0,-2.898205041885376,224,9909.0
13460,0.3694707751274109,2.712597370147705,87,8124.0,-4.861974239349365,-115,9909.0
13470,0.3691323399543762,-2.1047465801239014,127,8124.0,1.4607361555099487,-99,9909.0
13480,0.36878031492233276,2.829728364944458,33,8124.0,-1.9841543436050415,46,9909.0
13490,0.3684123158454895,2.565074920654297,85,8124.0,2.659045457839966,-43,9909.0
13500,0.36866164207458496,1.6916563510894775,-14,8124.0,5.1299662590026855,94,9909.0
13510,0.36829090118408203,2.8779289722442627,-112,8124.0,6.9830732345581055,391,9909.0
13520,0.36793744564056396,-1.220632791519165,61,8124.0,6.621794700622559,49,9909.0
13530,0.36757972836494446,-2.34509015083313,-69,8124.0,3.5686633586883545,104,9909.0
13540,0.36795946955680847,-1.635981798171997,-54,8124.0,-0.4592658281326294,62,9909.0
13550,0.36772409081459045,-0.8684678077697754,130,8124.0,-1.8821969032287598,-167,9909.0
13560,0.3675408363342285,0.7192105650901794,48,8124.0,-3.8193445205688477,-42,9909.0
13570,0.3674141466617584,5.641790866851807,-132,8124.0,-11.65477180480957,86,9909.0
13580,0.3671598434448242,-1.5446873903274536,14,8124.0,1.4664502143859863,30,9909.0
13590,0.3670285940170288,-2.7689456939697266,-77,8124.0,3.983903169631958,118,9909.0
13600,0.3668791651725769,-4.056154251098633,-101,8124.0,8.750130653381348,207,9909.0
13610,0.36670470237731934,-1.740179181098938,105,8124.0,9.630404472351074,-15,9909.0
13620,0.36654749512672424,-3.5135512351989746,-55,8124.0,7.6859049797058105,198,9909.0
13630,0.36623871326446533,-2.8514230251312256,-42,8124.0,6.9189324378967285,155,9909.0
13640,0.3661462962627411,-0.07286781817674637,46,8124.0,3.8518004417419434,-44,9909.0
13650,0.3660914897918701,-0.942102313041687,-47,8124.0,0.21030090749263763,10,9909.0
13660,0.3660769462585449,0.9279175400733948,89,8124.0,-0.24058464169502258,88,9909.0
13670,0.36681807041168213,-0.4191387891769409,96,8124.0,-9.390546798706055,-158,9909.0
13680,0.36690616607666016,2.14754056930542,-68,8124.0,-8.288111686706543,-49,9909.0
13690,0.366989403963089,3.1463258266448975,103,8124.0,-7.975809097290039,-85,9909.0
13700,0.3670586049556732,3.27197527885437,83,8124.0,-4.851945877075195,-140,9909.0
13710,0.367156445980072,3.7562613487243652,11,8124.0,-5.357409477233887,-104,9909.0
13720,0.36681050062179565,0.9973911643028259,124,8124.0,4.465267181396484,48,9909.0
13730,0.3669302463531494,2.144655227661133,-7,8124.0,7.4952616691589355,159,9909.0
13740,0.3670969307422638,0.029078518971800804,-60,8124.0,11.409076690673828,271,9909.0
13750,0.3672652244567871,-3.528491735458374,68,8124.0,13.263728141784668,161,9909.0
13760,0.3676406443119049,-1.599273681640625,-87,8124.0,6.508823394775391,110,9909.0
13770,0.3677707612514496,-0.5499894618988037,-91,8124.0,2.7299132347106934,116,9909.0
13780,0.3679119944572449,-0.8658849000930786,92,8124.0,5.191986083984375,-109,9909.0
13790,0.36804869771003723,3.2342259883880615,-18,8124.0,-1.8781812191009521,-22,9909.0
13800,0.3684771656990051,5.0797247886657715,-10,8124.0,-6.697956562042236,7,9909.0
13810,0.368576318025589,4.203596115112305,187,8124.0,-7.4277520179748535,-254,9909.0
13820,0.3686142861843109,3.9325551986694336,23,8124.0,-5.480762481689453,-68,9909.0
13830,0.36861804127693176,5.6705708503723145,82,8124.0,-4.100335121154785,-18,9909.0
13840,0.3685707151889801,3.606658935546875,194,8124.0,0.3518165051937103,-178,9909.0
13850,0.3695063292980194,2.834580898284912,9,8124.0,3.5460622310638428,155,9909.0
13860,0.3694596290588379,0.5390986204147339,85,8124.0,4.169465065002441,91,9909.0
13870,0.3693434000015259,-0.5340890884399414,22,8124.0,6.660322189331055,91,9909.0
13880,0.3691549599170685,2.653442859649658,-99,8124.0,7.704487323760986,253,9909.0
13890,0.3697320222854614,-5.771966934204102,-95,8124.0,4.142360687255859,59,9909.0
13900,0.3696093261241913,-8.717350006103516,-130,8124.0,1.8103030920028687,8,9909.0
13910,0.36938971281051636,-7.003556728363037,-208,8124.0,-1.9819250106811523,184,9909.0
13920,0.36915403604507446,-0.9764074087142944,-27,8124.0,-6.580254077911377,-172,9909.0
13930,0.36892199516296387,-5.924127578735352,-3,8124.0,-7.551604747772217,-284,9909.0
13940,0.368269681930542,-4.106080532073975,-127,8124.0,-5.9838385581970215,-15,9909.0
13950,0.368014395236969,-4.798115253448486,-29,8124.0,-0.6754764318466187,-122,9909.0
13960,0.367747962474823,-2.709080696105957,30,8124.0,-1.3390450477600098,-141,9909.0
13970,0.36749303340911865,-0.5734862685203552,-83,8124.0,4.460853576660156,124,9909.0
13980,0.3671303689479828,1.3612744808197021,84,8124.0,1.010123372077942,-55,9909.0
13990,0.3668559789657593,0.9479318857192993,70,8124.0,5.499835014343262,-1,9909.0
14000,0.3665848672389984,3.7533717155456543,-57,8124.0,1.4841530323028564,184,9909.0
14010,0.3663078546524048,-0.0502762496471405,53,8124.0,5.503569602966309,32,9909.0
14020,0.36639589071273804,2.0710155963897705,145,8124.0,0.9924424886703491,-68,9909.0
14030,0.36612245440483093,1.3647853136062622,-25,8124.0,1.0575286149978638,100,9909.0
14040,0.3658350706100464,2.2091832160949707,65,8124.0,-0.43627044558525085,69,9909.0
14050,0.36554309725761414,-0.14483894407749176,208,8124.0,-0.8100792169570923,-262,9909.0
14060,0.36524084210395813,1.4785149097442627,60,8124.0,-0.42003926634788513,35,9909.0
14070,0.36523178219795227,4.415589332580566,55,8124.0,-7.087544918060303,7,9909.0
14080,0.3650234043598175,-3.078019857406616,57,8124.0,3.8573648929595947,-62,9909.0
14090,0.3648086190223694,0.3546016812324524,32,8124.0,-1.7720465660095215,-35,9909.0
14100,0.3645782470703125,2.763676643371582,-128,8124.0,-3.7492294311523438,186,9909.0
14110,0.3654369115829468,-0.5376593470573425,56,8124.0,0.9114541411399841,-25,9909.0
14120,0.36532485485076904,1.0921369791030884,-2,8124.0,-1.3642706871032715,-23,9909.0
14130,0.36522337794303894,0.43103790283203125,-95,8124.0,-0.43887969851493835,120,9909.0
14140,0.36515316367149353,1.0193408727645874,69,8124.0,-1.2733913660049438,-51,9909.0
14150,0.36512255668640137,1.9571290016174316,99,8124.0,-3.747295379638672,-106,9909.0
14160,0.3658481538295746,-0.2170574814081192,-38,8124.0,0.4301398992538452,101,9909.0
14170,0.36588728427886963,0.39246755838394165,42,8124.0,-0.7487717866897583,-4,9909.0
14180,0.3659602105617523,0.8589221239089966,44,8124.0,-1.5209921598434448,-57,9909.0
14190,0.36605867743492126,3.139887809753418,-146,8124.0,-4.984024524688721,167,9909.0
