timestamp,kalman.stateZ,gyro.x,gyro.xRaw,gyro.xVariance,gyro.y,gyro.yRaw,gyro.yVariance
0,0.2694004476070404,-0.14857690036296844,5,8124.0,-0.5943953394889832,-8,9909.0
10,0.2694563865661621,0.0618993416428566,0,8124.0,-0.28743770718574524,-2,9909.0
20,0.26951080560684204,0.3947903513908386,8,8124.0,-0.5285374522209167,-13,9909.0
30,0.2695620357990265,0.08886083215475082,4,8124.0,-0.6229437589645386,-16,9909.0
40,0.26932603120803833,0.17685852944850922,6,8124.0,-0.5428362488746643,-14,9909.0
50,0.2693587839603424,0.09916742891073227,2,8124.0,-0.6710164546966553,-16,9909.0
60,0.2693937420845032,-0.2058161497116089,3,8124.0,-1.0910333395004272,-16,9909.0
70,0.2694324851036072,-0.23039467632770538,-1,8124.0,-0.8832680583000183,-18,9909.0
80,0.2688848078250885,-0.17536231875419617,-1,8124.0,-0.7163792848587036,-15,9909.0
90,0.2688848078250885,0.04657910764217377,-1,8124.0,-1.0740249156951904,-17,9909.0
100,0.2689044773578644,-0.36083245277404785,-2,8124.0,-0.5318639278411865,-12,9909.0
110,0.2689201235771179,0.03273655101656914,-5,8124.0,-0.5413132905960083,-10,9909.0
120,0.2689112722873688,-0.33338403701782227,-3,8124.0,-0.4451850354671478,-1,9909.0
130,0.2689131200313568,0.10124607384204865,5,8124.0,-0.6568257808685303,-22,9909.0
140,0.2689133882522583,0.1706634908914566,2,8124.0,-0.3826083540916443,-9,9909.0
150,0.2689341902732849,0.07788775861263275,5,8124.0,-0.3405745029449463,-7,9909.0
160,0.2689476013183594,0.019880734384059906,6,8124.0,-0.13714632391929626,-8,9909.0
170,0.2685404121875763,0.19494378566741943,3,8124.0,-0.5553901195526123,-2,9909.0
180,0.2685452997684479,-0.022274646908044815,-2,8124.0,-0.8515597581863403,-16,9909.0
190,0.26853084564208984,0.0025446985382586718,9,8124.0,-0.48175978660583496,-8,9909.0
200,0.26853543519973755,1.9466975927352905,41,8124.0,-0.9893574714660645,-54,9909.0
210,0.2690756320953369,1.1221404075622559,29,8124.0,-3.884392261505127,-44,9909.0
220,0.2691202759742737,3.6956276893615723,70,8124.0,-3.9792492389678955,-107,9909.0
230,0.26917141675949097,5.5929999351501465,104,8124.0,-6.585370063781738,-117,9909.0
240,0.26923200488090515,6.515206336975098,146,8124.0,-8.735211372375488,-162,9909.0
250,0.27030429244041443,6.3941802978515625,163,8124.0,-9.20128345489502,-190,9909.0
260,0.27048414945602417,5.651283264160156,165,8124.0,-8.691427230834961,-219,9909.0
270,0.27062687277793884,4.430296421051025,168,8124.0,-9.016746520996094,-232,9909.0
280,0.2708275318145752,4.728206634521484,125,8124.0,-9.107035636901855,-243,9909.0
290,0.2709366977214813,4.262601852416992,40,8124.0,-11.089420318603516,-132,9909.0
300,0.27022847533226013,7.3104376792907715,65,8124.0,-8.341541290283203,-46,9909.0
310,0.27025631070137024,3.7426795959472656,38,8124.0,-4.226877689361572,-96,9909.0
320,0.2703096568584442,0.17278049886226654,61,8124.0,-2.78613543510437,-53,9909.0
330,0.27043652534484863,0.5516216158866882,-58,8124.0,0.4235597252845764,53,9909.0
340,0.2691764533519745,-3.0713143348693848,-10,8124.0,3.240035057067871,-3,9909.0
350,0.2692100405693054,-0.08740971982479095,4,8124.0,3.6831696033477783,121,9909.0
360,0.2692345976829529,-1.3561733961105347,-13,8124.0,6.084426403045654,38,9909.0
370,0.2692536413669586,0.7141380310058594,4,8124.0,5.542097568511963,165,9909.0
380,0.2692529261112213,1.5536372661590576,61,8124.0,5.81135368347168,50,9909.0
390,0.26994550228118896,3.6798293590545654,26,8124.0,4.984371185302734,30,9909.0
400,0.2700195908546448,2.848529577255249,81,8124.0,1.6652467250823975,87,9909.0
410,0.27008941769599915,4.110145568847656,51,8124.0,0.3042111396789551,-1,9909.0
420,0.2701698839664459,4.323379039764404,58,8124.0,-1.747658610343933,-36,9909.0
430,0.2690102756023407,1.776886224746704,87,8124.0,-3.25065279006958,-70,9909.0
440,0.26901867985725403,0.8421440124511719,32,8124.0,-4.634933948516846,-99,9909.0
450,0.26903513073921204,0.33832207322120667,-44,8124.0,-5.153637409210205,-105,9909.0
460,0.269095242023468,-0.33255788683891296,-52,8124.0,-4.922099590301514,-64,9909.0
470,0.27056896686553955,-1.0809897184371948,-67,8124.0,-4.864452362060547,-14,9909.0
480,0.2706410884857178,-1.0512827634811401,15,8124.0,-2.64135479927063,-4,9909.0
490,0.2707146108150482,-2.5834691524505615,-44,8124.0,-1.9039866924285889,-97,9909.0
500,0.2707667946815491,-2.2087576389312744,-74,8124.0,1.136181354522705,-14,9909.0
510,0.27082446217536926,-2.5509791374206543,-98,8124.0,1.4076788425445557,144,9909.0
520,0.27055031061172485,-0.8042476177215576,-103,8124.0,1.8560651540756226,248,9909.0
530,0.27062687277793884,0.5453779101371765,40,8124.0,2.305115222930908,192,9909.0
540,0.2706702649593353,-0.17813535034656525,76,8124.0,4.162060737609863,97,9909.0
550,0.27069616317749023,1.7517225742340088,91,8124.0,5.579695224761963,-30,9909.0
560,0.27123305201530457,1.3576534986495972,81,8124.0,6.6403985023498535,-118,9909.0
570,0.27132073044776917,2.18576979637146,25,8124.0,4.799069881439209,-33,9909.0
580,0.27137160301208496,3.425074338912964,-54,8124.0,1.2962366342544556,101,9909.0
590,0.2714183032512665,3.0256731510162354,-86,8124.0,0.023330029100179672,183,9909.0
600,0.27167925238609314,2.0093414783477783,-76,8124.0,-2.2795121669769287,154,9909.0
610,0.2717628479003906,1.2127472162246704,-30,8124.0,-4.185131072998047,89,9909.0
620,0.2718147933483124,-0.7687031626701355,15,8124.0,-3.2261390686035156,-80,9909.0
630,0.2717912793159485,-1.5428318977355957,74,8124.0,-2.4239957332611084,-233,9909.0
640,0.271730899810791,-2.7468910217285156,68,8124.0,-0.45009779930114746,-293,9909.0
650,0.2709917426109314,-1.9338023662567139,46,8124.0,1.7420462369918823,-259,9909.0
660,0.27084043622016907,-5.0955047607421875,-49,8124.0,0.6260476112365723,-164,9909.0
670,0.27068281173706055,-0.24293741583824158,-17,8124.0,3.1931586265563965,29,9909.0
680,0.27052250504493713,-0.9642723202705383,-1,8124.0,5.387331008911133,127,9909.0
690,0.2717764973640442,0.29264387488365173,-6,8124.0,4.561797142028809,40,9909.0
700,0.27173835039138794,-1.216301679611206,-22,8124.0,6.627427101135254,-6,9909.0
710,0.27165544033050537,-1.7255263328552246,13,8124.0,8.55077075958252,-110,9909.0
720,0.2716039717197418,1.9708738327026367,-15,8124.0,7.870241165161133,-106,9909.0
730,0.2715413272380829,3.9965202808380127,-7,8124.0,4.04781436920166,-58,9909.0
740,0.27090126276016235,0.8731523752212524,-33,8124.0,3.9129602909088135,-28,9909.0
750,0.27085062861442566,3.8425941467285156,-59,8124.0,0.11506092548370361,63,9909.0
760,0.27080148458480835,1.7127506732940674,-52,8124.0,-4.378301620483398,87,9909.0
770,0.2707112431526184,2.434629201889038,-21,8124.0,-5.958714008331299,118,9909.0
780,0.2707487940788269,1.568507432937622,-94,8124.0,-6.273630619049072,77,9909.0
790,0.2705058753490448,1.7147685289382935,-48,8124.0,-7.421451091766357,36,9909.0
800,0.27017858624458313,-0.5621296167373657,-36,8124.0,-6.571466445922852,3,9909.0
810,0.2698054611682892,-0.8651501536369324,13,8124.0,-6.001872539520264,-30,9909.0
820,0.2700332999229431,-3.181396245956421,19,8124.0,-3.8826518058776855,-75,9909.0
830,0.26965686678886414,-4.571564197540283,42,8124.0,-1.3303351402282715,-137,9909.0
840,0.2692297101020813,-2.022993564605713,53,8124.0,2.690863847732544,-228,9909.0
850,0.26871171593666077,-2.1720733642578125,57,8124.0,1.2298781871795654,-94,9909.0
860,0.2681846022605896,-2.0478475093841553,-4,8124.0,0.598818838596344,102,9909.0
870,0.26861879229545593,-5.648886872222647e-05,-33,8124.0,5.529688835144043,185,9909.0
880,0.26814335584640503,-0.7375251650810242,-40,8124.0,6.791426181793213,268,9909.0
890,0.2676708400249481,0.8326192498207092,54,8124.0,6.67270040512085,241,9909.0
900,0.2671806216239929,1.667703628540039,133,8124.0,6.342294692993164,193,9909.0
910,0.2687212824821472,0.5462952852249146,90,8124.0,4.594323635101318,83,9909.0
920,0.2683493196964264,0.49079060554504395,130,8124.0,1.9292479753494263,-6,9909.0
930,0.2680438160896301,0.679705023765564,104,8124.0,-0.8192169666290283,-304,9909.0
940,0.26769906282424927,0.5660040974617004,149,8124.0,-3.3028454780578613,-260,9909.0
950,0.2673782408237457,0.269285649061203,98,8124.0,-4.050485134124756,-298,9909.0
960,0.26913100481033325,1.8504638671875,116,8124.0,-4.608854293823242,-302,9909.0
970,0.26904651522636414,-0.08738581091165543,68,8124.0,-4.8218793869018555,-356,9909.0
980,0.26900750398635864,-1.6030553579330444,22,8124.0,-4.145488262176514,-348,9909.0
990,0.2689145803451538,-2.877767324447632,11,8124.0,-2.8123271465301514,-287,9909.0
1000,0.2688922882080078,-6.289394378662109,-36,8124.0,-1.2681758403778076,-156,9909.0
1010,0.2687033712863922,-2.8935799598693848,-26,8124.0,-0.07509870082139969,-29,9909.0
1020,0.26853153109550476,-3.324491262435913,-100,8124.0,1.1325674057006836,108,9909.0
1030,0.26841089129447937,-2.5046565532684326,-59,8124.0,0.9943045377731323,176,9909.0
1040,0.2696586549282074,-1.2907053232192993,-10,8124.0,4.725883483886719,242,9909.0
1050,0.2696110010147095,-0.7369911670684814,-39,8124.0,3.8165717124938965,231,9909.0
1060,0.2694571018218994,2.8604013919830322,-86,8124.0,8.3853178024292,193,9909.0
1070,0.269217848777771,2.8410587310791016,-66,8124.0,3.601684331893921,121,9909.0
1080,0.2689778208732605,5.043337345123291,-30,8124.0,3.298901319503784,120,9909.0
1090,0.2688789665699005,4.96098518371582,16,8124.0,0.8172868490219116,13,9909.0
1100,0.2687416672706604,4.05846643447876,23,8124.0,-0.23101608455181122,-108,9909.0
1110,0.2685246169567108,2.4924724102020264,26,8124.0,-2.179743766784668,-205,9909.0
1120,0.26838988065719604,0.5858759880065918,65,8124.0,-4.371163845062256,-282,9909.0
1130,0.2701337933540344,1.3644355535507202,53,8124.0,-3.35058856010437,-261,9909.0
1140,0.2701752781867981,0.7591627836227417,53,8124.0,-4.311079978942871,-128,9909.0
1150,0.2701374292373657,-1.4487481117248535,0,8124.0,-2.123765468597412,-31,9909.0
1160,0.27006980776786804,-3.656770706176758,6,8124.0,-2.234488010406494,-111,9909.0
1170,0.27147698402404785,-4.515241622924805,19,8124.0,1.9688080549240112,-163,9909.0
1180,0.2713134288787842,-2.997246026992798,100,8124.0,0.6318219900131226,-68,9909.0
1190,0.27108070254325867,-3.1215057373046875,77,8124.0,1.367923378944397,3,9909.0
1200,0.27088463306427,-2.040052890777588,-3,8124.0,5.209871768951416,185,9909.0
1210,0.2707756757736206,-1.1616510152816772,-56,8124.0,5.445345401763916,227,9909.0
1220,0.2719639837741852,-0.8125845193862915,-116,8124.0,5.164027690887451,161,9909.0
1230,0.271820604801178,1.0110938549041748,47,8124.0,4.840327739715576,170,9909.0
1240,0.2715408504009247,1.6342567205429077,79,8124.0,5.69954776763916,-65,9909.0
1250,0.271103173494339,2.9829442501068115,82,8124.0,3.980464220046997,-70,9909.0
1260,0.27153992652893066,4.144102096557617,95,8124.0,1.4280483722686768,12,9909.0
1270,0.2712341845035553,3.6165401935577393,62,8124.0,-0.7634702920913696,-101,9909.0
1280,0.27093034982681274,1.767182469367981,103,8124.0,-3.387626886367798,-35,9909.0
1290,0.27047595381736755,2.234691858291626,9,8124.0,-4.054329872131348,109,9909.0
1300,0.26987531781196594,1.4140127897262573,-136,8124.0,-4.238874435424805,-33,9909.0
1310,0.27084261178970337,-0.4502798318862915,-12,8124.0,-4.0654377937316895,-211,9909.0
1320,0.27031201124191284,-1.1931324005126953,81,8124.0,-3.7929859161376953,-117,9909.0
1330,0.2698422968387604,-1.8711509704589844,-14,8124.0,-2.2959702014923096,25,9909.0
1340,0.26940348744392395,-3.562486171722412,-73,8124.0,-0.24536103010177612,72,9909.0
1350,0.2705797851085663,-1.8019585609436035,-45,8124.0,-0.31828245520591736,-2,9909.0
1360,0.2702879309654236,-1.7121943235397339,-89,8124.0,2.5031065940856934,-34,9909.0
1370,0.2700454890727997,-0.6962903141975403,131,8124.0,3.0664660930633545,-56,9909.0
1380,0.2698838412761688,-0.15118731558322906,-26,8124.0,2.829089879989624,194,9909.0
1390,0.27067479491233826,0.32009002566337585,-69,8124.0,2.552717924118042,114,9909.0
1400,0.2707384526729584,-1.1189029216766357,23,8124.0,4.774527072906494,-122,9909.0
1410,0.27080705761909485,-0.35112497210502625,61,8124.0,3.8699116706848145,111,9909.0
1420,0.27082356810569763,1.4819087982177734,-11,8124.0,1.5286290645599365,59,9909.0
1430,0.2708103358745575,3.1082770824432373,23,8124.0,0.05516348406672478,-50,9909.0
1440,0.2716718912124634,2.4955413341522217,63,8124.0,-0.9636971354484558,-17,9909.0
1450,0.27172648906707764,2.145082473754883,48,8124.0,0.769906222820282,-76,9909.0
1460,0.2718914747238159,1.401615023612976,46,8124.0,-1.0096004009246826,111,9909.0
1470,0.2721940577030182,2.362056016921997,-113,8124.0,-2.431002616882324,7,9909.0
1480,0.27238813042640686,-0.4327188730239868,31,8124.0,-0.07229652255773544,-148,9909.0
1490,0.2729026675224304,-3.4460902214050293,30,8124.0,0.8148885369300842,-26,9909.0
1500,0.27342990040779114,-3.566836357116699,-104,8124.0,-0.4756776988506317,156,9909.0
1510,0.2739455997943878,-3.743173360824585,-130,8124.0,-0.7609547972679138,85,9909.0
1520,0.2744777202606201,-5.4021525382995605,-57,8124.0,0.926915168762207,29,9909.0
1530,0.274860143661499,-2.395373821258545,-31,8124.0,-0.3067226707935333,-3,9909.0
1540,0.2754944860935211,-2.059661626815796,-2,8124.0,2.069162607192993,-124,9909.0
1550,0.2761891186237335,-0.6330853700637817,116,8124.0,1.2393008470535278,20,9909.0
1560,0.2769073247909546,3.9276974201202393,9,8124.0,0.09903770685195923,225,9909.0
1570,0.27618294954299927,3.5489659309387207,-82,8124.0,0.4577522277832031,43,9909.0
1580,0.2767593562602997,1.4861305952072144,58,8124.0,1.6044930219650269,-86,9909.0
1590,0.277301549911499,1.980088472366333,124,8124.0,-0.06795106828212738,-121,9909.0
1600,0.2778327465057373,2.3161725997924805,7,8124.0,-1.0164024829864502,144,9909.0
1610,0.2766977548599243,2.397714138031006,-18,8124.0,-0.7907562255859375,29,9909.0
1620,0.2770880162715912,1.3421692848205566,-5,8124.0,-0.8411400318145752,3,9909.0
1630,0.27738186717033386,-0.0613282211124897,12,8124.0,-1.2323737144470215,-57,9909.0
1640,0.27754679322242737,-1.2330803871154785,-7,8124.0,-0.6487574577331543,-230,9909.0
1650,0.277591735124588,-2.062042713165283,103,8124.0,-2.0127034187316895,-92,9909.0
1660,0.27659380435943604,-0.9255043864250183,-50,8124.0,-2.6438169479370117,140,9909.0
1670,0.27667859196662903,-1.4487030506134033,-134,8124.0,-1.5263878107070923,56,9909.0
1680,0.2768760025501251,-2.2407872676849365,-70,8124.0,-0.6891684532165527,-100,9909.0
1690,0.27713069319725037,-2.7080368995666504,61,8124.0,-0.03126602619886398,-104,9909.0
1700,0.27612048387527466,-0.6829081177711487,-39,8124.0,-1.3028732538223267,40,9909.0
1710,0.2763892710208893,0.635848879814148,27,8124.0,-1.7141305208206177,60,9909.0
1720,0.2767740488052368,1.3579216003417969,-55,8124.0,-0.08125089854001999,-7,9909.0
1730,0.2772783041000366,2.554166555404663,-54,8124.0,-1.173621416091919,48,9909.0
1740,0.2779238224029541,1.7716256380081177,93,8124.0,-1.3853780031204224,-229,9909.0
1750,0.2785828709602356,3.03403377532959,152,8124.0,-3.143523931503296,-49,9909.0
1760,0.2792259752750397,3.1146748065948486,26,8124.0,-2.9435367584228516,123,9909.0
1770,0.27981266379356384,3.2096991539001465,-70,8124.0,-1.166251301765442,57,9909.0
1780,0.2804500460624695,1.6085572242736816,3,8124.0,0.0404389426112175,-118,9909.0
1790,0.27826637029647827,-0.5957329273223877,66,8124.0,-0.06943365931510925,-42,9909.0
1800,0.27869537472724915,-1.0745655298233032,-50,8124.0,-0.3416764438152313,9,9909.0
1810,0.27902957797050476,-3.361717700958252,-11,8124.0,2.205890417098999,65,9909.0
1820,0.2792209982872009,-1.3306422233581543,-44,8124.0,-1.2580677270889282,78,9909.0
1830,0.27696794271469116,-2.6208019256591797,-173,8124.0,0.6553822159767151,92,9909.0
1840,0.2771025002002716,-1.6242594718933105,-23,8124.0,-0.4247715175151825,-173,9909.0
1850,0.2773614823818207,-1.317014455795288,56,8124.0,-2.2550103664398193,-115,9909.0
1860,0.27771708369255066,-0.7869267463684082,31,8124.0,-2.9981515407562256,105,9909.0
1870,0.2781081199645996,1.2621252536773682,-93,8124.0,-3.5044901371002197,49,9909.0
1880,0.27726203203201294,1.1279792785644531,9,8124.0,-1.2331171035766602,-107,9909.0
1890,0.27756133675575256,1.330462098121643,66,8124.0,-1.0467449426651,-71,9909.0
1900,0.2778916656970978,2.3771674633026123,32,8124.0,-1.3660681247711182,12,9909.0
1910,0.2783069908618927,4.158514499664307,39,8124.0,-2.727649450302124,84,9909.0
1920,0.2761093080043793,2.882493019104004,-2,8124.0,0.8014316558837891,51,9909.0
1930,0.27642664313316345,2.8852992057800293,-59,8124.0,0.12342246621847153,8,9909.0
1940,0.276610791683197,2.021265983581543,85,8124.0,0.21102643013000488,-166,9909.0
1950,0.2766602337360382,-1.3221973180770874,56,8124.0,0.4314408004283905,2,9909.0
1960,0.2752447724342346,-1.3655955791473389,-48,8124.0,0.412602037191391,216,9909.0
1970,0.2751360237598419,-2.4263389110565186,-147,8124.0,1.112519383430481,-32,9909.0
1980,0.27501457929611206,-3.6728761196136475,8,8124.0,-0.027239887043833733,-69,9909.0
1990,0.2748562693595886,-3.1534252166748047,-44,8124.0,1.0697307586669922,13,9909.0
2000,0.27463459968566895,-3.4020471572875977,-23,8124.0,1.5214080810546875,-2,9909.0
2010,0.27420440316200256,-0.15465432405471802,10,8124.0,-0.3728274405002594,108,9909.0
2020,0.27382344007492065,1.2719318866729736,-31,8124.0,-2.142996311187744,-133,9909.0
2030,0.2733452320098877,1.6591848134994507,120,8124.0,0.019829273223876953,-99,9909.0
2040,0.2728312611579895,0.7557148337364197,65,8124.0,-0.6017942428588867,58,9909.0
2050,0.273008793592453,1.8517776727676392,-53,8124.0,-1.8024684190750122,116,9909.0
2060,0.27265000343322754,2.5485036373138428,64,8124.0,0.8379878997802734,-164,9909.0
2070,0.27229759097099304,2.467294692993164,137,8124.0,1.9551090002059937,84,9909.0
2080,0.2719050645828247,2.7611968517303467,-28,8124.0,0.6304726004600525,61,9909.0
2090,0.271442174911499,2.2856006622314453,48,8124.0,1.8659030199050903,25,9909.0
2100,0.2719224691390991,1.4689056873321533,-5,8124.0,2.5410311222076416,-46,9909.0
2110,0.2713733911514282,-0.070695661008358,78,8124.0,3.4949398040771484,72,9909.0
2120,0.27076277136802673,0.5039516687393188,-98,8124.0,1.1291981935501099,187,9909.0
2130,0.27007433772087097,-1.2695353031158447,-52,8124.0,2.4689435958862305,-134,9909.0
2140,0.2719723880290985,-2.5071144104003906,76,8124.0,2.5031020641326904,51,9909.0
2150,0.2712530195713043,-1.6525661945343018,-141,8124.0,0.24362261593341827,113,9909.0
2160,0.27051466703414917,-1.8435778617858887,-57,8124.0,0.5463858246803284,4,9909.0
2170,0.26980528235435486,-0.3370143175125122,42,8124.0,-0.840548574924469,-55,9909.0
2180,0.2714122235774994,-0.406268835067749,9,8124.0,-0.288282573223114,45,9909.0
2190,0.2710004448890686,1.3003970384597778,-38,8124.0,-1.2527161836624146,33,9909.0
2200,0.2707006335258484,0.8968146443367004,26,8124.0,-1.6355010271072388,-143,9909.0
2210,0.2705256938934326,1.7182974815368652,44,8124.0,-2.083042621612549,114,9909.0
2220,0.27043604850769043,1.9496816396713257,-108,8124.0,-1.1386148929595947,-53,9909.0
2230,0.271462082862854,0.20107004046440125,114,8124.0,-0.11573713272809982,-93,9909.0
2240,0.27158674597740173,1.1261919736862183,-1,8124.0,0.8398876786231995,143,9909.0
2250,0.27172473073005676,1.711848258972168,0,8124.0,3.210145950317383,17,9909.0
2260,0.27181538939476013,-0.11550644785165787,13,8124.0,3.8996646404266357,3,9909.0
2270,0.2734188139438629,-1.1550918817520142,33,8124.0,5.264164924621582,161,9909.0
2280,0.2735135555267334,-1.0890940427780151,-113,8124.0,6.484217166900635,107,9909.0
2290,0.27367570996284485,-2.0827486515045166,33,8124.0,4.690690517425537,-40,9909.0
2300,0.2739245891571045,-2.957613945007324,-33,8124.0,1.975339651107788,162,9909.0
2310,0.2742767035961151,-3.5650296211242676,-140,8124.0,2.5330328941345215,-14,9909.0
2320,0.27493584156036377,-4.308136940002441,37,8124.0,-0.5778872966766357,-73,9909.0
2330,0.2753235101699829,-2.1877002716064453,-60,8124.0,-3.0940604209899902,71,9909.0
2340,0.2756897211074829,-1.0630385875701904,-32,8124.0,-3.1969094276428223,-110,9909.0
2350,0.2760277986526489,-0.7979159951210022,34,8124.0,-4.060484409332275,-97,9909.0
2360,0.27502942085266113,-0.050441693514585495,13,8124.0,-3.5975818634033203,-56,9909.0
2370,0.2752079665660858,1.275285005569458,40,8124.0,-2.799543857574463,6,9909.0
2380,0.27529647946357727,3.4970736503601074,3,8124.0,-2.9746248722076416,-168,9909.0
2390,0.2752782702445984,2.5398647785186768,169,8124.0,-2.52640962600708,-50,9909.0
2400,0.27469706535339355,2.397045373916626,-65,8124.0,-0.7035837173461914,188,9909.0
2410,0.2744770050048828,1.5769122838974,15,8124.0,1.3182122707366943,-138,9909.0
2420,0.2742500603199005,1.0973058938980103,137,8124.0,0.13486872613430023,0,9909.0
2430,0.2740088403224945,1.0695327520370483,-40,8124.0,1.6375300884246826,66,9909.0
2440,0.2738111615180969,0.49495214223861694,6,8124.0,2.8329999446868896,27,9909.0
2450,0.2733711302280426,-1.493135690689087,-17,8124.0,3.299287796020508,-18,9909.0
2460,0.27330586314201355,-1.6230769157409668,32,8124.0,0.8496848344802856,102,9909.0
2470,0.2733326256275177,-1.6284633874893188,-105,8124.0,2.2602832317352295,28,9909.0
2480,0.2734653949737549,-1.7776994705200195,52,8124.0,0.9520658850669861,-99,9909.0
2490,0.27263131737709045,-0.8760299682617188,-11,8124.0,-2.0988664627075195,78,9909.0
2500,0.27284562587738037,-0.528006911277771,-55,8124.0,-1.9633032083511353,-47,9909.0
2510,0.2730579078197479,-0.7055445313453674,81,8124.0,-2.0013904571533203,-117,9909.0
2520,0.27322903275489807,1.2627254724502563,-17,8124.0,-3.3451004028320312,70,9909.0
2530,0.2733249366283417,1.8185423612594604,35,8124.0,-3.093322992324829,-96,9909.0
2540,0.2731866240501404,2.6055538654327393,75,8124.0,-3.604658603668213,-128,9909.0
2550,0.2731231153011322,1.6034382581710815,68,8124.0,-2.117426872253418,48,9909.0
2560,0.273051381111145,2.1429266929626465,-97,8124.0,-1.0010021924972534,68,9909.0
2570,0.2729843556880951,0.5279479622840881,79,8124.0,0.2774490714073181,-165,9909.0
2580,0.2745407819747925,0.2582709491252899,43,8124.0,0.5957361459732056,210,9909.0
2590,0.2745128273963928,0.4083632826805115,-98,8124.0,1.5592634677886963,-27,9909.0
2600,0.2744726240634918,-1.4768047332763672,36,8124.0,2.7050693035125732,13,9909.0
2610,0.27442044019699097,-1.7041382789611816,-54,8124.0,1.6056668758392334,71,9909.0
2620,0.2741984724998474,-1.6680097579956055,-64,8124.0,1.8536944389343262,8,9909.0
2630,0.2740156054496765,-2.3381714820861816,3,8124.0,1.8858259916305542,-85,9909.0
2640,0.27373427152633667,-0.3679494559764862,56,8124.0,-0.43476712703704834,64,9909.0
2650,0.2733360826969147,0.7341760396957397,-85,8124.0,-2.6257553100585938,-22,9909.0
2660,0.27286359667778015,0.9652987122535706,135,8124.0,-2.538647174835205,-164,9909.0
2670,0.27401673793792725,1.0248475074768066,-40,8124.0,-3.5494301319122314,110,9909.0
2680,0.2735917568206787,2.2245428562164307,4,8124.0,-4.1054511070251465,-194,9909.0
2690,0.27318844199180603,1.3861385583877563,83,8124.0,-3.48020076751709,-35,9909.0
2700,0.2728046476840973,1.889486312866211,-26,8124.0,-2.9045021533966064,3,9909.0
2710,0.27309173345565796,0.4910143315792084,-9,8124.0,-2.016911268234253,-145,9909.0
2720,0.27281513810157776,-0.12229097634553909,112,8124.0,0.8583999872207642,58,9909.0
2730,0.2724529802799225,-0.32364657521247864,-134,8124.0,2.0685672760009766,126,9909.0
2740,0.2720167636871338,-0.8042499423027039,51,8124.0,3.4774067401885986,-140,9909.0
2750,0.2715354263782501,-1.4725109338760376,-45,8124.0,1.706007480621338,194,9909.0
2760,0.2732827961444855,-0.11421748250722885,-6,8124.0,-0.3026053011417389,-55,9909.0
2770,0.2729477286338806,-2.1897575855255127,-17,8124.0,1.6067724227905273,-71,9909.0
2780,0.2725870609283447,-0.3710932731628418,58,8124.0,-0.9430498480796814,6,9909.0
2790,0.2721501588821411,1.8159154653549194,22,8124.0,-2.1716248989105225,10,9909.0
2800,0.27338019013404846,1.5853220224380493,91,8124.0,-1.93100106716156,-171,9909.0
2810,0.27285799384117126,1.8886092901229858,-8,8124.0,-3.8031082153320312,119,9909.0
2820,0.27227482199668884,1.2804350852966309,11,8124.0,-2.8559701442718506,-173,9909.0
2830,0.27165964245796204,1.3599847555160522,40,8124.0,-3.6059088706970215,57,9909.0
2840,0.27294686436653137,0.0803716629743576,-9,8124.0,-1.2397526502609253,-78,9909.0
2850,0.2724137604236603,-0.5024768114089966,5,8124.0,-1.8796405792236328,-36,9909.0
2860,0.27181607484817505,-1.44756019115448,-31,8124.0,-0.0473693385720253,87,9909.0
2870,0.2711160182952881,-1.7972462177276611,-78,8124.0,1.0637990236282349,-131,9909.0
2880,0.27037835121154785,-1.8068472146987915,59,8124.0,1.005000114440918,91,9909.0
2890,0.27347859740257263,-0.3789046108722687,-62,8124.0,1.9309905767440796,-35,9909.0
2900,0.27305153012275696,-0.8668546080589294,70,8124.0,2.131542205810547,116,9909.0
2910,0.27263668179512024,1.1680140495300293,-44,8124.0,0.49931949377059937,-122,9909.0
2920,0.2722119688987732,2.166647434234619,95,8124.0,-0.6180774569511414,42,9909.0
2930,0.2742302417755127,1.858193039894104,38,8124.0,-1.2001242637634277,43,9909.0
2940,0.2739655673503876,0.780602216720581,6,8124.0,-0.10964620858430862,-106,9909.0
2950,0.27369651198387146,1.457689881324768,74,8124.0,-1.6636799573898315,139,9909.0
2960,0.273388534784317,0.4378032386302948,-72,8124.0,1.5628491640090942,-141,9909.0
2970,0.27564722299575806,1.6189806461334229,120,8124.0,0.07601144164800644,98,9909.0
2980,0.2753511965274811,-0.7269347310066223,-97,8124.0,5.385256767272949,50,9909.0
2990,0.27502918243408203,-0.1035909354686737,23,8124.0,1.8556898832321167,33,9909.0
3000,0.2746729254722595,-0.6166176199913025,33,8124.0,1.754870057106018,33,9909.0
3010,0.2742385268211365,-1.0909546613693237,-39,8124.0,3.524778127670288,10,9909.0
3020,0.27439361810684204,-0.6496782898902893,21,8124.0,2.122281312942505,146,9909.0
3030,0.27393317222595215,-0.5910956859588623,-77,8124.0,0.08516170084476471,-110,9909.0
3040,0.27348563075065613,-1.657310128211975,88,8124.0,0.6173619031906128,90,9909.0
3050,0.27305173873901367,-1.0768710374832153,-115,8124.0,-1.0170015096664429,-85,9909.0
3060,0.27396702766418457,-0.6967545747756958,56,8124.0,-0.10788356512784958,39,9909.0
3070,0.2736588716506958,1.0086936950683594,-19,8124.0,-0.3040803372859955,16,9909.0
3080,0.27339601516723633,1.755324363708496,34,8124.0,-0.08816467225551605,-97,9909.0
3090,0.273219496011734,2.1561481952667236,98,8124.0,0.6179821491241455,124,9909.0
3100,0.2730826735496521,2.681041955947876,-40,8124.0,-0.41914084553718567,-57,9909.0
3110,0.27406224608421326,0.8175444602966309,74,8124.0,1.652851939201355,120,9909.0
3120,0.2738869786262512,0.861131489276886,-48,8124.0,1.5460708141326904,-101,9909.0
3130,0.27369463443756104,-0.9825021028518677,58,8124.0,0.7157064080238342,82,9909.0
3140,0.273501455783844,-1.6877447366714478,-31,8124.0,2.546807050704956,25,9909.0
3150,0.2759522497653961,-1.7513911724090576,-22,8124.0,2.667768716812134,-38,9909.0
3160,0.27581167221069336,-1.6332836151123047,0,8124.0,1.8629995584487915,165,9909.0
3170,0.2756281793117523,-0.953708827495575,-59,8124.0,3.740534543991089,-127,9909.0
3180,0.27545806765556335,-1.6526107788085938,32,8124.0,3.0979843139648438,195,9909.0
3190,0.2763608992099762,-1.256128191947937,-104,8124.0,4.906206130981445,10,9909.0
3200,0.27629777789115906,0.15302109718322754,23,8124.0,-1.3275115489959717,51,9909.0
3210,0.27623116970062256,-0.2986762821674347,24,8124.0,1.4146182537078857,-50,9909.0
3220,0.276211678981781,1.3770873546600342,38,8124.0,-0.6733875870704651,30,9909.0
3230,0.27624550461769104,2.0746283531188965,19,8124.0,-2.5890097618103027,40,9909.0
3240,0.27657550573349,1.0796211957931519,25,8124.0,-1.551297903060913,-226,9909.0
3250,0.27656254172325134,2.2842652797698975,46,8124.0,-2.8051068782806396,136,9909.0
3260,0.2765376567840576,1.8980867862701416,-37,8124.0,-0.27728408575057983,-141,9909.0
3270,0.2764683961868286,-0.5402092337608337,65,8124.0,-0.9216533899307251,53,9909.0
3280,0.2770404815673828,0.5458196401596069,-70,8124.0,-0.8763152360916138,30,9909.0
3290,0.2769751250743866,-0.9128886461257935,-28,8124.0,2.0024514198303223,-51,9909.0
3300,0.2768402099609375,-1.4777966737747192,-16,8124.0,2.930757761001587,140,9909.0
3310,0.2765900194644928,-0.09688299894332886,14,8124.0,2.0793964862823486,-65,9909.0
3320,0.2763393819332123,-2.28867506980896,-41,8124.0,3.8417105674743652,207,9909.0
3330,0.2763785421848297,-0.2492000162601471,-6,8124.0,2.0628533363342285,-216,9909.0
3340,0.27620190382003784,-0.975080668926239,12,8124.0,1.4916749000549316,130,9909.0
3350,0.27603277564048767,0.033717282116413116,19,8124.0,0.16652654111385345,-75,9909.0
3360,0.27591001987457275,0.58040851354599,12,8124.0,-1.1952824592590332,-14,9909.0
3370,0.2767162621021271,1.1956151723861694,-17,8124.0,-2.3608996868133545,48,9909.0
3380,0.27670425176620483,2.529277801513672,135,8124.0,-1.4262189865112305,-183,9909.0
3390,0.2766278386116028,3.847184181213379,146,8124.0,-3.27103328704834,101,9909.0
3400,0.27649834752082825,3.027038097381592,-52,8124.0,-3.251683235168457,-137,9909.0
3410,0.27620744705200195,1.3874683380126953,63,8124.0,-2.025691509246826,4,9909.0
3420,0.27605050802230835,-0.0446818470954895,-21,8124.0,-0.06901814788579941,-46,9909.0
3430,0.2758936882019043,-1.9454630613327026,-20,8124.0,-0.09277069568634033,54,9909.0
3440,0.27573391795158386,-2.4563486576080322,-61,8124.0,1.0220485925674438,101,9909.0
3450,0.27559664845466614,-2.2444868087768555,6,8124.0,1.6794908046722412,-160,9909.0
3460,0.27684465050697327,-1.8861202001571655,-71,8124.0,0.3915657103061676,195,9909.0
3470,0.27685317397117615,-3.5375633239746094,-20,8124.0,3.5807976722717285,-131,9909.0
3480,0.2768707871437073,-0.15814261138439178,-35,8124.0,-2.464743137359619,94,9909.0
3490,0.27691197395324707,-0.23822565376758575,19,8124.0,0.26454147696495056,5,9909.0
3500,0.2781471312046051,0.52202969789505,14,8124.0,-0.8338278532028198,-11,9909.0
3510,0.2782159745693207,3.723184823989868,24,8124.0,-0.45032864809036255,-108,9909.0
3520,0.27820515632629395,5.084714412689209,165,8124.0,0.456402450799942,86,9909.0
3530,0.2781178951263428,5.087571144104004,-106,8124.0,-0.8359149098396301,-7,9909.0
3540,0.2780182957649231,2.438595771789551,154,8124.0,-0.5212480425834656,1,9909.0
3550,0.27872541546821594,1.0004746913909912,-78,8124.0,1.9684430360794067,-23,9909.0
3560,0.27868473529815674,-0.38053616881370544,21,8124.0,-0.49622103571891785,30,9909.0
3570,0.2786959409713745,-3.627007246017456,-45,8124.0,1.9714019298553467,74,9909.0
3580,0.2787752151489258,-4.090461730957031,-74,8124.0,1.1094889640808105,-134,9909.0
3590,0.27854692935943604,-3.6431636810302734,-44,8124.0,-0.3224147856235504,183,9909.0
3600,0.2786685526371002,-3.9490554332733154,-40,8124.0,-0.7485109567642212,-209,9909.0
3610,0.2787599563598633,-1.7795071601867676,-18,8124.0,-2.22505259513855,97,9909.0
3620,0.278816282749176,-0.8712137341499329,18,8124.0,-4.162973880767822,-72,9909.0
3630,0.2785256505012512,0.3828382194042206,-60,8124.0,-1.826603889465332,34,9909.0
3640,0.2784806787967682,1.3817628622055054,-1,8124.0,-1.0459556579589844,-97,9909.0
3650,0.27842333912849426,3.3577706813812256,153,8124.0,-2.0926315784454346,0,9909.0
3660,0.2784220278263092,4.981585502624512,-20,8124.0,-0.5782341361045837,-44,9909.0
3670,0.2784684896469116,4.482268333435059,157,8124.0,-2.1197454929351807,16,9909.0
3680,0.27990496158599854,3.9319655895233154,-104,8124.0,0.7183858156204224,-20,9909.0
3690,0.2800240218639374,2.2325639724731445,112,8124.0,-1.8470029830932617,34,9909.0
3700,0.28017112612724304,0.2948736250400543,-19,8124.0,-1.0747807025909424,-18,9909.0
3710,0.28031694889068604,-2.0382473468780518,-28,8124.0,0.9293927550315857,-109,9909.0
3720,0.27827730774879456,-2.127074956893921,-24,8124.0,1.3888345956802368,182,9909.0
3730,0.27820947766304016,-2.0980825424194336,-6,8124.0,1.7103674411773682,-108,9909.0
3740,0.27816832065582275,-1.6489545106887817,-62,8124.0,3.1277542114257812,169,9909.0
3750,0.27814170718193054,-3.866335391998291,31,8124.0,3.9392571449279785,-80,9909.0
3760,0.27810734510421753,-1.243196964263916,-42,8124.0,1.7837306261062622,95,9909.0
3770,0.2788686454296112,-0.21004348993301392,-12,8124.0,-2.852479934692383,-35,9909.0
3780,0.2789691090583801,0.5671749114990234,57,8124.0,-3.375864267349243,-16,9909.0
3790,0.27906012535095215,-0.2496412694454193,-65,8124.0,-3.6563925743103027,-163,9909.0
3800,0.27911219000816345,-0.6170399785041809,82,8124.0,-4.7285542488098145,42,9909.0
3810,0.2786805033683777,2.8778676986694336,-56,8124.0,-4.054015159606934,-131,9909.0
3820,0.2786416709423065,0.8664928078651428,87,8124.0,-2.1386237144470215,44,9909.0
3830,0.2785935401916504,1.674835205078125,8,8124.0,-0.1279318928718567,63,9909.0
3840,0.2785953879356384,2.25850248336792,25,8124.0,0.47162383794784546,-3,9909.0
3850,0.2795698642730713,2.8634519577026367,-83,8124.0,1.3995742797851562,81,9909.0
3860,0.2796994149684906,1.6071367263793945,173,8124.0,2.8208982944488525,-17,9909.0
3870,0.2798803448677063,0.8260260224342346,-102,8124.0,0.35690149664878845,49,9909.0
3880,0.2800690829753876,-0.2864285409450531,112,8124.0,2.166348934173584,79,9909.0
3890,0.28025320172309875,0.5730389952659607,-82,8124.0,0.060129184275865555,0,9909.0
3900,0.2794819176197052,0.5942825078964233,-6,8124.0,-0.48317593336105347,-38,9909.0
3910,0.2795405089855194,-0.9292284250259399,-35,8124.0,0.0647907480597496,111,9909.0
3920,0.2795422375202179,-0.9653464555740356,65,8124.0,0.7131718993186951,-138,9909.0
3930,0.2795581519603729,0.33825501799583435,-71,8124.0,-1.2299201488494873,101,9909.0
3940,0.28017911314964294,-0.9293498992919922,124,8124.0,-2.6193134784698486,-91,9909.0
3950,0.2802852690219879,-0.8869848847389221,-105,8124.0,-1.4989262819290161,47,9909.0
3960,0.28042903542518616,-1.0400776863098145,-20,8124.0,0.13008034229278564,-6,9909.0
3970,0.28062036633491516,-1.2659895420074463,48,8124.0,0.4771043658256531,-46,9909.0
3980,0.28081098198890686,-0.431860089302063,-94,8124.0,-0.5937248468399048,-135,9909.0
3990,0.2798194885253906,-1.1251716613769531,82,8124.0,0.7495710849761963,195,9909.0
4000,0.28004831075668335,-0.9454707503318787,-137,8124.0,2.76332950592041,-47,9909.0
4010,0.2802131175994873,0.5284602046012878,110,8124.0,-2.084726333618164,49,9909.0
4020,0.28039810061454773,0.532050609588623,-7,8124.0,3.279595375061035,53,9909.0
4030,0.2796615660190582,0.3931175768375397,25,8124.0,2.037426710128784,-5,9909.0
4040,0.27982306480407715,0.8814536333084106,-54,8124.0,4.297605991363525,97,9909.0
4050,0.2799103856086731,1.8549989461898804,194,8124.0,0.6149420738220215,2,9909.0
4060,0.2799437642097473,1.4430427551269531,-155,8124.0,1.364114761352539,50,9909.0
4070,0.27919355034828186,-0.8069921731948853,91,8124.0,2.100320816040039,46,9909.0
4080,0.27917683124542236,2.5740623474121094,24,8124.0,-1.3693187236785889,-90,9909.0
4090,0.2791599631309509,1.8515281677246094,45,8124.0,-0.7964174747467041,-30,9909.0
4100,0.27918630838394165,1.4239407777786255,-35,8124.0,-1.2930828332901,69,9909.0
4110,0.27925416827201843,-0.694412350654602,99,8124.0,-1.5428889989852905,-58,9909.0
4120,0.27880004048347473,-0.20406997203826904,-177,8124.0,-1.122064232826233,2,9909.0
4130,0.2788245379924774,-2.8139634132385254,89,8124.0,0.5690335035324097,22,9909.0
4140,0.2787950336933136,-0.38594645261764526,-54,8124.0,1.3420218229293823,18,9909.0
4150,0.27875426411628723,-0.16244551539421082,10,8124.0,0.28730860352516174,-12,9909.0
4160,0.27765390276908875,0.7394242286682129,-102,8124.0,4.130058288574219,76,9909.0
4170,0.2776179611682892,-0.6444104313850403,172,8124.0,2.557976484298706,98,9909.0
4180,0.2775883078575134,1.183039665222168,-111,8124.0,1.3786734342575073,-24,9909.0
4190,0.27753952145576477,0.3316721022129059,17,8124.0,3.5352354049682617,124,9909.0
4200,0.27805987000465393,0.6506407260894775,16,8124.0,-0.05129241570830345,-73,9909.0
4210,0.2780037820339203,1.3020939826965332,67,8124.0,-1.52764892578125,-52,9909.0
4220,0.2779536247253418,0.44574689865112305,-33,8124.0,-1.9378162622451782,-140,9909.0
4230,0.2779584228992462,0.48732027411460876,74,8124.0,-3.3574466705322266,130,9909.0
4240,0.2779313623905182,-1.3716286420822144,-21,8124.0,1.2716913223266602,-138,9909.0
4250,0.27870625257492065,1.1713186502456665,-17,8124.0,-3.3715600967407227,71,9909.0
4260,0.27870413661003113,0.12169638276100159,6,8124.0,-1.401085615158081,3,9909.0
4270,0.2786425054073334,-0.2930017411708832,3,8124.0,1.101088523864746,163,9909.0
4280,0.27858448028564453,1.3001011610031128,77,8124.0,1.1581257581710815,-73,9909.0
4290,0.2787785530090332,2.166621685028076,-119,8124.0,2.3722240924835205,56,9909.0
4300,0.27884066104888916,1.5950942039489746,177,8124.0,-1.0101585388183594,49,9909.0
4310,0.27888259291648865,1.6349787712097168,7,8124.0,3.434535503387451,-38,9909.0
4320,0.2788870334625244,0.35885339975357056,1,8124.0,4.8454484939575195,101,9909.0
4330,0.27887070178985596,-0.2753339409828186,-66,8124.0,2.8348121643066406,114,9909.0
4340,0.27931272983551025,-0.08215264976024628,47,8124.0,0.2866329252719879,127,9909.0
4350,0.2793556749820709,-1.053367018699646,-72,8124.0,6.459090232849121,-99,9909.0
4360,0.2794094681739807,2.0920889377593994,35,8124.0,-5.857630252838135,69,9909.0
4370,0.2794427275657654,-0.04096671938896179,38,8124.0,0.44188186526298523,-23,9909.0
4380,0.2808533012866974,-0.24145539104938507,-10,8124.0,-3.1279282569885254,36,9909.0
4390,0.2809422016143799,-1.18721342086792,23,8124.0,0.8077188730239868,-29,9909.0
4400,0.2810717523097992,-1.7388410568237305,-113,8124.0,0.8845363259315491,68,9909.0
4410,0.28121447563171387,-1.9160752296447754,115,8124.0,1.792688012123108,33,9909.0
4420,0.28199830651283264,-2.43159556388855,-53,8124.0,3.4863831996917725,-84,9909.0
4430,0.282120019197464,1.1718701124191284,-11,8124.0,1.587990403175354,127,9909.0
4440,0.28219881653785706,2.0642340183258057,-31,8124.0,1.7184237241744995,20,9909.0
4450,0.28226885199546814,1.4503587484359741,65,8124.0,0.1962628811597824,113,9909.0
4460,0.2823506295681,0.4929646849632263,6,8124.0,0.984028160572052,-197,9909.0
4470,0.2839311361312866,1.8725746870040894,-40,8124.0,-2.2512199878692627,11,9909.0
4480,0.2840704023838043,-0.7393375039100647,150,8124.0,1.8542817831039429,45,9909.0
4490,0.28418824076652527,0.0005852190079167485,-30,8124.0,-0.20790113508701324,24,9909.0
4500,0.2843044698238373,-1.4125264883041382,-12,8124.0,1.4060602188110352,4,9909.0
4510,0.28383126854896545,-0.8633184432983398,-92,8124.0,-3.190786838531494,-52,9909.0
4520,0.2838984429836273,-2.279252767562866,98,8124.0,1.681736946105957,64,9909.0
4530,0.283884733915329,-0.2949824929237366,-71,8124.0,-0.940942108631134,-139,9909.0
4540,0.2838186025619507,-1.0023398399353027,-14,8124.0,0.023656481876969337,88,9909.0
4550,0.283730149269104,-1.248234748840332,-27,8124.0,1.753343939781189,30,9909.0
4560,0.28376656770706177,-1.3082317113876343,0,8124.0,3.0556886196136475,153,9909.0
4570,0.283735990524292,0.6729364991188049,67,8124.0,2.0366268157958984,-144,9909.0
4580,0.2836318016052246,2.0256099700927734,-127,8124.0,-0.5468043684959412,50,9909.0
4590,0.28350207209587097,1.1725236177444458,165,8124.0,3.023116111755371,13,9909.0
4600,0.2835642099380493,5.641785621643066,117,8124.0,0.7236311435699463,93,9909.0
4610,0.28345417976379395,3.547025680541992,59,8124.0,-0.8458342552185059,-82,9909.0
4620,0.283355712890625,0.7707127332687378,-114,8124.0,3.4214909076690674,112,9909.0
4630,0.28321677446365356,0.6971583962440491,136,8124.0,-4.776244640350342,-78,9909.0
4640,0.28304851055145264,1.1606378555297852,-77,8124.0,-3.782433032989502,-253,9909.0
4650,0.2828866243362427,-3.0160346031188965,-48,8124.0,-2.861894369125366,55,9909.0
4660,0.2827604413032532,-2.192570447921753,-30,8124.0,-0.09181224554777145,-29,9909.0
4670,0.2826182544231415,-1.2860300540924072,-6,8124.0,-0.6228832602500916,98,9909.0
4680,0.2824649214744568,-2.0191187858581543,83,8124.0,0.8189277052879333,-71,9909.0
4690,0.28253504633903503,-1.7194105386734009,-205,8124.0,5.631252765655518,76,9909.0
4700,0.2824040949344635,-1.5646626949310303,50,8124.0,1.4136018753051758,105,9909.0
4710,0.282325804233551,-2.161841869354248,-27,8124.0,2.3034887313842773,14,9909.0
4720,0.28226420283317566,-0.31216543912887573,89,8124.0,3.192483901977539,100,9909.0
4730,0.2836824953556061,1.692955493927002,90,8124.0,0.9917664527893066,-66,9909.0
4740,0.28377565741539,4.362270355224609,-120,8124.0,-1.9300129413604736,-2,9909.0
4750,0.2838943898677826,0.876179575920105,6,8124.0,0.3955307602882385,91,9909.0
4760,0.2840297818183899,-1.0837868452072144,-63,8124.0,2.164062261581421,-24,9909.0
4770,0.28417685627937317,-0.22901609539985657,-13,8124.0,1.7631069421768188,5,9909.0
4780,0.2854975163936615,0.06802114099264145,20,8124.0,1.520263910293579,-44,9909.0
4790,0.2857303321361542,0.5097150802612305,-96,8124.0,1.8876115083694458,-17,9909.0
4800,0.28594493865966797,-0.2724902331829071,77,8124.0,-0.6467326283454895,152,9909.0
4810,0.28613293170928955,1.9795864820480347,-53,8124.0,3.873713731765747,-81,9909.0
4820,0.2854611575603485,-1.4961096048355103,-40,8124.0,-0.09405463933944702,72,9909.0
4830,0.28559935092926025,-1.217377781867981,-25,8124.0,-1.868868350982666,-89,9909.0
4840,0.2857956886291504,-0.1268511861562729,-86,8124.0,-3.165619134902954,-25,9909.0
4850,0.28593310713768005,-0.3725695312023163,86,8124.0,-5.562319278717041,36,9909.0
4860,0.2873530089855194,-1.792811632156372,42,8124.0,-2.7638447284698486,-308,9909.0
4870,0.28760001063346863,-0.3589993417263031,-95,8124.0,-2.1828770637512207,6,9909.0
4880,0.28781458735466003,-3.2822864055633545,41,8124.0,-1.4806568622589111,-71,9909.0
4890,0.2880103290081024,-1.9537291526794434,-83,8124.0,-0.9421961903572083,54,9909.0
4900,0.2881642282009125,-1.5933135747909546,106,8124.0,-1.10153329372406,111,9909.0
4910,0.28830012679100037,-3.402787208557129,-82,8124.0,1.3704097270965576,-142,9909.0
4920,0.2886759340763092,-0.9313817024230957,-47,8124.0,-1.3142471313476562,115,9909.0
4930,0.2889208495616913,0.30225229263305664,-22,8124.0,-2.045248508453369,4,9909.0
4940,0.2891192138195038,-1.4345273971557617,-61,8124.0,1.4664583206176758,120,9909.0
4950,0.2900463938713074,-1.0124454498291016,62,8124.0,1.2776843309402466,-34,9909.0
4960,0.29027220606803894,1.0436707735061646,-94,8124.0,1.668249487876892,-80,9909.0
4970,0.29049429297447205,0.30047735571861267,66,8124.0,-2.758439302444458,107,9909.0
4980,0.29068389534950256,0.3139258325099945,15,8124.0,3.5372064113616943,32,9909.0
4990,0.29082927107810974,-0.28735095262527466,-24,8124.0,-1.148850917816162,118,9909.0
5000,0.2918674349784851,-1.3205605745315552,41,8124.0,0.965365469455719,-23,9909.0
5010,0.29203540086746216,-1.1179611682891846,-200,8124.0,2.240151882171631,-15,9909.0
5020,0.2921501398086548,-1.382788896560669,48,8124.0,-2.9855709075927734,138,9909.0
5030,0.29221856594085693,0.146024689078331,20,8124.0,-1.9199336767196655,-181,9909.0
5040,0.2913621664047241,1.4011311531066895,42,8124.0,-4.340579986572266,-29,9909.0
5050,0.29135334491729736,1.0924866199493408,85,8124.0,-1.8039823770523071,-91,9909.0
5060,0.2913424074649811,1.3210850954055786,-55,8124.0,0.08804373443126678,-36,9909.0
5070,0.29131248593330383,2.364898204803467,150,8124.0,-4.36506986618042,53,9909.0
5080,0.2911551594734192,2.584990978240967,72,8124.0,-2.639982223510742,-161,9909.0
5090,0.29110226035118103,2.9069740772247314,-45,8124.0,2.715117931365967,-3,9909.0
5100,0.29107916355133057,1.3383069038391113,29,8124.0,0.9966352581977844,38,9909.0
5110,0.29099148511886597,-0.003684472059831023,-64,8124.0,1.564464807510376,35,9909.0
5120,0.2909225523471832,-1.0591535568237305,63,8124.0,1.3712280988693237,183,9909.0
5130,0.2921510636806488,-0.03370539844036102,44,8124.0,-1.6878182888031006,-225,9909.0
5140,0.29221028089523315,2.8847951889038086,-103,8124.0,2.7963857650756836,56,9909.0
5150,0.29226574301719666,4.834344387054443,67,8124.0,-3.857375383377075,146,9909.0
5160,0.292325496673584,-1.0290424823760986,-43,8124.0,5.4090895652771,55,9909.0
5170,0.29226455092430115,0.022186899557709694,1,8124.0,-0.8149982690811157,298,9909.0
5180,0.29232272505760193,2.4778316020965576,194,8124.0,0.3831290900707245,-8,9909.0
5190,0.2923983335494995,-0.5155460238456726,-56,8124.0,5.661019802093506,-258,9909.0
5200,0.2925042510032654,4.865488052368164,26,8124.0,-2.827540636062622,44,9909.0
5210,0.2926291525363922,2.4725492000579834,23,8124.0,-1.179794430732727,-32,9909.0
5220,0.2920692265033722,1.508802056312561,-65,8124.0,-0.8983155488967896,13,9909.0
5230,0.2921835482120514,-0.9796280264854431,28,8124.0,2.7330851554870605,114,9909.0
5240,0.2923396825790405,1.0891555547714233,79,8124.0,0.20420123636722565,-98,9909.0
5250,0.2925197184085846,-2.091738700866699,1,8124.0,-2.9197638034820557,59,9909.0
5260,0.2920667231082916,-0.3121407628059387,-32,8124.0,2.901515007019043,37,9909.0
5270,0.2921883165836334,-2.7151074409484863,-106,8124.0,0.9509831070899963,96,9909.0
5280,0.2923222780227661,-3.7537519931793213,48,8124.0,1.5931276082992554,70,9909.0
5290,0.2924640476703644,-1.540795087814331,-22,8124.0,1.5842000246047974,-428,9909.0
5300,0.2927662432193756,3.6955418586730957,-91,8124.0,-4.709710597991943,-18,9909.0
5310,0.2929542064666748,-3.2917795181274414,35,8124.0,-1.8479843139648438,-36,9909.0
5320,0.293183833360672,-0.3492909371852875,-27,8124.0,1.2835493087768555,-33,9909.0
5330,0.29343146085739136,-1.4342178106307983,33,8124.0,-0.48163214325904846,122,9909.0
5340,0.2937100827693939,-2.024574041366577,76,8124.0,1.0455577373504639,-11,9909.0
5350,0.2941488027572632,-2.735197067260742,-76,8124.0,-3.768224000930786,-167,9909.0
5360,0.29453545808792114,-1.1016038656234741,-34,8124.0,0.024247776716947556,143,9909.0
5370,0.2948850393295288,-3.3942975997924805,-52,8124.0,4.49314022064209,-13,9909.0
5380,0.2952021658420563,1.498296856880188,-52,8124.0,1.5610591173171997,105,9909.0
5390,0.2966237962245941,-1.140930414199829,60,8124.0,3.232180595397949,143,9909.0
5400,0.29701101779937744,0.3350900113582611,35,8124.0,2.4186363220214844,-200,9909.0
5410,0.2973763346672058,-1.802254557609558,-205,8124.0,7.415558338165283,-47,9909.0
5420,0.29778853058815,-0.9985101819038391,46,8124.0,-4.124901294708252,-13,9909.0
5430,0.2969552278518677,-2.9200029373168945,-9,8124.0,-2.3982064723968506,-132,9909.0
5440,0.2973189055919647,-0.8493463397026062,22,8124.0,-1.2793737649917603,3,9909.0
5450,0.2976890802383423,0.5307517647743225,184,8124.0,-3.7397665977478027,30,9909.0
5460,0.29814600944519043,0.21599622070789337,-35,8124.0,-3.526345729827881,-250,9909.0
5470,0.2985663414001465,1.13772714138031,-19,8124.0,-4.277228832244873,44,9909.0
5480,0.29831621050834656,-0.7273710370063782,65,8124.0,3.8790159225463867,60,9909.0
5490,0.2986259162425995,-0.2141786366701126,-61,8124.0,4.032337188720703,67,9909.0
5500,0.29890841245651245,0.3168755769729614,110,8124.0,5.447963714599609,129,9909.0
5510,0.2991486191749573,1.7984150648117065,87,8124.0,2.7801451683044434,-119,9909.0
5520,0.2993002235889435,2.447239637374878,-79,8124.0,-2.684312582015991,-125,9909.0
5530,0.2995013892650604,-2.225102663040161,31,8124.0,-1.387264370918274,20,9909.0
5540,0.29967889189720154,-2.0038914680480957,-7,8124.0,2.3558220863342285,9,9909.0
5550,0.2998463213443756,-4.427746772766113,-60,8124.0,0.37611454725265503,80,9909.0
5560,0.29999807476997375,-4.678776264190674,38,8124.0,-0.8888803720474243,91,9909.0
5570,0.3001593053340912,-3.469696044921875,-57,8124.0,0.8813873529434204,-131,9909.0
5580,0.30029401183128357,-4.584929943084717,-193,8124.0,1.0495184659957886,-132,9909.0
5590,0.30042222142219543,0.31139886379241943,39,8124.0,-4.656285762786865,39,9909.0
5600,0.3005521595478058,2.138817310333252,31,8124.0,-3.358567714691162,-77,9909.0
5610,0.3000260293483734,0.4777384400367737,-9,8124.0,0.494392991065979,32,9909.0
5620,0.3000638484954834,2.22298526763916,135,8124.0,1.5897719860076904,157,9909.0
5630,0.3000813126564026,5.384646415710449,91,8124.0,-2.138061046600342,-140,9909.0
5640,0.30006924271583557,2.222775459289551,-131,8124.0,0.244625061750412,5,9909.0
5650,0.3008337616920471,5.023735523223877,89,8124.0,-5.232221603393555,131,9909.0
5660,0.300916463136673,-1.5977030992507935,-17,8124.0,1.152631163597107,53,9909.0
5670,0.3010384440422058,-3.763763189315796,-139,8124.0,1.6417763233184814,84,9909.0
5680,0.3011242747306824,-4.471360683441162,-40,8124.0,6.822585105895996,315,9909.0
5690,0.30129554867744446,-3.8036346435546875,35,8124.0,6.201235771179199,17,9909.0
5700,0.30174288153648376,-2.3063735961914062,-80,8124.0,3.390408754348755,-146,9909.0
5710,0.3019581735134125,-1.7635102272033691,-39,8124.0,5.235475540161133,68,9909.0
5720,0.30223509669303894,-0.0567145049571991,91,8124.0,5.69406270980835,15,9909.0
5730,0.30252179503440857,-0.6886165142059326,-8,8124.0,2.7938597202301025,-80,9909.0
5740,0.30506664514541626,2.0522730350494385,-42,8124.0,1.6247621774673462,-3,9909.0
5750,0.3055235743522644,3.7814013957977295,134,8124.0,1.870155930519104,411,9909.0
5760,0.30599501729011536,-0.7550109028816223,229,8124.0,0.23920343816280365,-13,9909.0
5770,0.30644047260284424,3.454474449157715,-28,8124.0,3.690019369125366,31,9909.0
5780,0.30692386627197266,-0.7548661828041077,-40,8124.0,3.214294672012329,153,9909.0
5790,0.3074137270450592,-2.320780038833618,15,8124.0,3.145333766937256,15,9909.0
5800,0.30788710713386536,-3.993307590484619,-185,8124.0,7.23162317276001,-83,9909.0
5810,0.30833718180656433,-3.867389440536499,-122,8124.0,4.936705112457275,54,9909.0
5820,0.3087806701660156,-5.772337436676025,48,8124.0,4.4630279541015625,136,9909.0
5830,0.30890128016471863,-1.8087795972824097,10,8124.0,4.435226917266846,66,9909.0
5840,0.309282124042511,-1.144569754600525,-6,8124.0,2.926356792449951,29,9909.0
5850,0.30960845947265625,2.2389042377471924,24,8124.0,-0.5317139625549316,-73,9909.0
5860,0.30991339683532715,1.7146151065826416,-68,8124.0,5.344914436340332,-17,9909.0
5870,0.31026196479797363,5.486964225769043,111,8124.0,-3.8411874771118164,141,9909.0
5880,0.310048907995224,2.142134428024292,194,8124.0,-1.7008222341537476,-49,9909.0
5890,0.31030920147895813,3.804446220397949,58,8124.0,2.4894909858703613,-149,9909.0
5900,0.31054314970970154,-0.39557063579559326,-11,8124.0,-0.4751746356487274,16,9909.0
5910,0.31076425313949585,0.622009813785553,67,8124.0,-1.7077773809432983,-69,9909.0
5920,0.3098662793636322,0.545350968837738,-93,8124.0,-2.0013272762298584,-131,9909.0
5930,0.3100317418575287,-0.6434021592140198,-104,8124.0,-6.17777681350708,71,9909.0
5940,0.3101942539215088,1.4819414615631104,155,8124.0,-12.295069694519043,-31,9909.0
5950,0.3103219270706177,-4.045204162597656,-86,8124.0,-2.6293609142303467,-175,9909.0
5960,0.3114830553531647,-5.815907955169678,-167,8124.0,1.2552907466888428,12,9909.0
5970,0.31165483593940735,-4.791571617126465,-10,8124.0,4.86107873916626,74,9909.0
5980,0.31181347370147705,-3.446512460708618,-54,8124.0,3.432129383087158,-82,9909.0
5990,0.3120584189891815,-0.029723066836595535,-78,8124.0,1.0660287141799927,6,9909.0
6000,0.31223064661026,1.458457589149475,16,8124.0,1.1186436414718628,185,9909.0
6010,0.3126905560493469,-1.893904447555542,147,8124.0,-4.4184041023254395,-56,9909.0
6020,0.3128410875797272,-0.5817525386810303,2,8124.0,-2.015693187713623,-112,9909.0
6030,0.3129957318305969,1.9320652484893799,-15,8124.0,-8.589707374572754,-47,9909.0
6040,0.31316715478897095,1.772080898284912,76,8124.0,-4.993017196655273,28,9909.0
6050,0.31407222151756287,1.4956910610198975,29,8124.0,-2.8336234092712402,-168,9909.0
6060,0.31429070234298706,3.0269389152526855,-172,8124.0,0.0029729760717600584,-47,9909.0
6070,0.3145553171634674,1.7870628833770752,50,8124.0,-0.8436932563781738,136,9909.0
6080,0.3148689866065979,-0.852607250213623,60,8124.0,5.561819553375244,40,9909.0
6090,0.3149196207523346,-1.0034908056259155,-54,8124.0,3.9418601989746094,-30,9909.0
6100,0.3155791759490967,-3.133009672164917,-7,8124.0,-1.7922378778457642,85,9909.0
6110,0.31558287143707275,-1.7770042419433594,116,8124.0,-3.224353790283203,-20,9909.0
6120,0.31632760167121887,-7.100488662719727,-36,8124.0,-5.230285167694092,-192,9909.0
6130,0.3165341317653656,2.9620091915130615,-31,8124.0,-7.050349235534668,-184,9909.0
6140,0.3176705837249756,2.2392654418945312,51,8124.0,-5.128145694732666,-17,9909.0
6150,0.3179280161857605,-4.168849468231201,32,8124.0,-4.154029846191406,-106,9909.0
6160,0.31843245029449463,-4.798716068267822,-130,8124.0,-0.03651729226112366,10,9909.0
6170,0.31913962960243225,-3.131179094314575,-55,8124.0,-2.348489284515381,171,9909.0
6180,0.3178311288356781,-6.951357841491699,1,8124.0,5.330230236053467,79,9909.0
6190,0.3181796967983246,-3.7422542572021484,-89,8124.0,3.79355788230896,-183,9909.0
6200,0.31848984956741333,-0.9578098654747009,-174,8124.0,5.13484001159668,110,9909.0
6210,0.3187916576862335,1.9327995777130127,81,8124.0,3.5618321895599365,148,9909.0
6220,0.3191344439983368,2.0593647956848145,36,8124.0,0.8986452221870422,-30,9909.0
6230,0.32080721855163574,3.797506332397461,35,8124.0,-0.7415411472320557,-24,9909.0
6240,0.32092633843421936,7.458458423614502,217,8124.0,-2.5869345664978027,46,9909.0
6250,0.3217037320137024,10.534832954406738,246,8124.0,-3.302266836166382,-124,9909.0
6260,0.32164061069488525,13.395668029785156,129,8124.0,-4.588415622711182,-212,9909.0
6270,0.32084929943084717,12.759688377380371,194,8124.0,-5.612820148468018,86,9909.0
6280,0.32086896896362305,7.4972310066223145,310,8124.0,-4.4262614250183105,82,9909.0
6290,0.321622371673584,6.413289546966553,43,8124.0,-1.6089756488800049,15,9909.0
6300,0.3216148912906647,3.228262424468994,-10,8124.0,-0.3692343235015869,85,9909.0
6310,0.3220420479774475,-2.861495018005371,-8,8124.0,-1.5852017402648926,21,9909.0
6320,0.3235064446926117,-4.765257835388184,-145,8124.0,1.0912578105926514,-162,9909.0
6330,0.3240254819393158,-5.625034809112549,-278,8124.0,-3.4103708267211914,-7,9909.0
6340,0.3245227634906769,-6.931077480316162,-60,8124.0,-1.9379043579101562,112,9909.0
6350,0.3249838054180145,-6.981954097747803,5,8124.0,-0.041533276438713074,-55,9909.0
6360,0.3256343603134155,-5.8361053466796875,-35,8124.0,4.2816853523254395,15,9909.0
6370,0.32626616954803467,2.3260815143585205,188,8124.0,2.0319480895996094,-12,9909.0
6380,0.32688677310943604,8.863760948181152,183,8124.0,0.9883653521537781,-49,9909.0
6390,0.32722902297973633,6.26713752746582,10,8124.0,-0.37138864398002625,-156,9909.0
6400,0.32781982421875,0.30536508560180664,-29,8124.0,2.7142839431762695,249,9909.0
6410,0.3280241787433624,-4.887416839599609,-26,8124.0,7.509886741638184,149,9909.0
6420,0.3283311128616333,-14.899353981018066,-337,8124.0,4.562017440795898,-6,9909.0
6430,0.3286735415458679,-16.71702003479004,-309,8124.0,0.16378530859947205,73,9909.0
6440,0.32894816994667053,-15.064783096313477,-171,8124.0,0.8031721711158752,17,9909.0
6450,0.3287525773048401,-7.656692981719971,-188,8124.0,1.6314232349395752,-15,9909.0
6460,0.3290177285671234,-4.293302536010742,-67,8124.0,-1.4112473726272583,-10,9909.0
6470,0.32928454875946045,1.144885540008545,154,8124.0,-10.525928497314453,-163,9909.0
6480,0.3294808268547058,0.2917783856391907,28,8124.0,-4.337790489196777,-320,9909.0
6490,0.3314168155193329,-1.045325756072998,-158,8124.0,0.04098623991012573,232,9909.0
6500,0.33161574602127075,1.0204154253005981,-110,8124.0,5.815601348876953,252,9909.0
6510,0.3317906856536865,-1.117453932762146,-34,8124.0,8.952616691589355,110,9909.0
6520,0.33201539516448975,-3.8499560356140137,-85,8124.0,7.5347442626953125,151,9909.0
6530,0.3320905566215515,-3.4009037017822266,-1,8124.0,3.8918027877807617,190,9909.0
6540,0.3322329521179199,-6.943380832672119,-75,8124.0,2.8287806510925293,-121,9909.0
6550,0.33245885372161865,-7.8333635330200195,-307,8124.0,0.6132553815841675,-162,9909.0
6560,0.3326575756072998,-12.733061790466309,-248,8124.0,-5.60975980758667,97,9909.0
6570,0.3328324258327484,-18.468475341796875,-138,8124.0,-6.053734302520752,-39,9909.0
6580,0.3325642943382263,-15.120184898376465,-266,8124.0,-3.6965577602386475,-112,9909.0
6590,0.33259621262550354,-11.165101051330566,-200,8124.0,-2.1488261222839355,8,9909.0
6600,0.33289217948913574,-7.364988803863525,-54,8124.0,-4.8631157875061035,-53,9909.0
6610,0.33308613300323486,-6.34191370010376,-114,8124.0,-1.638150930404663,-133,9909.0
6620,0.3346726894378662,-4.361132621765137,-284,8124.0,-4.438398838043213,-111,9909.0
6630,0.33490845561027527,-6.811227321624756,-161,8124.0,-8.867061614990234,181,9909.0
6640,0.33511245250701904,-10.397723197937012,-19,8124.0,-5.707858562469482,4,9909.0
6650,0.3352457582950592,-7.3503241539001465,-126,8124.0,1.8077123165130615,-68,9909.0
6660,0.33546510338783264,-7.273741722106934,-109,8124.0,4.542400360107422,108,9909.0
6670,0.338419646024704,-2.591496229171753,49,8124.0,-0.3818480968475342,-73,9909.0
6680,0.3386002779006958,1.2615870237350464,10,8124.0,1.1984940767288208,-128,9909.0
6690,0.3387686312198639,1.9547052383422852,-59,8124.0,0.9610283970832825,34,9909.0
6700,0.33884596824645996,1.0656485557556152,128,8124.0,-3.3830618858337402,114,9909.0
6710,0.3379449248313904,0.8918761014938354,115,8124.0,1.4120625257492065,11,9909.0
6720,0.338204026222229,-3.125854015350342,-140,8124.0,4.109145641326904,18,9909.0
6730,0.3384419083595276,-5.901300430297852,-54,8124.0,-3.596710681915283,54,9909.0
6740,0.3386286497116089,-4.162725448608398,-45,8124.0,-0.5097630023956299,-83,9909.0
6750,0.34035724401474,-1.9313912391662598,-118,8124.0,4.825875282287598,-24,9909.0
6760,0.3405885398387909,2.8136768341064453,110,8124.0,-2.4460387229919434,154,9909.0
6770,0.34079456329345703,3.7622952461242676,197,8124.0,-1.1632894277572632,-15,9909.0
6780,0.3409927785396576,6.016386032104492,70,8124.0,1.727798342704773,-50,9909.0
6790,0.3411659598350525,7.876534938812256,135,8124.0,1.5519553422927856,89,9909.0
6800,0.3419365882873535,11.228435516357422,242,8124.0,-0.8306042551994324,-47,9909.0
6810,0.3420436382293701,8.137788772583008,8,8124.0,0.9162923097610474,-62,9909.0
6820,0.34210747480392456,4.740504741668701,7,8124.0,3.960353374481201,162,9909.0
6830,0.3421688675880432,-2.6766297817230225,70,8124.0,1.0147534608840942,94,9909.0
6840,0.3417591154575348,-2.4400269985198975,-78,8124.0,2.1832938194274902,4,9909.0
6850,0.3418169915676117,-3.1120259761810303,-11,8124.0,4.687998294830322,183,9909.0
6860,0.3418688476085663,-2.06415057182312,77,8124.0,0.9449876546859741,3,9909.0
6870,0.34195828437805176,0.5839163064956665,-98,8124.0,3.0836687088012695,-145,9909.0
6880,0.34208571910858154,5.042877197265625,-165,8124.0,1.7474603652954102,-9,9909.0
6890,0.3421113193035126,6.393093109130859,125,8124.0,-6.123546600341797,149,9909.0
6900,0.342231810092926,6.213071346282959,47,8124.0,0.9590246081352234,25,9909.0
6910,0.34238946437835693,7.490201950073242,80,8124.0,3.4450619220733643,102,9909.0
6920,0.34253451228141785,8.247298240661621,211,8124.0,3.5150299072265625,186,9909.0
6930,0.34358644485473633,5.735965251922607,110,8124.0,0.06111845746636391,17,9909.0
6940,0.34379562735557556,4.0810675621032715,-92,8124.0,0.26579099893569946,-52,9909.0
6950,0.34400448203086853,-0.8044396638870239,35,8124.0,1.1889805793762207,57,9909.0
6960,0.3441690504550934,1.622499704360962,29,8124.0,-0.6339312195777893,36,9909.0
6970,0.34432253241539,-0.9737553000450134,-122,8124.0,0.34748575091362,15,9909.0
6980,0.34470492601394653,-1.310544490814209,25,8124.0,-2.311891794204712,218,9909.0
6990,0.34481674432754517,3.4271371364593506,287,8124.0,4.347601890563965,45,9909.0
7000,0.34494495391845703,-1.3784819841384888,-30,8124.0,4.159440994262695,-34,9909.0
7010,0.3450559675693512,2.047484874725342,-4,8124.0,2.9479641914367676,145,9909.0
7020,0.34466707706451416,2.2557995319366455,98,8124.0,5.9221367835998535,65,9909.0
7030,0.34471648931503296,3.867227554321289,-29,8124.0,3.9523818492889404,-112,9909.0
7040,0.344737708568573,1.1738168001174927,-127,8124.0,-0.9828901290893555,35,9909.0
7050,0.34476107358932495,1.9964405298233032,147,8124.0,-5.481244087219238,255,9909.0
7060,0.34528854489326477,-1.322481393814087,-82,8124.0,-3.3125784397125244,-44,9909.0
7070,0.34534433484077454,0.8481776714324951,48,8124.0,-5.489416122436523,-74,9909.0
7080,0.34540846943855286,2.5194079875946045,87,8124.0,-3.5687544345855713,-75,9909.0
7090,0.3454282581806183,3.273871660232544,-44,8124.0,-2.4803383350372314,-184,9909.0
7100,0.345446914434433,4.618875026702881,47,8124.0,-3.7921035289764404,-70,9909.0
7110,0.34565162658691406,3.992271661758423,188,8124.0,-1.767094612121582,170,9909.0
7120,0.3457733988761902,4.367008209228516,-5,8124.0,10.564482688903809,148,9909.0
7130,0.34581825137138367,8.129642486572266,4,8124.0,3.4072024822235107,113,9909.0
7140,0.34587034583091736,4.490640163421631,113,8124.0,7.527410507202148,222,9909.0
7150,0.3451547920703888,3.582324743270874,41,8124.0,6.97303581237793,-18,9909.0
7160,0.34510111808776855,2.899129629135132,-113,8124.0,2.6928727626800537,-12,9909.0
7170,0.34502673149108887,3.5498580932617188,136,8124.0,-4.687134742736816,168,9909.0
7180,0.34494808316230774,2.7270560264587402,207,8124.0,1.699857473373413,119,9909.0
7190,0.34486719965934753,4.717499256134033,97,8124.0,0.10737205296754837,-34,9909.0
7200,0.34640809893608093,5.937720775604248,190,8124.0,3.9319167137145996,61,9909.0
7210,0.3464363217353821,7.211826324462891,196,8124.0,4.535820960998535,37,9909.0
7220,0.34655362367630005,7.923671245574951,35,8124.0,5.451207637786865,-81,9909.0
7230,0.346666544675827,7.158522605895996,-31,8124.0,3.0126638412475586,78,9909.0
7240,0.34645283222198486,2.7626001834869385,114,8124.0,7.895355224609375,39,9909.0
7250,0.3464931845664978,1.873771071434021,31,8124.0,2.25014591217041,-84,9909.0
7260,0.34650152921676636,-3.540118455886841,-138,8124.0,-0.5547729730606079,28,9909.0
7270,0.3465142846107483,-4.539280891418457,-52,8124.0,2.672532796859741,100,9909.0
7280,0.3470994234085083,-1.6596388816833496,-79,8124.0,-0.0006133137503638864,-75,9909.0
7290,0.34722650051116943,1.8108842372894287,-57,8124.0,-4.215290546417236,-19,9909.0
7300,0.34741610288619995,-0.5444862246513367,117,8124.0,-3.959105968475342,106,9909.0
7310,0.34766897559165955,-0.1283562034368515,98,8124.0,-4.097986221313477,-170,9909.0
7320,0.3478721082210541,-1.6605137586593628,-108,8124.0,-7.378709316253662,-255,9909.0
7330,0.34611907601356506,-0.6431741118431091,33,8124.0,-5.671677589416504,-54,9909.0
7340,0.34654146432876587,-0.6053656935691833,46,8124.0,-1.0780973434448242,-115,9909.0
7350,0.3467042148113251,1.980565071105957,-6,8124.0,0.707541286945343,-5,9909.0
7360,0.3471563458442688,2.8305234909057617,173,8124.0,2.243678569793701,59,9909.0
7370,0.3468942940235138,7.279914379119873,161,8124.0,-0.6816898584365845,-112,9909.0
7380,0.34713485836982727,9.004974365234375,-18,8124.0,2.6274800300598145,-31,9909.0
7390,0.3473562002182007,8.604692459106445,227,8124.0,-3.201277017593384,53,9909.0
7400,0.3475230038166046,7.924276828765869,294,8124.0,4.5743727684021,31,9909.0
7410,0.3477631211280823,5.660353660583496,-3,8124.0,7.535217761993408,-24,9909.0
7420,0.34797969460487366,4.317253112792969,78,8124.0,6.0605292320251465,51,9909.0
7430,0.34821638464927673,7.243157386779785,114,8124.0,4.251303195953369,61,9909.0
7440,0.3484606146812439,8.925366401672363,73,8124.0,3.655963659286499,25,9909.0
7450,0.3487401604652405,11.90219783782959,216,8124.0,-0.3724084496498108,170,9909.0
7460,0.34940627217292786,9.766295433044434,299,8124.0,4.776581287384033,18,9909.0
7470,0.34982946515083313,5.904760837554932,8,8124.0,1.4521582126617432,-207,9909.0
7480,0.35017967224121094,4.023092746734619,-17,8124.0,-0.7684099674224854,16,9909.0
7490,0.35051608085632324,2.310251474380493,122,8124.0,-1.61802339553833,-83,9909.0
7500,0.3512839376926422,0.024131007492542267,-10,8124.0,-0.6715021729469299,-2,9909.0
7510,0.3516530990600586,-0.0035877148620784283,82,8124.0,1.745961308479309,24,9909.0
7520,0.35203444957733154,1.753920316696167,72,8124.0,1.8085381984710693,-78,9909.0
7530,0.3524526357650757,1.9084035158157349,-113,8124.0,-2.096543788909912,-141,9909.0
7540,0.3528375029563904,3.224159002304077,87,8124.0,-3.477985143661499,38,9909.0
7550,0.35324299335479736,2.0500853061676025,205,8124.0,-1.2740918397903442,-51,9909.0
7560,0.35359811782836914,0.8694186210632324,-43,8124.0,-4.479189395904541,-142,9909.0
7570,0.3539852201938629,1.2489230632781982,-4,8124.0,-4.433624744415283,-12,9909.0
7580,0.35434669256210327,0.4450285732746124,15,8124.0,-0.38141149282455444,-92,9909.0
7590,0.35398465394973755,5.441096782684326,44,8124.0,-6.553168773651123,-95,9909.0
7600,0.3543017506599426,3.221982002258301,160,8124.0,-2.1164376735687256,78,9909.0
7610,0.3546217978000641,3.10603928565979,0,8124.0,-2.754944324493408,-200,9909.0
7620,0.3549455404281616,0.739008367061615,-120,8124.0,-1.0277372598648071,-60,9909.0
7630,0.35553210973739624,-3.510319232940674,93,8124.0,-1.6271414756774902,122,9909.0
7640,0.35587355494499207,-2.715379476547241,-65,8124.0,-1.835842251777649,-39,9909.0
7650,0.3561745584011078,-2.234992504119873,-39,8124.0,-0.18586339056491852,75,9909.0
7660,0.3564157485961914,-2.196834087371826,0,8124.0,3.106160879135132,-17,9909.0
7670,0.35663309693336487,-2.120713949203491,-165,8124.0,0.3260411024093628,222,9909.0
7680,0.3576797842979431,-4.022621154785156,41,8124.0,1.6656851768493652,-82,9909.0
7690,0.3578658998012543,-3.857469320297241,-214,8124.0,-0.9674508571624756,-58,9909.0
7700,0.35800814628601074,-3.149806022644043,-34,8124.0,-1.5923727750778198,80,9909.0
7710,0.35814884305000305,-2.997636556625366,-10,8124.0,1.2478511333465576,19,9909.0
7720,0.3581618368625641,-1.3282907009124756,-2,8124.0,-1.6993869543075562,-28,9909.0
7730,0.3582822382450104,-0.9150159358978271,82,8124.0,-3.3619816303253174,-112,9909.0
7740,0.3583984673023224,2.880434989929199,12,8124.0,-5.885278701782227,-300,9909.0
7750,0.35854485630989075,2.3190834522247314,-71,8124.0,2.6959166526794434,172,9909.0
7760,0.35864847898483276,-0.9531002044677734,186,8124.0,6.648883819580078,115,9909.0
7770,0.3576827347278595,0.6421359777450562,6,8124.0,4.433141231536865,-50,9909.0
7780,0.35769912600517273,-0.5374873876571655,-14,8124.0,7.97341775894165,149,9909.0
7790,0.3576815128326416,-0.7123356461524963,-26,8124.0,4.9695539474487305,35,9909.0
7800,0.35769370198249817,-0.4975588619709015,-85,8124.0,0.7445812821388245,20,9909.0
7810,0.3558398187160492,-0.32049718499183655,32,8124.0,-2.909723997116089,127,9909.0
7820,0.3558100759983063,-4.231215953826904,25,8124.0,-5.378540515899658,-172,9909.0
7830,0.35579541325569153,-5.11847448348999,-211,8124.0,-5.077993869781494,-162,9909.0
7840,0.35574737191200256,-9.899394035339355,-99,8124.0,0.6366729140281677,55,9909.0
7850,0.35617393255233765,-5.522076606750488,-113,8124.0,-1.9243242740631104,-72,9909.0
7860,0.356133371591568,-4.305720806121826,-97,8124.0,-0.16056835651397705,91,9909.0
7870,0.35608500242233276,-2.50410795211792,91,8124.0,2.4124183654785156,118,9909.0
7880,0.3560645282268524,-3.3633430004119873,-58,8124.0,3.7321529388427734,-102,9909.0
7890,0.3560689389705658,-1.3264163732528687,-147,8124.0,8.080068588256836,87,9909.0
7900,0.3552878499031067,-0.3533255457878113,75,8124.0,1.847847819328308,221,9909.0
7910,0.3552933931350708,-0.2900182604789734,19,8124.0,2.3997857570648193,17,9909.0
7920,0.35531049966812134,-0.03647436946630478,-59,8124.0,-0.3128891587257385,-8,9909.0
7930,0.35537102818489075,-1.2756415605545044,55,8124.0,-5.285793781280518,-97,9909.0
7940,0.3568525016307831,-0.6284351944923401,-61,8124.0,-8.019009590148926,-258,9909.0
7950,0.3570452034473419,-0.76682049036026,-139,8124.0,-5.107489585876465,-63,9909.0
7960,0.3572668433189392,-3.586560010910034,54,8124.0,-1.4974039793014526,80,9909.0
7970,0.35755136609077454,-3.5435495376586914,40,8124.0,-1.5640220642089844,-211,9909.0
7980,0.3586624264717102,-0.7954721450805664,-60,8124.0,5.047067642211914,42,9909.0
7990,0.35902732610702515,-2.889249086380005,-21,8124.0,7.3048529624938965,127,9909.0
8000,0.3594355583190918,-1.5854610204696655,-116,8124.0,12.478631973266602,127,9909.0
8010,0.35986971855163574,-1.3844501972198486,-7,8124.0,9.972641944885254,295,9909.0
8020,0.36032965779304504,-1.6497693061828613,136,8124.0,5.714000701904297,79,9909.0
8030,0.35967355966567993,-1.3740240335464478,-56,8124.0,2.034466505050659,-137,9909.0
8040,0.3600444495677948,-1.1468628644943237,-68,8124.0,-3.9372332096099854,10,9909.0
8050,0.3604130148887634,-2.871582508087158,62,8124.0,-4.230025291442871,-20,9909.0
8060,0.3607809841632843,-2.0218493938446045,-52,8124.0,-3.1254472732543945,-63,9909.0
8070,0.36030134558677673,-2.2430381774902344,40,8124.0,0.7790693044662476,103,9909.0
8080,0.3605702817440033,-1.9503507614135742,14,8124.0,-0.3962256908416748,-185,9909.0
8090,0.36086592078208923,-1.7886691093444824,-252,8124.0,-1.59612238407135,33,9909.0
8100,0.3612091839313507,-3.543131113052368,21,8124.0,6.733947277069092,161,9909.0
8110,0.36149072647094727,-0.7862358689308167,-28,8124.0,3.4258337020874023,71,9909.0
8120,0.36152809858322144,-0.32969558238983154,-15,8124.0,3.7961606979370117,100,9909.0
8130,0.36172184348106384,0.9950435161590576,98,8124.0,1.3817908763885498,-5,9909.0
8140,0.3619205951690674,3.8620822429656982,-25,8124.0,1.2206093072891235,-178,9909.0
8150,0.3620571196079254,1.8139938116073608,-66,8124.0,-1.0685679912567139,67,9909.0
8160,0.3633032441139221,0.5667037963867188,132,8124.0,-3.7910561561584473,-34,9909.0
8170,0.36348819732666016,1.344610571861267,-39,8124.0,-1.2185629606246948,-58,9909.0
8180,0.3636282682418823,1.3135666847229004,50,8124.0,-6.516764163970947,-12,9909.0
8190,0.36377206444740295,0.5677811503410339,21,8124.0,3.213955879211426,-20,9909.0
8200,0.36389753222465515,0.6184700131416321,-96,8124.0,-3.559394598007202,-106,9909.0
8210,0.3648794889450073,-1.163053035736084,7,8124.0,-3.018937349319458,137,9909.0
8220,0.3650270104408264,-0.29184672236442566,21,8124.0,-0.8402302861213684,-87,9909.0
8230,0.36518594622612,-1.653865098953247,-107,8124.0,-3.1183767318725586,-13,9909.0
8240,0.3653627634048462,-4.473169326782227,-30,8124.0,0.21173198521137238,-5,9909.0
8250,0.36573392152786255,-3.4038872718811035,-114,8124.0,-3.1021931171417236,-172,9909.0
8260,0.3659120798110962,-3.512587308883667,-113,8124.0,-3.9401118755340576,70,9909.0
8270,0.36607617139816284,-1.2782139778137207,128,8124.0,-4.120552062988281,69,9909.0
8280,0.36624523997306824,-0.5929636359214783,-38,8124.0,0.057377271354198456,-121,9909.0
8290,0.3666316866874695,1.9461277723312378,50,8124.0,3.8043508529663086,83,9909.0
8300,0.3667565882205963,3.441053628921509,115,8124.0,3.2579827308654785,0,9909.0
8310,0.3668542504310608,4.403409481048584,114,8124.0,4.1065897941589355,237,9909.0
8320,0.3669581115245819,7.961861610412598,216,8124.0,0.919796884059906,7,9909.0
8330,0.36706432700157166,2.5750725269317627,-39,8124.0,5.0869293212890625,17,9909.0
8340,0.36831483244895935,5.589470386505127,99,8124.0,-5.236823081970215,23,9909.0
8350,0.3684726357460022,4.886668682098389,23,8124.0,-0.8904412984848022,-134,9909.0
8360,0.36864590644836426,0.6503418684005737,-51,8124.0,-3.2482526302337646,64,9909.0
8370,0.36879757046699524,-1.2485560178756714,206,8124.0,-3.6654324531555176,-86,9909.0
8380,0.3689385950565338,-1.7678951025009155,-142,8124.0,-7.835536003112793,-214,9909.0
8390,0.3690395653247833,-5.354625225067139,-83,8124.0,-7.720597267150879,-83,9909.0
8400,0.3691420257091522,-7.636015892028809,-155,8124.0,-1.6681331396102905,-109,9909.0
8410,0.3692147135734558,-5.358250141143799,-136,8124.0,-1.4499865770339966,72,9909.0
8420,0.368807315826416,-5.4271650314331055,46,8124.0,3.341933012008667,206,9909.0
8430,0.3688683807849884,-2.1261067390441895,-61,8124.0,3.433544397354126,-72,9909.0
8440,0.3689602315425873,-1.228918433189392,-57,8124.0,1.6440092325210571,64,9909.0
8450,0.3690342903137207,-1.1608412265777588,32,8124.0,-0.11640646308660507,-54,9909.0
8460,0.3690789043903351,1.8337903022766113,-47,8124.0,-1.7765295505523682,-120,9909.0
8470,0.37065809965133667,0.5787137150764465,33,8124.0,1.0085930824279785,234,9909.0
8480,0.3707672357559204,0.8138126134872437,144,8124.0,-1.8981608152389526,6,9909.0
8490,0.37084031105041504,0.011595373973250389,-111,8124.0,1.568056344985962,36,9909.0
8500,0.3708840608596802,1.3201996088027954,18,8124.0,1.2499768733978271,92,9909.0
8510,0.37019965052604675,2.436237096786499,-4,8124.0,4.042890548706055,8,9909.0
8520,0.37020769715309143,2.4830431938171387,-25,8124.0,3.687070846557617,182,9909.0
8530,0.3702184557914734,1.2418482303619385,181,8124.0,2.72651743888855,216,9909.0
8540,0.37025609612464905,-0.3719709813594818,6,8124.0,0.021107450127601624,-109,9909.0
8550,0.37029391527175903,3.2760024070739746,-14,8124.0,-0.47327300906181335,-87,9909.0
8560,0.370177298784256,1.285809874534607,62,8124.0,2.4310824871063232,-4,9909.0
8570,0.3701535761356354,0.30907419323921204,-57,8124.0,0.4003053605556488,-178,9909.0
8580,0.37012577056884766,0.6282246112823486,-12,8124.0,-2.031895875930786,199,9909.0
8590,0.3700757920742035,-0.07230275124311447,165,8124.0,0.4584137499332428,-102,9909.0
8600,0.3707837462425232,-3.4918437004089355,-96,8124.0,-7.001773357391357,-174,9909.0
8610,0.37073642015457153,-2.398986339569092,-4,8124.0,-4.142394065856934,-17,9909.0
8620,0.37072089314460754,-2.5116562843322754,-83,8124.0,-4.0189528465271,-163,9909.0
8630,0.3706790804862976,-1.3778119087219238,-115,8124.0,-3.1673543453216553,-5,9909.0
8640,0.36961328983306885,-2.168599843978882,47,8124.0,2.865027666091919,148,9909.0
8650,0.3695064187049866,0.5188013911247253,12,8124.0,-2.474667549133301,-135,9909.0
8660,0.3694300055503845,0.6383312344551086,-24,8124.0,-1.6696480512619019,62,9909.0
8670,0.3693781793117523,-1.0694615840911865,69,8124.0,1.9050216674804688,6,9909.0
8680,0.3693121373653412,-0.3647076189517975,-101,8124.0,-0.21220508217811584,-173,9909.0
8690,0.36876294016838074,-1.7286450862884521,-22,8124.0,1.7177375555038452,134,9909.0
8700,0.3686702847480774,1.4268170595169067,151,8124.0,-3.266265630722046,-47,9909.0
8710,0.3685625493526459,-0.4790319800376892,-18,8124.0,2.090806007385254,33,9909.0
8720,0.3684617280960083,1.050079345703125,74,8124.0,-0.554711639881134,150,9909.0
8730,0.3689923882484436,1.0310516357421875,54,8124.0,3.740480422973633,-60,9909.0
8740,0.36891844868659973,2.989975929260254,-72,8124.0,-0.8233833909034729,-100,9909.0
8750,0.36881664395332336,3.7281980514526367,95,8124.0,0.2988942265510559,122,9909.0
8760,0.3687138855457306,1.718001365661621,18,8124.0,4.872167110443115,28,9909.0
8770,0.36862751841545105,1.9935266971588135,-46,8124.0,3.7307965755462646,159,9909.0
8780,0.36829495429992676,0.9015516638755798,129,8124.0,4.193924903869629,172,9909.0
8790,0.36823102831840515,3.9389359951019287,-29,8124.0,-0.943529486656189,-46,9909.0
8800,0.36818477511405945,-1.471939206123352,-103,8124.0,1.8557287454605103,49,9909.0
8810,0.36812007427215576,-4.309959888458252,-36,8124.0,-3.5947487354278564,-81,9909.0
8820,0.3684186637401581,-5.731869697570801,-193,8124.0,-4.694484710693359,-227,9909.0
8830,0.36837854981422424,-6.125324726104736,-136,8124.0,-4.613000392913818,25,9909.0
8840,0.3683937191963196,-4.695640563964844,36,8124.0,1.1934438943862915,-87,9909.0
8850,0.36839964985847473,-3.810616970062256,-106,8124.0,2.517035484313965,14,9909.0
8860,0.36841920018196106,0.11847320944070816,41,8124.0,4.778431415557861,245,9909.0
8870,0.36869052052497864,-1.7822269201278687,61,8124.0,3.4933507442474365,46,9909.0
8880,0.36877572536468506,2.5457022190093994,-89,8124.0,7.226714611053467,159,9909.0
8890,0.36886128783226013,0.5960869789123535,-12,8124.0,7.345422267913818,244,9909.0
8900,0.368969589471817,-0.500076174736023,-61,8124.0,2.372701644897461,13,9909.0
8910,0.36985230445861816,-0.38575059175491333,-84,8124.0,4.143308639526367,126,9909.0
8920,0.3700125217437744,-0.4458073079586029,-49,8124.0,1.6471213102340698,-191,9909.0
8930,0.37015122175216675,0.809705913066864,-154,8124.0,-3.2348318099975586,-12,9909.0
8940,0.3703392446041107,-2.3267016410827637,21,8124.0,-5.054277420043945,-21,9909.0
8950,0.36917415261268616,-2.566692352294922,-105,8124.0,-5.0195207595825195,-127,9909.0
8960,0.3692677617073059,-2.8581764698028564,37,8124.0,-4.631771087646484,55,9909.0
8970,0.3693702220916748,-2.1322081089019775,88,8124.0,-1.2738581895828247,-63,9909.0
8980,0.36951103806495667,-2.9524149894714355,-144,8124.0,4.373917579650879,-63,9909.0
8990,0.3697740137577057,-0.126170352101326,21,8124.0,-5.617133617401123,-10,9909.0
9000,0.3699997365474701,0.2862488031387329,-47,8124.0,-0.34978577494621277,-76,9909.0
9010,0.37012556195259094,1.28292977809906,-20,8124.0,1.7189005613327026,270,9909.0
9020,0.37024399638175964,-1.8190451860427856,110,8124.0,0.9096134305000305,4,9909.0
9030,0.37038370966911316,1.0158945322036743,-39,8124.0,2.4451093673706055,6,9909.0
9040,0.3707057237625122,0.969341516494751,65,8124.0,0.24067147076129913,-10,9909.0
9050,0.3708230257034302,1.8305792808532715,-26,8124.0,2.165480852127075,-148,9909.0
9060,0.3709419071674347,0.48850733041763306,-14,8124.0,2.0692272186279297,133,9909.0
9070,0.37102338671684265,-2.9936015605926514,103,8124.0,-1.2524620294570923,-47,9909.0
9080,0.37191057205200195,3.4966695308685303,-2,8124.0,-3.2986929416656494,-96,9909.0
9090,0.37197011709213257,3.501002550125122,98,8124.0,-4.690817356109619,3,9909.0
9100,0.3720252215862274,5.4554667472839355,0,8124.0,-5.479025840759277,-236,9909.0
9110,0.37215256690979004,8.65333080291748,84,8124.0,-5.332694053649902,151,9909.0
9120,0.37218576669692993,7.296747207641602,225,8124.0,-1.0155752897262573,-74,9909.0
9130,0.3713681399822235,6.5498046875,113,8124.0,-0.9444802403450012,3,9909.0
9140,0.3713265359401703,6.6731672286987305,198,8124.0,-3.1496591567993164,-12,9909.0
9150,0.37129300832748413,1.9294726848602295,-68,8124.0,3.6261520385742188,-86,9909.0
9160,0.371235728263855,-0.31192514300346375,-50,8124.0,4.7306718826293945,149,9909.0
9170,0.3707038164138794,-2.7159080505371094,-22,8124.0,4.5633463859558105,57,9909.0
9180,0.37059512734413147,-3.8150112628936768,-106,8124.0,2.372170925140381,129,9909.0
9190,0.3704841136932373,-6.15252685546875,82,8124.0,0.2763417065143585,-49,9909.0
9200,0.37037554383277893,-7.18341064453125,-225,8124.0,-2.3320553302764893,-158,9909.0
9210,0.37025725841522217,-3.0333034992218018,-72,8124.0,-2.317079544067383,-7,9909.0
9220,0.3700292706489563,-1.0213431119918823,-6,8124.0,-2.8230369091033936,-116,9909.0
9230,0.36990317702293396,2.2512238025665283,-50,8124.0,-2.16793155670166,107,9909.0
9240,0.36975717544555664,3.261013984680176,204,8124.0,1.748258352279663,87,9909.0
9250,0.36963051557540894,4.748193264007568,-2,8124.0,5.332711219787598,-106,9909.0
9260,0.37004828453063965,3.938309669494629,52,8124.0,6.22382926940918,134,9909.0
9270,0.3698715269565582,2.9570391178131104,74,8124.0,5.321871757507324,16,9909.0
9280,0.36973080039024353,4.0095953941345215,-49,8124.0,4.232534885406494,51,9909.0
9290,0.36955761909484863,3.1982908248901367,107,8124.0,0.8165048956871033,126,9909.0
9300,0.3699943721294403,0.9041322469711304,-10,8124.0,3.287527084350586,34,9909.0
9310,0.36983904242515564,-2.1034114360809326,-47,8124.0,8.33536434173584,249,9909.0
9320,0.369686096906662,-1.3811228275299072,58,8124.0,9.657007217407227,123,9909.0
9330,0.36949706077575684,-1.2465931177139282,-75,8124.0,7.31117057800293,5,9909.0
9340,0.36931678652763367,-3.727566719055176,-78,8124.0,5.183495044708252,248,9909.0
9350,0.3706061542034149,-2.8566250801086426,7,8124.0,3.9853081703186035,28,9909.0
9360,0.37055647373199463,-1.5925265550613403,-113,8124.0,6.296692371368408,117,9909.0
9370,0.3705042898654938,0.4829051196575165,130,8124.0,-1.0430066585540771,124,9909.0
9380,0.3704572319984436,-0.5169532299041748,14,8124.0,-2.590857744216919,-177,9909.0
9390,0.3706412613391876,0.6063456535339355,-132,8124.0,-7.392497539520264,-144,9909.0
9400,0.37061017751693726,1.2482775449752808,55,8124.0,-4.484135627746582,-11,9909.0
9410,0.37055009603500366,1.1025885343551636,-26,8124.0,-2.9999735355377197,-105,9909.0
9420,0.3704894185066223,0.6335657835006714,9,8124.0,-4.364136219024658,126,9909.0
9430,0.37045788764953613,1.552927017211914,272,8124.0,-0.14998243749141693,-16,9909.0
9440,0.37107327580451965,5.284343719482422,118,8124.0,2.45466947555542,-140,9909.0
9450,0.3711143136024475,5.26901912689209,102,8124.0,6.9912590980529785,125,9909.0
9460,0.3711777925491333,5.948571681976318,117,8124.0,3.962803840637207,-54,9909.0
9470,0.37128058075904846,1.9180222749710083,-114,8124.0,3.357266426086426,51,9909.0
9480,0.3700104355812073,0.9404643774032593,113,8124.0,3.2291195392608643,25,9909.0
9490,0.37002941966056824,1.4286082983016968,-35,8124.0,1.6491485834121704,-65,9909.0
9500,0.3700562119483948,0.10155296325683594,46,8124.0,-1.6323152780532837,100,9909.0
9510,0.37009382247924805,1.9296849966049194,42,8124.0,-5.932929039001465,-195,9909.0
9520,0.3701210021972656,-0.7806554436683655,-117,8124.0,-2.9230737686157227,-44,9909.0
9530,0.3704822361469269,-0.13039498031139374,1,8124.0,3.161503314971924,-24,9909.0
9540,0.37050339579582214,1.304334044456482,13,8124.0,-0.5095484256744385,98,9909.0
9550,0.37053996324539185,1.2246571779251099,160,8124.0,0.6924643516540527,-25,9909.0
9560,0.3705654442310333,4.261220932006836,-93,8124.0,-1.6825249195098877,-127,9909.0
9570,0.3715148866176605,0.7333317995071411,9,8124.0,-3.3021438121795654,3,9909.0
9580,0.37153542041778564,-0.03668977692723274,-36,8124.0,-1.673958659172058,-126,9909.0
9590,0.3715490400791168,-0.02375132404267788,-82,8124.0,-2.419576406478882,0,9909.0
9600,0.37154436111450195,-0.30644461512565613,149,8124.0,-7.14085054397583,-104,9909.0
9610,0.37169957160949707,-2.5303750038146973,-88,8124.0,-0.5471242070198059,23,9909.0
9620,0.37167879939079285,-2.4994146823883057,17,8124.0,-3.0565271377563477,46,9909.0
9630,0.37169012427330017,-1.6785451173782349,-39,8124.0,-1.4653815031051636,-160,9909.0
9640,0.3717220723628998,-5.3572096824646,-170,8124.0,-3.902758836746216,1,9909.0
9650,0.3717341125011444,-1.0731793642044067,-17,8124.0,-1.8927918672561646,-79,9909.0
9660,0.370620459318161,0.7463193535804749,-67,8124.0,-0.9960265755653381,1,9909.0
9670,0.3705504536628723,-2.575906991958618,48,8124.0,0.8357855081558228,166,9909.0
9680,0.3704920709133148,-5.3242268562316895,-20,8124.0,-1.4379043579101562,-86,9909.0
9690,0.37044766545295715,0.36515769362449646,-4,8124.0,-1.4252136945724487,67,9909.0
9700,0.3698500394821167,-1.0555022954940796,56,8124.0,0.05466478317975998,-124,9909.0
9710,0.36980050802230835,1.2746829986572266,-148,8124.0,-0.9287257790565491,17,9909.0
9720,0.36976465582847595,0.47514036297798157,93,8124.0,-1.546506643295288,53,9909.0
9730,0.3697425127029419,1.2779747247695923,-35,8124.0,0.5488578677177429,-6,9909.0
9740,0.3701990246772766,-1.1188610792160034,12,8124.0,0.06945846974849701,167,9909.0
9750,0.37019625306129456,-1.5858758687973022,-25,8124.0,-0.8276144862174988,-48,9909.0
9760,0.3702274560928345,-0.9112384915351868,-93,8124.0,-0.4687165915966034,-23,9909.0
9770,0.37031593918800354,0.2554086446762085,44,8124.0,-2.374316692352295,-83,9909.0
9780,0.3704165816307068,-0.021377747878432274,-119,8124.0,-1.4324251413345337,-84,9909.0
9790,0.3707534074783325,-0.5460494160652161,-23,8124.0,-6.300864219665527,25,9909.0
9800,0.3708992302417755,1.7857354879379272,33,8124.0,-1.2225359678268433,-40,9909.0
9810,0.3710985481739044,1.1373335123062134,42,8124.0,-0.6326125264167786,64,9909.0
9820,0.37127187848091125,1.0685263872146606,82,8124.0,-0.4912467300891876,-77,9909.0
9830,0.370468407869339,-2.438112735748291,-107,8124.0,1.176815390586853,-10,9909.0
9840,0.37054622173309326,-1.3812507390975952,44,8124.0,1.4696232080459595,11,9909.0
9850,0.3706277906894684,-0.9862627387046814,-95,8124.0,2.798875570297241,-26,9909.0
9860,0.3707348704338074,-1.6173151731491089,78,8124.0,0.7121379375457764,106,9909.0
9870,0.3708542585372925,-1.8732532262802124,5,8124.0,1.0631953477859497,-175,9909.0
9880,0.3702140152454376,-2.209989547729492,-5,8124.0,0.16098523139953613,-8,9909.0
9890,0.37024733424186707,-1.4103673696517944,-10,8124.0,-3.0090019702911377,-156,9909.0
9900,0.37026944756507874,1.2877427339553833,-82,8124.0,-1.6826767921447754,-15,9909.0
9910,0.3702843189239502,-0.10427001863718033,111,8124.0,-2.358625650405884,30,9909.0
9920,0.3693687319755554,1.5140061378479004,28,8124.0,-2.606520175933838,-66,9909.0
9930,0.36925235390663147,0.7595859169960022,107,8124.0,0.04017122462391853,62,9909.0
9940,0.36910223960876465,0.835374653339386,-15,8124.0,5.426435947418213,-92,9909.0
9950,0.3689446449279785,-0.691578209400177,11,8124.0,0.768792986869812,23,9909.0
9960,0.36848437786102295,-2.3772175312042236,-47,8124.0,1.7476063966751099,-55,9909.0
9970,0.3682764768600464,-2.3232836723327637,-106,8124.0,0.29577648639678955,66,9909.0
9980,0.36806485056877136,-5.350919723510742,85,8124.0,-2.4945061206817627,2,9909.0
9990,0.3678590655326843,-4.401393890380859,-97,8124.0,-1.8635358810424805,-19,9909.0
10000,0.36766722798347473,-3.5422470569610596,-30,8124.0,1.8686147928237915,85,9909.0
10010,0.3684485852718353,-2.291186809539795,-2,8124.0,-0.5243168473243713,-181,9909.0
10020,0.368373304605484,-4.377592086791992,-97,8124.0,5.299090385437012,23,9909.0
10030,0.36831194162368774,3.5602524280548096,129,8124.0,0.21365855634212494,-16,9909.0
10040,0.3682626485824585,3.687979221343994,12,8124.0,0.6438981294631958,-28,9909.0
10050,0.36734333634376526,2.4851901531219482,133,8124.0,2.5777862071990967,175,9909.0
10060,0.3672999143600464,3.109984874725342,22,8124.0,2.1005821228027344,-102,9909.0
10070,0.3672371804714203,0.5481196641921997,-21,8124.0,7.0149712562561035,183,9909.0
10080,0.36721113324165344,0.070064976811409,80,8124.0,5.215450763702393,-70,9909.0
10090,0.3671608865261078,3.5454673767089844,-108,8124.0,1.0618016719818115,-60,9909.0
10100,0.36743292212486267,-0.6999053955078125,38,8124.0,2.208622932434082,54,9909.0
10110,0.3673478662967682,0.16803056001663208,10,8124.0,3.9457147121429443,-22,9909.0
10120,0.36729103326797485,-0.7975696325302124,85,8124.0,5.4210662841796875,244,9909.0
10130,0.3671956956386566,2.2592480182647705,-6,8124.0,8.222004890441895,21,9909.0
10140,0.36707913875579834,1.5492748022079468,36,8124.0,5.102352142333984,89,9909.0
10150,0.3669872581958771,0.49658048152923584,18,8124.0,6.940099239349365,19,9909.0
10160,0.36686763167381287,2.50018572807312,-19,8124.0,0.6947712302207947,98,9909.0
10170,0.3667685389518738,0.015659907832741737,152,8124.0,0.994718074798584,22,9909.0
10180,0.3666909635066986,1.4637548923492432,21,8124.0,0.632533073425293,-61,9909.0
10190,0.3659161627292633,-0.4381260275840759,31,8124.0,-0.4959045946598053,35,9909.0
10200,0.365809828042984,-1.387050747871399,-30,8124.0,-3.54129958152771,-266,9909.0
10210,0.36574041843414307,-3.114830255508423,-177,8124.0,0.8632104992866516,104,9909.0
10220,0.3657148480415344,-0.8118419647216797,-13,8124.0,-6.496813774108887,-56,9909.0
10230,0.3654390871524811,-1.4100712537765503,-83,8124.0,1.0335086584091187,-31,9909.0
10240,0.36544114351272583,0.052156876772642136,60,8124.0,1.6915593147277832,172,9909.0
10250,0.3654468059539795,-2.016110420227051,23,8124.0,-0.7787670493125916,-54,9909.0
10260,0.36548885703086853,0.6957488059997559,-30,8124.0,0.9525455236434937,68,9909.0
10270,0.36652079224586487,-1.281563639640808,49,8124.0,1.821580410003662,4,9909.0
10280,0.36671504378318787,-0.7232543230056763,-140,8124.0,1.0921733379364014,-113,9909.0
10290,0.3669004738330841,1.9997966289520264,32,8124.0,-0.31537768244743347,62,9909.0
10300,0.367116242647171,0.41427674889564514,-48,8124.0,-0.6536857485771179,14,9909.0
10310,0.3673277497291565,-0.35498350858688354,-17,8124.0,-0.12347233295440674,129,9909.0
10320,0.3686146140098572,-1.5035107135772705,126,8124.0,1.101585865020752,-51,9909.0
10330,0.3688787817955017,-1.4260491132736206,-122,8124.0,0.710838258266449,-12,9909.0
10340,0.36913394927978516,-3.2351694107055664,10,8124.0,1.7364987134933472,33,9909.0
10350,0.36941808462142944,-2.9538345336914062,-168,8124.0,3.425002336502075,-84,9909.0
10360,0.37072697281837463,-2.608485221862793,-61,8124.0,0.516586422920227,158,9909.0
10370,0.3710942566394806,-3.6374545097351074,-12,8124.0,-1.6430907249450684,-12,9909.0
10380,0.371465265750885,0.05008622631430626,-24,8124.0,2.4093616008758545,73,9909.0
10390,0.3718193769454956,0.7080143690109253,141,8124.0,2.2341701984405518,-22,9909.0
10400,0.3716825544834137,5.00460147857666,-68,8124.0,2.9496209621429443,-64,9909.0
10410,0.3719824552536011,4.520950794219971,128,8124.0,1.9915363788604736,126,9909.0
10420,0.3722463548183441,5.557620048522949,67,8124.0,3.3514909744262695,26,9909.0
10430,0.37248584628105164,5.225606918334961,181,8124.0,2.5722098350524902,109,9909.0
10440,0.37272968888282776,4.718399524688721,62,8124.0,-0.899479866027832,-177,9909.0
10450,0.3742753565311432,0.6185100078582764,-18,8124.0,-1.5613657236099243,21,9909.0
10460,0.37459659576416016,1.8000311851501465,17,8124.0,-4.304765224456787,-73,9909.0
10470,0.3748715817928314,0.5225074291229248,-53,8124.0,-3.372105360031128,-7,9909.0
10480,0.37513497471809387,-1.6588259935379028,142,8124.0,-4.500250816345215,-117,9909.0
10490,0.37563803791999817,2.5909173488616943,-58,8124.0,-5.0977959632873535,-130,9909.0
10500,0.37595608830451965,2.4602103233337402,77,8124.0,-2.5214457511901855,-65,9909.0
10510,0.3762663006782532,3.4182472229003906,-20,8124.0,-1.0749449729919434,-94,9909.0
10520,0.3765255808830261,3.472325086593628,115,8124.0,0.39793455600738525,172,9909.0
10530,0.3767126500606537,0.10820697247982025,19,8124.0,1.4566709995269775,-65,9909.0
10540,0.37694278359413147,0.23867733776569366,22,8124.0,-1.5532671213150024,-10,9909.0
10550,0.3770366907119751,-2.324498176574707,-67,8124.0,-0.27096372842788696,-168,9909.0
10560,0.37710288166999817,-2.408461570739746,-95,8124.0,-3.5160484313964844,71,9909.0
10570,0.37711337208747864,-5.8539581298828125,35,8124.0,-2.67000412940979,-47,9909.0
10580,0.3766206204891205,-3.9212865829467773,-74,8124.0,-0.3595542013645172,-1,9909.0
10590,0.3765490651130676,-1.2547281980514526,55,8124.0,-2.653655529022217,-96,9909.0
10600,0.3764685392379761,1.3107489347457886,-123,8124.0,-4.791451930999756,-60,9909.0
10610,0.3763710558414459,4.047826766967773,140,8124.0,-5.346677780151367,66,9909.0
10620,0.3741322159767151,3.607450008392334,79,8124.0,-1.6187050342559814,-51,9909.0
10630,0.37387996912002563,3.4517807960510254,142,8124.0,-0.7594435811042786,0,9909.0
10640,0.37360700964927673,6.225934982299805,134,8124.0,-1.122936725616455,-155,9909.0
10650,0.3733695447444916,7.362182140350342,10,8124.0,-4.47096586227417,-55,9909.0
10660,0.3731854557991028,7.376102924346924,154,8124.0,-4.881603240966797,-31,9909.0
10670,0.37290480732917786,4.484206676483154,10,8124.0,-10.188399314880371,-110,9909.0
10680,0.3726749122142792,2.2197484970092773,103,8124.0,-3.288384199142456,-1,9909.0
10690,0.3724019527435303,0.1815396547317505,-57,8124.0,-2.103940010070801,-226,9909.0
10700,0.3722267150878906,-1.8510006666183472,-147,8124.0,0.2523896396160126,108,9909.0
10710,0.37120047211647034,-1.609824538230896,-13,8124.0,-0.13529478013515472,-76,9909.0
10720,0.37096506357192993,-1.7851145267486572,-91,8124.0,1.8316750526428223,111,9909.0
10730,0.37072956562042236,-2.7123382091522217,120,8124.0,5.628970146179199,-112,9909.0
10740,0.37051334977149963,-1.1339449882507324,-104,8124.0,0.21345359086990356,54,9909.0
10750,0.37033072113990784,-1.8076930046081543,-9,8124.0,-2.602321147918701,-61,9909.0
10760,0.3696330189704895,-3.0188980102539062,-84,8124.0,-0.7618479132652283,11,9909.0
10770,0.36948105692863464,-1.2016286849975586,-118,8124.0,0.09844052046537399,103,9909.0
10780,0.3693070411682129,-1.3464425802230835,19,8124.0,-2.8604445457458496,-116,9909.0
10790,0.3692738711833954,-0.13111814856529236,-53,8124.0,-5.072275161743164,15,9909.0
10800,0.37066197395324707,-2.8856842517852783,32,8124.0,-4.003409385681152,-114,9909.0
10810,0.37066465616226196,-2.8492355346679688,-252,8124.0,-5.85863733291626,-126,9909.0
10820,0.37069565057754517,-1.9193516969680786,7,8124.0,-2.7924439907073975,40,9909.0
10830,0.37079405784606934,-0.7346800565719604,-39,8124.0,-0.55192631483078,-42,9909.0
10840,0.3701678514480591,-2.7618649005889893,7,8124.0,-0.5145426988601685,181,9909.0
10850,0.37030115723609924,1.4704959392547607,102,8124.0,3.6918747425079346,14,9909.0
10860,0.3704167902469635,-0.7134297490119934,-64,8124.0,4.480095386505127,91,9909.0
10870,0.37055397033691406,0.8380483388900757,27,8124.0,5.253203392028809,141,9909.0
10880,0.37072256207466125,0.3815312385559082,-81,8124.0,5.775058269500732,-19,9909.0
10890,0.3706302344799042,-2.3931281566619873,-70,8124.0,8.034651756286621,161,9909.0
10900,0.37080687284469604,-2.5036566257476807,60,8124.0,-2.423717975616455,-55,9909.0
10910,0.37099048495292664,-5.264578819274902,-114,8124.0,4.525903224945068,25,9909.0
10920,0.3711406886577606,-4.6251139640808105,9,8124.0,0.5530293583869934,74,9909.0
10930,0.37162014842033386,-2.8452541828155518,-70,8124.0,0.49479350447654724,-167,9909.0
10940,0.37177157402038574,-1.6247360706329346,-57,8124.0,3.097047805786133,65,9909.0
10950,0.3719542622566223,-2.4165375232696533,27,8124.0,-3.0499110221862793,-47,9909.0
10960,0.3721047341823578,-2.451446056365967,-73,8124.0,0.6709312796592712,31,9909.0
10970,0.3722679018974304,-2.24816632270813,75,8124.0,1.94851815700531,88,9909.0
10980,0.371888667345047,-2.6328930854797363,-72,8124.0,0.6994080543518066,-182,9909.0
10990,0.3719779849052429,-0.7635753154754639,-8,8124.0,0.9518954753875732,27,9909.0
11000,0.3720741868019104,-0.8657994866371155,-6,8124.0,3.4377570152282715,30,9909.0
11010,0.37221935391426086,-0.08431535959243774,-26,8124.0,3.2954232692718506,128,9909.0
11020,0.3718886971473694,-0.1024499461054802,120,8124.0,3.8571088314056396,77,9909.0
11030,0.37202218174934387,1.4823062419891357,-86,8124.0,1.883117914199829,-96,9909.0
11040,0.3721511960029602,1.2972627878189087,-3,8124.0,0.028848910704255104,177,9909.0
11050,0.37229257822036743,2.1158134937286377,51,8124.0,2.8337888717651367,83,9909.0
11060,0.37146490812301636,2.851116895675659,69,8124.0,-2.1844213008880615,41,9909.0
11070,0.3715136647224426,-0.6509547233581543,73,8124.0,1.7179237604141235,-132,9909.0
11080,0.3715265393257141,-2.657626152038574,-197,8124.0,1.6516278982162476,-85,9909.0
11090,0.3715325593948364,-3.1257660388946533,83,8124.0,-1.0780879259109497,118,9909.0
11100,0.37154269218444824,-4.1443400382995605,-42,8124.0,-2.019118070602417,-103,9909.0
11110,0.37212443351745605,-3.0625247955322266,-55,8124.0,-5.114287853240967,-48,9909.0
11120,0.37209856510162354,-1.1036386489868164,-32,8124.0,-3.679276466369629,-140,9909.0
11130,0.37202978134155273,0.4503187835216522,-85,8124.0,-1.3490722179412842,80,9909.0
11140,0.3719450533390045,-1.2151052951812744,156,8124.0,-1.1629600524902344,61,9909.0
11150,0.3730618357658386,0.13169799745082855,-108,8124.0,3.3499274253845215,-75,9909.0
11160,0.3730403482913971,2.914550304412842,31,8124.0,-0.7793394923210144,87,9909.0
11170,0.3730064034461975,0.6026938557624817,2,8124.0,2.5638999938964844,-1,9909.0
11180,0.37295740842819214,2.6297571659088135,21,8124.0,0.1861400455236435,101,9909.0
11190,0.3721451163291931,-0.705962061882019,95,8124.0,-0.18359293043613434,-57,9909.0
11200,0.37203243374824524,0.5103719234466553,-111,8124.0,4.69830846786499,-136,9909.0
11210,0.37188437581062317,2.47068190574646,64,8124.0,-4.833930969238281,85,9909.0
11220,0.3716913163661957,1.5289528369903564,52,8124.0,-0.1468181610107422,3,9909.0
11230,0.3714810907840729,2.45881986618042,12,8124.0,-2.010422706604004,93,9909.0
11240,0.36986541748046875,0.2723468244075775,70,8124.0,3.2378628253936768,-76,9909.0
11250,0.3695816695690155,1.1705060005187988,-115,8124.0,0.9917940497398376,-117,9909.0
11260,0.3693269193172455,-2.6464128494262695,-64,8124.0,2.7763373851776123,223,9909.0
11270,0.3690427243709564,-0.37171846628189087,70,8124.0,-0.9084045886993408,55,9909.0
11280,0.3684399425983429,0.4071648418903351,-70,8124.0,-3.8396542072296143,-80,9909.0
11290,0.3681000769138336,-1.2946994304656982,21,8124.0,-4.222710609436035,-56,9909.0
11300,0.36774560809135437,-2.5482234954833984,-76,8124.0,-4.317406177520752,-145,9909.0
11310,0.3674136698246002,0.3848167955875397,-53,8124.0,-7.374940395355225,26,9909.0
11320,0.36713269352912903,-1.1380352973937988,172,8124.0,-5.38076114654541,-13,9909.0
11330,0.36596712470054626,-0.8660708069801331,-38,8124.0,-0.8714390993118286,-197,9909.0
11340,0.3656565248966217,-1.3930076360702515,-12,8124.0,3.5870683193206787,60,9909.0
11350,0.36538028717041016,-1.9127103090286255,5,8124.0,3.2609267234802246,12,9909.0
11360,0.3651477098464966,-0.7673806548118591,-62,8124.0,5.735414981842041,220,9909.0
11370,0.3652585446834564,2.6778154373168945,97,8124.0,3.267007827758789,190,9909.0
11380,0.36505603790283203,3.7268035411834717,-3,8124.0,4.090357780456543,-276,9909.0
11390,0.3648656904697418,4.855710506439209,-13,8124.0,5.996802806854248,161,9909.0
11400,0.36471641063690186,2.0506649017333984,200,8124.0,-0.05012420937418938,13,9909.0
11410,0.36460942029953003,3.8715903759002686,35,8124.0,1.3653995990753174,-25,9909.0
11420,0.36553066968917847,2.189371109008789,79,8124.0,0.1851002722978592,48,9909.0
11430,0.3655431866645813,0.47052332758903503,76,8124.0,-1.9599497318267822,38,9909.0
11440,0.36560043692588806,-1.764228343963623,-132,8124.0,-4.016367435455322,-225,9909.0
11450,0.36569803953170776,-2.672914743423462,-95,8124.0,2.0902349948883057,181,9909.0
11460,0.3679291009902954,-3.593949556350708,103,8124.0,-2.3221750259399414,44,9909.0
11470,0.3681369423866272,-1.9207173585891724,-35,8124.0,0.1455986052751541,-125,9909.0
11480,0.36834609508514404,-0.49841541051864624,92,8124.0,-2.1423678398132324,21,9909.0
11490,0.3685401380062103,1.0863033533096313,106,8124.0,4.485983371734619,-20,9909.0
11500,0.3681255280971527,4.3031511306762695,-60,8124.0,5.705684661865234,42,9909.0
11510,0.3683333694934845,7.803365230560303,158,8124.0,2.1720001697540283,324,9909.0
11520,0.36855095624923706,10.183321952819824,217,8124.0,-0.9044979810714722,-70,9909.0
11530,0.3687797486782074,7.645707130432129,27,8124.0,0.9123266339302063,-127,9909.0
11540,0.3689610958099365,4.567041873931885,106,8124.0,-5.903179168701172,-74,9909.0
11550,0.36876440048217773,2.090458393096924,-38,8124.0,-3.596327781677246,-133,9909.0
11560,0.36896395683288574,0.5707179307937622,32,8124.0,-5.708879470825195,89,9909.0
11570,0.3691694736480713,-1.3979343175888062,80,8124.0,-2.471721887588501,-112,9909.0
11580,0.369342565536499,-1.6191673278808594,-85,8124.0,0.9294130802154541,127,9909.0
11590,0.36975741386413574,-2.5861575603485107,-33,8124.0,3.0394625663757324,58,9909.0
11600,0.36992573738098145,-3.3862357139587402,-122,8124.0,1.1175249814987183,-21,9909.0
11610,0.370068222284317,-4.863256931304932,30,8124.0,1.1520819664001465,134,9909.0
11620,0.3701615333557129,-5.343135833740234,-130,8124.0,5.461453437805176,65,9909.0
11630,0.3705397844314575,-3.6611740589141846,-95,8124.0,4.492429256439209,104,9909.0
11640,0.370628297328949,-2.9156229496002197,0,8124.0,6.076444149017334,21,9909.0
11650,0.3707083761692047,1.2519516944885254,-45,8124.0,1.6943457126617432,43,9909.0
11660,0.37078580260276794,2.9527785778045654,150,8124.0,-1.5001840591430664,88,9909.0
11670,0.3708922266960144,1.9258711338043213,43,8124.0,0.4241745173931122,-201,9909.0
11680,0.37028130888938904,4.332204341888428,-70,8124.0,-4.95761775970459,-45,9909.0
11690,0.37039780616760254,1.7836881875991821,124,8124.0,-2.278330087661743,34,9909.0
11700,0.370495468378067,2.54180908203125,-30,8124.0,-1.7111932039260864,-35,9909.0
11710,0.370564341545105,-0.2638440728187561,-9,8124.0,-1.378294825553894,173,9909.0
11720,0.3715857267379761,-1.5287503004074097,-14,8124.0,-1.2989933490753174,-201,9909.0
11730,0.37170082330703735,-2.590308904647827,-200,8124.0,-0.3749415874481201,-58,9909.0
11740,0.3717901408672333,-3.5001144409179688,66,8124.0,-0.8717635869979858,67,9909.0
11750,0.371894508600235,0.08104647696018219,-8,8124.0,0.5030838251113892,-13,9909.0
11760,0.3720390796661377,-1.2934478521347046,-28,8124.0,2.124107837677002,118,9909.0
11770,0.3742554485797882,-1.5543125867843628,-13,8124.0,2.5321462154388428,-1,9909.0
11780,0.3744884729385376,-0.32840967178344727,-147,8124.0,1.2773317098617554,43,9909.0
11790,0.3747224509716034,-6.074967384338379,-11,8124.0,7.801766872406006,194,9909.0
11800,0.37498313188552856,-2.253955841064453,-6,8124.0,5.918356895446777,-7,9909.0
11810,0.374006450176239,-0.31024864315986633,-20,8124.0,3.931370258331299,68,9909.0
11820,0.3741423189640045,0.6340293288230896,10,8124.0,4.073242664337158,46,9909.0
11830,0.37427380681037903,1.1208065748214722,-30,8124.0,-0.6219707727432251,-150,9909.0
11840,0.3744943141937256,0.03963654860854149,11,8124.0,-6.205320835113525,53,9909.0
11850,0.37459468841552734,2.327662467956543,153,8124.0,-3.8189783096313477,-93,9909.0
11860,0.3744138479232788,0.979596734046936,-66,8124.0,0.5229461193084717,-148,9909.0
11870,0.37448766827583313,1.677276849746704,16,8124.0,0.9535399079322815,75,9909.0
11880,0.3745369613170624,3.765218496322632,160,8124.0,-3.1466073989868164,-38,9909.0
11890,0.3745637536048889,1.7414608001708984,41,8124.0,1.2030833959579468,18,9909.0
11900,0.3755912780761719,1.9306237697601318,83,8124.0,2.4665210247039795,81,9909.0
11910,0.37565892934799194,0.9896190762519836,21,8124.0,3.8834643363952637,-98,9909.0
11920,0.3757219910621643,1.4851752519607544,-193,8124.0,1.3523057699203491,28,9909.0
11930,0.3757002055644989,-2.437884569168091,65,8124.0,5.663644313812256,106,9909.0
11940,0.3749863803386688,-0.26949599385261536,-24,8124.0,0.1738482415676117,-32,9909.0
11950,0.37490808963775635,-4.922216415405273,-119,8124.0,-2.720735549926758,-4,9909.0
11960,0.37482017278671265,-6.639654159545898,-5,8124.0,-0.7241580486297607,-74,9909.0
11970,0.3746790885925293,-7.422415733337402,-219,8124.0,-3.7278659343719482,-128,9909.0
11980,0.3745810389518738,-6.5400166511535645,25,8124.0,-0.06546720117330551,42,9909.0
11990,0.3751157224178314,-5.345278263092041,-117,8124.0,1.192556381225586,-227,9909.0
12000,0.37496256828308105,-2.2493820190429688,-120,8124.0,-1.6991230249404907,-54,9909.0
12010,0.37504297494888306,-1.0128142833709717,53,8124.0,-1.3190416097640991,14,9909.0
12020,0.37494224309921265,1.5332409143447876,28,8124.0,1.4300516843795776,-47,9909.0
12030,0.37531188130378723,3.0546369552612305,32,8124.0,-0.7470542788505554,-22,9909.0
12040,0.37519216537475586,3.9364802837371826,117,8124.0,-3.2362265586853027,-26,9909.0
12050,0.37512707710266113,2.0421254634857178,15,8124.0,2.4996049404144287,-221,9909.0
12060,0.37496694922447205,3.4772629737854004,-82,8124.0,-2.481313943862915,-59,9909.0
12070,0.37500908970832825,2.595320701599121,85,8124.0,-1.3169456720352173,78,9909.0
12080,0.3753218352794647,0.5644813776016235,25,8124.0,-0.23574133217334747,-113,9909.0
12090,0.3752244710922241,1.9973474740982056,30,8124.0,-2.6645169258117676,15,9909.0
12100,0.37523341178894043,1.0633656978607178,88,8124.0,-0.25862792134284973,-3,9909.0
12110,0.3752090632915497,1.2392370700836182,-85,8124.0,-0.6191670298576355,-115,9909.0
12120,0.3754112422466278,-5.350107192993164,-73,8124.0,-2.662921905517578,135,9909.0
12130,0.375266969203949,-0.4488396942615509,118,8124.0,5.712172508239746,8,9909.0
12140,0.37514379620552063,0.7652851343154907,-19,8124.0,1.4634120464324951,23,9909.0
12150,0.3750591576099396,0.21822161972522736,12,8124.0,-2.502575159072876,105,9909.0
12160,0.3741532564163208,-1.10770583152771,37,8124.0,-4.376014232635498,-133,9909.0
12170,0.37401083111763,-0.47005197405815125,-93,8124.0,-9.788230895996094,-265,9909.0
12180,0.37391456961631775,1.8842370510101318,14,8124.0,-15.454662322998047,51,9909.0
12190,0.3738826513290405,-0.3562088906764984,20,8124.0,1.420366644859314,-2,9909.0
12200,0.3737970292568207,-0.7725924849510193,-78,8124.0,-0.3450212776660919,97,9909.0
12210,0.37214958667755127,-3.3677642345428467,95,8124.0,3.9123857021331787,69,9909.0
12220,0.37216511368751526,-4.146108150482178,-94,8124.0,3.808305263519287,-6,9909.0
12230,0.3719524145126343,-3.4004554748535156,-51,8124.0,5.232699871063232,174,9909.0
12240,0.37194836139678955,-2.467710256576538,-16,8124.0,11.3638916015625,34,9909.0
12250,0.37067028880119324,-1.577635407447815,-196,8124.0,7.577805995941162,101,9909.0
12260,0.3706766664981842,-4.12322998046875,-60,8124.0,6.173948287963867,288,9909.0
12270,0.3704318702220917,-1.200796127319336,-11,8124.0,4.1272735595703125,63,9909.0
12280,0.3704952597618103,-0.9455170035362244,-45,8124.0,-0.12832170724868774,80,9909.0
12290,0.3703143000602722,-0.2876257002353668,76,8124.0,1.2412065267562866,82,9909.0
12300,0.36939871311187744,-1.2516498565673828,2,8124.0,5.540345191955566,-143,9909.0
12310,0.36916208267211914,1.9699105024337769,-97,8124.0,-0.22752395272254944,40,9909.0
12320,0.36916008591651917,4.511322021484375,73,8124.0,2.340912103652954,40,9909.0
12330,0.3690941333770752,0.5764153599739075,-28,8124.0,4.937539100646973,22,9909.0
12340,0.3682405948638916,0.3570893406867981,49,8124.0,5.771108150482178,264,9909.0
12350,0.36820217967033386,0.07710709422826767,144,8124.0,11.252047538757324,59,9909.0
12360,0.3681786060333252,2.3449978828430176,-79,8124.0,4.574520111083984,12,9909.0
12370,0.3681603968143463,0.31974101066589355,42,8124.0,9.322009086608887,147,9909.0
12380,0.36801061034202576,1.3055576086044312,56,8124.0,3.3679916858673096,-48,9909.0
12390,0.368008553981781,4.816786766052246,-26,8124.0,1.5770292282104492,19,9909.0
12400,0.36790886521339417,5.619872093200684,242,8124.0,-0.07056091725826263,75,9909.0
12410,0.36796677112579346,7.720275402069092,196,8124.0,-2.2606682777404785,-150,9909.0
12420,0.3679114282131195,7.255841255187988,2,8124.0,1.2337862253189087,80,9909.0
12430,0.36755403876304626,3.768714189529419,113,8124.0,-2.276337146759033,-45,9909.0
12440,0.36752161383628845,2.408313274383545,-68,8124.0,-0.012393532320857048,-69,9909.0
12450,0.3675073981285095,-0.7616848945617676,-59,8124.0,-5.741600036621094,28,9909.0
12460,0.36750558018684387,-1.6716338396072388,-14,8124.0,-0.6082023978233337,-20,9909.0
12470,0.36611029505729675,-1.746185541152954,-68,8124.0,-1.6648505926132202,51,9909.0
12480,0.3659898340702057,-2.0400390625,60,8124.0,1.6462055444717407,96,9909.0
12490,0.365926057100296,-1.6656712293624878,-133,8124.0,-3.40413761138916,-159,9909.0
12500,0.3658348619937897,-4.990375995635986,-69,8124.0,-6.302854537963867,-73,9909.0
12510,0.3657580614089966,-4.756000995635986,-31,8124.0,-6.400451183319092,-196,9909.0
12520,0.36542439460754395,-4.159808158874512,-154,8124.0,-8.972555160522461,-202,9909.0
12530,0.36539778113365173,-3.5494472980499268,-18,8124.0,-9.168582916259766,-26,9909.0
12540,0.36538463830947876,-1.8141636848449707,40,8124.0,-9.345080375671387,-211,9909.0
12550,0.36537986993789673,-4.405452728271484,-124,8124.0,-5.160661220550537,-82,9909.0
12560,0.36722055077552795,-4.169477939605713,-22,8124.0,-6.332804203033447,78,9909.0
12570,0.3673853874206543,-2.525667905807495,-159,8124.0,-4.348474979400635,-115,9909.0
12580,0.3675413131713867,-3.964231491088867,-130,8124.0,-1.6216965913772583,-51,9909.0
12590,0.36771753430366516,-1.4401029348373413,0,8124.0,1.5587445497512817,58,9909.0
12600,0.36718976497650146,-0.5905008316040039,-74,8124.0,4.526688098907471,8,9909.0
12610,0.3673359453678131,-1.629228949546814,86,8124.0,3.9011733531951904,162,9909.0
12620,0.36749306321144104,-2.484895944595337,-24,8124.0,0.046873994171619415,-67,9909.0
12630,0.367674857378006,-4.525068283081055,-186,8124.0,0.12534181773662567,-8,9909.0
12640,0.3678663969039917,-2.3662290573120117,-56,8124.0,-3.0121607780456543,29,9909.0
12650,0.367628812789917,-2.9194400310516357,-59,8124.0,0.41097477078437805,-129,9909.0
12660,0.36780214309692383,-0.7741459608078003,-100,8124.0,-2.7921271324157715,45,9909.0
12670,0.3679814040660858,1.5711050033569336,186,8124.0,-9.246408462524414,166,9909.0
12680,0.3681396245956421,-6.803075313568115,12,8124.0,5.205961227416992,-72,9909.0
12690,0.36933183670043945,1.0945965051651,-76,8124.0,0.8880341053009033,-86,9909.0
12700,0.36958047747612,4.155557632446289,97,8124.0,-2.496405839920044,14,9909.0
12710,0.36979445815086365,4.151686191558838,42,8124.0,1.2688461542129517,-71,9909.0
12720,0.3699537515640259,4.507108211517334,35,8124.0,3.3532607555389404,156,9909.0
12730,0.37009939551353455,1.9550838470458984,211,8124.0,2.108168125152588,15,9909.0
12740,0.3717268705368042,1.414563536643982,83,8124.0,1.1212310791015625,-232,9909.0
12750,0.3719141185283661,4.128808975219727,1,8124.0,-3.3825113773345947,-123,9909.0
12760,0.3720889091491699,1.9508029222488403,52,8124.0,-0.7638347744941711,-94,9909.0
12770,0.37225499749183655,0.8389729261398315,-55,8124.0,-2.8069801330566406,-108,9909.0
12780,0.3722486197948456,0.26063814759254456,34,8124.0,-5.613509178161621,105,9909.0
12790,0.37236109375953674,0.338472455739975,144,8124.0,-8.491072654724121,-187,9909.0
12800,0.37242570519447327,-0.24591407179832458,-25,8124.0,-4.480747222900391,-79,9909.0
12810,0.3724566102027893,2.77600359916687,118,8124.0,3.167607545852661,33,9909.0
12820,0.3722797632217407,4.221058368682861,12,8124.0,7.077072620391846,17,9909.0
12830,0.37223196029663086,4.094167709350586,60,8124.0,6.608285427093506,305,9909.0
12840,0.37218284606933594,4.100630283355713,153,8124.0,10.736631393432617,95,9909.0
12850,0.3721095323562622,3.414210319519043,-15,8124.0,5.339034080505371,61,9909.0
12860,0.3719978928565979,2.311145544052124,85,8124.0,4.322617530822754,6,9909.0
12870,0.3719577491283417,6.6137919425964355,25,8124.0,-5.329402923583984,-134,9909.0
12880,0.37188470363616943,3.821748971939087,21,8124.0,-5.263525009155273,107,9909.0
12890,0.37178343534469604,1.400980830192566,216,8124.0,-8.588090896606445,-242,9909.0
12900,0.37163305282592773,4.465387344360352,-18,8124.0,-8.928838729858398,-193,9909.0
12910,0.37127912044525146,3.6972479820251465,141,8124.0,-4.985805988311768,-79,9909.0
12920,0.37111151218414307,4.115989685058594,61,8124.0,-5.1176300048828125,-203,9909.0
12930,0.3709418475627899,4.076329231262207,99,8124.0,0.40087026357650757,127,9909.0
12940,0.3707599341869354,7.502372741699219,207,8124.0,5.253112316131592,76,9909.0
12950,0.3696224093437195,7.9246907234191895,101,8124.0,12.267388343811035,259,9909.0
12960,0.3694116771221161,7.175603866577148,238,8124.0,12.517354965209961,247,9909.0
12970,0.369204580783844,7.009004592895508,1,8124.0,16.1131649017334,112,9909.0
12980,0.36905956268310547,1.7485032081604004,49,8124.0,14.259391784667969,248,9909.0
12990,0.36881449818611145,-3.1711254119873047,-95,8124.0,7.975571632385254,11,9909.0
13000,0.3679288327693939,-6.503998756408691,-200,8124.0,1.0228739976882935,128,9909.0
13010,0.3676624298095703,-12.4337797164917,-41,8124.0,-3.5923101902008057,-89,9909.0
13020,0.3674086034297943,-10.595253944396973,-150,8124.0,-10.700026512145996,-264,9909.0
13030,0.36710625886917114,-5.424757957458496,-99,8124.0,-9.237249374389648,-145,9909.0
13040,0.36763888597488403,-6.4045586585998535,-91,8124.0,-11.61697006225586,-273,9909.0
13050,0.3674016296863556,-3.61784029006958,-150,8124.0,-9.886458396911621,-59,9909.0
13060,0.36717137694358826,-5.2774977684021,84,8124.0,-2.3370962142944336,-40,9909.0
13070,0.3669412136077881,-4.107532978057861,-122,8124.0,3.4634406566619873,-65,9909.0
13080,0.36671650409698486,-4.642293930053711,-4,8124.0,9.710967063903809,87,9909.0
13090,0.36709657311439514,-3.285783529281616,-80,8124.0,9.26502513885498,60,9909.0
13100,0.36689382791519165,-1.3914614915847778,-57,8124.0,7.283066272735596,253,9909.0
13110,0.3666899800300598,-2.5761470794677734,127,8124.0,6.796070575714111,29,9909.0
13120,0.3664867579936981,-1.6438581943511963,-89,8124.0,2.4968678951263428,-104,9909.0
13130,0.36540457606315613,-3.293764114379883,-44,8124.0,-1.0502266883850098,36,9909.0
13140,0.3651844263076782,-1.17603600025177,-63,8124.0,-5.008204936981201,-116,9909.0
13150,0.3649744689464569,-2.094580888748169,42,8124.0,-6.268650531768799,-49,9909.0
13160,0.36475870013237,-1.5456591844558716,54,8124.0,-5.895607948303223,-169,9909.0
13170,0.3645716905593872,-1.9095649719238281,-212,8124.0,-7.9316301345825195,-123,9909.0
13180,0.36420443654060364,-4.131384372711182,47,8124.0,-5.3558478355407715,33,9909.0
13190,0.36408087611198425,-4.436617851257324,-96,8124.0,-4.699951171875,-105,9909.0
13200,0.3640010356903076,-7.343039035797119,-104,8124.0,-0.46553945541381836,18,9909.0
13210,0.36388689279556274,-5.836708068847656,-173,8124.0,1.1578013896942139,-99,9909.0
13220,0.3646789491176605,-5.890073776245117,68,8124.0,1.2543593645095825,62,9909.0
13230,0.36469244956970215,-6.41583776473999,-178,8124.0,8.762706756591797,24,9909.0
13240,0.36471620202064514,-6.1142683029174805,-96,8124.0,5.836762428283691,146,9909.0
13250,0.3647443354129791,-5.379265308380127,-56,8124.0,6.8959574699401855,75,9909.0
13260,0.36410775780677795,-2.715970516204834,-39,8124.0,3.6074037551879883,148,9909.0
13270,0.36415842175483704,-0.006405667867511511,-1,8124.0,-0.5955424904823303,-111,9909.0
13280,0.36421677470207214,-0.27971094846725464,-75,8124.0,0.32479092478752136,65,9909.0
13290,0.3642285466194153,-0.7990629076957703,153,8124.0,0.010558855719864368,-38,9909.0
13300,0.3642728626728058,-0.5477746725082397,-104,8124.0,-4.552657127380371,-143,9909.0
13310,0.364983469247818,-1.6279296875,-13,8124.0,-6.121117115020752,-52,9909.0
13320,0.36507222056388855,0.11927314847707748,-12,8124.0,-8.4656400680542,-139,9909.0
13330,0.3652096092700958,-1.100588321685791,11,8124.0,-7.631776809692383,-30,9909.0
13340,0.3654197156429291,-0.18061599135398865,-121,8124.0,-6.664549827575684,-212,9909.0
13350,0.36500024795532227,-3.0462756156921387,-4,8124.0,-6.367186069488525,66,9909.0
13360,0.3651270568370819,-1.8163129091262817,27,8124.0,-9.860464096069336,-328,9909.0
13370,0.36523956060409546,-2.6155428886413574,-115,8124.0,-5.9871015548706055,-40,9909.0
13380,0.3653829097747803,-1.4805456399917603,-46,8124.0,-1.0183072090148926,-4,9909.0
13390,0.367561936378479,-0.19956572353839874,-10,8124.0,-0.18191616237163544,137,9909.0
13400,0.3678591847419739,-1.6003223657608032,14,8124.0,5.194146633148193,-62,9909.0
13410,0.36810556054115295,0.23005558550357819,-96,8124.0,4.179688930511475,161,9909.0
13420,0.36829841136932373,-1.6267257928848267,141,8124.0,6.927971839904785,24,9909.0
13430,0.3684721291065216,1.4905122518539429,-65,8124.0,0.9370456337928772,-9,9909.0
13440,0.36878082156181335,0.008730566129088402,13,8124.0,2.118136405944824,61,9909.0
13450,0.3689415454864502,0.8463252782821655,-33,8124.0,1.2599629163742065,14,9909.0
13460,0.36905357241630554,0.6182758808135986,77,8124.0,-1.6012587547302246,56,9909.0
13470,0.36906564235687256,4.085402488708496,-54,8124.0,-0.8097115755081177,-90,9909.0
13480,0.3690219521522522,2.250922441482544,86,8124.0,-5.910425186157227,91,9909.0
13490,0.36901023983955383,3.295681953430176,31,8124.0,-4.676992893218994,-268,9909.0
13500,0.36902013421058655,4.565738201141357,30,8124.0,-2.8125767707824707,68,9909.0
13510,0.3690285086631775,3.9595627784729004,119,8124.0,-3.038351058959961,-24,9909.0
13520,0.3690098822116852,4.992778778076172,65,8124.0,-1.5318655967712402,15,9909.0
13530,0.36932697892189026,4.500446796417236,64,8124.0,3.452868938446045,-79,9909.0
13540,0.36927530169487,4.055512428283691,-21,8124.0,-1.3285492658615112,139,9909.0
13550,0.36925140023231506,1.551133394241333,141,8124.0,0.03366612643003464,-85,9909.0
13560,0.36921241879463196,1.143389344215393,-146,8124.0,2.19917631149292,80,9909.0
13570,0.3694993257522583,1.3240907192230225,102,8124.0,-1.0830458402633667,133,9909.0
13580,0.369466096162796,1.855789303779602,14,8124.0,1.7586479187011719,40,9909.0
13590,0.3694361448287964,3.252410650253296,51,8124.0,2.7916641235351562,79,9909.0
13600,0.3694385588169098,2.545410394668579,-8,8124.0,1.979225516319275,-80,9909.0
13610,0.37005776166915894,2.7688395977020264,62,8124.0,0.6970974802970886,166,9909.0
13620,0.3701230585575104,1.4917105436325073,111,8124.0,-3.5982236862182617,-191,9909.0
13630,0.3701665699481964,1.9530045986175537,-74,8124.0,-1.7382168769836426,16,9909.0
13640,0.3701876997947693,-1.233489751815796,92,8124.0,-4.295458793640137,-39,9909.0
13650,0.37018322944641113,0.7778152823448181,-61,8124.0,-2.426041603088379,-123,9909.0
13660,0.3712941110134125,-0.04012639448046684,15,8124.0,0.2926290035247803,68,9909.0
13670,0.37133240699768066,1.5661500692367554,26,8124.0,2.482266664505005,15,9909.0
13680,0.3713417053222656,3.5848073959350586,81,8124.0,2.6333439350128174,109,9909.0
13690,0.3713371753692627,5.186954498291016,89,8124.0,4.053193092346191,30,9909.0
13700,0.37075939774513245,4.393316745758057,-26,8124.0,5.729907512664795,244,9909.0
13710,0.37067800760269165,7.410160064697266,259,8124.0,3.3528339862823486,57,9909.0
13720,0.3705124258995056,7.330517292022705,-22,8124.0,2.198479652404785,-43,9909.0
13730,0.3703623116016388,4.1096625328063965,120,8124.0,3.4296584129333496,225,9909.0
13740,0.37021496891975403,4.433894157409668,41,8124.0,1.1564922332763672,-238,9909.0
13750,0.3684002459049225,3.0186445713043213,-79,8124.0,-2.3865480422973633,67,9909.0
13760,0.3681125044822693,0.9580100178718567,142,8124.0,-4.749134063720703,-51,9909.0
13770,0.36779671907424927,4.042852401733398,17,8124.0,-6.228456020355225,-176,9909.0
13780,0.36748307943344116,6.0323405265808105,99,8124.0,-3.018872022628784,-12,9909.0
13790,0.3663342297077179,5.723239898681641,119,8124.0,-0.1327119916677475,-50,9909.0
13800,0.3660241663455963,6.904146671295166,191,8124.0,-1.900739073753357,20,9909.0
13810,0.3656982183456421,7.408955097198486,88,8124.0,0.281892329454422,22,9909.0
13820,0.36535465717315674,6.106743812561035,43,8124.0,5.9337077140808105,159,9909.0
13830,0.3650505244731903,2.551931142807007,-72,8124.0,3.6048500537872314,-108,9909.0
13840,0.36476242542266846,-2.8894851207733154,-62,8124.0,1.9327234029769897,188,9909.0
13850,0.3645256459712982,-6.3743414878845215,-52,8124.0,-2.0233306884765625,-184,9909.0
13860,0.3642626702785492,-5.246610641479492,-181,8124.0,-8.012312889099121,-122,9909.0
13870,0.36398330330848694,-10.024053573608398,18,8124.0,-5.3869218826293945,-36,9909.0
13880,0.36341285705566406,-7.667509078979492,-130,8124.0,-5.624129772186279,-178,9909.0
13890,0.36312881112098694,-3.3108749389648438,-63,8124.0,-3.3139219284057617,60,9909.0
13900,0.36289581656455994,-1.6706637144088745,7,8124.0,-1.1167798042297363,7,9909.0
13910,0.3626540005207062,0.9023597836494446,6,8124.0,1.9656306505203247,21,9909.0
13920,0.36300015449523926,1.1584866046905518,19,8124.0,2.1462137699127197,29,9909.0
13930,0.3627736568450928,2.219665765762329,-19,8124.0,0.8814824819564819,39,9909.0
13940,0.3625609874725342,3.1696248054504395,93,8124.0,-0.4353707432746887,24,9909.0
13950,0.3623390793800354,0.6389292478561401,2,8124.0,2.7808611392974854,-68,9909.0
13960,0.36220431327819824,1.6411933898925781,-44,8124.0,-2.0705885887145996,55,9909.0
13970,0.3632112443447113,1.291085124015808,146,8124.0,-2.5885236263275146,-159,9909.0
13980,0.36325186491012573,-0.12055789679288864,-120,8124.0,-2.7453725337982178,-219,9909.0
13990,0.3632884919643402,-2.7141408920288086,-5,8124.0,-1.9651767015457153,110,9909.0
14000,0.3633565306663513,-2.8538801670074463,16,8124.0,-0.0731109231710434,-136,9909.0
14010,0.3636491596698761,-1.3847103118896484,-152,8124.0,4.330177307128906,75,9909.0
14020,0.36372771859169006,-0.36817634105682373,125,8124.0,6.118310928344727,202,9909.0
14030,0.36379414796829224,-0.6460773944854736,-36,8124.0,5.817659854888916,-50,9909.0
14040,0.36387574672698975,0.38996610045433044,-24,8124.0,5.911800861358643,245,9909.0
14050,0.36434611678123474,-0.34697839617729187,100,8124.0,1.6098904609680176,-34,9909.0
14060,0.36445292830467224,0.9317699670791626,-49,8124.0,-0.21256978809833527,-79,9909.0
14070,0.36460113525390625,0.04207144305109978,36,8124.0,-0.9473304748535156,114,9909.0
14080,0.3647298812866211,1.7677690982818604,34,8124.0,-3.504967451095581,-131,9909.0
14090,0.3648303151130676,3.491987943649292,-32,8124.0,-4.1610822677612305,-32,9909.0
14100,0.3653215169906616,4.23267126083374,150,8124.0,0.11760475486516953,113,9909.0
14110,0.3653751015663147,5.331855297088623,80,8124.0,2.387110710144043,-27,9909.0
14120,0.3654627501964569,6.52562141418457,96,8124.0,0.9827255010604858,87,9909.0
14130,0.36563432216644287,7.567452430725098,187,8124.0,0.6457760334014893,52,9909.0
14140,0.36550241708755493,5.185544490814209,102,8124.0,6.240936279296875,65,9909.0
14150,0.3656509220600128,5.368767261505127,51,8124.0,7.024420738220215,192,9909.0
14160,0.36580225825309753,4.745301246643066,50,8124.0,2.818166732788086,55,9909.0
14170,0.3659821152687073,1.716582179069519,-9,8124.0,0.6273330450057983,26,9909.0
14180,0.3661596477031708,-2.152533531188965,26,8124.0,-2.462782621383667,-101,9909.0
14190,0.36619433760643005,-2.6735424995422363,-82,8124.0,-4.733120918273926,-159,9909.0
14200,0.36625799536705017,-3.0446386337280273,-61,8124.0,-4.689079284667969,32,9909.0
