timestamp,kalman.stateZ,gyro.x,gyro.xRaw,gyro.xVariance,gyro.y,gyro.yRaw,gyro.yVariance
0,0.29048803448677063,-0.10356324166059494,-6,8124.0,1.2048450708389282,23,9909.0
10,0.2904544174671173,0.10275048762559891,1,8124.0,1.3037108182907104,18,9909.0
20,0.29022544622421265,0.1814195215702057,-2,8124.0,0.7967203259468079,15,9909.0
30,0.2901821732521057,0.007367376238107681,-1,8124.0,0.6132315993309021,5,9909.0
40,0.29014310240745544,0.016416769474744797,3,8124.0,0.4698140621185303,10,9909.0
50,0.29010894894599915,0.13011686503887177,3,8124.0,0.14095468819141388,-2,9909.0
60,0.2900766134262085,-0.14966218173503876,-6,8124.0,-0.15579745173454285,-7,9909.0
70,0.2903684079647064,0.145456001162529,-1,8124.0,-0.2880329191684723,-3,9909.0
80,0.29034891724586487,-0.16309882700443268,1,8124.0,-0.8351426720619202,-12,9909.0
90,0.2903389036655426,0.1422196924686432,1,8124.0,-0.8089455366134644,-18,9909.0
100,0.29031920433044434,0.01601712964475155,3,8124.0,-0.9769778251647949,-17,9909.0
110,0.29094427824020386,0.2246159315109253,3,8124.0,-1.3599822521209717,-22,9909.0
120,0.29096078872680664,0.05378187447786331,1,8124.0,-1.445507526397705,-22,9909.0
130,0.2909815013408661,-0.07887054234743118,-7,8124.0,-1.476060390472412,-24,9909.0
140,0.2910115122795105,-0.19812802970409393,-8,8124.0,-1.7538208961486816,-30,9909.0
150,0.29104089736938477,-0.30700451135635376,-6,8124.0,-1.455605149269104,-24,9909.0
160,0.29101860523223877,0.0483723059296608,0,8124.0,-1.5831347703933716,-26,9909.0
170,0.29103782773017883,0.20496097207069397,3,8124.0,-1.401984691619873,-25,9909.0
180,0.2910690903663635,0.22768576443195343,7,8124.0,-1.8807615041732788,-27,9909.0
190,0.29107925295829773,0.06166130304336548,-1,8124.0,-1.5958515405654907,-23,9909.0
200,0.2902337908744812,-0.08974318206310272,-6,8124.0,-1.676795244216919,-28,9909.0
210,0.2902088761329651,0.11091739684343338,3,8124.0,-1.8805482387542725,-31,9909.0
220,0.29017403721809387,1.0746289491653442,26,8124.0,-2.259458303451538,-38,9909.0
230,0.29018718004226685,2.1273446083068848,24,8124.0,-3.7612392902374268,-67,9909.0
240,0.29017379879951477,1.7386621236801147,78,8124.0,-2.669895648956299,-53,9909.0
250,0.2902054488658905,3.4875359535217285,25,8124.0,-6.096004486083984,-73,9909.0
260,0.2902349829673767,7.9163618087768555,102,8124.0,-7.294558525085449,-133,9909.0
270,0.2902776896953583,7.07371711730957,154,8124.0,-6.751582145690918,-143,9909.0
280,0.29031243920326233,4.864438056945801,141,8124.0,-6.509408473968506,-151,9909.0
290,0.2906090319156647,4.587669849395752,108,8124.0,-6.933525085449219,-134,9909.0
300,0.2906756103038788,4.121994972229004,97,8124.0,-7.681355953216553,-113,9909.0
310,0.290793776512146,3.0023868083953857,54,8124.0,-6.8625993728637695,-102,9909.0
320,0.2908584177494049,4.805368900299072,92,8124.0,-3.7997076511383057,-48,9909.0
330,0.2901470959186554,3.4004297256469727,63,8124.0,-0.19187793135643005,-19,9909.0
340,0.2901665270328522,0.4021774232387543,12,8124.0,-0.7629757523536682,31,9909.0
350,0.2901651859283447,2.3240761756896973,30,8124.0,-0.8466317057609558,-41,9909.0
360,0.29017174243927,1.116857886314392,18,8124.0,1.6127897500991821,53,9909.0
371,0.29088282585144043,0.7414005398750305,37,8124.0,2.2979769706726074,-6,9909.0
380,0.2909565269947052,1.7324429750442505,20,8124.0,1.6833857297897339,102,9909.0
390,0.29104316234588623,1.445590853691101,63,8124.0,2.4757421016693115,-23,9909.0
400,0.29112714529037476,2.918804407119751,0,8124.0,1.2648704051971436,82,9909.0
410,0.29121339321136475,2.1661791801452637,81,8124.0,-0.45221444964408875,-18,9909.0
420,0.2923702597618103,1.8814727067947388,22,8124.0,1.061787486076355,-120,9909.0
430,0.2925047278404236,2.335627555847168,-42,8124.0,-1.6445058584213257,113,9909.0
440,0.2926349937915802,1.211016058921814,55,8124.0,-2.3317935466766357,-19,9909.0
450,0.29275232553482056,-0.13331365585327148,8,8124.0,-1.0968632698059082,-159,9909.0
460,0.2936972379684448,-0.5832158923149109,-47,8124.0,-0.7113484144210815,4,9909.0
470,0.2938888370990753,-0.8734185695648193,-16,8124.0,-3.092503547668457,108,9909.0
480,0.2940787076950073,-1.4651942253112793,7,8124.0,-2.1527528762817383,-57,9909.0
490,0.2942627966403961,-1.3098276853561401,-4,8124.0,0.7450855374336243,-197,9909.0
500,0.2944580912590027,-0.642203152179718,-55,8124.0,-1.6760300397872925,-33,9909.0
510,0.29324519634246826,0.38461098074913025,-123,8124.0,-1.692465901374817,184,9909.0
520,0.2933041453361511,0.21361956000328064,-64,8124.0,0.2971988916397095,254,9909.0
530,0.2933606207370758,-0.05445524677634239,37,8124.0,2.9490714073181152,66,9909.0
540,0.29343506693840027,-0.13488207757472992,142,8124.0,4.499137878417969,-128,9909.0
550,0.2941115200519562,0.6043437123298645,95,8124.0,4.034499168395996,-112,9909.0
561,0.29423415660858154,0.6731212139129639,-30,8124.0,3.811114549636841,40,9909.0
570,0.2943360209465027,-0.8239521384239197,-67,8124.0,3.8724865913391113,140,9909.0
580,0.2944296896457672,-1.5920867919921875,-98,8124.0,3.890279531478882,212,9909.0
590,0.2945493757724762,-3.4495928287506104,-91,8124.0,4.674145221710205,120,9909.0
600,0.29397985339164734,-3.137974262237549,-31,8124.0,5.467735290527344,-3,9909.0
610,0.29396912455558777,-0.8928398489952087,-35,8124.0,2.8841617107391357,-18,9909.0
620,0.2939737141132355,-0.5595175623893738,-33,8124.0,2.2411279678344727,31,9909.0
630,0.29406610131263733,0.526873767375946,58,8124.0,0.5411854982376099,57,9909.0
640,0.293672114610672,0.7445051074028015,56,8124.0,1.05000638961792,32,9909.0
650,0.293733686208725,0.46805739402770996,19,8124.0,0.1632050722837448,-75,9909.0
660,0.2938465476036072,2.738844871520996,10,8124.0,3.4873976707458496,-117,9909.0
670,0.2939707040786743,1.6839300394058228,19,8124.0,2.3118696212768555,-20,9909.0
680,0.29441002011299133,1.355603814125061,-79,8124.0,1.9450849294662476,-169,9909.0
690,0.29437896609306335,2.5651891231536865,-10,8124.0,-0.783890426158905,-7,9909.0
700,0.294281929731369,2.769814968109131,-79,8124.0,-0.20928092300891876,56,9909.0
710,0.2940995991230011,2.0370819568634033,-73,8124.0,-1.4329254627227783,128,9909.0
720,0.2939278781414032,0.5807543992996216,-55,8124.0,-2.6364212036132812,141,9909.0
730,0.29307088255882263,2.336707592010498,-24,8124.0,-1.824577808380127,83,9909.0
740,0.29294177889823914,0.7234164476394653,-16,8124.0,-3.2264082431793213,17,9909.0
750,0.2928205728530884,-1.1658681631088257,14,8124.0,-2.800412178039551,-42,9909.0
760,0.2926960289478302,-2.2382984161376953,13,8124.0,-2.782703399658203,-151,9909.0
770,0.29233404994010925,-3.102762222290039,50,8124.0,-2.0708975791931152,-225,9909.0
780,0.292193204164505,-4.137927532196045,97,8124.0,-0.9143345952033997,-266,9909.0
790,0.2921045422554016,-2.5053460597991943,102,8124.0,-0.8922375440597534,-287,9909.0
800,0.2921137809753418,-3.382216215133667,40,8124.0,-0.953480064868927,-272,9909.0
810,0.29212066531181335,0.4386287331581116,46,8124.0,0.6363400816917419,-235,9909.0
820,0.292226105928421,1.4168308973312378,37,8124.0,1.929659128189087,-148,9909.0
830,0.29235216975212097,-0.6138482093811035,-60,8124.0,0.9342586994171143,-49,9909.0
840,0.292491614818573,1.3283922672271729,-7,8124.0,3.2105419635772705,33,9909.0
850,0.29267939925193787,-0.8046556711196899,10,8124.0,0.9474769830703735,51,9909.0
860,0.29301002621650696,0.08803369849920273,80,8124.0,3.4719934463500977,32,9909.0
870,0.293170303106308,0.3560359477996826,40,8124.0,2.212582588195801,-16,9909.0
880,0.29326799511909485,0.4759001135826111,29,8124.0,1.3257079124450684,-128,9909.0
890,0.2933269739151001,3.1403262615203857,33,8124.0,3.1094002723693848,-145,9909.0
900,0.29280123114585876,1.193134069442749,-18,8124.0,1.1824984550476074,-255,9909.0
910,0.2926967442035675,2.0049777030944824,-2,8124.0,0.079376719892025,-130,9909.0
920,0.2926034927368164,1.7285252809524536,-21,8124.0,-1.55128812789917,-36,9909.0
930,0.29256725311279297,-1.3649228811264038,-60,8124.0,-4.998747825622559,2,9909.0
940,0.2925408184528351,0.49773722887039185,-38,8124.0,-5.2897820472717285,9,9909.0
950,0.29274243116378784,3.09090256690979,-111,8124.0,-3.308866262435913,29,9909.0
960,0.29276907444000244,1.97364342212677,-54,8124.0,-5.929473876953125,118,9909.0
970,0.2927539646625519,0.8707416653633118,-80,8124.0,-6.9970197677612305,165,9909.0
980,0.2927101254463196,-0.5683746933937073,-78,8124.0,-6.137234687805176,230,9909.0
990,0.2931853234767914,-1.118792176246643,-83,8124.0,-6.1615118980407715,226,9909.0
1000,0.2931830585002899,-1.5178136825561523,-69,8124.0,-3.994123935699463,193,9909.0
1010,0.2931773364543915,-2.7046406269073486,-40,8124.0,-1.8250211477279663,133,9909.0
1020,0.29315441846847534,-2.559709310531616,43,8124.0,0.19423449039459229,155,9909.0
1031,0.293452650308609,-1.3014353513717651,47,8124.0,4.2237749099731445,92,9909.0
1040,0.2934269309043884,-1.2541028261184692,62,8124.0,5.980635643005371,86,9909.0
1050,0.2934057116508484,-0.9744952917098999,55,8124.0,6.973079204559326,-9,9909.0
1061,0.2933950424194336,0.6706025004386902,-21,8124.0,8.730456352233887,31,9909.0
1070,0.29335275292396545,1.9728518724441528,-23,8124.0,6.360915184020996,83,9909.0
1080,0.2928188145160675,1.6273683309555054,16,8124.0,4.2374467849731445,85,9909.0
1090,0.2927856147289276,0.8861824870109558,123,8124.0,2.549846887588501,9,9909.0
1100,0.2927473485469818,0.9082747101783752,74,8124.0,1.5998705625534058,67,9909.0
1110,0.2927182912826538,3.312936782836914,18,8124.0,1.1541563272476196,9,9909.0
1120,0.29451099038124084,2.0959396362304688,50,8124.0,-1.3145416975021362,24,9909.0
1130,0.29488715529441833,3.1659605503082275,50,8124.0,-1.4575486183166504,46,9909.0
1140,0.2953839600086212,0.2480197250843048,55,8124.0,-2.61580228805542,22,9909.0
1150,0.29589200019836426,-0.861066460609436,117,8124.0,-2.2872583866119385,-39,9909.0
1160,0.2964244484901428,-0.43525564670562744,70,8124.0,-1.6917201280593872,-79,9909.0
1170,0.2955654263496399,-1.4857853651046753,45,8124.0,-0.015591023489832878,-79,9909.0
1180,0.2960118353366852,-2.287203550338745,108,8124.0,0.7553490996360779,-107,9909.0
1190,0.2964201271533966,-2.1107993125915527,133,8124.0,2.045253038406372,-68,9909.0
1200,0.2968195080757141,-2.583984136581421,132,8124.0,2.015861749649048,-72,9909.0
1210,0.2951185703277588,-1.6113643646240234,114,8124.0,1.7504806518554688,-125,9909.0
1220,0.2954593002796173,-1.7145909070968628,96,8124.0,2.7796342372894287,-140,9909.0
1230,0.29580914974212646,-1.5382903814315796,97,8124.0,2.99715518951416,-106,9909.0
1240,0.29619866609573364,-1.0666254758834839,127,8124.0,2.6313729286193848,-74,9909.0
1250,0.2965957522392273,0.29849931597709656,115,8124.0,3.0520784854888916,-47,9909.0
1260,0.29585447907447815,0.6190122961997986,59,8124.0,2.943830728530884,-107,9909.0
1270,0.2960945665836334,0.6552819609642029,59,8124.0,2.6060686111450195,-167,9909.0
1280,0.29637613892555237,1.026726484298706,53,8124.0,3.202697992324829,-178,9909.0
1290,0.2966762185096741,1.1012518405914307,117,8124.0,2.9765326976776123,-145,9909.0
1300,0.2967848479747772,-0.26886871457099915,122,8124.0,0.8946372270584106,-226,9909.0
1310,0.297301322221756,-1.9670568704605103,40,8124.0,-2.098121404647827,-159,9909.0
1320,0.29791349172592163,1.5058001279830933,78,8124.0,-0.5702925324440002,-66,9909.0
1330,0.2985777258872986,-0.8414111137390137,134,8124.0,-1.3377618789672852,-79,9909.0
1340,0.2975977063179016,0.5306059718132019,72,8124.0,-0.9619790315628052,-126,9909.0
1350,0.2981192171573639,0.4169093668460846,56,8124.0,-1.539940595626831,-120,9909.0
1360,0.29854610562324524,0.9686607718467712,33,8124.0,-0.9613885879516602,-111,9909.0
1370,0.2990115284919739,-0.4583055377006531,49,8124.0,-1.9700425863265991,-13,9909.0
1380,0.2994144856929779,-0.3524533808231354,13,8124.0,-0.683001697063446,-42,9909.0
1390,0.2995009124279022,-1.7541766166687012,2,8124.0,-0.6059585213661194,25,9909.0
1400,0.2997373044490814,-0.5239487290382385,52,8124.0,0.3415275812149048,25,9909.0
1410,0.29997947812080383,-0.0020674741826951504,104,8124.0,-0.8524833917617798,-34,9909.0
1420,0.30006787180900574,-0.6491139531135559,37,8124.0,1.0086849927902222,22,9909.0
1430,0.2972542345523834,2.114771604537964,69,8124.0,0.7288583517074585,132,9909.0
1440,0.2971518337726593,0.9008403420448303,-41,8124.0,-0.22037957608699799,177,9909.0
1450,0.2971358597278595,0.7614116668701172,-55,8124.0,-1.204618215560913,219,9909.0
1460,0.2971523702144623,1.104306697845459,-99,8124.0,-0.7985226511955261,112,9909.0
1470,0.29563605785369873,0.8834196925163269,-83,8124.0,-0.7544888854026794,-116,9909.0
1480,0.29569879174232483,0.352788507938385,-11,8124.0,-1.1864036321640015,-153,9909.0
1490,0.2957174479961395,-0.5565457940101624,56,8124.0,-1.501861333847046,-182,9909.0
1500,0.29571059346199036,-1.0026618242263794,88,8124.0,-0.5565839409828186,-165,9909.0
1510,0.295712411403656,0.2500256896018982,131,8124.0,-2.1064579486846924,-64,9909.0
1520,0.29588741064071655,-0.8398117423057556,17,8124.0,-2.4573473930358887,5,9909.0
1530,0.2960661053657532,0.032926205545663834,-65,8124.0,-1.4285210371017456,149,9909.0
1540,0.2963023781776428,-0.37201422452926636,-64,8124.0,-0.061737317591905594,134,9909.0
1550,0.29649990797042847,0.291827917098999,-42,8124.0,-0.6224948167800903,-32,9909.0
1560,0.2963707149028778,-1.3799498081207275,1,8124.0,0.760701596736908,-67,9909.0
1570,0.29646602272987366,0.2391737550497055,14,8124.0,0.10394880175590515,-90,9909.0
1580,0.2966800630092621,0.4955093264579773,18,8124.0,-0.6478798389434814,-21,9909.0
1590,0.29695796966552734,0.14362174272537231,72,8124.0,-1.448554515838623,27,9909.0
1600,0.2971545159816742,0.5644639134407043,47,8124.0,-2.4291343688964844,-89,9909.0
1610,0.2964242696762085,0.7581093907356262,-15,8124.0,-2.391068696975708,-27,9909.0
1620,0.29648178815841675,-0.6926800012588501,32,8124.0,-3.078131675720215,32,9909.0
1630,0.2964463531970978,0.9508270025253296,-59,8124.0,-4.131450176239014,24,9909.0
1640,0.2962494194507599,0.8840981125831604,-38,8124.0,0.472011536359787,51,9909.0
1650,0.29557621479034424,0.022653480991721153,-84,8124.0,1.4408724308013916,42,9909.0
1660,0.29538318514823914,-0.9438943862915039,-70,8124.0,-0.6328750252723694,35,9909.0
1670,0.2953639030456543,2.19258451461792,-6,8124.0,2.281787157058716,7,9909.0
1680,0.2953675091266632,-1.5149383544921875,57,8124.0,3.366565465927124,-169,9909.0
1691,0.29594698548316956,-1.130562663078308,70,8124.0,2.467517375946045,-148,9909.0
1700,0.29584407806396484,-1.6827151775360107,69,8124.0,1.2690510749816895,60,9909.0
1710,0.2957302927970886,-1.144324541091919,-50,8124.0,1.1432512998580933,229,9909.0
1720,0.2955673038959503,-0.13988012075424194,-79,8124.0,1.8090734481811523,224,9909.0
1730,0.2953612208366394,0.45249906182289124,-118,8124.0,1.257764220237732,55,9909.0
1740,0.2957839369773865,1.1884093284606934,-50,8124.0,2.599290609359741,-26,9909.0
1750,0.2955459952354431,0.37125179171562195,72,8124.0,2.1830122470855713,-91,9909.0
1760,0.29526278376579285,0.2781928479671478,73,8124.0,2.8828155994415283,-45,9909.0
1770,0.2950228154659271,-0.4433441162109375,5,8124.0,2.9646074771881104,90,9909.0
1780,0.29493120312690735,0.7449474334716797,-56,8124.0,-1.3786698579788208,113,9909.0
1790,0.29483291506767273,1.8416850566864014,43,8124.0,-2.7434401512145996,131,9909.0
1800,0.29467374086380005,2.324596881866455,59,8124.0,-1.52608060836792,-150,9909.0
1810,0.2944153845310211,2.4493863582611084,7,8124.0,0.21841171383857727,-80,9909.0
1820,0.29402074217796326,1.6474360227584839,60,8124.0,-1.3510308265686035,41,9909.0
1830,0.29399850964546204,0.4757213592529297,2,8124.0,-0.735024631023407,-5,9909.0
1840,0.293674111366272,-0.3602805733680725,11,8124.0,-1.305582880973816,-39,9909.0
1850,0.2933728098869324,-1.620238184928894,6,8124.0,-1.010589361190796,-33,9909.0
1860,0.2930135428905487,-1.7400394678115845,-21,8124.0,-1.545457363128662,64,9909.0
1870,0.2943473756313324,-1.3383172750473022,-35,8124.0,-1.2454599142074585,146,9909.0
1880,0.2938782572746277,-0.6860305070877075,-142,8124.0,1.0373355150222778,-30,9909.0
1890,0.2934173047542572,0.6717334389686584,21,8124.0,0.7460156679153442,-62,9909.0
1900,0.2930510342121124,-0.9420242309570312,159,8124.0,1.7795186042785645,-66,9909.0
1911,0.29437255859375,0.07328357547521591,-41,8124.0,0.2551497220993042,109,9909.0
1920,0.29416680335998535,1.2299084663391113,-58,8124.0,-0.25444504618644714,137,9909.0
1930,0.29391977190971375,0.25802481174468994,-88,8124.0,0.909827709197998,21,9909.0
1940,0.29360970854759216,0.07003447413444519,78,8124.0,1.2327804565429688,-196,9909.0
1950,0.2932845652103424,-0.34058162569999695,99,8124.0,0.1842418909072876,-89,9909.0
1960,0.2928387522697449,0.5590772032737732,26,8124.0,-1.3010677099227905,188,9909.0
1970,0.2924887537956238,1.1717711687088013,-91,8124.0,-1.0119104385375977,83,9909.0
1980,0.2921091616153717,1.3852156400680542,-10,8124.0,-0.43427425622940063,-120,9909.0
1990,0.2916679382324219,1.2546135187149048,94,8124.0,-0.6071727871894836,-124,9909.0
2000,0.29348939657211304,2.342560291290283,103,8124.0,-1.953003168106079,49,9909.0
2010,0.29318222403526306,0.9556930661201477,-60,8124.0,-0.6604893207550049,12,9909.0
2020,0.2928568720817566,-1.9270685911178589,-9,8124.0,-0.6994350552558899,7,9909.0
2030,0.29245561361312866,-1.4368104934692383,-6,8124.0,-0.548905074596405,-62,9909.0
2040,0.291939914226532,-2.528791904449463,-59,8124.0,0.08867014944553375,-45,9909.0
2050,0.292106568813324,-2.3070085048675537,-32,8124.0,-1.0894310474395752,16,9909.0
2060,0.29135286808013916,0.4080762267112732,-20,8124.0,-0.41611984372138977,46,9909.0
2070,0.2906133532524109,2.075470447540283,30,8124.0,0.8485830426216125,35,9909.0
2080,0.2900022864341736,2.237602472305298,-5,8124.0,-1.463926076889038,-65,9909.0
2090,0.2915048897266388,2.131838798522949,138,8124.0,-0.3110511302947998,-156,9909.0
2100,0.29127228260040283,2.2673428058624268,91,8124.0,-1.9571377038955688,7,9909.0
2110,0.29114586114883423,2.0910677909851074,-36,8124.0,-2.035007953643799,163,9909.0
2120,0.29101431369781494,-0.6915932893753052,-88,8124.0,0.9580886363983154,-84,9909.0
2130,0.29210716485977173,-2.386317729949951,53,8124.0,3.362946033477783,-158,9909.0
2140,0.29195815324783325,-1.658759355545044,67,8124.0,0.7612084150314331,110,9909.0
2150,0.29176872968673706,-1.0139833688735962,-56,8124.0,3.5728790760040283,168,9909.0
2160,0.29155877232551575,-0.19625672698020935,-111,8124.0,2.731757164001465,23,9909.0
2170,0.29132843017578125,-0.9779874682426453,58,8124.0,2.022679567337036,-64,9909.0
2180,0.29255083203315735,-1.217764139175415,-4,8124.0,1.4635108709335327,35,9909.0
2190,0.2923617362976074,-1.6638778448104858,-67,8124.0,1.0179027318954468,96,9909.0
2200,0.29211604595184326,-1.6621570587158203,-1,8124.0,-0.5062997937202454,-101,9909.0
2210,0.2918713390827179,1.9871363639831543,52,8124.0,-0.8644716739654541,-136,9909.0
2220,0.2930053770542145,2.6220405101776123,65,8124.0,-3.318498134613037,1,9909.0
2230,0.2929631471633911,3.3519632816314697,51,8124.0,-4.152721405029297,4,9909.0
2240,0.293009489774704,2.139207124710083,5,8124.0,-2.993840456008911,-83,9909.0
2250,0.2931627035140991,0.977948009967804,31,8124.0,-3.1751997470855713,-23,9909.0
2260,0.29342523217201233,2.1595077514648438,13,8124.0,-3.514192819595337,-136,9909.0
2270,0.2959459125995636,-0.4082779586315155,63,8124.0,-1.803335428237915,-96,9909.0
2280,0.296242356300354,-0.4857753813266754,-25,8124.0,-0.8143799901008606,189,9909.0
2290,0.29641830921173096,-0.5594813823699951,-85,8124.0,1.0176708698272705,161,9909.0
2300,0.29653429985046387,-1.9990450143814087,-103,8124.0,2.3788740634918213,-59,9909.0
2310,0.29724428057670593,-3.7985026836395264,57,8124.0,5.271751880645752,-16,9909.0
2320,0.2974366843700409,-2.783249855041504,38,8124.0,5.0261054039001465,54,9909.0
2330,0.2976539731025696,-2.8489837646484375,-70,8124.0,5.21382999420166,244,9909.0
2340,0.2979174554347992,-0.9112751483917236,-90,8124.0,2.086191415786743,132,9909.0
2350,0.2969511151313782,-0.2813437581062317,56,8124.0,1.970961093902588,-103,9909.0
2360,0.2973332405090332,1.277927279472351,128,8124.0,1.451029658317566,-104,9909.0
2370,0.29782429337501526,2.6547462940216064,73,8124.0,-1.4428290128707886,129,9909.0
2380,0.29838594794273376,3.959169387817383,-19,8124.0,-4.438387870788574,31,9909.0
2390,0.2989499866962433,4.328236103057861,0,8124.0,-5.213179588317871,-155,9909.0
2400,0.2982540428638458,2.360938310623169,85,8124.0,-5.275170803070068,-155,9909.0
2410,0.29861924052238464,1.9738322496414185,36,8124.0,-6.021051406860352,-95,9909.0
2420,0.29893359541893005,1.2121371030807495,-16,8124.0,-6.874759197235107,-58,9909.0
2430,0.29929009079933167,-0.5659998059272766,-28,8124.0,-5.444329261779785,-134,9909.0
2440,0.2994775176048279,-1.8600507974624634,31,8124.0,-2.1604363918304443,78,9909.0
2450,0.30010631680488586,-1.6099416017532349,-95,8124.0,-1.3061912059783936,160,9909.0
2460,0.30074501037597656,-0.48629695177078247,-123,8124.0,-0.26568716764450073,98,9909.0
2470,0.30126628279685974,-1.7721043825149536,30,8124.0,5.822113513946533,91,9909.0
2480,0.30163538455963135,-3.052257537841797,-10,8124.0,6.3535847663879395,-51,9909.0
2490,0.2988475561141968,-3.188730001449585,35,8124.0,7.243060111999512,-30,9909.0
2500,0.29900413751602173,-1.691697359085083,49,8124.0,6.298403263092041,94,9909.0
2510,0.29920461773872375,-0.1952708512544632,-43,8124.0,4.567558288574219,269,9909.0
2520,0.29942309856414795,1.6768676042556763,-46,8124.0,3.695230484008789,216,9909.0
2530,0.29710710048675537,3.041642427444458,-26,8124.0,2.9497954845428467,-98,9909.0
2540,0.2972196042537689,1.9081926345825195,125,8124.0,-0.0001925843971548602,-181,9909.0
2550,0.2973215878009796,1.9274929761886597,146,8124.0,-3.520996570587158,-90,9909.0
2560,0.2974087595939636,3.3008968830108643,48,8124.0,-5.407226085662842,34,9909.0
2570,0.29576748609542847,2.495460033416748,-39,8124.0,-5.455819129943848,-43,9909.0
2580,0.2958502769470215,1.1822290420532227,-50,8124.0,-4.6372222900390625,-101,9909.0
2590,0.29597169160842896,-1.0311709642410278,91,8124.0,-4.677087783813477,-173,9909.0
2600,0.2961456775665283,-0.18549992144107819,23,8124.0,-4.726561546325684,-142,9909.0
2610,0.29634523391723633,-1.1287413835525513,-45,8124.0,-3.921623706817627,41,9909.0
2620,0.29670897126197815,-2.1601288318634033,-52,8124.0,-1.1589312553405762,75,9909.0
2630,0.2967514097690582,-1.7114036083221436,-42,8124.0,-1.0767271518707275,46,9909.0
2640,0.29678261280059814,-2.5332071781158447,-59,8124.0,2.1536288261413574,29,9909.0
2650,0.296793669462204,-1.2037817239761353,-13,8124.0,1.8111276626586914,-39,9909.0
2660,0.29573944211006165,-0.790644645690918,114,8124.0,2.8207929134368896,-106,9909.0
2670,0.29585501551628113,0.04458143934607506,91,8124.0,2.185983419418335,36,9909.0
2680,0.29594072699546814,2.4445457458496094,-14,8124.0,1.4053252935409546,268,9909.0
2690,0.2959243655204773,2.6702535152435303,-91,8124.0,1.3183174133300781,42,9909.0
2700,0.2957962155342102,0.9414250254631042,-3,8124.0,2.083035707473755,-134,9909.0
2710,0.2965568006038666,-0.9563907980918884,121,8124.0,0.9590662121772766,-130,9909.0
2720,0.296561598777771,-0.10155948996543884,84,8124.0,-1.4756189584732056,62,9909.0
2730,0.29664573073387146,0.0262567400932312,-100,8124.0,-2.5316104888916016,95,9909.0
2740,0.2967795729637146,-0.9553162455558777,-91,8124.0,-1.4522267580032349,-2,9909.0
2750,0.29703328013420105,-1.5106526613235474,56,8124.0,-2.3707215785980225,-235,9909.0
2760,0.29724520444869995,-1.0064420700073242,70,8124.0,-2.849489212036133,-68,9909.0
2770,0.2975001931190491,0.4507179260253906,-6,8124.0,-3.8618860244750977,108,9909.0
2780,0.2978014647960663,0.3086966872215271,-57,8124.0,-1.698851466178894,10,9909.0
2790,0.2961229085922241,0.5317894816398621,33,8124.0,0.6694739460945129,-109,9909.0
2800,0.2963049113750458,1.5162022113800049,61,8124.0,0.8620415329933167,0,9909.0
2810,0.2964012324810028,0.959246039390564,41,8124.0,3.537921667098999,82,9909.0
2820,0.29641401767730713,0.6121084690093994,-18,8124.0,3.5717365741729736,3,9909.0
2830,0.296374648809433,0.1445014774799347,6,8124.0,1.6734083890914917,121,9909.0
2840,0.29618796706199646,-0.2685302495956421,-62,8124.0,3.3295364379882812,49,9909.0
2850,0.2962263524532318,-0.8634536266326904,-26,8124.0,2.4315881729125977,-66,9909.0
2860,0.29633745551109314,-2.293482780456543,101,8124.0,1.695692539215088,-78,9909.0
2870,0.2964940369129181,-1.5151761770248413,49,8124.0,2.1085519790649414,85,9909.0
2880,0.29686787724494934,0.5732596516609192,-124,8124.0,1.9335353374481201,137,9909.0
2890,0.29700127243995667,0.14733189344406128,-82,8124.0,-0.15897133946418762,-16,9909.0
2900,0.2970397472381592,-0.16275013983249664,94,8124.0,0.6107401847839355,-176,9909.0
2910,0.2970525026321411,0.26172900199890137,75,8124.0,-1.7530452013015747,-20,9909.0
2921,0.2954697906970978,1.5576958656311035,-20,8124.0,-2.0666399002075195,174,9909.0
2930,0.29540640115737915,2.6744160652160645,-78,8124.0,-1.5417824983596802,-47,9909.0
2940,0.29531851410865784,1.101586103439331,83,8124.0,-0.10270325094461441,-216,9909.0
2950,0.2951925992965698,0.5735599398612976,94,8124.0,-0.496171772480011,1,9909.0
2960,0.2950461208820343,-0.5126731395721436,-20,8124.0,-0.8695237040519714,102,9909.0
2970,0.2944810390472412,-0.6627634167671204,-119,8124.0,-0.7423076033592224,25,9909.0
2980,0.29438987374305725,-1.4406559467315674,26,8124.0,1.3264970779418945,-2,9909.0
2990,0.2943785488605499,-1.008697271347046,21,8124.0,1.1765776872634888,-16,9909.0
3000,0.29443103075027466,0.2691354751586914,-15,8124.0,0.4312826693058014,118,9909.0
3010,0.2962817847728729,1.3860129117965698,6,8124.0,-1.2203588485717773,13,9909.0
3020,0.2962438762187958,0.01222502812743187,38,8124.0,-0.727301299571991,-83,9909.0
3030,0.29602521657943726,0.5047118067741394,-15,8124.0,-0.7594178915023804,-10,9909.0
3040,0.29562729597091675,0.25515636801719666,47,8124.0,-1.636165976524353,-56,9909.0
3050,0.29509803652763367,1.1047567129135132,-8,8124.0,-1.963096022605896,22,9909.0
3060,0.294922798871994,2.336996078491211,-29,8124.0,-3.361271381378174,54,9909.0
3070,0.2944525480270386,3.108384132385254,27,8124.0,-3.406431198120117,-177,9909.0
3080,0.29405951499938965,0.23703965544700623,56,8124.0,-0.14120236039161682,-194,9909.0
3090,0.29376327991485596,-0.8267595171928406,73,8124.0,-1.0723940134048462,51,9909.0
3100,0.2943872809410095,-0.37915199995040894,-94,8124.0,0.1106916069984436,206,9909.0
3110,0.29420897364616394,-1.2999049425125122,-117,8124.0,1.8600741624832153,-67,9909.0
3120,0.2940733730792999,-2.7977466583251953,70,8124.0,2.7982819080352783,4,9909.0
3130,0.29397472739219666,-0.6334012150764465,-6,8124.0,1.8676592111587524,112,9909.0
3140,0.29390430450439453,0.9532091021537781,24,8124.0,1.980811357498169,128,9909.0
3150,0.29519376158714294,0.48344746232032776,61,8124.0,2.5627853870391846,-97,9909.0
3160,0.2953554093837738,0.9217196702957153,53,8124.0,1.7371217012405396,76,9909.0
3170,0.2956293821334839,0.2517331540584564,-63,8124.0,0.6331498026847839,127,9909.0
3180,0.29601407051086426,2.2792646884918213,-21,8124.0,0.14824233949184418,-41,9909.0
3190,0.2968404293060303,1.0572738647460938,31,8124.0,0.06465394049882889,-9,9909.0
3200,0.2972840368747711,-0.4581817388534546,39,8124.0,1.5528141260147095,-31,9909.0
3210,0.2977261543273926,1.0207774639129639,14,8124.0,-2.2007553577423096,14,9909.0
3220,0.2981240153312683,0.14541493356227875,-76,8124.0,-0.4055368900299072,96,9909.0
3230,0.297589510679245,-1.5847574472427368,-49,8124.0,0.6823522448539734,-154,9909.0
3240,0.2977493107318878,-4.072030067443848,100,8124.0,0.2771838307380676,-81,9909.0
3250,0.29787907004356384,-2.3110437393188477,39,8124.0,-0.9656345844268799,156,9909.0
3260,0.2979806959629059,-2.212568759918213,-149,8124.0,1.0639050006866455,31,9909.0
3270,0.29799774289131165,-2.467977285385132,-32,8124.0,2.3185458183288574,-67,9909.0
3280,0.29839688539505005,-2.947183609008789,79,8124.0,1.7003567218780518,-77,9909.0
3290,0.2984059453010559,-1.4851523637771606,-50,8124.0,0.6282095313072205,179,9909.0
3300,0.29843810200691223,0.47245195508003235,-72,8124.0,0.05980056896805763,27,9909.0
3310,0.298460453748703,0.9779090881347656,76,8124.0,0.3185591995716095,-185,9909.0
3320,0.29668259620666504,3.541630506515503,128,8124.0,-2.3148751258850098,-27,9909.0
3330,0.29657918214797974,4.052547931671143,21,8124.0,-2.0404672622680664,100,9909.0
3340,0.2965095341205597,3.853625535964966,10,8124.0,-1.7870283126831055,-107,9909.0
3350,0.2964528501033783,2.5499651432037354,85,8124.0,-3.1847989559173584,-33,9909.0
3360,0.2974753677845001,0.6640602946281433,11,8124.0,-3.254244327545166,-115,9909.0
3370,0.2976182997226715,-0.01758679933845997,28,8124.0,-3.504791736602783,-50,9909.0
3380,0.2978111505508423,-0.944717288017273,-33,8124.0,-2.2756223678588867,-17,9909.0
3390,0.2980507016181946,-0.5405775308609009,-37,8124.0,-2.549556016921997,-136,9909.0
3400,0.2982995808124542,-3.590440273284912,2,8124.0,0.6958057880401611,-47,9909.0
3410,0.2975619435310364,-2.596590995788574,62,8124.0,-0.9437901973724365,73,9909.0
3420,0.2975655794143677,-1.6458897590637207,-145,8124.0,0.0895879864692688,56,9909.0
3430,0.29746532440185547,-2.3404593467712402,-6,8124.0,1.7622344493865967,-120,9909.0
3440,0.2973117232322693,-1.1529039144515991,94,8124.0,1.0853663682937622,-53,9909.0
3450,0.2974223792552948,1.0629609823226929,9,8124.0,0.11078715324401855,210,9909.0
3460,0.29728269577026367,2.043013572692871,-47,8124.0,-0.36654597520828247,-49,9909.0
3470,0.297137588262558,2.5969624519348145,131,8124.0,0.4574149250984192,-137,9909.0
3480,0.2969946563243866,3.096106767654419,88,8124.0,-0.982054591178894,122,9909.0
3490,0.2968469560146332,2.5298519134521484,7,8124.0,-1.0480965375900269,-10,9909.0
3500,0.2971472144126892,1.0262051820755005,26,8124.0,-1.617569923400879,-82,9909.0
3510,0.2969422936439514,-1.423378586769104,12,8124.0,-1.6886781454086304,-68,9909.0
3520,0.2966364026069641,-1.748818278312683,-58,8124.0,-1.4964174032211304,20,9909.0
3530,0.29626619815826416,-2.359616994857788,-14,8124.0,-0.3834282457828522,24,9909.0
3540,0.2961427569389343,-0.17879904806613922,-29,8124.0,0.10407450795173645,-64,9909.0
3550,0.2956460416316986,-0.2200610488653183,61,8124.0,0.2065163105726242,3,9909.0
3560,0.2950400412082672,0.8949260711669922,84,8124.0,-0.5603657364845276,60,9909.0
3570,0.2943670451641083,0.9954032301902771,-116,8124.0,0.9525231719017029,37,9909.0
3581,0.2958405911922455,0.5837562084197998,110,8124.0,2.3522698879241943,-102,9909.0
3590,0.2953099310398102,1.337498664855957,36,8124.0,2.8054795265197754,191,9909.0
3600,0.2948135733604431,2.8617801666259766,-31,8124.0,0.10008934140205383,25,9909.0
3610,0.2943331301212311,3.1057279109954834,119,8124.0,0.5767790675163269,-140,9909.0
3620,0.29387980699539185,0.9293299317359924,30,8124.0,0.5906685590744019,192,9909.0
3630,0.29390469193458557,1.2677282094955444,-86,8124.0,0.0344289094209671,-50,9909.0
3640,0.29349422454833984,-0.3238997161388397,54,8124.0,0.8122366070747375,-18,9909.0
3650,0.29304155707359314,-2.3099706172943115,-57,8124.0,-0.15734481811523438,46,9909.0
3660,0.29251423478126526,-2.714151382446289,-53,8124.0,-1.5669138431549072,0,9909.0
3670,0.29253068566322327,-2.5992376804351807,-35,8124.0,-0.6960063576698303,-36,9909.0
3680,0.29193034768104553,-1.765062928199768,3,8124.0,-0.13675811886787415,35,9909.0
3690,0.291259229183197,-0.8978806138038635,39,8124.0,0.17849098145961761,64,9909.0
3700,0.29048505425453186,2.253438711166382,-21,8124.0,-1.8082927465438843,-56,9909.0
3710,0.28968319296836853,1.2285659313201904,114,8124.0,-0.9355857372283936,-63,9909.0
3720,0.29241204261779785,1.2431718111038208,-8,8124.0,1.7470386028289795,131,9909.0
3730,0.29187577962875366,0.5198394060134888,-61,8124.0,2.495053291320801,8,9909.0
3740,0.2913700342178345,0.5373374819755554,122,8124.0,1.3834232091903687,-30,9909.0
3750,0.29088690876960754,0.8066175580024719,-50,8124.0,1.2888450622558594,163,9909.0
3760,0.2936607599258423,0.278410404920578,19,8124.0,1.066096305847168,-112,9909.0
3770,0.2933030426502228,-0.38063502311706543,29,8124.0,0.32932090759277344,109,9909.0
3780,0.29288098216056824,-0.8716885447502136,-47,8124.0,2.321937322616577,-18,9909.0
3790,0.29240891337394714,-1.0453420877456665,-19,8124.0,-0.28673553466796875,43,9909.0
3800,0.29326966404914856,-1.925468921661377,-26,8124.0,0.24643836915493011,-73,9909.0
3810,0.29273274540901184,-0.9364134073257446,-27,8124.0,0.3225143551826477,108,9909.0
3820,0.29211753606796265,-0.7973867058753967,-32,8124.0,2.7979862689971924,-124,9909.0
3830,0.29146531224250793,-0.16711273789405823,71,8124.0,2.5938055515289307,190,9909.0
3840,0.2907944619655609,0.5761799216270447,-111,8124.0,1.8121507167816162,36,9909.0
3850,0.29270613193511963,0.1352834552526474,114,8124.0,3.275946855545044,-30,9909.0
3860,0.29217949509620667,1.7874704599380493,-23,8124.0,1.6593776941299438,141,9909.0
3870,0.29167330265045166,1.6859159469604492,37,8124.0,0.6845806241035461,-72,9909.0
3880,0.29118263721466064,1.3848929405212402,54,8124.0,2.1883459091186523,98,9909.0
3890,0.29336026310920715,1.4983164072036743,-6,8124.0,1.6387940645217896,-30,9909.0
3900,0.2928946912288666,-1.2758737802505493,26,8124.0,1.401214838027954,10,9909.0
3910,0.29234933853149414,-1.6098597049713135,-28,8124.0,0.958692729473114,-25,9909.0
3920,0.29171326756477356,0.10438928753137589,-17,8124.0,-1.2862236499786377,-27,9909.0
3930,0.2910262644290924,-1.0312551259994507,25,8124.0,-1.567109227180481,-103,9909.0
3940,0.29361528158187866,-0.058922022581100464,1,8124.0,-1.3525524139404297,64,9909.0
3950,0.2936154901981354,1.0364450216293335,-9,8124.0,-2.0074706077575684,-186,9909.0
3960,0.29263436794281006,1.0038357973098755,110,8124.0,-1.5769879817962646,87,9909.0
3970,0.2926342785358429,2.147611618041992,-89,8124.0,-1.92178475856781,-68,9909.0
3980,0.29495784640312195,-0.5612707138061523,106,8124.0,-0.6378603577613831,-34,9909.0
3990,0.2949582636356354,-0.21524566411972046,-87,8124.0,0.15728521347045898,130,9909.0
4000,0.2944975793361664,-1.8321150541305542,7,8124.0,1.5104050636291504,-45,9909.0
4010,0.2944987118244171,-2.3574018478393555,-44,8124.0,0.8543432950973511,81,9909.0
4020,0.2958610951900482,-2.2870025634765625,-46,8124.0,1.1036618947982788,43,9909.0
4030,0.2958599030971527,-2.014512538909912,-21,8124.0,1.4327765703201294,-53,9909.0
4040,0.29573649168014526,1.5390253067016602,100,8124.0,-1.166250228881836,74,9909.0
4050,0.29573914408683777,2.5092461109161377,-104,8124.0,-2.3030178546905518,21,9909.0
4060,0.29585975408554077,0.7642775177955627,128,8124.0,-0.9839248061180115,-162,9909.0
4070,0.2972598671913147,1.452006220817566,-24,8124.0,-2.992227792739868,163,9909.0
4080,0.29725974798202515,1.5692452192306519,-7,8124.0,-1.668450117111206,-195,9909.0
4090,0.2975209951400757,0.2504298686981201,123,8124.0,-2.4082834720611572,21,9909.0
4100,0.29752030968666077,0.9190185070037842,-89,8124.0,-1.961588740348816,18,9909.0
4110,0.2975291907787323,0.22620849311351776,55,8124.0,-0.7811103463172913,-74,9909.0
4120,0.2975294291973114,-0.03973117098212242,-2,8124.0,-0.7657433748245239,17,9909.0
4130,0.29788365960121155,-1.2082195281982422,-58,8124.0,0.5298436880111694,67,9909.0
4140,0.29788437485694885,-2.075378894805908,-33,8124.0,1.2463310956954956,-73,9909.0
4150,0.29851603507995605,-2.380784034729004,-24,8124.0,0.2337309867143631,78,9909.0
4160,0.2987106144428253,-0.3460550308227539,-115,8124.0,-0.15388529002666473,91,9909.0
4170,0.29966485500335693,0.32398566603660583,50,8124.0,1.3105418682098389,-107,9909.0
4180,0.29966461658477783,-1.697717308998108,53,8124.0,0.7125803232192993,119,9909.0
4190,0.3007160723209381,-1.2611020803451538,-146,8124.0,0.41707855463027954,92,9909.0
4200,0.2996596097946167,-1.6620330810546875,74,8124.0,1.3013877868652344,-181,9909.0
4210,0.300503134727478,-1.7349025011062622,-24,8124.0,-0.9663109183311462,101,9909.0
4220,0.30050382018089294,1.4485785961151123,-19,8124.0,-3.9584832191467285,-134,9909.0
4230,0.30092698335647583,1.494483232498169,83,8124.0,-2.8261055946350098,-45,9909.0
4240,0.3000858724117279,3.1175315380096436,24,8124.0,-6.060396671295166,-63,9909.0
4250,0.3004586696624756,2.011967420578003,3,8124.0,-3.496635675430298,-18,9909.0
4260,0.300833523273468,1.115182638168335,-22,8124.0,-1.9688372611999512,-69,9909.0
4270,0.30121374130249023,0.12234897911548615,80,8124.0,-0.27480417490005493,-54,9909.0
4280,0.3015938997268677,0.665129542350769,-23,8124.0,-0.10781430453062057,209,9909.0
4290,0.30037885904312134,0.17557622492313385,-53,8124.0,2.1071736812591553,-140,9909.0
4300,0.30065804719924927,0.31709885597229004,136,8124.0,2.155353546142578,55,9909.0
4310,0.30093109607696533,0.1996569037437439,95,8124.0,0.9141933917999268,83,9909.0
4320,0.3012073040008545,-0.33620959520339966,-121,8124.0,1.0477203130722046,102,9909.0
4330,0.3005286455154419,-1.3084826469421387,40,8124.0,-0.06998807191848755,-176,9909.0
4340,0.30075567960739136,-0.674497127532959,9,8124.0,-3.865166187286377,48,9909.0
4350,0.30100056529045105,-0.8485244512557983,-60,8124.0,-5.064823150634766,-100,9909.0
4360,0.30124107003211975,-0.1268502175807953,30,8124.0,-6.622858047485352,-197,9909.0
4370,0.30148130655288696,-1.9659993648529053,-26,8124.0,-6.537308692932129,-103,9909.0
4380,0.2998805344104767,-1.4183217287063599,-19,8124.0,-6.92379903793335,-83,9909.0
4390,0.30003824830055237,-0.49294623732566833,-59,8124.0,-5.511783599853516,-51,9909.0
4400,0.30014467239379883,0.2909052073955536,68,8124.0,-4.762903213500977,-191,9909.0
4410,0.30027633905410767,1.6319773197174072,34,8124.0,-2.6457467079162598,145,9909.0
4420,0.29980987310409546,2.6479737758636475,-43,8124.0,0.35983067750930786,-68,9909.0
4430,0.29978474974632263,2.799344778060913,145,8124.0,2.638349771499634,-18,9909.0
4440,0.29985037446022034,3.1758697032928467,48,8124.0,4.229801177978516,162,9909.0
4450,0.29987597465515137,4.41994047164917,27,8124.0,5.756955623626709,59,9909.0
4460,0.2995661199092865,2.280526638031006,68,8124.0,5.766836166381836,59,9909.0
4470,0.29959699511528015,1.5527153015136719,-6,8124.0,3.418524980545044,153,9909.0
4480,0.299675852060318,0.01508151926100254,-41,8124.0,4.057846546173096,-25,9909.0
4490,0.2998965382575989,-0.18077480792999268,29,8124.0,0.48840442299842834,8,9909.0
4500,0.3001879155635834,-0.3260173797607422,45,8124.0,-2.4871327877044678,35,9909.0
4510,0.29838091135025024,0.7642033696174622,-91,8124.0,-3.678117275238037,-94,9909.0
4520,0.29877981543540955,-1.419219732284546,78,8124.0,-4.333608627319336,-188,9909.0
4530,0.29928240180015564,-1.354821801185608,-77,8124.0,-4.6637983322143555,124,9909.0
4540,0.29983338713645935,-0.19914478063583374,-60,8124.0,-2.080796480178833,-193,9909.0
4550,0.29877713322639465,-0.793786346912384,93,8124.0,-0.5695909261703491,50,9909.0
4560,0.29922521114349365,0.23121608793735504,-94,8124.0,0.9803211688995361,118,9909.0
4570,0.2996671795845032,-1.469591498374939,-11,8124.0,4.946171760559082,1,9909.0
4580,0.3001073896884918,-2.3295719623565674,-17,8124.0,5.3673577308654785,131,9909.0
4590,0.3005123436450958,-2.2723989486694336,-55,8124.0,7.0849127769470215,119,9909.0
4600,0.3006539046764374,-1.7858492136001587,-44,8124.0,6.333554744720459,98,9909.0
4610,0.30091241002082825,-1.125586986541748,25,8124.0,4.786486625671387,-13,9909.0
4620,0.30113184452056885,0.2462693601846695,22,8124.0,2.482762336730957,151,9909.0
4630,0.30135369300842285,0.589226245880127,-100,8124.0,2.9428088665008545,33,9909.0
4640,0.2986048460006714,0.6205727458000183,110,8124.0,1.1695873737335205,-84,9909.0
4650,0.29866650700569153,0.4473872184753418,-36,8124.0,-1.4583841562271118,170,9909.0
4660,0.298694372177124,0.2564735412597656,-46,8124.0,-0.6775370836257935,-109,9909.0
4670,0.2987675368785858,-0.28494107723236084,72,8124.0,-0.09858330339193344,-23,9909.0
4680,0.2981109023094177,1.1237438917160034,-34,8124.0,-1.6328849792480469,58,9909.0
4690,0.2980760335922241,1.6878997087478638,30,8124.0,-0.7146820425987244,-117,9909.0
4700,0.2979908585548401,2.4065380096435547,55,8124.0,0.15059803426265717,43,9909.0
4710,0.29788437485694885,2.9431657791137695,41,8124.0,-0.8000971674919128,9,9909.0
4720,0.2977287173271179,2.6650753021240234,28,8124.0,0.30268391966819763,-28,9909.0
4730,0.2977045774459839,1.090131402015686,65,8124.0,-0.10921206325292587,-19,9909.0
4740,0.29742711782455444,-0.02532000094652176,-47,8124.0,-0.40734347701072693,65,9909.0
4750,0.2970903813838959,-2.490565776824951,-23,8124.0,2.433039426803589,-99,9909.0
4760,0.29666775465011597,-3.109527826309204,-14,8124.0,1.159250020980835,143,9909.0
4770,0.2965400218963623,-2.658895254135132,-126,8124.0,2.465593099594116,-11,9909.0
4780,0.2961280345916748,-2.22050404548645,75,8124.0,2.13356876373291,20,9909.0
4790,0.2957296669483185,-0.44193580746650696,-95,8124.0,1.4301798343658447,106,9909.0
4800,0.2953405976295471,0.9506995677947998,65,8124.0,1.7959874868392944,-18,9909.0
4810,0.2949255108833313,2.4151511192321777,-24,8124.0,1.1736042499542236,117,9909.0
4820,0.29630371928215027,2.8892581462860107,46,8124.0,-0.4634157121181488,-98,9909.0
4830,0.2958580255508423,2.9695897102355957,80,8124.0,-2.6599061489105225,-33,9909.0
4840,0.29542994499206543,2.9163119792938232,-7,8124.0,-5.440375804901123,-20,9909.0
4850,0.29502585530281067,3.7883358001708984,66,8124.0,-5.339779376983643,-228,9909.0
4861,0.29598554968833923,3.164238691329956,56,8124.0,-5.855717182159424,74,9909.0
4870,0.29577380418777466,3.5291128158569336,-5,8124.0,-3.3579273223876953,-214,9909.0
4880,0.2955961525440216,0.30192166566848755,69,8124.0,-1.6148576736450195,154,9909.0
4890,0.29545828700065613,-0.02384989894926548,-59,8124.0,1.761919379234314,-58,9909.0
4900,0.29556483030319214,-0.13934476673603058,45,8124.0,3.9063427448272705,132,9909.0
4910,0.29543548822402954,-1.2293733358383179,-34,8124.0,3.3209073543548584,147,9909.0
4920,0.2953287363052368,-2.78428316116333,-77,8124.0,9.850839614868164,184,9909.0
4930,0.2952399253845215,-2.7921085357666016,16,8124.0,8.703808784484863,63,9909.0
4940,0.29511764645576477,-2.702207565307617,-82,8124.0,4.875282287597656,129,9909.0
4950,0.2969779968261719,-3.8215372562408447,13,8124.0,6.294219493865967,-38,9909.0
4960,0.2969042658805847,-3.4818308353424072,-62,8124.0,2.5604798793792725,236,9909.0
4970,0.2969464361667633,-1.1514657735824585,-31,8124.0,-0.2583552598953247,-188,9909.0
4980,0.296866774559021,1.0574556589126587,-1,8124.0,-1.9858704805374146,129,9909.0
4990,0.2976078391075134,-0.2825239598751068,-33,8124.0,-3.8331313133239746,-224,9909.0
5000,0.2975277900695801,-0.25296398997306824,30,8124.0,-7.116333961486816,-37,9909.0
5010,0.2974569499492645,0.1968589723110199,-39,8124.0,-7.050660610198975,-224,9909.0
5020,0.29743292927742004,-1.7843804359436035,15,8124.0,-5.670143127441406,-122,9909.0
5030,0.2974463701248169,-1.2128177881240845,-39,8124.0,-4.384799480438232,61,9909.0
5040,0.2965291738510132,0.024726105853915215,-77,8124.0,-1.2023744583129883,-155,9909.0
5050,0.29651013016700745,-1.212691307067871,80,8124.0,-0.054755862802267075,106,9909.0
5060,0.29646897315979004,-0.3431120812892914,-134,8124.0,2.614576578140259,-19,9909.0
5070,0.2963995635509491,-0.871620774269104,115,8124.0,2.852670431137085,121,9909.0
5080,0.2973497807979584,-2.381202459335327,-137,8124.0,6.124133586883545,162,9909.0
5090,0.2972865104675293,-0.5562059879302979,73,8124.0,4.700259208679199,37,9909.0
5100,0.29719874262809753,1.1165015697479248,22,8124.0,3.53779673576355,161,9909.0
5110,0.2970820665359497,0.7916674017906189,12,8124.0,4.046878814697266,-37,9909.0
5120,0.2976883053779602,2.9037728309631348,103,8124.0,-2.4890248775482178,-43,9909.0
5130,0.29754510521888733,3.6693546772003174,-7,8124.0,-3.9906349182128906,-51,9909.0
5140,0.29746192693710327,1.7735626697540283,128,8124.0,-7.0352020263671875,-166,9909.0
5150,0.2974501848220825,2.0520553588867188,-62,8124.0,-8.399299621582031,-81,9909.0
5160,0.29748672246932983,0.3505719304084778,130,8124.0,-6.546865463256836,-237,9909.0
5170,0.2981216311454773,0.5601310133934021,-66,8124.0,-5.464253902435303,73,9909.0
5180,0.29825618863105774,-0.5079169869422913,36,8124.0,-2.891420841217041,-117,9909.0
5190,0.29837122559547424,-0.05506201460957527,-41,8124.0,0.5213553309440613,36,9909.0
5200,0.2984682619571686,-1.8432855606079102,-56,8124.0,5.364123344421387,136,9909.0
5210,0.29873403906822205,-0.7119180560112,6,8124.0,5.0684027671813965,59,9909.0
5220,0.29881352186203003,-1.820439338684082,-115,8124.0,6.375848293304443,198,9909.0
5230,0.2988371253013611,-3.489579200744629,70,8124.0,8.569756507873535,25,9909.0
5240,0.29881376028060913,-0.899803638458252,-64,8124.0,4.862163066864014,242,9909.0
5251,0.29889965057373047,0.6381527185440063,52,8124.0,2.4202723503112793,-28,9909.0
5260,0.2989409565925598,2.091085433959961,-13,8124.0,2.572373628616333,146,9909.0
5270,0.2989943027496338,3.049936532974243,78,8124.0,-0.6395099759101868,-161,9909.0
5280,0.29905906319618225,4.471529006958008,9,8124.0,-5.098544597625732,49,9909.0
5290,0.299233078956604,3.00892972946167,47,8124.0,-8.867351531982422,-243,9909.0
5300,0.300021231174469,1.4133414030075073,36,8124.0,-9.702704429626465,-102,9909.0
5310,0.30023854970932007,-0.1776261329650879,-29,8124.0,-5.975314140319824,-82,9909.0
5320,0.3004390597343445,-0.015461163595318794,14,8124.0,-5.639771938323975,-140,9909.0
5330,0.30053749680519104,-0.9625774025917053,-65,8124.0,-4.499124050140381,85,9909.0
5340,0.3000049591064453,-2.071540117263794,19,8124.0,-0.050955142825841904,-184,9909.0
5350,0.29995450377464294,-1.6684150695800781,-34,8124.0,3.4305081367492676,254,9909.0
5360,0.2998625636100769,-1.4816210269927979,-62,8124.0,7.778627395629883,-43,9909.0
5370,0.2996964752674103,0.9343883991241455,45,8124.0,5.722500801086426,152,9909.0
5380,0.29941922426223755,0.8258039951324463,15,8124.0,5.2269816398620605,34,9909.0
5390,0.2994042932987213,2.6154284477233887,31,8124.0,2.1668307781219482,27,9909.0
5400,0.29889607429504395,3.513254165649414,49,8124.0,1.732347846031189,87,9909.0
5410,0.2982904016971588,5.963226795196533,161,8124.0,-0.5471062660217285,-125,9909.0
5420,0.2975650131702423,6.659045696258545,95,8124.0,-3.6882126331329346,11,9909.0
5430,0.29679083824157715,9.751367568969727,199,8124.0,-2.2637922763824463,-222,9909.0
5440,0.29562586545944214,4.6838765144348145,5,8124.0,-5.360124588012695,54,9909.0
5450,0.2943381369113922,-0.9394769072532654,41,8124.0,-6.011546611785889,-163,9909.0
5461,0.29289281368255615,-7.848019123077393,-206,8124.0,-6.462278366088867,-17,9909.0
5470,0.29162856936454773,-16.712099075317383,-342,8124.0,-4.393849849700928,-142,9909.0
5480,0.28952381014823914,-19.007831573486328,-202,8124.0,-4.469149112701416,44,9909.0
5490,0.2876802086830139,-17.865867614746094,-364,8124.0,-2.5208370685577393,-128,9909.0
5501,0.28528717160224915,-21.19667625427246,-372,8124.0,2.081616163253784,6,9909.0
5511,0.2813515067100525,-20.58212661743164,-327,8124.0,1.3742791414260864,-52,9909.0
5520,0.280804842710495,-21.025070190429688,-313,8124.0,2.791929244995117,33,9909.0
5530,0.27886253595352173,-20.965723037719727,-423,8124.0,5.851889133453369,145,9909.0
5540,0.27718308568000793,-28.271684646606445,-540,8124.0,5.153441905975342,159,9909.0
5550,0.2750036418437958,-31.693201065063477,-546,8124.0,6.7533183097839355,-30,9909.0
5560,0.27330392599105835,-27.856264114379883,-447,8124.0,6.936025619506836,142,9909.0
5570,0.2712680399417877,-27.511240005493164,-482,8124.0,6.31292200088501,4,9909.0
5580,0.26914775371551514,-28.08659553527832,-531,8124.0,3.404568672180176,123,9909.0
5590,0.26673537492752075,-34.778377532958984,-451,8124.0,7.680392742156982,215,9909.0
5600,0.26453036069869995,-35.41788864135742,-695,8124.0,6.148406982421875,-38,9909.0
5610,0.26419731974601746,-37.12921142578125,-652,8124.0,2.8814516067504883,85,9909.0
5620,0.2622644603252411,-37.89783477783203,-573,8124.0,6.904967308044434,115,9909.0
5630,0.2604747414588928,-33.777523040771484,-588,8124.0,6.221908092498779,-59,9909.0
5640,0.25799551606178284,-21.493303298950195,-427,8124.0,4.174893379211426,-21,9909.0
5650,0.2581886947154999,-5.557412147521973,51,8124.0,6.433464527130127,199,9909.0
5660,0.25651028752326965,-9.101591110229492,17,8124.0,5.483922004699707,148,9909.0
5670,0.25487083196640015,-13.226719856262207,-197,8124.0,-2.5493626594543457,-23,9909.0
5680,0.2527902126312256,-5.776981353759766,-143,8124.0,4.600427150726318,155,9909.0
5690,0.25174209475517273,-10.723562240600586,-261,8124.0,6.484344959259033,244,9909.0
5700,0.25034675002098083,-15.79582691192627,-167,8124.0,12.437294006347656,94,9909.0
5710,0.24904733896255493,-9.833596229553223,-247,8124.0,8.165858268737793,9,9909.0
5720,0.2473900020122528,-14.064386367797852,-232,8124.0,7.769613742828369,194,9909.0
5730,0.2460651695728302,-13.504973411560059,-151,8124.0,5.040735244750977,181,9909.0
5740,0.24725788831710815,-14.099786758422852,-179,8124.0,2.9835197925567627,14,9909.0
5750,0.24613675475120544,-14.158692359924316,-302,8124.0,3.65995454788208,-75,9909.0
5760,0.24502208828926086,-10.326196670532227,-183,8124.0,4.086330890655518,66,9909.0
5770,0.24411477148532867,-0.05982915312051773,117,8124.0,-1.3633949756622314,58,9909.0
5780,0.2463318556547165,5.885584354400635,207,8124.0,-0.03145509958267212,30,9909.0
5790,0.24582810699939728,12.397697448730469,245,8124.0,-0.44840705394744873,-115,9909.0
5800,0.24517394602298737,13.769539833068848,169,8124.0,9.551860809326172,29,9909.0
5810,0.24501201510429382,6.844414234161377,87,8124.0,12.635137557983398,306,9909.0
5820,0.24480101466178894,5.42427396774292,148,8124.0,10.79028034210205,176,9909.0
5830,0.2452806830406189,3.172952890396118,43,8124.0,9.885120391845703,-46,9909.0
5840,0.24509727954864502,2.474775791168213,-28,8124.0,12.6739501953125,181,9909.0
5850,0.24497583508491516,4.84971284866333,128,8124.0,9.466032028198242,263,9909.0
5860,0.2448529452085495,5.765939235687256,122,8124.0,6.11651611328125,-52,9909.0
5870,0.2453927844762802,8.962199211120605,230,8124.0,6.022969722747803,-41,9909.0
5880,0.24527467787265778,9.850709915161133,152,8124.0,-3.2780494689941406,-25,9909.0
5890,0.24522143602371216,6.350379467010498,134,8124.0,-3.1397130489349365,-72,9909.0
5900,0.24515368044376373,7.904436111450195,59,8124.0,0.263761430978775,-197,9909.0
5911,0.2441880702972412,7.502708911895752,131,8124.0,-1.2776353359222412,45,9909.0
5920,0.2441556751728058,8.384770393371582,278,8124.0,3.3777270317077637,59,9909.0
5930,0.24408937990665436,12.925416946411133,250,8124.0,-0.1379155069589615,-121,9909.0
5940,0.2441224902868271,20.749223709106445,345,8124.0,0.5448237657546997,94,9909.0
5950,0.24420396983623505,27.258930206298828,542,8124.0,2.977415084838867,100,9909.0
5960,0.24359530210494995,33.32883071899414,527,8124.0,4.678100109100342,-106,9909.0
5970,0.2436298280954361,35.266357421875,483,8124.0,0.9334987998008728,103,9909.0
5980,0.24405908584594727,39.81907272338867,736,8124.0,3.6113204956054688,14,9909.0
5990,0.2441975325345993,40.57889175415039,579,8124.0,-1.072932243347168,-81,9909.0
6000,0.2394775003194809,36.38154602050781,572,8124.0,-5.000332832336426,163,9909.0
6010,0.2400997430086136,28.069454193115234,428,8124.0,-4.923676490783691,-112,9909.0
6020,0.23998408019542694,11.890482902526855,74,8124.0,-4.8880486488342285,-61,9909.0
6030,0.23995326459407806,2.9853880405426025,4,8124.0,-5.092601299285889,47,9909.0
6040,0.23989060521125793,-2.4009850025177,-29,8124.0,-11.257269859313965,-190,9909.0
6050,0.23590460419654846,-6.284000873565674,-107,8124.0,-6.211876392364502,-100,9909.0
6060,0.23561686277389526,-2.635559320449829,38,8124.0,-7.339397430419922,21,9909.0
6070,0.23554113507270813,3.5406198501586914,245,8124.0,-7.349170207977295,-52,9909.0
6080,0.23532280325889587,8.959168434143066,98,8124.0,-8.933859825134277,-171,9909.0
6090,0.23630298674106598,12.984723091125488,118,8124.0,-1.7857441902160645,-23,9909.0
6100,0.23636998236179352,14.976534843444824,320,8124.0,-0.28670889139175415,14,9909.0
6110,0.23638366162776947,15.208612442016602,314,8124.0,1.6003456115722656,-75,9909.0
6120,0.23633457720279694,15.459131240844727,259,8124.0,0.11788713932037354,-152,9909.0
6130,0.23308654129505157,13.913016319274902,163,8124.0,-1.0511780977249146,29,9909.0
6140,0.23296932876110077,17.40060043334961,324,8124.0,3.14026141166687,116,9909.0
6150,0.23379628360271454,16.404376983642578,186,8124.0,6.903180122375488,36,9909.0
6160,0.23392878472805023,16.959766387939453,178,8124.0,2.890873908996582,-12,9909.0
6170,0.23397988080978394,7.359993934631348,233,8124.0,10.123215675354004,191,9909.0
6180,0.23563282191753387,12.8519926071167,302,8124.0,3.9167556762695312,128,9909.0
6190,0.236175075173378,9.73055362701416,159,8124.0,1.2773218154907227,-128,9909.0
6200,0.23637692630290985,8.91250228881836,83,8124.0,-0.27408429980278015,-185,9909.0
6210,0.23684978485107422,7.603723526000977,87,8124.0,-2.736854076385498,-95,9909.0
6220,0.2348632961511612,5.295081615447998,182,8124.0,-6.458545684814453,61,9909.0
6230,0.23549894988536835,6.4499192237854,154,8124.0,-8.636174201965332,-125,9909.0
6240,0.2361770123243332,3.6920108795166016,-12,8124.0,-0.970962643623352,-93,9909.0
6250,0.23664039373397827,2.4140868186950684,-14,8124.0,-1.3121893405914307,99,9909.0
6260,0.23603618144989014,0.796784520149231,100,8124.0,4.2234416007995605,313,9909.0
6270,0.23649083077907562,3.9258968830108643,48,8124.0,0.8455172777175903,92,9909.0
6280,0.2368360310792923,8.093071937561035,15,8124.0,-0.2911386787891388,-52,9909.0
6290,0.23769307136535645,9.458550453186035,135,8124.0,3.9410016536712646,60,9909.0
6300,0.23858343064785004,12.041603088378906,219,8124.0,1.807639241218567,41,9909.0
6310,0.2403004765510559,11.767176628112793,168,8124.0,0.33991676568984985,-134,9909.0
6320,0.24102860689163208,9.375073432922363,17,8124.0,3.8543074131011963,16,9909.0
6330,0.24168579280376434,10.760441780090332,236,8124.0,-6.4953999519348145,-23,9909.0
6340,0.24251043796539307,5.441195964813232,188,8124.0,0.714980959892273,-118,9909.0
6350,0.24401812255382538,4.069940090179443,76,8124.0,-2.600895404815674,-169,9909.0
6360,0.24488705396652222,3.0772910118103027,28,8124.0,-3.94549822807312,40,9909.0
6370,0.24578869342803955,-0.8382779359817505,143,8124.0,-2.57189679145813,-21,9909.0
6380,0.2467113882303238,-4.911983489990234,-174,8124.0,-6.1681718826293945,-128,9909.0
6390,0.24815234541893005,-10.530230522155762,-228,8124.0,-6.1128621101379395,-4,9909.0
6400,0.2490963488817215,-13.334890365600586,-149,8124.0,-1.262121319770813,90,9909.0
6410,0.2500563859939575,-15.90810489654541,-319,8124.0,-8.014152526855469,-137,9909.0
6420,0.2509993016719818,-16.320348739624023,-357,8124.0,6.641247749328613,-60,9909.0
6430,0.252000629901886,-12.83563232421875,-147,8124.0,0.018290027976036072,18,9909.0
6440,0.2553239166736603,-10.355067253112793,-122,8124.0,-0.10695169866085052,-39,9909.0
6450,0.25644761323928833,-5.666293621063232,-148,8124.0,-0.01707414910197258,-61,9909.0
6460,0.25761398673057556,-2.9859719276428223,-122,8124.0,1.8960081338882446,114,9909.0
6470,0.25879213213920593,-0.8503075838088989,-30,8124.0,-2.0159478187561035,136,9909.0
6480,0.2611699402332306,3.770606279373169,125,8124.0,-7.947228908538818,29,9909.0
6490,0.2624236047267914,3.458810567855835,15,8124.0,4.436418056488037,-134,9909.0
6500,0.26361072063446045,3.601301670074463,28,8124.0,5.591883182525635,143,9909.0
6510,0.2647927403450012,1.75697922706604,109,8124.0,8.70631217956543,158,9909.0
6521,0.2679670453071594,1.7443962097167969,-71,8124.0,5.077717304229736,65,9909.0
6530,0.269172340631485,-1.7974213361740112,-120,8124.0,3.244657516479492,183,9909.0
6540,0.2703770399093628,1.4533952474594116,86,8124.0,4.007516860961914,212,9909.0
6550,0.2715156078338623,-2.344391345977783,31,8124.0,0.36812829971313477,-96,9909.0
6560,0.27251848578453064,-0.8678133487701416,-130,8124.0,0.3962685763835907,25,9909.0
6570,0.2753298282623291,-5.286362648010254,-19,8124.0,-1.3982361555099487,15,9909.0
6580,0.27648067474365234,1.5235713720321655,18,8124.0,-6.509316444396973,-117,9909.0
6590,0.27761605381965637,4.944061756134033,-7,8124.0,-5.977282524108887,-178,9909.0
6600,0.2786831259727478,5.496129035949707,75,8124.0,-7.625799655914307,-8,9909.0
6610,0.27975523471832275,2.996967315673828,314,8124.0,-8.539154052734375,-90,9909.0
6620,0.2806567847728729,4.0841779708862305,-8,8124.0,-2.4309909343719482,-229,9909.0
6630,0.2815207242965698,-1.8361166715621948,-60,8124.0,-1.5827947854995728,5,9909.0
6640,0.28234970569610596,-3.280320167541504,-4,8124.0,-2.178541898727417,-61,9909.0
6650,0.28313499689102173,-4.2586541175842285,-107,8124.0,-2.486812114715576,-216,9909.0
6660,0.2840072214603424,-6.238837242126465,-219,8124.0,-1.562259316444397,-18,9909.0
6670,0.2846519947052002,-2.181471109390259,69,8124.0,-1.3949223756790161,174,9909.0
6680,0.2855475842952728,5.949276924133301,175,8124.0,-3.0217936038970947,-5,9909.0
6690,0.2861380875110626,10.346004486083984,140,8124.0,-6.0174102783203125,-132,9909.0
6700,0.28570985794067383,10.981629371643066,230,8124.0,1.1393541097640991,175,9909.0
6710,0.2861845791339874,10.78927993774414,236,8124.0,2.855259895324707,129,9909.0
6720,0.286673367023468,9.905823707580566,95,8124.0,2.368196487426758,-349,9909.0
6730,0.28712475299835205,9.008734703063965,-26,8124.0,5.043357849121094,-44,9909.0
6740,0.28756001591682434,5.191132545471191,160,8124.0,1.4137967824935913,97,9909.0
6750,0.28852543234825134,5.685744285583496,81,8124.0,1.8049249649047852,11,9909.0
6760,0.28891217708587646,3.015707015991211,88,8124.0,0.7172404527664185,111,9909.0
6770,0.2892073392868042,0.9761514067649841,138,8124.0,-1.5109628438949585,-132,9909.0
6780,0.28942692279815674,1.649165153503418,10,8124.0,1.6372729539871216,-128,9909.0
6790,0.2893919348716736,-0.8605591654777527,-184,8124.0,-3.709686279296875,42,9909.0
6800,0.289650559425354,-0.8637698292732239,-6,8124.0,-0.7440189719200134,159,9909.0
6811,0.28985846042633057,1.156574010848999,45,8124.0,0.5232877731323242,-92,9909.0
6820,0.2899971604347229,0.6154714822769165,-25,8124.0,-0.49014416337013245,-135,9909.0
6830,0.29082754254341125,0.2044910192489624,-149,8124.0,-0.12076351046562195,0,9909.0
6840,0.2909840941429138,0.8621495366096497,108,8124.0,5.088721752166748,115,9909.0
6850,0.29116541147232056,1.7890641689300537,78,8124.0,2.4231767654418945,88,9909.0
6860,0.29134535789489746,0.9092597365379333,-51,8124.0,4.322794437408447,-66,9909.0
6870,0.2915019690990448,-2.593764305114746,-113,8124.0,3.3883466720581055,8,9909.0
6880,0.29179495573043823,-2.2949085235595703,-52,8124.0,0.7184126973152161,118,9909.0
6890,0.29191845655441284,-3.99454927444458,63,8124.0,1.1755715608596802,122,9909.0
6900,0.29215434193611145,-4.860537528991699,-112,8124.0,-1.8307926654815674,-39,9909.0
6910,0.2923066020011902,-4.6735920906066895,-119,8124.0,0.3156205117702484,53,9909.0
6920,0.29270386695861816,-3.057638645172119,-81,8124.0,-1.543648362159729,152,9909.0
6930,0.29291802644729614,-1.9801820516586304,30,8124.0,3.9164507389068604,197,9909.0
6940,0.2931375801563263,-4.268298625946045,129,8124.0,-0.9835157990455627,-147,9909.0
6950,0.2934446930885315,1.8640514612197876,31,8124.0,0.6573206782341003,-164,9909.0
6960,0.2934187054634094,-2.188709020614624,-61,8124.0,1.9967714548110962,49,9909.0
6970,0.2937350571155548,-2.557584285736084,60,8124.0,3.5038042068481445,132,9909.0
6980,0.2940899133682251,-3.338848114013672,-22,8124.0,2.2953526973724365,-33,9909.0
6990,0.29446402192115784,-0.48569127917289734,-13,8124.0,-5.423932075500488,-260,9909.0
7000,0.2950000464916229,-2.446150302886963,-189,8124.0,1.1297441720962524,13,9909.0
7010,0.2972545325756073,-3.9520888328552246,-13,8124.0,1.2718697786331177,182,9909.0
7020,0.29786503314971924,-2.5850789546966553,-55,8124.0,3.7368855476379395,-50,9909.0
7030,0.2985546290874481,-2.6249594688415527,-153,8124.0,8.220088958740234,-7,9909.0
7040,0.29914888739585876,-1.0590554475784302,-68,8124.0,0.46122223138809204,80,9909.0
7050,0.29951211810112,-0.35584577918052673,91,8124.0,-6.18752908706665,16,9909.0
7060,0.3001532256603241,-2.678313732147217,-81,8124.0,1.5773051977157593,-86,9909.0
7070,0.3007848858833313,-2.4704794883728027,-110,8124.0,1.6080125570297241,77,9909.0
7080,0.3014402389526367,-5.357388019561768,53,8124.0,-0.5135398507118225,71,9909.0
7090,0.30219143629074097,-7.132811069488525,47,8124.0,-1.6613374948501587,-73,9909.0
7100,0.30165255069732666,-1.465682029724121,-108,8124.0,4.934367656707764,-139,9909.0
7110,0.302267462015152,-10.738415718078613,-103,8124.0,0.5256202220916748,40,9909.0
7120,0.30289340019226074,-3.826167345046997,23,8124.0,0.5453698635101318,-6,9909.0
7130,0.3034699559211731,-1.2450776100158691,-119,8124.0,-1.376133918762207,-140,9909.0
7140,0.3032304346561432,-0.3784473240375519,-19,8124.0,0.6173481941223145,8,9909.0
7150,0.30374011397361755,-0.8911161422729492,60,8124.0,6.105032444000244,181,9909.0
7160,0.30423277616500854,3.0877480506896973,100,8124.0,-4.209521770477295,-82,9909.0
7170,0.3050648272037506,2.7251436710357666,52,8124.0,2.866816759109497,-103,9909.0
7180,0.3061760365962982,3.109565496444702,167,8124.0,-3.0066189765930176,-50,9909.0
7190,0.30673274397850037,1.2094511985778809,130,8124.0,2.0897159576416016,-105,9909.0
7200,0.3074047565460205,6.423556327819824,-20,8124.0,1.5907130241394043,-63,9909.0
7210,0.3079320192337036,6.860500335693359,88,8124.0,0.9957041144371033,143,9909.0
7220,0.3083954453468323,-2.8413915634155273,61,8124.0,7.888293266296387,102,9909.0
7230,0.3086814880371094,-1.0111197233200073,-68,8124.0,1.3837677240371704,-59,9909.0
7240,0.30921003222465515,-1.7255668640136719,-74,8124.0,-3.077225685119629,89,9909.0
7250,0.3097022771835327,-3.3353257179260254,84,8124.0,-3.0700480937957764,-30,9909.0
7260,0.3103357255458832,-2.3302829265594482,-61,8124.0,-1.8690388202667236,-210,9909.0
7270,0.3104785680770874,-0.6960166096687317,-138,8124.0,-6.8765034675598145,-134,9909.0
7280,0.3109127879142761,-2.831233263015747,30,8124.0,-0.8705225586891174,-90,9909.0
7290,0.311337411403656,0.49818307161331177,0,8124.0,-1.0290497541427612,-152,9909.0
7300,0.31178659200668335,2.544095993041992,-77,8124.0,1.2191061973571777,35,9909.0
7310,0.3122033476829529,-0.2679412364959717,86,8124.0,-0.3827112913131714,281,9909.0
7320,0.31301501393318176,6.267223358154297,209,8124.0,3.7136902809143066,55,9909.0
7330,0.31351712346076965,4.813863754272461,24,8124.0,2.605170965194702,46,9909.0
7340,0.3139319121837616,5.01716947555542,106,8124.0,2.827397584915161,132,9909.0
7350,0.3142644166946411,5.090484619140625,113,8124.0,1.2484853267669678,16,9909.0
7360,0.3123461902141571,3.586958169937134,-110,8124.0,-0.346118688583374,-146,9909.0
7370,0.3125286102294922,1.576580286026001,205,8124.0,2.668950319290161,22,9909.0
7380,0.3127078711986542,3.1408238410949707,179,8124.0,-1.675574779510498,-180,9909.0
7390,0.3128354251384735,0.8530712723731995,-66,8124.0,-4.557723522186279,-12,9909.0
7400,0.31331896781921387,-1.6720068454742432,-59,8124.0,-0.24063608050346375,-4,9909.0
7410,0.31338778138160706,-4.1006999015808105,-79,8124.0,-1.067811131477356,-122,9909.0
7420,0.3134395182132721,-5.348431587219238,-166,8124.0,2.578914165496826,17,9909.0
7430,0.3134766221046448,-11.88591480255127,-72,8124.0,-1.8679426908493042,162,9909.0
7440,0.3135283291339874,-3.019009590148926,3,8124.0,0.41779714822769165,-50,9909.0
7450,0.3145848512649536,-0.8619852662086487,-70,8124.0,2.8410446643829346,69,9909.0
7460,0.314738392829895,1.387224555015564,46,8124.0,3.0009565353393555,228,9909.0
7470,0.314944863319397,4.547589302062988,201,8124.0,0.5042551755905151,-63,9909.0
7480,0.31513288617134094,3.5663583278656006,-9,8124.0,0.11374671012163162,-144,9909.0
7490,0.3144266903400421,5.42070198059082,-8,8124.0,-0.30014535784721375,-81,9909.0
7500,0.3145853579044342,8.08487319946289,159,8124.0,-2.051217794418335,110,9909.0
7510,0.31473949551582336,3.0975706577301025,133,8124.0,2.0788872241973877,3,9909.0
7520,0.3148874342441559,2.739537239074707,-53,8124.0,-2.1190848350524902,-65,9909.0
7530,0.31577324867248535,-3.272303581237793,-50,8124.0,3.180021047592163,143,9909.0
7540,0.315962553024292,-8.220128059387207,-39,8124.0,1.21341073513031,121,9909.0
7550,0.31616097688674927,-6.593502044677734,-45,8124.0,0.6178041696548462,-172,9909.0
7560,0.3163626194000244,-12.007402420043945,-255,8124.0,2.766040563583374,51,9909.0
7570,0.3165544271469116,-5.5497941970825195,-58,8124.0,1.7058706283569336,139,9909.0
7580,0.31775355339050293,-6.961037635803223,-92,8124.0,2.846306085586548,13,9909.0
7590,0.31806913018226624,-3.871413230895996,-138,8124.0,1.1018251180648804,-32,9909.0
7600,0.3183712661266327,-1.9290462732315063,-126,8124.0,-2.804631471633911,-24,9909.0
7610,0.3187091052532196,2.4229860305786133,74,8124.0,-5.320963382720947,123,9909.0
7620,0.3186410367488861,7.16272497177124,340,8124.0,-4.5785112380981445,-16,9909.0
7630,0.31900909543037415,12.066731452941895,112,8124.0,-0.38731834292411804,-294,9909.0
7640,0.3193615972995758,4.086050510406494,-43,8124.0,-0.8639270663261414,-37,9909.0
7650,0.31969258189201355,1.4157418012619019,77,8124.0,1.0476588010787964,25,9909.0
7660,0.32002782821655273,-3.948249578475952,-42,8124.0,4.0925774574279785,-37,9909.0
7670,0.321902871131897,-3.8078739643096924,-75,8124.0,-0.3401091396808624,-45,9909.0
7680,0.322260320186615,-5.571693420410156,-151,8124.0,3.850433111190796,141,9909.0
7690,0.32262954115867615,-7.837860584259033,-33,8124.0,6.589568138122559,96,9909.0
7700,0.32301342487335205,-6.37425422668457,-109,8124.0,5.866731643676758,36,9909.0
7710,0.3248363733291626,-4.790113925933838,-107,8124.0,6.124504089355469,43,9909.0
7720,0.32528457045555115,-1.551173210144043,-24,8124.0,5.814852237701416,126,9909.0
7730,0.32576194405555725,0.5028973817825317,95,8124.0,1.8841731548309326,174,9909.0
7740,0.32624703645706177,4.458099842071533,262,8124.0,-4.381626605987549,-151,9909.0
7750,0.3268137574195862,7.782259464263916,7,8124.0,-3.753645658493042,-360,9909.0
7760,0.3272615075111389,3.466721773147583,-22,8124.0,-1.480202078819275,32,9909.0
7770,0.32770809531211853,2.410137176513672,89,8124.0,1.4010697603225708,84,9909.0
7780,0.3281248211860657,4.332157611846924,-36,8124.0,2.4927501678466797,26,9909.0
7790,0.3285261392593384,-0.9422526359558105,-101,8124.0,4.985969543457031,55,9909.0
7800,0.3287833333015442,3.622601270675659,44,8124.0,-1.1077594757080078,155,9909.0
7810,0.3292120695114136,-5.210297584533691,216,8124.0,2.4150562286376953,-135,9909.0
7820,0.3296741545200348,3.162680149078369,-21,8124.0,0.2560407221317291,-106,9909.0
7830,0.3301255404949188,2.844797372817993,-2,8124.0,0.39008629322052,106,9909.0
7840,0.33193162083625793,4.275131702423096,131,8124.0,1.6697168350219727,112,9909.0
7850,0.33242908120155334,5.206136703491211,97,8124.0,3.3920516967773438,-99,9909.0
7860,0.3329218924045563,6.536895275115967,28,8124.0,-0.302360475063324,-150,9909.0
7870,0.33343660831451416,11.760255813598633,123,8124.0,-6.968085289001465,12,9909.0
7880,0.33399584889411926,7.075394630432129,170,8124.0,-1.2059135437011719,-106,9909.0
7890,0.3332175612449646,3.267606496810913,-28,8124.0,1.0665868520736694,-94,9909.0
7900,0.33351966738700867,1.28017258644104,1,8124.0,-3.877460241317749,40,9909.0
7910,0.333808034658432,-2.9570016860961914,60,8124.0,-1.954827070236206,-235,9909.0
7920,0.3340829610824585,-4.376237869262695,-141,8124.0,0.46823787689208984,-442,9909.0
7930,0.3367377519607544,-4.124415397644043,-126,8124.0,-3.257966995239258,-12,9909.0
7940,0.33727261424064636,-7.314959526062012,-16,8124.0,3.1560282707214355,51,9909.0
7950,0.3378170132637024,-2.2384746074676514,-83,8124.0,3.3083291053771973,-70,9909.0
7960,0.3381911516189575,-0.7105568647384644,-75,8124.0,5.353376388549805,32,9909.0
7970,0.3383609354496002,0.7489128112792969,77,8124.0,0.8302431702613831,88,9909.0
7980,0.3386400043964386,1.1967812776565552,-22,8124.0,-1.4210233688354492,-37,9909.0
7990,0.33897340297698975,1.9407650232315063,53,8124.0,0.23474642634391785,158,9909.0
8000,0.3392547070980072,1.4357439279556274,43,8124.0,-2.5053372383117676,-102,9909.0
8010,0.339513897895813,5.333728790283203,-20,8124.0,-5.927547454833984,-124,9909.0
8020,0.33924680948257446,1.5470659732818604,3,8124.0,-9.066133499145508,67,9909.0
8030,0.3395206332206726,0.6120508909225464,-1,8124.0,-5.894282817840576,-68,9909.0
8040,0.33991917967796326,-2.466465473175049,-117,8124.0,-3.1303913593292236,-14,9909.0
8050,0.34014227986335754,-6.187102317810059,-83,8124.0,6.595949172973633,459,9909.0
8060,0.34125277400016785,-3.3852481842041016,38,8124.0,0.409740149974823,-42,9909.0
8070,0.34164926409721375,2.201894521713257,-12,8124.0,-2.9294426441192627,-21,9909.0
8080,0.3420156240463257,4.782751560211182,128,8124.0,5.870922565460205,199,9909.0
8090,0.342246949672699,2.2059855461120605,35,8124.0,8.185473442077637,-33,9909.0
8100,0.34254884719848633,0.568606972694397,-140,8124.0,10.813200950622559,112,9909.0
8110,0.3425801992416382,-1.5515007972717285,-21,8124.0,9.193455696105957,235,9909.0
8120,0.3427716791629791,-4.163040637969971,-103,8124.0,6.063260078430176,-44,9909.0
8130,0.3430592715740204,-4.449468612670898,-173,8124.0,-2.0351722240448,-61,9909.0
8140,0.3433156907558441,-6.493102550506592,-65,8124.0,0.16208896040916443,134,9909.0
8150,0.3449350595474243,-0.007116867695003748,93,8124.0,-6.035125732421875,-183,9909.0
8160,0.3451627194881439,0.49158480763435364,-19,8124.0,-9.990480422973633,-169,9909.0
8170,0.3454815447330475,1.6578831672668457,81,8124.0,-6.499898910522461,6,9909.0
8180,0.3458158075809479,4.073725700378418,106,8124.0,-6.212651252746582,-139,9909.0
8190,0.34647998213768005,-0.5894944667816162,-137,8124.0,2.371821403503418,-11,9909.0
8200,0.34691956639289856,3.1377131938934326,84,8124.0,1.3878135681152344,127,9909.0
8210,0.34729793667793274,2.315122604370117,33,8124.0,7.27821159362793,24,9909.0
8220,0.34762388467788696,2.4515764713287354,-78,8124.0,4.53757381439209,86,9909.0
8230,0.3480011820793152,-0.949413537979126,9,8124.0,1.6742466688156128,145,9909.0
8240,0.3495539128780365,-0.36760401725769043,-34,8124.0,0.9487192630767822,-98,9909.0
8250,0.3499393165111542,-0.999646782875061,-95,8124.0,-6.107365608215332,-88,9909.0
8260,0.35027292370796204,-4.060655117034912,3,8124.0,-5.546265602111816,-57,9909.0
8270,0.350591242313385,-3.4030942916870117,-82,8124.0,-6.7762298583984375,-335,9909.0
8280,0.3506499230861664,0.993080735206604,-130,8124.0,-10.399852752685547,-132,9909.0
8290,0.35092291235923767,-0.00021641589410137385,130,8124.0,-1.655503273010254,-19,9909.0
8300,0.3511626422405243,2.4267992973327637,-28,8124.0,3.728165626525879,6,9909.0
8310,0.35145893692970276,-0.38109683990478516,-35,8124.0,4.704236030578613,313,9909.0
8320,0.3522741496562958,2.0190727710723877,124,8124.0,8.505027770996094,93,9909.0
8330,0.35257819294929504,2.611753225326538,-24,8124.0,8.09573745727539,58,9909.0
8340,0.35288822650909424,2.0476176738739014,160,8124.0,5.754715919494629,131,9909.0
8350,0.35322311520576477,4.145893096923828,128,8124.0,-1.946210265159607,-91,9909.0
8360,0.3534822463989258,4.737274646759033,-43,8124.0,2.5774331092834473,16,9909.0
8370,0.35358694195747375,-2.428877830505371,30,8124.0,0.33342528343200684,-137,9909.0
8380,0.3538419306278229,-3.5588204860687256,-112,8124.0,-2.5401573181152344,-223,9909.0
8390,0.3541199564933777,-2.657536029815674,-80,8124.0,-7.227486610412598,-80,9909.0
8400,0.35431748628616333,-8.303954124450684,-79,8124.0,0.48558443784713745,3,9909.0
8410,0.3543754518032074,-6.618412017822266,-158,8124.0,-2.271690845489502,-117,9909.0
8420,0.35465899109840393,-3.622704267501831,-38,8124.0,-2.407606840133667,185,9909.0
8430,0.3549351990222931,-1.7169456481933594,75,8124.0,-2.9555907249450684,-196,9909.0
8440,0.35546573996543884,-0.8449254631996155,-65,8124.0,-0.7375295162200928,22,9909.0
8450,0.3557261526584625,-1.2575643062591553,58,8124.0,3.5865864753723145,186,9909.0
8460,0.35615983605384827,1.0130730867385864,-51,8124.0,3.6930553913116455,50,9909.0
8470,0.3569239377975464,-0.174852192401886,-152,8124.0,3.289228916168213,134,9909.0
8480,0.3576206862926483,-2.9027931690216064,10,8124.0,4.946600914001465,119,9909.0
8490,0.35782936215400696,-1.5702040195465088,-91,8124.0,2.050442695617676,-107,9909.0
8500,0.3595929443836212,-2.3253746032714844,-139,8124.0,-9.206632614135742,-63,9909.0
8510,0.3604205846786499,-1.3719573020935059,102,8124.0,-3.026801347732544,24,9909.0
8520,0.36108872294425964,2.3140311241149902,-20,8124.0,5.872475624084473,133,9909.0
8530,0.3615093231201172,4.01092004776001,49,8124.0,12.31552505493164,430,9909.0
8540,0.3598998486995697,4.418815612792969,212,8124.0,22.360273361206055,325,9909.0
8550,0.36022740602493286,4.1591620445251465,14,8124.0,27.60158920288086,348,9909.0
8560,0.3607807457447052,5.294567108154297,118,8124.0,27.42975616455078,526,9909.0
8570,0.36115753650665283,4.748726844787598,108,8124.0,24.640949249267578,233,9909.0
8580,0.3614729046821594,5.80818510055542,89,8124.0,23.87449073791504,336,9909.0
8590,0.36115312576293945,0.10540156066417694,127,8124.0,9.084383010864258,78,9909.0
8600,0.36151835322380066,-1.1378121376037598,-29,8124.0,1.5281401872634888,-128,9909.0
8610,0.3617810308933258,-0.854245662689209,30,8124.0,-6.7067365646362305,-28,9909.0
8620,0.36201635003089905,-1.7877672910690308,129,8124.0,-9.59163761138916,-197,9909.0
8630,0.3601321578025818,-1.7741984128952026,-66,8124.0,-13.507946014404297,-359,9909.0
8640,0.3602222502231598,1.554696798324585,31,8124.0,-10.96357250213623,-135,9909.0
8650,0.3603174090385437,1.1673074960708618,86,8124.0,-5.24908971786499,-113,9909.0
8660,0.3604062795639038,1.1889145374298096,-115,8124.0,-3.479464292526245,-168,9909.0
8670,0.36051419377326965,0.020457813516259193,-7,8124.0,-5.491804599761963,74,9909.0
8680,0.3587760627269745,-2.2806334495544434,-2,8124.0,-1.2296278476715088,-61,9909.0
8690,0.3587616980075836,-0.9544719457626343,-56,8124.0,0.17006482183933258,-52,9909.0
8700,0.35869482159614563,0.21648146212100983,41,8124.0,-3.9277446269989014,141,9909.0
8710,0.3585526943206787,0.8526886105537415,65,8124.0,-0.5109618902206421,-23,9909.0
8720,0.35781437158584595,-2.257389783859253,-163,8124.0,1.0539098978042603,171,9909.0
8730,0.3576837480068207,-3.8073887825012207,7,8124.0,-0.8498098254203796,61,9909.0
8740,0.35749849677085876,-2.064922571182251,-31,8124.0,-6.294118881225586,-118,9909.0
8750,0.35737770795822144,-6.096722602844238,-209,8124.0,-2.821638345718384,-135,9909.0
8760,0.3559325039386749,-1.6622393131256104,16,8124.0,-10.467096328735352,-84,9909.0
8770,0.3557230830192566,3.264683246612549,84,8124.0,-12.986719131469727,-188,9909.0
8780,0.3554559350013733,0.9195808172225952,-57,8124.0,-9.28866195678711,-203,9909.0
8790,0.3551657795906067,5.385725498199463,105,8124.0,-12.897701263427734,13,9909.0
8800,0.3549456000328064,-1.9590787887573242,91,8124.0,-10.958732604980469,-75,9909.0
8810,0.35633641481399536,0.1260812133550644,-91,8124.0,-5.77774715423584,-126,9909.0
8820,0.356143981218338,0.19803264737129211,8,8124.0,-2.3298707008361816,61,9909.0
8830,0.3559149503707886,-3.2801244258880615,57,8124.0,-0.01506016869097948,-84,9909.0
8840,0.35574662685394287,-5.185109615325928,-89,8124.0,1.11081063747406,-128,9909.0
8850,0.35491880774497986,-0.9510389566421509,15,8124.0,-3.389584541320801,11,9909.0
8860,0.3546932339668274,-3.99537992477417,88,8124.0,-2.6378867626190186,7,9909.0
8870,0.3545466661453247,0.04237780347466469,-85,8124.0,-5.234323024749756,-182,9909.0
8880,0.3543998599052429,-2.473423957824707,-165,8124.0,-12.525618553161621,-159,9909.0
8890,0.3537397086620331,-2.836684465408325,35,8124.0,-13.040051460266113,-82,9909.0
8900,0.353602796792984,-2.2587437629699707,25,8124.0,-9.307347297668457,-298,9909.0
8910,0.3535793125629425,-2.055659055709839,-92,8124.0,-12.844583511352539,-309,9909.0
8920,0.35358789563179016,-0.5835219025611877,75,8124.0,-7.072611331939697,-32,9909.0
8930,0.35359662771224976,0.8027628064155579,61,8124.0,-6.8912739753723145,-79,9909.0
8940,0.35380303859710693,-3.266984462738037,-169,8124.0,1.1562529802322388,-69,9909.0
8950,0.3539673089981079,-2.7666680812835693,10,8124.0,2.8297088146209717,118,9909.0
8960,0.3541116416454315,-3.3113017082214355,21,8124.0,3.6658778190612793,-24,9909.0
8970,0.35433343052864075,-3.2265594005584717,-88,8124.0,7.343308925628662,-139,9909.0
8980,0.3555414080619812,-3.657371759414673,-108,8124.0,-0.9496484994888306,41,9909.0
8990,0.355907142162323,-4.1001410484313965,24,8124.0,-7.265106678009033,-104,9909.0
9000,0.3563160002231598,-2.423675298690796,-101,8124.0,-10.206067085266113,-278,9909.0
9010,0.3567340672016144,-4.234328269958496,-171,8124.0,-10.083600997924805,-121,9909.0
9020,0.35718539357185364,-2.5511834621429443,36,8124.0,-6.946753978729248,-26,9909.0
9030,0.35800689458847046,-1.0829522609710693,-49,8124.0,-0.6282016634941101,-86,9909.0
9040,0.35851728916168213,2.5028367042541504,9,8124.0,-3.3241093158721924,0,9909.0
9050,0.35903868079185486,3.758148431777954,162,8124.0,3.2919297218322754,54,9909.0
9060,0.35952481627464294,2.3107311725616455,33,8124.0,1.205875277519226,-53,9909.0
9070,0.3622128665447235,5.743239879608154,47,8124.0,6.657004356384277,176,9909.0
9080,0.36279553174972534,2.8635077476501465,161,8124.0,-0.3242863416671753,21,9909.0
9090,0.36334314942359924,1.5428824424743652,-97,8124.0,-4.514343738555908,-128,9909.0
9100,0.3639163672924042,0.5711253881454468,-1,8124.0,-2.9891550540924072,17,9909.0
9111,0.3642795979976654,-1.645994782447815,16,8124.0,-1.6743556261062622,-154,9909.0
9120,0.36480021476745605,-2.3555305004119873,-166,8124.0,-0.9090869426727295,-118,9909.0
9130,0.3653179109096527,-2.0021185874938965,24,8124.0,-6.516290187835693,31,9909.0
9140,0.3658663332462311,-1.696875810623169,-48,8124.0,-0.4777389466762543,-75,9909.0
9150,0.36641818284988403,-1.7964296340942383,-75,8124.0,2.4721808433532715,134,9909.0
9160,0.3667677938938141,-0.7013782262802124,74,8124.0,0.05221686512231827,111,9909.0
9170,0.367280513048172,1.2867847681045532,-19,8124.0,5.839139461517334,72,9909.0
9180,0.36777225136756897,2.4244515895843506,103,8124.0,6.368642807006836,208,9909.0
9190,0.3682132661342621,4.1839704513549805,86,8124.0,7.490984916687012,40,9909.0
9200,0.3683398962020874,2.0162370204925537,83,8124.0,5.08125638961792,169,9909.0
9210,0.36867755651474,2.611448049545288,21,8124.0,11.271679878234863,12,9909.0
9220,0.3689720034599304,2.718001127243042,-48,8124.0,3.2933192253112793,150,9909.0
9230,0.36928051710128784,-0.333364874124527,164,8124.0,2.930947780609131,164,9909.0
9240,0.3695138096809387,1.1460119485855103,-30,8124.0,1.2442227602005005,-22,9909.0
9250,0.3707033097743988,-1.0444728136062622,-18,8124.0,1.0605225563049316,142,9909.0
9260,0.37089940905570984,-1.5828748941421509,38,8124.0,1.881027340888977,-95,9909.0
9270,0.3710489273071289,-1.4034651517868042,-94,8124.0,0.4861642122268677,54,9909.0
9280,0.37114590406417847,-0.37071311473846436,26,8124.0,3.0418145656585693,68,9909.0
9290,0.3715490400791168,-0.596834123134613,-59,8124.0,5.96001672744751,-7,9909.0
9300,0.3716304898262024,-1.4766451120376587,-44,8124.0,4.3255133628845215,219,9909.0
9310,0.37168529629707336,-1.1206895112991333,58,8124.0,6.966464996337891,84,9909.0
9320,0.37171173095703125,-1.762384057044983,-92,8124.0,7.013757705688477,52,9909.0
9330,0.3714357614517212,0.15802258253097534,36,8124.0,4.920354843139648,234,9909.0
9340,0.37145280838012695,-1.0140042304992676,36,8124.0,2.871791362762451,-49,9909.0
9350,0.3714347183704376,2.074716091156006,-43,8124.0,4.055936336517334,61,9909.0
9360,0.3714669346809387,3.5382869243621826,134,8124.0,2.6251981258392334,64,9909.0
9370,0.37154191732406616,1.006956696510315,131,8124.0,16.233884811401367,-81,9909.0
9380,0.3714151084423065,3.2479238510131836,14,8124.0,-0.30918657779693604,46,9909.0
9390,0.37141257524490356,3.6198573112487793,127,8124.0,-0.3611730933189392,7,9909.0
9400,0.37136831879615784,2.925950288772583,-69,8124.0,4.845815658569336,-49,9909.0
9410,0.37133100628852844,3.8736321926116943,22,8124.0,1.2717043161392212,123,9909.0
9420,0.3716341257095337,3.242326259613037,105,8124.0,5.459498882293701,134,9909.0
9430,0.37162354588508606,3.4165265560150146,-68,8124.0,5.893599510192871,115,9909.0
9440,0.3716486096382141,1.1964056491851807,46,8124.0,6.102938175201416,227,9909.0
9450,0.37170127034187317,0.2494686096906662,-37,8124.0,4.167510986328125,27,9909.0
9460,0.37178945541381836,-0.28085607290267944,-94,8124.0,3.2862050533294678,156,9909.0
9470,0.37237682938575745,-0.9950944185256958,130,8124.0,1.020593285560608,-23,9909.0
9480,0.37250691652297974,-0.9498758316040039,11,8124.0,1.1007760763168335,-119,9909.0
9490,0.3726488947868347,0.8006937503814697,67,8124.0,0.4793170392513275,104,9909.0
9500,0.37277862429618835,2.9297239780426025,143,8124.0,-0.1384977102279663,-35,9909.0
9510,0.3741980791091919,1.807997465133667,-81,8124.0,0.33855655789375305,-94,9909.0
9520,0.37443748116493225,2.3687736988067627,78,8124.0,2.9700756072998047,142,9909.0
9530,0.3747139275074005,2.5324156284332275,77,8124.0,0.7804961204528809,-146,9909.0
9540,0.37499526143074036,1.0983662605285645,-101,8124.0,-0.23369459807872772,7,9909.0
9551,0.37477394938468933,-1.1846766471862793,8,8124.0,3.8146238327026367,129,9909.0
9560,0.37506258487701416,-0.06047329306602478,-60,8124.0,1.6196743249893188,-108,9909.0
9570,0.37535643577575684,2.1163671016693115,-6,8124.0,-1.4698238372802734,-47,9909.0
9580,0.3756275177001953,-0.41801929473876953,129,8124.0,0.8176567554473877,1,9909.0
9590,0.37588435411453247,0.8486025333404541,-46,8124.0,2.067811965942383,-30,9909.0
9600,0.37577807903289795,-0.02215009555220604,28,8124.0,-0.20508205890655518,112,9909.0
9610,0.3760196268558502,-2.03727126121521,87,8124.0,-2.5229320526123047,-42,9909.0
9620,0.37621450424194336,2.0325675010681152,-19,8124.0,-3.3664774894714355,-18,9909.0
9630,0.3763967752456665,0.866767168045044,168,8124.0,-2.7124505043029785,7,9909.0
9640,0.37681981921195984,1.6119180917739868,71,8124.0,-1.8410404920578003,-111,9909.0
9650,0.3769828975200653,-0.5325186848640442,16,8124.0,-1.8587052822113037,58,9909.0
9660,0.3771170675754547,2.8152413368225098,136,8124.0,-0.40222129225730896,7,9909.0
9670,0.37723100185394287,1.1807384490966797,-40,8124.0,2.4310739040374756,36,9909.0
9680,0.37731820344924927,1.5836745500564575,100,8124.0,0.02468811348080635,44,9909.0
9690,0.3751208484172821,-1.072967529296875,22,8124.0,1.4917272329330444,-149,9909.0
9700,0.37503498792648315,2.199434280395508,-70,8124.0,-4.832975387573242,-76,9909.0
9710,0.37492483854293823,0.9063818454742432,147,8124.0,3.481201410293579,37,9909.0
9720,0.374875545501709,2.2717177867889404,-7,8124.0,2.350414276123047,-62,9909.0
9730,0.37481948733329773,5.6331095695495605,8,8124.0,10.114827156066895,200,9909.0
9740,0.37479957938194275,3.3445611000061035,79,8124.0,3.4060111045837402,81,9909.0
9750,0.37472912669181824,0.983943521976471,-92,8124.0,8.802206993103027,35,9909.0
9760,0.3746582865715027,-1.5691646337509155,58,8124.0,14.701536178588867,286,9909.0
9770,0.37458163499832153,0.21780307590961456,10,8124.0,4.507631778717041,34,9909.0
9780,0.3759293258190155,-0.10523819923400879,-72,8124.0,6.248899459838867,51,9909.0
9790,0.37587442994117737,2.0363147258758545,71,8124.0,-0.6004838943481445,154,9909.0
9800,0.37579214572906494,-0.766355574131012,47,8124.0,-3.2396130561828613,-54,9909.0
9810,0.37568920850753784,1.1024975776672363,-30,8124.0,-2.9337880611419678,99,9909.0
9820,0.37656569480895996,0.5591318607330322,73,8124.0,-2.2713606357574463,1,9909.0
9830,0.37654557824134827,2.2211313247680664,-81,8124.0,-4.843455791473389,-128,9909.0
9840,0.3765108287334442,0.736052393913269,-18,8124.0,-3.0963995456695557,91,9909.0
9850,0.37648171186447144,0.5119106769561768,90,8124.0,-1.4154713153839111,-42,9909.0
9860,0.37665536999702454,0.611717939376831,-74,8124.0,3.331688165664673,-105,9909.0
9870,0.3766287863254547,0.5456752777099609,4,8124.0,-3.120917797088623,136,9909.0
9880,0.376643568277359,0.9255770444869995,99,8124.0,0.4633483290672302,-31,9909.0
9890,0.3766495883464813,2.209113597869873,-95,8124.0,0.7513672113418579,-42,9909.0
9900,0.3766307532787323,3.295086622238159,-25,8124.0,-2.5883901119232178,90,9909.0
9910,0.37717920541763306,0.8113583326339722,61,8124.0,-6.767281532287598,-13,9909.0
9920,0.37725716829299927,0.2592484951019287,-64,8124.0,-7.752429485321045,-183,9909.0
9930,0.3773072361946106,0.08567936718463898,-38,8124.0,-10.979815483093262,-116,9909.0
9940,0.3773386478424072,-4.176630020141602,73,8124.0,-6.649683475494385,-61,9909.0
9950,0.378082811832428,-1.1314903497695923,-93,8124.0,-5.394335746765137,-135,9909.0
9960,0.37816473841667175,0.2793072760105133,-37,8124.0,-6.97938871383667,-46,9909.0
9970,0.3782688081264496,2.5330405235290527,136,8124.0,0.21873043477535248,76,9909.0
9980,0.37840142846107483,2.1934595108032227,-35,8124.0,-3.6070475578308105,-100,9909.0
9990,0.3785005509853363,-0.2598417401313782,-28,8124.0,3.3812966346740723,120,9909.0
10000,0.37844976782798767,2.441629409790039,132,8124.0,2.417536497116089,77,9909.0
10010,0.3786125183105469,4.667562961578369,9,8124.0,7.080095291137695,-48,9909.0
10020,0.37875205278396606,4.531558036804199,28,8124.0,-3.3832952976226807,28,9909.0
10030,0.3789088726043701,3.7857396602630615,166,8124.0,-4.612416744232178,-16,9909.0
10040,0.37907397747039795,2.8428280353546143,6,8124.0,-5.599928855895996,-167,9909.0
10050,0.37920933961868286,1.1458803415298462,-25,8124.0,-11.587713241577148,-241,9909.0
10060,0.37921303510665894,3.547248125076294,124,8124.0,-16.23128890991211,-213,9909.0
10070,0.37942254543304443,1.4937529563903809,-48,8124.0,-13.457886695861816,-340,9909.0
10080,0.37890663743019104,-0.5015570521354675,-65,8124.0,-10.08634090423584,-47,9909.0
10090,0.37902551889419556,-2.1534504890441895,84,8124.0,-6.514712810516357,-134,9909.0
10100,0.3790173828601837,2.0009849071502686,-74,8124.0,-5.557934761047363,-88,9909.0
10110,0.3790857195854187,3.502865791320801,98,8124.0,-3.232868194580078,121,9909.0
10120,0.37908583879470825,0.5252083539962769,37,8124.0,1.2499734163284302,12,9909.0
10130,0.3798955976963043,0.3712099492549896,-52,8124.0,1.9522945880889893,84,9909.0
10140,0.37988966703414917,-3.5417239665985107,65,8124.0,6.167603969573975,217,9909.0
10150,0.37994295358657837,-0.9510217905044556,-53,8124.0,2.470428705215454,-30,9909.0
10160,0.3799450695514679,-0.25614237785339355,-22,8124.0,0.20957213640213013,82,9909.0
10170,0.3795309364795685,1.101274013519287,121,8124.0,-4.429708480834961,-59,9909.0
10180,0.3795415163040161,1.2355130910873413,-56,8124.0,-4.902719974517822,-177,9909.0
10190,0.3795522153377533,1.2427442073822021,25,8124.0,-7.640263080596924,-22,9909.0
10200,0.37955379486083984,0.4575430452823639,91,8124.0,-3.561645269393921,-167,9909.0
10210,0.37954530119895935,0.06883959472179413,16,8124.0,0.8057671189308167,-1,9909.0
10220,0.38017383217811584,0.5046566128730774,52,8124.0,3.1192400455474854,86,9909.0
10230,0.3801822066307068,0.06759247183799744,-44,8124.0,7.041782855987549,-4,9909.0
10240,0.380344957113266,-2.05790376663208,-57,8124.0,10.217511177062988,288,9909.0
10250,0.3804202973842621,-0.9695456027984619,61,8124.0,5.756035327911377,123,9909.0
10260,0.37991687655448914,-2.6005353927612305,-110,8124.0,4.095418453216553,85,9909.0
10270,0.3799276351928711,-3.234452486038208,-14,8124.0,3.633164167404175,190,9909.0
10280,0.3800428509712219,-1.6183152198791504,-14,8124.0,-3.76008939743042,-144,9909.0
10290,0.38006365299224854,-1.3279900550842285,-89,8124.0,-4.407407760620117,-13,9909.0
10300,0.3797984719276428,-1.9338957071304321,66,8124.0,-4.30947208404541,-55,9909.0
10310,0.37983423471450806,-0.8452664613723755,-86,8124.0,-1.6768285036087036,-118,9909.0
10320,0.37999245524406433,-0.8893561959266663,-68,8124.0,-0.2160121351480484,127,9909.0
10330,0.3799992501735687,-1.545422077178955,123,8124.0,-0.044997308403253555,-68,9909.0
10340,0.3800278306007385,-0.5909754037857056,-71,8124.0,-1.8288706541061401,-15,9909.0
10350,0.3803987503051758,-0.2141994833946228,54,8124.0,-2.652308940887451,52,9909.0
10360,0.38036036491394043,-1.5483239889144897,-49,8124.0,-0.6096776127815247,-31,9909.0
10370,0.3802628815174103,-2.3101298809051514,-35,8124.0,2.7635388374328613,174,9909.0
10380,0.38016277551651,-3.2396342754364014,44,8124.0,6.820642471313477,-5,9909.0
10390,0.3776971995830536,-2.604257345199585,-128,8124.0,6.355499267578125,123,9909.0
10400,0.3774566650390625,-1.4384440183639526,32,8124.0,4.318814277648926,140,9909.0
10410,0.3772037923336029,0.7382021546363831,-16,8124.0,6.833530426025391,-26,9909.0
10420,0.3769645392894745,4.13868522644043,-13,8124.0,7.47067403793335,196,9909.0
10430,0.37674441933631897,2.356161594390869,23,8124.0,1.679750919342041,68,9909.0
10440,0.37671783566474915,1.21844482421875,33,8124.0,2.7736003398895264,189,9909.0
10450,0.3764949440956116,-0.6032135486602783,47,8124.0,3.083378314971924,13,9909.0
10460,0.3760935068130493,-2.0735692977905273,-202,8124.0,2.9319489002227783,7,9909.0
10470,0.37612226605415344,-2.514766216278076,-9,8124.0,0.673295259475708,82,9909.0
10480,0.37635350227355957,-4.247663497924805,-110,8124.0,3.128507614135742,-85,9909.0
10490,0.37621328234672546,-6.121932029724121,-130,8124.0,4.664080619812012,120,9909.0
10500,0.37608417868614197,-4.158082485198975,41,8124.0,-0.5502394437789917,11,9909.0
10510,0.3759896755218506,-1.9486585855484009,-109,8124.0,3.5790860652923584,96,9909.0
10520,0.3766677677631378,-1.282446265220642,31,8124.0,1.668730616569519,147,9909.0
10530,0.37660083174705505,-3.471308946609497,2,8124.0,0.8745819330215454,-81,9909.0
10540,0.3765382468700409,-1.0427865982055664,-43,8124.0,-0.4385812282562256,109,9909.0
10550,0.376516729593277,-2.0729050636291504,32,8124.0,5.279949188232422,69,9909.0
10560,0.37652379274368286,-2.5101640224456787,-146,8124.0,3.6679060459136963,30,9909.0
10570,0.3747555613517761,-2.420165777206421,-36,8124.0,2.7802019119262695,109,9909.0
10580,0.3746826946735382,-2.7890713214874268,-70,8124.0,-0.6508046388626099,-37,9909.0
10590,0.3746601939201355,-3.1210315227508545,-99,8124.0,-0.14931102097034454,92,9909.0
10600,0.37465810775756836,-6.523270606994629,24,8124.0,0.9955050349235535,-14,9909.0
10610,0.3751625716686249,-2.0026698112487793,-45,8124.0,-2.092545986175537,-118,9909.0
10620,0.375195175409317,-1.9664825201034546,9,8124.0,-2.0488362312316895,16,9909.0
10630,0.37522092461586,-0.4376738369464874,14,8124.0,-0.8754727244377136,-95,9909.0
10640,0.3752681314945221,1.5445959568023682,-136,8124.0,-1.4260056018829346,44,9909.0
10650,0.3759124279022217,1.8735039234161377,85,8124.0,2.6590890884399414,42,9909.0
10660,0.37596219778060913,2.745770215988159,-34,8124.0,3.479135274887085,-85,9909.0
10670,0.3760370910167694,3.0178723335266113,44,8124.0,0.34714475274086,180,9909.0
10680,0.37614962458610535,0.34400510787963867,82,8124.0,6.734063148498535,71,9909.0
10690,0.37626320123672485,0.9659742712974548,-36,8124.0,0.5219957828521729,60,9909.0
10700,0.37738874554634094,-3.0117299556732178,86,8124.0,1.7056633234024048,65,9909.0
10710,0.3775574862957001,-0.7689946889877319,-90,8124.0,-0.38948047161102295,-13,9909.0
10720,0.37765857577323914,-4.883070468902588,-40,8124.0,4.824028968811035,117,9909.0
10730,0.3778555989265442,-1.3395484685897827,-32,8124.0,3.487469434738159,-105,9909.0
10740,0.3783765435218811,-1.3672635555267334,-113,8124.0,5.867411136627197,44,9909.0
10750,0.3785844147205353,0.96170574426651,92,8124.0,8.972402572631836,199,9909.0
10760,0.37879636883735657,4.166500091552734,34,8124.0,6.855664253234863,119,9909.0
10770,0.3789620101451874,4.22328519821167,133,8124.0,5.423958778381348,196,9909.0
10780,0.3790929913520813,3.20477557182312,99,8124.0,6.16827392578125,-116,9909.0
10790,0.37870052456855774,4.800508975982666,-45,8124.0,-2.842214584350586,-12,9909.0
10800,0.37876078486442566,2.775485038757324,48,8124.0,-4.47304630279541,-29,9909.0
10810,0.3788325786590576,2.5054848194122314,-34,8124.0,-4.768850326538086,-127,9909.0
10820,0.3789052963256836,3.062204122543335,79,8124.0,-6.063293933868408,231,9909.0
10830,0.37859010696411133,1.0547484159469604,64,8124.0,-3.096175193786621,-102,9909.0
10840,0.3786331117153168,1.9062079191207886,38,8124.0,-1.694951057434082,59,9909.0
10850,0.37867629528045654,3.1872994899749756,157,8124.0,-4.053201198577881,-89,9909.0
10860,0.3787011206150055,3.987440347671509,-96,8124.0,-4.471086025238037,-124,9909.0
10871,0.3788290023803711,3.3723485469818115,17,8124.0,-7.497281551361084,-55,9909.0
10880,0.3788217008113861,-0.08608994632959366,-94,8124.0,3.185509443283081,-83,9909.0
10890,0.37881508469581604,-0.8742184638977051,-2,8124.0,4.623085975646973,155,9909.0
10900,0.3787892758846283,-1.001469373703003,-12,8124.0,7.161932468414307,54,9909.0
10910,0.3787149488925934,-3.0403096675872803,-99,8124.0,4.1112847328186035,140,9909.0
10920,0.379157155752182,-3.320390462875366,111,8124.0,5.942336559295654,82,9909.0
10930,0.37905338406562805,-1.3521802425384521,-125,8124.0,1.5690823793411255,-42,9909.0
10940,0.37895455956459045,-1.4725749492645264,24,8124.0,-1.0900850296020508,28,9909.0
10950,0.37884122133255005,-1.0256630182266235,-34,8124.0,-2.4142324924468994,-170,9909.0
10960,0.3787825107574463,-1.777481198310852,-144,8124.0,-3.0885515213012695,-7,9909.0
10970,0.37860456109046936,-0.2517804801464081,81,8124.0,-5.6540679931640625,-41,9909.0
10980,0.37853309512138367,2.3272666931152344,-41,8124.0,-7.586650371551514,-126,9909.0
10990,0.37842053174972534,-0.17696888744831085,-22,8124.0,-5.128100395202637,125,9909.0
11000,0.3783005177974701,-2.33986496925354,-116,8124.0,-2.980522871017456,-63,9909.0
11010,0.37691137194633484,-2.690614700317383,-61,8124.0,-1.6794154644012451,7,9909.0
11020,0.3768029808998108,-1.6468396186828613,16,8124.0,-2.923352003097534,52,9909.0
11030,0.37671762704849243,-0.12622320652008057,-106,8124.0,-4.1034255027771,-203,9909.0
11040,0.3766247630119324,-1.453292965888977,11,8124.0,-4.469511032104492,64,9909.0
11050,0.37556707859039307,-0.012584034353494644,-22,8124.0,-3.737118721008301,-97,9909.0
11060,0.37545958161354065,1.583635926246643,34,8124.0,-3.5941402912139893,77,9909.0
11070,0.3753190338611603,-0.38569122552871704,174,8124.0,-0.058448996394872665,-96,9909.0
11080,0.3752377927303314,3.0156991481781006,-41,8124.0,1.5847259759902954,21,9909.0
11090,0.3751161992549896,4.214904308319092,-1,8124.0,2.64570689201355,89,9909.0
11100,0.3753185272216797,5.557164192199707,121,8124.0,2.383171558380127,-129,9909.0
11110,0.3751458525657654,6.971505165100098,-17,8124.0,-1.1670074462890625,34,9909.0
11120,0.37497851252555847,2.2136824131011963,103,8124.0,1.7986433506011963,-57,9909.0
11130,0.3748677968978882,1.6227391958236694,-79,8124.0,-0.0010413163108751178,-105,9909.0
11140,0.3740549683570862,-0.5188093185424805,24,8124.0,-2.7351937294006348,49,9909.0
11150,0.37388932704925537,-0.07608261704444885,-22,8124.0,1.5678472518920898,-74,9909.0
11160,0.37371179461479187,-2.7473866939544678,-97,8124.0,4.018668174743652,211,9909.0
11170,0.3735637068748474,-4.26344633102417,128,8124.0,0.4134232699871063,20,9909.0
11180,0.37214434146881104,-2.6095728874206543,-78,8124.0,2.9959425926208496,-13,9909.0
11190,0.37196406722068787,-1.864391803741455,23,8124.0,0.5408228039741516,117,9909.0
11200,0.37177160382270813,-2.51804780960083,-16,8124.0,0.6022413372993469,-151,9909.0
11210,0.3716002106666565,-0.6628369092941284,-34,8124.0,1.0370128154754639,31,9909.0
11220,0.37148159742355347,0.45054706931114197,86,8124.0,4.088289737701416,-10,9909.0
11230,0.3712439239025116,3.9453248977661133,-60,8124.0,1.0338140726089478,-8,9909.0
11240,0.3711800277233124,3.0757198333740234,100,8124.0,-0.25355106592178345,104,9909.0
11250,0.37114417552948,2.9677467346191406,41,8124.0,1.3373857736587524,-88,9909.0
11260,0.3711625635623932,3.97308087348938,11,8124.0,-0.6361848711967468,77,9909.0
11270,0.37147775292396545,2.12911319732666,182,8124.0,-1.8931931257247925,-77,9909.0
11280,0.3714749217033386,1.8724955320358276,-18,8124.0,-3.0282986164093018,-38,9909.0
11290,0.37148624658584595,1.9988549947738647,130,8124.0,-0.5608755946159363,77,9909.0
11300,0.3715321123600006,-1.9194707870483398,-36,8124.0,5.927018165588379,-85,9909.0
11310,0.37101030349731445,0.39519330859184265,16,8124.0,3.293670415878296,4,9909.0
11320,0.37101566791534424,0.8531622290611267,-22,8124.0,-1.545302152633667,-101,9909.0
11330,0.37102261185646057,-2.3889753818511963,-104,8124.0,4.642549991607666,75,9909.0
11340,0.37103721499443054,-4.078579425811768,-44,8124.0,-1.434503436088562,60,9909.0
11350,0.3710770905017853,-1.6229548454284668,-60,8124.0,0.7423371076583862,12,9909.0
11360,0.37266311049461365,-2.961355209350586,113,8124.0,-4.180366516113281,-62,9909.0
11370,0.3728022873401642,-4.616655349731445,-140,8124.0,-3.425647735595703,-208,9909.0
11380,0.3729435205459595,-1.601813793182373,54,8124.0,-1.6112130880355835,65,9909.0
11390,0.3731061816215515,0.9352770447731018,-17,8124.0,-5.293673038482666,-204,9909.0
11400,0.37207338213920593,2.357428789138794,-29,8124.0,1.0532050132751465,110,9909.0
11410,0.37224042415618896,5.930411338806152,166,8124.0,-2.6428167819976807,13,9909.0
11420,0.37239447236061096,5.556027889251709,85,8124.0,3.548304557800293,163,9909.0
11430,0.3725099265575409,4.943296432495117,193,8124.0,5.333945274353027,4,9909.0
11440,0.37264764308929443,3.277623414993286,-24,8124.0,5.572061061859131,116,9909.0
11450,0.3733116388320923,-0.19822342693805695,56,8124.0,3.8371219635009766,56,9909.0
11460,0.37355801463127136,-1.6486599445343018,-141,8124.0,4.580979824066162,3,9909.0
11471,0.3738286793231964,-2.5773842334747314,-44,8124.0,3.166093349456787,154,9909.0
11480,0.3740134537220001,-4.359880447387695,-98,8124.0,3.525556802749634,-53,9909.0
11490,0.3741145133972168,-4.189678192138672,-48,8124.0,-0.3008127510547638,134,9909.0
11500,0.3742636442184448,-2.138373374938965,-1,8124.0,-2.293349504470825,-92,9909.0
11511,0.3744000792503357,-3.086292028427124,-63,8124.0,-1.3690403699874878,73,9909.0
11520,0.37450844049453735,-0.6237288117408752,59,8124.0,0.6009460091590881,-117,9909.0
11531,0.37436598539352417,1.115010142326355,-105,8124.0,-0.34563785791397095,65,9909.0
11540,0.3744184076786041,2.3167359828948975,84,8124.0,-0.3950813114643097,53,9909.0
11550,0.37447643280029297,3.3510525226593018,-25,8124.0,5.696601867675781,65,9909.0
11560,0.37456589937210083,3.850759744644165,85,8124.0,8.682250022888184,249,9909.0
11571,0.3746263086795807,1.8406834602355957,20,8124.0,10.631203651428223,83,9909.0
11580,0.37557774782180786,0.4648948013782501,40,8124.0,10.818915367126465,237,9909.0
11590,0.3755911886692047,-1.3072737455368042,6,8124.0,9.42190170288086,22,9909.0
11601,0.3756389319896698,-2.683112621307373,-136,8124.0,2.952820062637329,48,9909.0
11610,0.37567415833473206,-4.618671894073486,-39,8124.0,0.8863142132759094,-69,9909.0
11620,0.375801682472229,-4.4005913734436035,-168,8124.0,-2.5075483322143555,102,9909.0
11630,0.37584030628204346,-5.727931976318359,-58,8124.0,-4.450394630432129,-80,9909.0
11640,0.37588265538215637,-2.2834103107452393,5,8124.0,-6.329302787780762,-144,9909.0
11650,0.3759113848209381,-0.9708132743835449,2,8124.0,-7.147404670715332,-4,9909.0
11660,0.3758901059627533,-1.0997227430343628,121,8124.0,-4.820528030395508,-235,9909.0
11670,0.3755160868167877,-0.8891407251358032,-98,8124.0,-3.8429174423217773,-30,9909.0
11680,0.37543928623199463,-1.257581353187561,22,8124.0,2.839277982711792,-4,9909.0
11690,0.37534192204475403,-1.2397541999816895,-98,8124.0,0.07195140421390533,-59,9909.0
11700,0.37522077560424805,-3.7865524291992188,-69,8124.0,4.64626932144165,214,9909.0
11710,0.3754325807094574,-2.756999969482422,-12,8124.0,0.04976502060890198,34,9909.0
11720,0.3753489553928375,-0.6615651249885559,-70,8124.0,2.0374510288238525,56,9909.0
11730,0.37531599402427673,1.5460070371627808,108,8124.0,0.4590747356414795,69,9909.0
11740,0.37530773878097534,2.3446974754333496,102,8124.0,0.21393558382987976,-79,9909.0
11750,0.37532204389572144,5.164455890655518,8,8124.0,-0.4715830385684967,20,9909.0
11760,0.3764021098613739,1.478785753250122,78,8124.0,-0.05800342932343483,63,9909.0
11770,0.37648463249206543,1.206860065460205,23,8124.0,0.15078407526016235,-176,9909.0
11780,0.37656623125076294,0.04931613430380821,-108,8124.0,-0.895268976688385,-5,9909.0
11790,0.3766682744026184,-0.025122324004769325,32,8124.0,-1.1367114782333374,37,9909.0
11800,0.37605252861976624,0.46337637305259705,-45,8124.0,-1.1947492361068726,-164,9909.0
11810,0.37607985734939575,1.058520793914795,2,8124.0,-2.0669898986816406,-76,9909.0
11820,0.37612658739089966,0.30139920115470886,116,8124.0,-4.2726874351501465,-106,9909.0
11830,0.3761652112007141,3.9599268436431885,20,8124.0,-2.517871856689453,-184,9909.0
11840,0.37683725357055664,4.62357234954834,84,8124.0,-4.816836833953857,48,9909.0
11850,0.37679991126060486,1.8159582614898682,171,8124.0,-5.502713680267334,-138,9909.0
11860,0.3768000602722168,2.5271589756011963,-15,8124.0,-4.242932319641113,-170,9909.0
11870,0.37675973773002625,2.0056214332580566,82,8124.0,-7.5323710441589355,6,9909.0
11880,0.37670132517814636,0.19519326090812683,113,8124.0,-3.883148670196533,-212,9909.0
11890,0.37515679001808167,0.8282480835914612,-42,8124.0,-6.476837158203125,-46,9909.0
11900,0.3750104606151581,-2.36639404296875,49,8124.0,-5.682721138000488,-60,9909.0
11910,0.37490519881248474,-5.3222246170043945,-189,8124.0,-0.2523116171360016,-101,9909.0
11920,0.3747316896915436,-7.349354267120361,-123,8124.0,-4.628856182098389,43,9909.0
11930,0.37390807271003723,-10.240596771240234,-103,8124.0,-1.4253880977630615,-149,9909.0
11940,0.37367355823516846,-9.469752311706543,-226,8124.0,-3.051589012145996,-57,9909.0
11950,0.37338191270828247,-2.688051223754883,43,8124.0,-2.7946181297302246,-35,9909.0
11960,0.3730642795562744,-1.853519320487976,24,8124.0,-0.7442463636398315,-143,9909.0
11970,0.3732147514820099,0.5787573456764221,-94,8124.0,-0.004354215692728758,-27,9909.0
11980,0.3730241358280182,1.4429394006729126,122,8124.0,0.8644665479660034,90,9909.0
11990,0.37277695536613464,3.6434826850891113,58,8124.0,4.775240421295166,-57,9909.0
12000,0.37250828742980957,3.0864148139953613,21,8124.0,1.4954410791397095,153,9909.0
12010,0.37223127484321594,3.17641544342041,157,8124.0,-1.464608073234558,-29,9909.0
12020,0.373242050409317,2.6419851779937744,-7,8124.0,-6.552934169769287,-192,9909.0
12030,0.3731726109981537,1.4871851205825806,33,8124.0,-9.015461921691895,6,9909.0
12040,0.373074471950531,0.18205925822257996,61,8124.0,-10.555167198181152,-222,9909.0
12050,0.3730131685733795,-1.5726550817489624,-122,8124.0,-9.585223197937012,-106,9909.0
12060,0.37219998240470886,-3.6830880641937256,-4,8124.0,-7.406290531158447,-66,9909.0
12070,0.37210938334465027,-5.627872467041016,-116,8124.0,-4.920783042907715,-236,9909.0
12080,0.3720429241657257,-5.616776466369629,-109,8124.0,-0.26589852571487427,32,9909.0
12090,0.37200355529785156,-3.69641375541687,0,8124.0,-1.8007667064666748,-107,9909.0
12100,0.3719882071018219,-2.6016271114349365,-200,8124.0,-1.7926546335220337,-19,9909.0
12110,0.37198954820632935,-0.10437725484371185,41,8124.0,-0.9972401857376099,36,9909.0
12120,0.3720138370990753,0.278749018907547,-16,8124.0,2.6805436611175537,-16,9909.0
12130,0.3720453083515167,0.3875862658023834,1,8124.0,4.148110389709473,242,9909.0
12140,0.3720894157886505,2.659059524536133,82,8124.0,3.2668497562408447,78,9909.0
12150,0.37206652760505676,1.5715066194534302,-26,8124.0,7.90561580657959,124,9909.0
12160,0.3720809519290924,1.3028196096420288,120,8124.0,6.668323516845703,127,9909.0
12170,0.3721165359020233,-0.1709626317024231,-91,8124.0,5.597435474395752,-92,9909.0
12180,0.37220603227615356,0.5508897304534912,-31,8124.0,2.859400749206543,152,9909.0
12190,0.3717980682849884,-0.6716083288192749,-71,8124.0,3.4507830142974854,-38,9909.0
12200,0.37186112999916077,-2.232121467590332,-14,8124.0,0.46446001529693604,112,9909.0
12210,0.37192702293395996,0.14395347237586975,121,8124.0,-5.603826999664307,-99,9909.0
12220,0.37204745411872864,-0.527977705001831,-75,8124.0,-8.784804344177246,20,9909.0
12230,0.37217819690704346,-2.726593255996704,37,8124.0,2.2964088916778564,-25,9909.0
12240,0.37218165397644043,-0.42086178064346313,-165,8124.0,-3.6129796504974365,-106,9909.0
12250,0.37230604887008667,-3.3219377994537354,-24,8124.0,6.1970109939575195,147,9909.0
12260,0.3724110424518585,-4.212158679962158,-130,8124.0,6.616152763366699,139,9909.0
12270,0.3725638687610626,-4.618266582489014,31,8124.0,7.526804447174072,-3,9909.0
12280,0.3728155195713043,-1.6456608772277832,-199,8124.0,12.415952682495117,217,9909.0
12290,0.37292391061782837,-1.7476931810379028,15,8124.0,8.514656066894531,126,9909.0
12300,0.3730211853981018,-0.9792308807373047,-4,8124.0,5.896662712097168,54,9909.0
12310,0.37309032678604126,1.1576446294784546,64,8124.0,5.085104942321777,256,9909.0
12320,0.3731438219547272,0.8631681203842163,31,8124.0,3.4586598873138428,-108,9909.0
12330,0.37432417273521423,3.4757673740386963,-103,8124.0,-1.0293974876403809,-10,9909.0
12340,0.37442687153816223,3.8738975524902344,160,8124.0,6.938986301422119,105,9909.0
12350,0.3745078146457672,4.324437618255615,38,8124.0,1.7791627645492554,77,9909.0
12360,0.3746013343334198,1.9102357625961304,135,8124.0,2.084385633468628,22,9909.0
12370,0.3752067983150482,-0.7909469604492188,-68,8124.0,5.939024925231934,-183,9909.0
12380,0.3753303289413452,0.5873422026634216,-4,8124.0,-1.9860692024230957,-4,9909.0
12390,0.37544700503349304,-0.020560167729854584,-12,8124.0,0.7213537693023682,-79,9909.0
12400,0.3755466043949127,0.35272008180618286,-8,8124.0,0.6042994856834412,139,9909.0
12410,0.37502366304397583,0.589211642742157,109,8124.0,-2.5292069911956787,-158,9909.0
12420,0.37513312697410583,2.6124958992004395,-83,8124.0,2.662174701690674,-52,9909.0
12430,0.3752758204936981,2.947960376739502,98,8124.0,3.7854959964752197,44,9909.0
12440,0.3754225969314575,4.329257011413574,-28,8124.0,3.7245028018951416,65,9909.0
12450,0.37556061148643494,2.3655149936676025,165,8124.0,1.4198592901229858,153,9909.0
12460,0.3762568533420563,3.1107211112976074,49,8124.0,3.772545099258423,-98,9909.0
12470,0.37644320726394653,3.695279359817505,56,8124.0,-0.8996447324752808,-9,9909.0
12480,0.37662234902381897,5.13981294631958,69,8124.0,1.773331880569458,-89,9909.0
12490,0.37678954005241394,7.332688808441162,69,8124.0,0.791099488735199,61,9909.0
12500,0.37655264139175415,4.846063137054443,259,8124.0,1.0045713186264038,-15,9909.0
12510,0.3766402006149292,6.284183025360107,96,8124.0,1.8761893510818481,20,9909.0
12520,0.3767322301864624,6.5116496086120605,144,8124.0,-0.7997057437896729,-62,9909.0
12530,0.3768558204174042,2.0754406452178955,-74,8124.0,6.1780242919921875,-24,9909.0
12540,0.3769315183162689,4.244666576385498,18,8124.0,-5.496469020843506,-63,9909.0
12550,0.37693309783935547,-2.104161024093628,-25,8124.0,-3.183047294616699,-168,9909.0
12560,0.37691575288772583,-0.4846459627151489,-38,8124.0,-6.795158863067627,66,9909.0
12570,0.3768855035305023,-4.373106002807617,6,8124.0,-11.39450740814209,-167,9909.0
12580,0.376831978559494,-1.2610340118408203,-75,8124.0,-6.8807806968688965,-60,9909.0
12590,0.37641772627830505,-2.4427621364593506,37,8124.0,-0.29845574498176575,-76,9909.0
12600,0.3762873411178589,-0.12183656543493271,-166,8124.0,4.849004745483398,-21,9909.0
12610,0.37616321444511414,0.3359304368495941,61,8124.0,5.184907913208008,182,9909.0
12620,0.3760600686073303,3.430983304977417,31,8124.0,8.098284721374512,67,9909.0
12630,0.37597721815109253,2.85937237739563,22,8124.0,6.459805488586426,255,9909.0
12640,0.3758683204650879,1.2397727966308594,126,8124.0,5.151362895965576,57,9909.0
12650,0.37576138973236084,-0.5470503568649292,-75,8124.0,3.0043375492095947,22,9909.0
12660,0.37571683526039124,-0.11159509420394897,50,8124.0,-5.083011150360107,-17,9909.0
12670,0.3756461441516876,1.7982285022735596,7,8124.0,-5.380568981170654,-265,9909.0
12680,0.3757217526435852,1.5767345428466797,-13,8124.0,-7.522552490234375,17,9909.0
12690,0.3756529688835144,4.002714157104492,106,8124.0,-4.987968921661377,-35,9909.0
12700,0.3756168484687805,2.855090618133545,-87,8124.0,0.8235319256782532,92,9909.0
12710,0.37555214762687683,-0.06535486876964569,123,8124.0,-5.733020782470703,48,9909.0
12720,0.3753020763397217,-2.222291946411133,-87,8124.0,3.9325382709503174,83,9909.0
12730,0.37517139315605164,-3.8917007446289062,-39,8124.0,4.13687801361084,231,9909.0
12740,0.3750162124633789,-3.6140246391296387,-26,8124.0,3.57379150390625,15,9909.0
12750,0.37487292289733887,-5.208935260772705,-114,8124.0,5.1510090827941895,139,9909.0
12761,0.3744540512561798,-4.773230075836182,11,8124.0,2.5038070678710938,-7,9909.0
12770,0.3743150532245636,-2.2553396224975586,-71,8124.0,-1.3016211986541748,-159,9909.0
12780,0.3741609752178192,-4.000809669494629,9,8124.0,-1.7365052700042725,-9,9909.0
12790,0.3740134537220001,-0.8869494795799255,-26,8124.0,-6.357788562774658,-159,9909.0
12801,0.3738367557525635,-1.9601224660873413,-98,8124.0,-8.983070373535156,-152,9909.0
12810,0.3742273449897766,-1.4079346656799316,63,8124.0,-4.295090675354004,5,9909.0
12820,0.3741491436958313,-0.3277035057544708,-48,8124.0,-3.499044418334961,-119,9909.0
12830,0.37405240535736084,-0.6924666166305542,2,8124.0,-5.045032501220703,19,9909.0
12840,0.37399354577064514,-0.41897228360176086,69,8124.0,0.8488599061965942,-32,9909.0
12850,0.37357476353645325,1.923099398612976,-71,8124.0,-1.18696129322052,125,9909.0
12860,0.37348413467407227,-0.8218135237693787,96,8124.0,2.4470527172088623,77,9909.0
12870,0.3733932375907898,-0.4867061674594879,-78,8124.0,3.3284199237823486,-80,9909.0
12880,0.37329599261283875,-1.2305498123168945,39,8124.0,4.8313469886779785,131,9909.0
12890,0.3732304573059082,-0.9164496660232544,-41,8124.0,-0.8878381252288818,-42,9909.0
12900,0.37301504611968994,-1.9504905939102173,33,8124.0,2.0257246494293213,135,9909.0
12910,0.3728976547718048,-0.7969081401824951,-50,8124.0,-1.1419053077697754,-123,9909.0
12920,0.3727804124355316,0.6177787184715271,24,8124.0,-5.9082136154174805,55,9909.0
12930,0.37264707684516907,-0.4499341547489166,-4,8124.0,-0.3167944550514221,-110,9909.0
12940,0.3730836510658264,1.7875783443450928,-145,8124.0,-1.41191565990448,-148,9909.0
12950,0.3729650378227234,0.6776803731918335,46,8124.0,-5.03274393081665,-96,9909.0
12960,0.3728390336036682,-3.0467536449432373,-120,8124.0,0.033926814794540405,-86,9909.0
12970,0.3727172613143921,-2.3835155963897705,-1,8124.0,-1.498185396194458,14,9909.0
12980,0.37198585271835327,-3.799818992614746,-76,8124.0,1.6618268489837646,-29,9909.0
12990,0.37179720401763916,-2.9776551723480225,-12,8124.0,3.753504991531372,176,9909.0
13000,0.37164902687072754,-3.6136019229888916,-4,8124.0,0.04394838213920593,-80,9909.0
13010,0.3714987337589264,-4.549012184143066,-102,8124.0,1.6760984659194946,99,9909.0
13020,0.37141311168670654,-2.6896843910217285,-4,8124.0,4.621777534484863,3,9909.0
13030,0.3727779984474182,-1.500869870185852,-126,8124.0,6.532128810882568,35,9909.0
13040,0.37280866503715515,1.8088839054107666,71,8124.0,4.9525837898254395,98,9909.0
13050,0.3728088438510895,2.260580539703369,-16,8124.0,2.16372013092041,-28,9909.0
13060,0.3728373348712921,2.7069427967071533,89,8124.0,1.3042290210723877,201,9909.0
13070,0.3721543550491333,3.140899896621704,42,8124.0,1.7249650955200195,45,9909.0
13080,0.372193843126297,2.7605488300323486,17,8124.0,1.0550013780593872,190,9909.0
13090,0.37221774458885193,-0.7264812588691711,78,8124.0,1.9659315347671509,5,9909.0
13100,0.3722589313983917,-0.37153151631355286,-30,8124.0,3.6338248252868652,142,9909.0
13110,0.37231793999671936,-0.7804930806159973,35,8124.0,7.5728020668029785,66,9909.0
13120,0.3715287446975708,-2.037900924682617,-168,8124.0,8.635967254638672,61,9909.0
13130,0.3715636134147644,-2.1472227573394775,35,8124.0,5.686661243438721,82,9909.0
13140,0.3716031312942505,-0.7385638952255249,-128,8124.0,5.437650680541992,1,9909.0
13150,0.3715963363647461,-2.4328231811523438,-3,8124.0,6.04547643661499,195,9909.0
13160,0.37216830253601074,1.4587311744689941,-12,8124.0,3.2181873321533203,56,9909.0
13170,0.372256338596344,1.2056883573532104,18,8124.0,5.1606574058532715,241,9909.0
13180,0.37235334515571594,1.2608717679977417,123,8124.0,0.5422243475914001,-71,9909.0
13190,0.3724338114261627,1.4005018472671509,-14,8124.0,0.31176847219467163,40,9909.0
13201,0.37231481075286865,-0.9388871788978577,64,8124.0,-3.4494454860687256,-163,9909.0
13210,0.3723461329936981,-1.1791049242019653,-133,8124.0,-1.4571698904037476,-67,9909.0
13220,0.37237367033958435,-0.8891374468803406,25,8124.0,-5.401330947875977,-105,9909.0
13230,0.3724142014980316,-0.0520668551325798,-123,8124.0,-6.491320610046387,-143,9909.0
13240,0.3724699914455414,0.44381874799728394,111,8124.0,-7.899937152862549,-4,9909.0
13250,0.3727191686630249,1.4290944337844849,-24,8124.0,-2.2697315216064453,9,9909.0
13260,0.3727596700191498,0.5927096009254456,85,8124.0,5.129272937774658,229,9909.0
13270,0.37278589606285095,0.5288135409355164,-15,8124.0,5.951632976531982,38,9909.0
13280,0.37284690141677856,0.28999102115631104,25,8124.0,5.681407928466797,190,9909.0
13290,0.37255963683128357,-1.3134409189224243,-34,8124.0,4.361026763916016,-136,9909.0
13300,0.3726411461830139,-0.870313286781311,-27,8124.0,-3.6645007133483887,-29,9909.0
13310,0.37271320819854736,-2.612790822982788,-74,8124.0,-4.917787551879883,-168,9909.0
13320,0.3727160096168518,-4.721968650817871,-103,8124.0,-6.7521653175354,-11,9909.0
13330,0.37271028757095337,-5.893133163452148,-61,8124.0,-12.976645469665527,-112,9909.0
13340,0.37118029594421387,-5.277549743652344,-119,8124.0,-8.82241439819336,19,9909.0
13350,0.3710574209690094,-3.232560396194458,30,8124.0,-2.6929216384887695,-87,9909.0
13360,0.3709390163421631,-1.5408629179000854,-71,8124.0,-2.0599260330200195,10,9909.0
13370,0.37082549929618835,0.8332052826881409,95,8124.0,1.7787867784500122,-15,9909.0
13380,0.3712540864944458,2.524573564529419,-83,8124.0,1.886486291885376,28,9909.0
13390,0.3711516559123993,-0.13896533846855164,13,8124.0,2.047868490219116,105,9909.0
13400,0.3710862696170807,-0.5439246892929077,-100,8124.0,4.308757781982422,53,9909.0
13410,0.3710421621799469,-4.724817276000977,19,8124.0,2.9412131309509277,117,9909.0
13420,0.3709762990474701,-2.458526134490967,-63,8124.0,0.9535881876945496,-26,9909.0
13430,0.37046873569488525,-1.382918119430542,65,8124.0,2.8826851844787598,63,9909.0
13440,0.3703393042087555,0.08942999690771103,-25,8124.0,-1.9739567041397095,-143,9909.0
13450,0.37021970748901367,0.8053759932518005,13,8124.0,-1.2562686204910278,13,9909.0
13461,0.37011146545410156,2.8027474880218506,66,8124.0,-0.8595694303512573,-144,9909.0
13470,0.36914241313934326,4.8077712059021,9,8124.0,-1.044190764427185,30,9909.0
13480,0.36898624897003174,4.187743186950684,154,8124.0,-1.5909161567687988,-132,9909.0
13490,0.36884206533432007,2.7519266605377197,87,8124.0,-1.7718430757522583,42,9909.0
13500,0.36870911717414856,-0.08177435398101807,17,8124.0,1.9482866525650024,-243,9909.0
13510,0.3695468306541443,-1.6003955602645874,-21,8124.0,-4.140139579772949,-74,9909.0
13520,0.36949339509010315,-3.9600558280944824,-58,8124.0,0.06673216819763184,-108,9909.0
13530,0.36943838000297546,-6.517805099487305,-208,8124.0,-0.20065122842788696,70,9909.0
13540,0.3693985342979431,-5.404388904571533,-2,8124.0,-1.9035974740982056,9,9909.0
13550,0.3693908154964447,-3.380648612976074,-112,8124.0,-5.273141384124756,-7,9909.0
13560,0.369284063577652,-2.1801235675811768,55,8124.0,-1.623833179473877,106,9909.0
13570,0.36931300163269043,-1.0820378065109253,92,8124.0,0.6588788032531738,-52,9909.0
13580,0.3693198263645172,3.00182843208313,56,8124.0,-0.32107752561569214,86,9909.0
13590,0.36933115124702454,3.481703996658325,49,8124.0,3.637359142303467,-134,9909.0
13600,0.36999931931495667,2.6166534423828125,27,8124.0,2.0595149993896484,123,9909.0
13610,0.3700503706932068,5.618518829345703,78,8124.0,-0.16633327305316925,-44,9909.0
13620,0.3701256811618805,2.8796722888946533,-16,8124.0,-0.9199084639549255,86,9909.0
13630,0.37022683024406433,-1.2097760438919067,138,8124.0,-1.7178955078125,-77,9909.0
13640,0.36981290578842163,-0.4643942713737488,-21,8124.0,-0.3330349922180176,13,9909.0
13650,0.36988887190818787,-3.247162342071533,52,8124.0,0.3432016670703888,-6,9909.0
13660,0.36997929215431213,-1.4899481534957886,-127,8124.0,-6.204003810882568,-206,9909.0
13670,0.37009039521217346,-3.3843586444854736,-77,8124.0,-5.700601100921631,-54,9909.0
13680,0.3702084422111511,-1.2175698280334473,-28,8124.0,-1.4149057865142822,-99,9909.0
13690,0.3690914809703827,0.8149027228355408,43,8124.0,-1.219825267791748,131,9909.0
13700,0.3692154288291931,4.160948753356934,144,8124.0,3.438450336456299,-48,9909.0
13710,0.36940306425094604,3.8133132457733154,54,8124.0,3.3041725158691406,115,9909.0
13720,0.3696100413799286,3.515178680419922,94,8124.0,4.542982578277588,-95,9909.0
13730,0.36869314312934875,5.083632946014404,-58,8124.0,5.370902061462402,120,9909.0
13740,0.36878252029418945,3.123478889465332,81,8124.0,1.8681803941726685,3,9909.0
13750,0.3688284754753113,2.88035249710083,-23,8124.0,-0.23434579372406006,73,9909.0
13760,0.3688632547855377,-0.8130617141723633,201,8124.0,-0.009921799413859844,35,9909.0
13770,0.3688894212245941,0.2580522298812866,-73,8124.0,-4.886358261108398,-87,9909.0
13780,0.3693559169769287,-3.1283648014068604,-27,8124.0,-6.832050800323486,-68,9909.0
13790,0.36936646699905396,-2.938366413116455,-202,8124.0,-3.077357292175293,-129,9909.0
13800,0.36933642625808716,-1.8677618503570557,-25,8124.0,-2.909001588821411,32,9909.0
13810,0.36931538581848145,-1.6382321119308472,-48,8124.0,-1.6037318706512451,-67,9909.0
13820,0.3687934875488281,1.38742995262146,-3,8124.0,-0.8189957737922668,249,9909.0
13830,0.3687734603881836,1.0091053247451782,50,8124.0,-0.5660355687141418,-92,9909.0
13840,0.3687109053134918,2.3206114768981934,-14,8124.0,3.587937593460083,106,9909.0
13850,0.3685940206050873,2.8120334148406982,74,8124.0,0.00823572650551796,-102,9909.0
13861,0.3694383203983307,1.8647788763046265,-105,8124.0,-3.4226956367492676,-16,9909.0
13870,0.3693750500679016,-0.8899403810501099,64,8124.0,-1.2618170976638794,-37,9909.0
13880,0.36933526396751404,0.17306675016880035,-57,8124.0,-1.352609634399414,-17,9909.0
13890,0.369297057390213,-1.4098896980285645,39,8124.0,-7.039233207702637,-2,9909.0
13900,0.36920711398124695,-0.0473434180021286,-45,8124.0,-4.955633163452148,-115,9909.0
13910,0.3678090572357178,-0.3908715546131134,54,8124.0,-3.1615309715270996,76,9909.0
13920,0.3676295280456543,-1.634596347808838,-77,8124.0,0.8193665146827698,-78,9909.0
13930,0.3674401342868805,2.2885971069335938,56,8124.0,2.3143060207366943,104,9909.0
13941,0.36724528670310974,3.0599989891052246,4,8124.0,4.572849273681641,-27,9909.0
13950,0.36700642108917236,3.8650522232055664,-28,8124.0,1.7288589477539062,218,9909.0
13960,0.36670759320259094,1.1299808025360107,86,8124.0,7.652688026428223,129,9909.0
13970,0.36640116572380066,3.1886115074157715,8,8124.0,-0.6281625032424927,41,9909.0
13980,0.3661438524723053,0.9325335621833801,200,8124.0,2.742643356323242,50,9909.0
13990,0.3659159243106842,1.7672922611236572,26,8124.0,-0.2523886263370514,-71,9909.0
14000,0.36530813574790955,3.6217222213745117,87,8124.0,-2.2556662559509277,7,9909.0
14010,0.3650376796722412,3.926698923110962,46,8124.0,-3.825807809829712,-177,9909.0
14020,0.364769846200943,2.2786197662353516,99,8124.0,-0.7163475751876831,-33,9909.0
14030,0.364533931016922,2.44069242477417,11,8124.0,-2.3089213371276855,-107,9909.0
14040,0.36419519782066345,0.5426851511001587,-124,8124.0,-1.181394100189209,-19,9909.0
14050,0.36400333046913147,-1.283310890197754,19,8124.0,-2.829620122909546,-52,9909.0
14060,0.3638042211532593,-3.4172708988189697,-138,8124.0,-0.6932864785194397,-2,9909.0
14070,0.3637040853500366,-4.7841973304748535,-68,8124.0,4.670132637023926,143,9909.0
14080,0.36355143785476685,-2.2049551010131836,-27,8124.0,4.126967430114746,16,9909.0
14090,0.36405542492866516,-1.3139946460723877,70,8124.0,6.188287258148193,225,9909.0
14100,0.36402323842048645,3.0649354457855225,-62,8124.0,7.887683868408203,87,9909.0
14110,0.3640250861644745,3.6413915157318115,64,8124.0,4.956520080566406,169,9909.0
14121,0.36405330896377563,2.802649736404419,29,8124.0,2.8456246852874756,-58,9909.0
14130,0.3637016713619232,-0.4265482723712921,-100,8124.0,3.3170278072357178,178,9909.0
14140,0.36376965045928955,-0.7505031228065491,122,8124.0,1.9798475503921509,97,9909.0
14150,0.3638400435447693,-1.9885157346725464,-70,8124.0,1.7215001583099365,-8,9909.0
14160,0.3639342188835144,-0.7315340638160706,66,8124.0,-0.8371984958648682,108,9909.0
14170,0.3648144006729126,-1.178678035736084,-11,8124.0,-2.3290255069732666,-84,9909.0
14180,0.36496010422706604,0.4925915598869324,27,8124.0,1.34568190574646,105,9909.0
14190,0.3651069700717926,0.7824887633323669,46,8124.0,4.785761833190918,-23,9909.0
