timestamp,kalman.stateZ,gyro.x,gyro.xRaw,gyro.xVariance,gyro.y,gyro.yRaw,gyro.yVariance
0,0.2430550456047058,-0.044064100831747055,0,8124.0,1.8150827884674072,30,9909.0
10,0.2432912290096283,0.14654891192913055,-1,8124.0,1.727636456489563,27,9909.0
20,0.24354025721549988,0.07260005921125412,0,8124.0,1.5709391832351685,17,9909.0
30,0.24362315237522125,0.15113161504268646,-7,8124.0,1.5109729766845703,24,9909.0
40,0.2437247335910797,-0.22298766672611237,-9,8124.0,0.9985132217407227,21,9909.0
50,0.2434774935245514,0.012736504897475243,6,8124.0,0.5320820212364197,2,9909.0
60,0.24374251067638397,1.1044652462005615,11,8124.0,-1.1115593910217285,-23,9909.0
70,0.24383077025413513,2.544860601425171,64,8124.0,-2.702991485595703,-56,9909.0
80,0.2439274787902832,2.5997707843780518,14,8124.0,-3.8219616413116455,-56,9909.0
90,0.24286401271820068,7.023532867431641,150,8124.0,-7.368154048919678,-145,9909.0
100,0.24304494261741638,5.462088584899902,151,8124.0,-7.480785846710205,-165,9909.0
110,0.2430754154920578,9.002535820007324,124,8124.0,-10.093602180480957,-188,9909.0
120,0.24318258464336395,10.220398902893066,144,8124.0,-11.705940246582031,-177,9909.0
130,0.24196819961071014,9.204252243041992,151,8124.0,-12.341983795166016,-184,9909.0
140,0.24193935096263885,7.967711448669434,155,8124.0,-11.481534004211426,-167,9909.0
150,0.2419327348470688,6.011301040649414,103,8124.0,-10.482954025268555,-153,9909.0
160,0.24189725518226624,4.2229390144348145,55,8124.0,-8.90321159362793,-67,9909.0
170,0.24193502962589264,2.8927433490753174,33,8124.0,0.36021649837493896,-35,9909.0
180,0.24239641427993774,-0.32891249656677246,39,8124.0,0.9268117547035217,2,9909.0
190,0.24241502583026886,-1.149657130241394,-50,8124.0,3.1998674869537354,117,9909.0
200,0.24242497980594635,-1.798345685005188,-5,8124.0,5.812222957611084,65,9909.0
210,0.2424367219209671,-0.9640584588050842,-14,8124.0,6.247928619384766,112,9909.0
220,0.2418479323387146,0.2626989185810089,-3,8124.0,7.123356342315674,117,9909.0
230,0.24179457128047943,1.4467840194702148,60,8124.0,5.9985032081604,89,9909.0
240,0.24172420799732208,2.39996075630188,38,8124.0,5.391076564788818,40,9909.0
250,0.24167907238006592,3.8020622730255127,31,8124.0,3.0513479709625244,37,9909.0
260,0.2409612238407135,2.8826076984405518,102,8124.0,-0.374651163816452,74,9909.0
270,0.24085110425949097,3.7944204807281494,33,8124.0,-1.2982263565063477,-96,9909.0
280,0.24074463546276093,3.045318841934204,34,8124.0,-3.6681361198425293,-16,9909.0
290,0.24065552651882172,2.0241174697875977,61,8124.0,-6.092738151550293,-55,9909.0
300,0.24058209359645844,1.7932415008544922,15,8124.0,-6.6508893966674805,-89,9909.0
310,0.24062132835388184,1.2428652048110962,-7,8124.0,-5.503650665283203,-104,9909.0
320,0.24050119519233704,0.016533061861991882,24,8124.0,-5.3565754890441895,-22,9909.0
330,0.24040770530700684,-0.4985526204109192,20,8124.0,-4.333825588226318,-39,9909.0
340,0.24036994576454163,-1.6267896890640259,-6,8124.0,-1.7914173603057861,-66,9909.0
350,0.2409229278564453,-1.749032974243164,-39,8124.0,0.45304280519485474,-40,9909.0
360,0.24090391397476196,-1.5978811979293823,-67,8124.0,3.085458755493164,-26,9909.0
370,0.24093039333820343,-2.646929979324341,-111,8124.0,5.597466945648193,-29,9909.0
380,0.2409864366054535,-0.9594696164131165,-70,8124.0,7.7721662521362305,64,9909.0
390,0.24110092222690582,-2.1625709533691406,-22,8124.0,6.346911907196045,35,9909.0
400,0.24122607707977295,-2.042924642562866,24,8124.0,5.236950874328613,177,9909.0
410,0.2414223998785019,-1.2817026376724243,61,8124.0,5.0165300369262695,300,9909.0
420,0.24158386886119843,-0.165336012840271,67,8124.0,6.169335842132568,-6,9909.0
430,0.2417113184928894,2.877434253692627,79,8124.0,4.805171012878418,-189,9909.0
440,0.24119405448436737,3.0300066471099854,-16,8124.0,2.904542922973633,-188,9909.0
450,0.24145109951496124,3.8641109466552734,-28,8124.0,0.414201021194458,-146,9909.0
460,0.24181176722049713,3.634291887283325,-24,8124.0,-2.8881425857543945,-30,9909.0
470,0.24227505922317505,3.3717527389526367,-15,8124.0,-2.9414596557617188,82,9909.0
480,0.2436264604330063,2.4860618114471436,69,8124.0,-5.177840232849121,130,9909.0
490,0.2441217303276062,0.3551722764968872,84,8124.0,-5.292396068572998,145,9909.0
500,0.24448512494564056,-1.3722765445709229,130,8124.0,-4.924560070037842,67,9909.0
510,0.24474914371967316,-2.1218230724334717,-16,8124.0,-1.1376724243164062,-68,9909.0
520,0.2449546605348587,-1.4076024293899536,-53,8124.0,0.45408010482788086,-161,9909.0
530,0.24520166218280792,-1.6914347410202026,-65,8124.0,2.4220407009124756,-144,9909.0
540,0.2454483062028885,-2.319626808166504,-95,8124.0,5.05668830871582,-24,9909.0
550,0.2456928789615631,-3.2287797927856445,-24,8124.0,5.940290927886963,66,9909.0
560,0.24585562944412231,-1.2121278047561646,-30,8124.0,6.859784126281738,125,9909.0
570,0.2450810968875885,-1.7352228164672852,-84,8124.0,7.865306377410889,98,9909.0
580,0.24501775205135345,-0.5529576539993286,-9,8124.0,7.538745880126953,62,9909.0
590,0.2448810636997223,1.5549359321594238,-24,8124.0,5.755788326263428,73,9909.0
600,0.24464185535907745,1.498812198638916,-28,8124.0,3.152005195617676,51,9909.0
610,0.24384711682796478,1.0110816955566406,-15,8124.0,0.5342209339141846,46,9909.0
620,0.24372270703315735,1.2876616716384888,2,8124.0,-2.9980716705322266,26,9909.0
630,0.24364124238491058,1.1025569438934326,-49,8124.0,-4.471659183502197,22,9909.0
640,0.24357350170612335,3.6341280937194824,6,8124.0,-8.391067504882812,-244,9909.0
650,0.24353349208831787,1.6143240928649902,-3,8124.0,-8.984487533569336,-251,9909.0
660,0.24292011559009552,2.208056688308716,57,8124.0,-10.014610290527344,98,9909.0
670,0.24290311336517334,1.4228533506393433,54,8124.0,-8.190807342529297,72,9909.0
680,0.24291552603244781,0.8179510831832886,40,8124.0,-6.591153144836426,-92,9909.0
690,0.24287119507789612,0.4374077022075653,14,8124.0,-4.5739922523498535,105,9909.0
700,0.24322828650474548,-0.274565190076828,-16,8124.0,-0.527647852897644,159,9909.0
710,0.24318084120750427,-1.6949641704559326,-8,8124.0,2.109064817428589,132,9909.0
720,0.24312712252140045,-1.3443070650100708,-6,8124.0,5.275327682495117,142,9909.0
730,0.24317383766174316,-1.818924069404602,7,8124.0,8.300846099853516,143,9909.0
740,0.24290654063224792,-2.283372163772583,-75,8124.0,4.6947832107543945,142,9909.0
750,0.24296385049819946,-0.35335981845855713,53,8124.0,6.017248153686523,84,9909.0
760,0.2429044246673584,0.620174765586853,148,8124.0,6.609882354736328,-11,9909.0
770,0.24281154572963715,0.019006021320819855,127,8124.0,6.776223182678223,-34,9909.0
780,0.24262523651123047,2.779423236846924,64,8124.0,1.0412321090698242,10,9909.0
790,0.24250251054763794,4.4982008934021,161,8124.0,-1.0175834894180298,101,9909.0
800,0.2420678585767746,1.7134873867034912,95,8124.0,-4.162180423736572,131,9909.0
810,0.24163664877414703,2.1886415481567383,55,8124.0,-5.849302768707275,133,9909.0
820,0.24124492704868317,2.454771041870117,33,8124.0,-6.093005180358887,35,9909.0
830,0.24194946885108948,1.6361242532730103,-36,8124.0,-5.5518670082092285,-137,9909.0
840,0.24158376455307007,1.5238560438156128,-96,8124.0,-5.989815711975098,-162,9909.0
850,0.24137602746486664,-1.0820518732070923,-64,8124.0,-3.987189531326294,-105,9909.0
860,0.2411022037267685,-0.7513037323951721,-46,8124.0,-2.0708868503570557,-47,9909.0
870,0.24188508093357086,-1.5841423273086548,-78,8124.0,-0.7300412058830261,-128,9909.0
880,0.24159570038318634,-2.058676242828369,-87,8124.0,0.5803229212760925,-76,9909.0
890,0.24149958789348602,-0.24161647260189056,126,8124.0,3.148000717163086,72,9909.0
900,0.24168609082698822,-2.08793306350708,130,8124.0,2.235811471939087,168,9909.0
910,0.24237319827079773,-1.5552736520767212,15,8124.0,4.27067232131958,190,9909.0
920,0.24264222383499146,-1.00090491771698,-104,8124.0,5.209357738494873,153,9909.0
930,0.24288934469223022,-1.3219718933105469,-82,8124.0,5.131318092346191,-109,9909.0
940,0.24307887256145477,-1.0341006517410278,-21,8124.0,2.1004037857055664,5,9909.0
950,0.24316877126693726,0.4488612711429596,99,8124.0,-1.1122080087661743,24,9909.0
960,0.24306821823120117,2.9757080078125,10,8124.0,-1.8997191190719604,48,9909.0
970,0.24291840195655823,3.6915981769561768,25,8124.0,-3.823639154434204,-34,9909.0
980,0.24273647367954254,3.09142804145813,1,8124.0,-5.135530471801758,-145,9909.0
990,0.24262063205242157,2.505779981613159,1,8124.0,-4.498446464538574,-296,9909.0
1000,0.24355758726596832,1.5467865467071533,43,8124.0,-4.842474460601807,-34,9909.0
1010,0.24361369013786316,2.753615617752075,136,8124.0,-5.449183940887451,129,9909.0
1020,0.24366821348667145,3.9990389347076416,-60,8124.0,-2.4385733604431152,-67,9909.0
1030,0.24371443688869476,0.4259074926376343,-47,8124.0,0.3000156879425049,-130,9909.0
1040,0.24375177919864655,-1.104228138923645,43,8124.0,0.8217414617538452,75,9909.0
1050,0.24434924125671387,-1.8610998392105103,-47,8124.0,3.2147505283355713,75,9909.0
1060,0.2446293830871582,-2.861877679824829,-42,8124.0,4.2112226486206055,87,9909.0
1070,0.24496962130069733,-3.766284704208374,-105,8124.0,2.228595733642578,0,9909.0
1080,0.2454710602760315,-3.791856050491333,43,8124.0,3.2809553146362305,3,9909.0
1090,0.2455032765865326,-4.3180437088012695,-30,8124.0,1.348883032798767,169,9909.0
1100,0.2461576908826828,-1.7619956731796265,-119,8124.0,1.138595461845398,-190,9909.0
1110,0.24680638313293457,-0.3153987526893616,49,8124.0,-1.3389694690704346,115,9909.0
1120,0.24743592739105225,-0.3973589539527893,114,8124.0,-1.5676616430282593,4,9909.0
1130,0.24805480241775513,2.3446061611175537,-20,8124.0,-2.838247537612915,-121,9909.0
1140,0.24816523492336273,1.7383853197097778,40,8124.0,-3.3254151344299316,-76,9909.0
1150,0.24858112633228302,2.233304977416992,31,8124.0,-4.304335117340088,-12,9909.0
1160,0.24896246194839478,1.484421968460083,95,8124.0,-3.0111823081970215,2,9909.0
1170,0.2493155151605606,2.7697677612304688,-19,8124.0,-1.0139989852905273,-141,9909.0
1180,0.24744242429733276,1.4229189157485962,-30,8124.0,-0.378181517124176,81,9909.0
1190,0.24753783643245697,-0.6997990608215332,105,8124.0,2.1833581924438477,151,9909.0
1200,0.2476363182067871,-0.5288130640983582,-80,8124.0,3.9691667556762695,-59,9909.0
1210,0.24774552881717682,-0.8000890612602234,-32,8124.0,3.923715353012085,49,9909.0
1220,0.24727070331573486,-1.7366924285888672,-5,8124.0,4.8175787925720215,130,9909.0
1230,0.247467502951622,-1.2861579656600952,49,8124.0,4.2623395919799805,200,9909.0
1240,0.24777960777282715,1.1685662269592285,-92,8124.0,3.5990383625030518,-80,9909.0
1250,0.2481914907693863,-0.6772304177284241,43,8124.0,2.9298105239868164,62,9909.0
1260,0.24866972863674164,-0.9109678864479065,13,8124.0,1.2450883388519287,139,9909.0
1270,0.2484188973903656,-0.17595058679580688,-82,8124.0,1.6304030418395996,-158,9909.0
1280,0.248763307929039,-0.5679477453231812,72,8124.0,-1.247852087020874,43,9909.0
1290,0.24905262887477875,0.42879945039749146,-8,8124.0,-1.4638429880142212,3,9909.0
1300,0.24926796555519104,-0.6239535212516785,-5,8124.0,0.32466816902160645,-53,9909.0
1310,0.24769526720046997,-1.2723509073257446,-87,8124.0,0.7586576342582703,-82,9909.0
1320,0.24762150645256042,-0.42193612456321716,99,8124.0,0.44241413474082947,179,9909.0
1330,0.24744912981987,-1.3603301048278809,-88,8124.0,2.685467481613159,-26,9909.0
1340,0.2472434639930725,-2.3087329864501953,-16,8124.0,3.838468074798584,-34,9909.0
1350,0.2469969391822815,-0.91825932264328,-12,8124.0,1.7565855979919434,186,9909.0
1360,0.2468801736831665,-0.5715785622596741,-4,8124.0,2.7713370323181152,-54,9909.0
1370,0.2468864768743515,0.7612242698669434,-18,8124.0,1.4150248765945435,20,9909.0
1380,0.2467261403799057,0.948226809501648,125,8124.0,0.3849691152572632,117,9909.0
1390,0.2467283457517624,2.7059154510498047,-29,8124.0,2.696659803390503,-101,9909.0
1400,0.24630707502365112,2.684227705001831,52,8124.0,0.049916546791791916,17,9909.0
1410,0.24630305171012878,0.8615237474441528,54,8124.0,-1.3845129013061523,3,9909.0
1420,0.2461102157831192,1.7231978178024292,-15,8124.0,0.9372448921203613,-50,9909.0
1430,0.2461152970790863,1.8571010828018188,31,8124.0,1.2123371362686157,38,9909.0
1440,0.24452094733715057,1.3103570938110352,42,8124.0,0.10359420627355576,124,9909.0
1450,0.24441276490688324,0.9273662567138672,-37,8124.0,1.7169791460037231,-155,9909.0
1460,0.2442958950996399,0.836988627910614,131,8124.0,1.2968178987503052,177,9909.0
1470,0.2443336695432663,1.3930667638778687,-69,8124.0,4.434487819671631,16,9909.0
1480,0.24560675024986267,0.8681240677833557,72,8124.0,2.607457399368286,26,9909.0
1490,0.2455751597881317,2.3680455684661865,-6,8124.0,1.3740428686141968,64,9909.0
1500,0.2455281913280487,2.7465286254882812,15,8124.0,-1.3558261394500732,-40,9909.0
1510,0.24557983875274658,2.2963454723358154,70,8124.0,-0.7659808993339539,-9,9909.0
1520,0.24557600915431976,1.3026396036148071,32,8124.0,-0.8842372298240662,16,9909.0
1530,0.2460503876209259,2.0603694915771484,-31,8124.0,-1.5051860809326172,-141,9909.0
1540,0.24605730175971985,0.805026650428772,77,8124.0,-2.4925622940063477,124,9909.0
1550,0.24589510262012482,1.4875257015228271,-51,8124.0,-1.3870152235031128,-157,9909.0
1560,0.24589726328849792,0.7012250423431396,45,8124.0,-2.456997871398926,-33,9909.0
1570,0.24589402973651886,-0.15140362083911896,-12,8124.0,-1.7580691576004028,-45,9909.0
1580,0.24577271938323975,0.15757900476455688,-41,8124.0,-0.5204758048057556,-168,9909.0
1590,0.24557118117809296,-0.4750955402851105,137,8124.0,-1.5317425727844238,173,9909.0
1600,0.24530752003192902,0.8512139916419983,-118,8124.0,0.5015550255775452,-69,9909.0
1610,0.24461115896701813,0.31128817796707153,49,8124.0,1.8943120241165161,74,9909.0
1620,0.2442360520362854,0.2330455183982849,-48,8124.0,0.8248991966247559,-44,9909.0
1630,0.2438441514968872,1.1973416805267334,19,8124.0,-0.6219400763511658,-58,9909.0
1640,0.24340569972991943,-0.5280782580375671,47,8124.0,0.5279669761657715,93,9909.0
1650,0.2430952936410904,0.8137860894203186,-94,8124.0,0.5233893394470215,-54,9909.0
1660,0.24439477920532227,0.7057884931564331,150,8124.0,0.26355674862861633,114,9909.0
1670,0.24415501952171326,2.225811004638672,-29,8124.0,0.49686357378959656,-57,9909.0
1680,0.24394330382347107,1.3143341541290283,97,8124.0,-0.805203914642334,74,9909.0
1690,0.24374306201934814,5.621781826019287,54,8124.0,-2.6073782444000244,-92,9909.0
1700,0.2445085495710373,6.538638591766357,84,8124.0,-1.9099756479263306,-49,9909.0
1710,0.24442315101623535,5.686004161834717,153,8124.0,-2.349849224090576,65,9909.0
1720,0.24447353184223175,4.9820966720581055,-2,8124.0,-1.60556161403656,-235,9909.0
1730,0.2444930076599121,4.465901851654053,201,8124.0,-3.3398537635803223,138,9909.0
1740,0.2444562464952469,1.8622570037841797,34,8124.0,1.606347918510437,-67,9909.0
1750,0.2458415925502777,0.5298983454704285,26,8124.0,1.7173184156417847,62,9909.0
1760,0.245808944106102,0.3950488567352295,-45,8124.0,1.5085519552230835,6,9909.0
1770,0.24571360647678375,-0.5022686719894409,-64,8124.0,3.3195552825927734,-11,9909.0
1780,0.24576814472675323,-2.6579878330230713,70,8124.0,3.6169660091400146,155,9909.0
1790,0.2465336173772812,-2.9130465984344482,-140,8124.0,3.8300466537475586,-102,9909.0
1800,0.24641317129135132,-4.106693744659424,19,8124.0,-0.6943767666816711,49,9909.0
1810,0.24642813205718994,-3.763359308242798,-143,8124.0,-0.3309462368488312,-93,9909.0
1820,0.24639570713043213,-4.252523422241211,-30,8124.0,-2.5388267040252686,-25,9909.0
1830,0.24660466611385345,-2.098313570022583,-23,8124.0,-4.595484256744385,-48,9909.0
1840,0.24662838876247406,-3.0131380558013916,-52,8124.0,-4.202519416809082,-188,9909.0
1850,0.2466912567615509,-1.991845965385437,28,8124.0,-4.321761608123779,109,9909.0
1860,0.24673065543174744,0.7885227203369141,-146,8124.0,-5.057539939880371,-20,9909.0
1870,0.24670767784118652,-1.2489433288574219,127,8124.0,-2.851832628250122,83,9909.0
1880,0.24716800451278687,0.37878847122192383,-51,8124.0,-1.3354971408843994,-153,9909.0
1890,0.24726168811321259,0.3130966126918793,38,8124.0,0.9652012586593628,50,9909.0
1900,0.2471655011177063,1.9151698350906372,30,8124.0,0.6898791790008545,32,9909.0
1910,0.24720515310764313,1.9139084815979004,17,8124.0,1.9934126138687134,-4,9909.0
1920,0.24748237431049347,3.1717982292175293,70,8124.0,2.137324333190918,93,9909.0
1930,0.2474951446056366,2.363345146179199,29,8124.0,2.664262533187866,18,9909.0
1940,0.24756424129009247,0.11003582179546356,0,8124.0,3.266496181488037,30,9909.0
1950,0.24766536056995392,-0.6274996995925903,-39,8124.0,2.3035728931427,139,9909.0
1960,0.2477678805589676,-2.734365463256836,-9,8124.0,0.5398709774017334,100,9909.0
1970,0.24721108376979828,-1.7720296382904053,-67,8124.0,0.18590140342712402,-199,9909.0
1980,0.24729527533054352,-0.09540954232215881,127,8124.0,-4.3457207679748535,92,9909.0
1990,0.24729622900485992,0.12920574843883514,-162,8124.0,-2.226180076599121,-193,9909.0
2000,0.247237429022789,-1.1645015478134155,107,8124.0,-4.569056987762451,109,9909.0
2010,0.24787203967571259,-0.959596574306488,-69,8124.0,-3.1482508182525635,-136,9909.0
2020,0.2478431761264801,-1.763313889503479,-9,8124.0,-3.322150468826294,-31,9909.0
2030,0.2478215992450714,-2.6862616539001465,-28,8124.0,1.1815980672836304,3,9909.0
2040,0.24787892401218414,-0.4276443421840668,-19,8124.0,0.7164859175682068,-6,9909.0
2050,0.24800726771354675,-0.34852901101112366,-85,8124.0,2.838559627532959,29,9909.0
2060,0.24814580380916595,-0.06628695875406265,43,8124.0,1.4125562906265259,96,9909.0
2070,0.24844083189964294,0.8783850073814392,-9,8124.0,3.83662486076355,-42,9909.0
2080,0.2485828697681427,-0.2943990230560303,12,8124.0,6.728468894958496,72,9909.0
2090,0.2486577183008194,1.4774044752120972,56,8124.0,4.629169940948486,145,9909.0
2100,0.24801340699195862,2.0410399436950684,-26,8124.0,3.634944438934326,-42,9909.0
2110,0.24794939160346985,2.1010069847106934,96,8124.0,1.059314250946045,100,9909.0
2120,0.24791450798511505,1.3107123374938965,-54,8124.0,2.2127208709716797,-79,9909.0
2130,0.24794818460941315,1.7784607410430908,19,8124.0,-1.1172295808792114,20,9909.0
2140,0.24797604978084564,0.6297343969345093,22,8124.0,-4.763514995574951,-62,9909.0
2150,0.24801984429359436,0.275190532207489,17,8124.0,-6.0615129470825195,-45,9909.0
2160,0.24811162054538727,0.4734705686569214,-42,8124.0,-4.698523044586182,-134,9909.0
2170,0.24823814630508423,0.12042085826396942,142,8124.0,-4.80693244934082,75,9909.0
2180,0.24783599376678467,1.0576891899108887,-110,8124.0,-0.24453267455101013,-178,9909.0
2190,0.2479863464832306,-0.5833050012588501,23,8124.0,0.8083758354187012,108,9909.0
2200,0.2481762319803238,0.077202208340168,-64,8124.0,0.23906965553760529,100,9909.0
2210,0.24839717149734497,-0.9911574721336365,16,8124.0,2.6511731147766113,132,9909.0
2220,0.24865321815013885,0.7435740232467651,-40,8124.0,3.1582796573638916,-90,9909.0
2230,0.2485523819923401,0.7542658448219299,153,8124.0,1.3213109970092773,191,9909.0
2240,0.24875669181346893,1.0045158863067627,-109,8124.0,0.3647938072681427,-123,9909.0
2250,0.24891988933086395,0.8800162672996521,109,8124.0,2.805422306060791,187,9909.0
2260,0.2490658164024353,1.938786268234253,-58,8124.0,0.24513113498687744,-32,9909.0
2270,0.24875366687774658,-0.7633825540542603,-6,8124.0,0.7849830985069275,12,9909.0
2280,0.24889415502548218,-1.0476458072662354,-6,8124.0,0.37503623962402344,-97,9909.0
2290,0.2491067796945572,-0.0265034269541502,100,8124.0,0.6661792993545532,111,9909.0
2300,0.24930724501609802,-0.9997183084487915,-151,8124.0,0.8862665295600891,-174,9909.0
2310,0.24967968463897705,-1.9398540258407593,48,8124.0,1.1943825483322144,255,9909.0
2320,0.2498437911272049,-0.991169273853302,-88,8124.0,3.427664279937744,12,9909.0
2330,0.24998411536216736,-1.1333106756210327,37,8124.0,3.5802958011627197,25,9909.0
2340,0.25011464953422546,0.10620341449975967,1,8124.0,2.862959384918213,-77,9909.0
2350,0.2502840459346771,0.7048243880271912,-46,8124.0,-3.2464208602905273,59,9909.0
2360,0.2504921853542328,1.5484615564346313,49,8124.0,-1.60575532913208,-174,9909.0
2370,0.2506771683692932,-1.6521022319793701,4,8124.0,-1.040204644203186,157,9909.0
2380,0.2509191036224365,-0.6742019653320312,-64,8124.0,-0.7485170960426331,-139,9909.0
2390,0.25108158588409424,0.27212828397750854,24,8124.0,-1.4097630977630615,-43,9909.0
2400,0.250369131565094,1.3377883434295654,42,8124.0,-2.890439510345459,-63,9909.0
2410,0.2503862679004669,1.7938064336776733,-22,8124.0,-1.3078995943069458,75,9909.0
2420,0.2504372298717499,1.4705710411071777,-8,8124.0,2.7491214275360107,-145,9909.0
2430,0.25053587555885315,1.3272861242294312,76,8124.0,3.6726489067077637,236,9909.0
2440,0.25070273876190186,0.9394039511680603,3,8124.0,4.262802600860596,5,9909.0
2450,0.25058603286743164,4.374139308929443,138,8124.0,2.493682384490967,84,9909.0
2460,0.25070545077323914,4.476017951965332,35,8124.0,2.9160749912261963,39,9909.0
2470,0.25076213479042053,3.9476680755615234,45,8124.0,0.7261621952056885,100,9909.0
2480,0.250875324010849,2.7727863788604736,-91,8124.0,1.5316022634506226,-74,9909.0
2490,0.2509814202785492,-0.6665828227996826,126,8124.0,-1.847746729850769,172,9909.0
2500,0.25112491846084595,-1.5243818759918213,-146,8124.0,-2.852599859237671,-166,9909.0
2510,0.25127139687538147,-3.2447714805603027,3,8124.0,-1.0835052728652954,20,9909.0
2520,0.2514512538909912,-2.59548282623291,-53,8124.0,-0.3356621563434601,-33,9909.0
2530,0.25174033641815186,-2.1056857109069824,20,8124.0,-3.4958858489990234,43,9909.0
2540,0.25183483958244324,-2.7715811729431152,-157,8124.0,-3.929328203201294,-242,9909.0
2550,0.25193387269973755,-3.707193613052368,61,8124.0,-4.345633029937744,32,9909.0
2560,0.25204670429229736,-0.37174907326698303,-44,8124.0,-4.877216339111328,-63,9909.0
2570,0.2521464228630066,0.5566588640213013,-39,8124.0,0.9439219236373901,96,9909.0
2580,0.2529124319553375,0.46324414014816284,-13,8124.0,3.801607608795166,-2,9909.0
2590,0.25304025411605835,2.6640617847442627,98,8124.0,0.0284690260887146,64,9909.0
2600,0.253155380487442,0.1979624330997467,-3,8124.0,2.535360336303711,77,9909.0
2610,0.2531878352165222,-0.6444481015205383,-120,8124.0,2.65132212638855,3,9909.0
2620,0.2527441382408142,-1.3280413150787354,84,8124.0,3.6657729148864746,213,9909.0
2630,0.25274184346199036,-0.9019785523414612,-39,8124.0,3.6839821338653564,2,9909.0
2640,0.252728670835495,0.9111847877502441,35,8124.0,1.2150452136993408,44,9909.0
2650,0.25269177556037903,2.576056718826294,-21,8124.0,-0.10201408714056015,-126,9909.0
2660,0.25240951776504517,3.311253786087036,167,8124.0,-2.944140672683716,117,9909.0
2670,0.25238659977912903,2.7868528366088867,-10,8124.0,-0.04975580796599388,-10,9909.0
2680,0.2524150013923645,2.0180256366729736,49,8124.0,-1.2255058288574219,-104,9909.0
2690,0.25239232182502747,1.9540666341781616,28,8124.0,-1.658238172531128,-107,9909.0
2700,0.2523616850376129,1.221718430519104,7,8124.0,-0.14528720080852509,-82,9909.0
2710,0.25220292806625366,-0.1161532774567604,52,8124.0,-1.3460664749145508,159,9909.0
2720,0.25218427181243896,0.947395920753479,-184,8124.0,5.979894161224365,-57,9909.0
2730,0.2520909011363983,5.195525646209717,121,8124.0,4.513510704040527,170,9909.0
2740,0.25186851620674133,-1.2947790622711182,33,8124.0,6.314021587371826,110,9909.0
2750,0.2528989911079407,-1.6911942958831787,17,8124.0,2.3911898136138916,19,9909.0
2760,0.2527177631855011,-3.945100784301758,-138,8124.0,2.947342872619629,-49,9909.0
2770,0.25263410806655884,-3.276616096496582,-129,8124.0,0.681922197341919,-104,9909.0
2780,0.2525103688240051,-6.141786575317383,61,8124.0,-6.031747341156006,196,9909.0
2790,0.2529454231262207,-5.129024505615234,-178,8124.0,-5.2341485023498535,-145,9909.0
2800,0.2544080913066864,-5.1139655113220215,-53,8124.0,-6.569972515106201,-57,9909.0
2810,0.2544407844543457,-1.5136477947235107,-35,8124.0,-4.323336601257324,-100,9909.0
2820,0.25456660985946655,1.6415904760360718,52,8124.0,0.1311473548412323,-40,9909.0
2830,0.25493645668029785,2.6801013946533203,154,8124.0,6.211903095245361,264,9909.0
2840,0.2550952732563019,6.8739705085754395,24,8124.0,1.841933012008667,-24,9909.0
2850,0.25528502464294434,5.9350457191467285,120,8124.0,2.785541296005249,54,9909.0
2860,0.25551071763038635,5.573627948760986,76,8124.0,7.837282657623291,85,9909.0
2870,0.25576746463775635,5.127680778503418,150,8124.0,8.491415977478027,28,9909.0
2880,0.25679534673690796,2.5754306316375732,140,8124.0,9.23049259185791,248,9909.0
2890,0.2571087181568146,0.8655707240104675,-74,8124.0,2.89583420753479,1,9909.0
2900,0.2573988735675812,-2.8616294860839844,-75,8124.0,2.3742690086364746,121,9909.0
2910,0.25792109966278076,-4.444098949432373,-145,8124.0,0.25587138533592224,-9,9909.0
2920,0.2581973373889923,-3.7961411476135254,-62,8124.0,0.7977969646453857,-14,9909.0
2930,0.2606874406337738,-3.695016622543335,47,8124.0,-3.4480061531066895,99,9909.0
2940,0.2610419690608978,-4.37612247467041,-156,8124.0,-6.918392181396484,-254,9909.0
2950,0.26149454712867737,0.13548880815505981,31,8124.0,-7.5204339027404785,-109,9909.0
2960,0.261908620595932,0.8136192560195923,27,8124.0,-3.6376724243164062,-108,9909.0
2970,0.2617846727371216,2.148439884185791,68,8124.0,-5.108649730682373,-94,9909.0
2980,0.2621501684188843,1.9557422399520874,88,8124.0,-4.737177848815918,90,9909.0
2990,0.2625207304954529,-2.504436492919922,-10,8124.0,0.3478941023349762,-148,9909.0
3000,0.2628994286060333,1.0352442264556885,73,8124.0,-4.979655742645264,56,9909.0
3010,0.26324450969696045,-0.4693737328052521,-33,8124.0,4.233299732208252,24,9909.0
3020,0.26463019847869873,-1.4079034328460693,79,8124.0,2.596160411834717,129,9909.0
3030,0.26497340202331543,-1.3064438104629517,-108,8124.0,4.387875080108643,305,9909.0
3040,0.2652890980243683,-1.962668776512146,-45,8124.0,6.899151802062988,-100,9909.0
3050,0.26562386751174927,-2.11287522315979,28,8124.0,2.213696002960205,37,9909.0
3060,0.2655598521232605,1.1120293140411377,-38,8124.0,-2.180241584777832,-3,9909.0
3070,0.265838086605072,-0.1402413249015808,52,8124.0,-0.7502001523971558,80,9909.0
3080,0.2661193311214447,2.789088726043701,-22,8124.0,-4.4856953620910645,-193,9909.0
3090,0.2663269340991974,2.8187944889068604,72,8124.0,-7.793870449066162,-146,9909.0
3100,0.26629868149757385,0.08920175582170486,149,8124.0,-2.7645132541656494,121,9909.0
3110,0.2664504945278168,4.065871715545654,-40,8124.0,-7.006214618682861,39,9909.0
3120,0.2665806710720062,-0.6904141306877136,18,8124.0,-1.2543461322784424,-22,9909.0
3130,0.266682505607605,-1.3559162616729736,-87,8124.0,0.902800977230072,-46,9909.0
3140,0.26677846908569336,-2.6082329750061035,-48,8124.0,3.8278605937957764,-34,9909.0
3150,0.26692095398902893,-1.9110645055770874,65,8124.0,1.9288116693496704,116,9909.0
3160,0.267032653093338,-2.2105088233947754,-84,8124.0,4.4593353271484375,31,9909.0
3170,0.2671533226966858,-0.8498398065567017,35,8124.0,1.0357224941253662,33,9909.0
3180,0.26726284623146057,0.9016433954238892,47,8124.0,0.20658841729164124,202,9909.0
3190,0.2687801420688629,2.568190813064575,-59,8124.0,0.3416384756565094,-242,9909.0
3200,0.2689850330352783,1.945036768913269,95,8124.0,1.5786402225494385,-215,9909.0
3210,0.2691638767719269,2.4003217220306396,46,8124.0,-2.1316680908203125,32,9909.0
3220,0.26932665705680847,-0.8155474066734314,-87,8124.0,-0.017858115956187248,-15,9909.0
3230,0.2695227265357971,-1.573999285697937,49,8124.0,-3.1592841148376465,88,9909.0
3240,0.26869451999664307,-1.129386305809021,-30,8124.0,-5.31715726852417,280,9909.0
3250,0.2688026428222656,-4.199221611022949,-174,8124.0,2.532878875732422,-178,9909.0
3260,0.2689293324947357,-3.2664544582366943,71,8124.0,-1.2633343935012817,-88,9909.0
3270,0.269051194190979,-1.7732634544372559,-61,8124.0,2.071056842803955,2,9909.0
3280,0.26948827505111694,-0.596628725528717,-5,8124.0,0.09242697805166245,-101,9909.0
3290,0.2696482539176941,0.17470060288906097,124,8124.0,3.696268320083618,199,9909.0
3300,0.2698380947113037,1.3877619504928589,15,8124.0,4.1540446281433105,223,9909.0
3310,0.2700593173503876,1.9135044813156128,-74,8124.0,2.22756028175354,-146,9909.0
3320,0.26978883147239685,1.1113967895507812,56,8124.0,0.5903372764587402,70,9909.0
3330,0.26999709010124207,3.541743278503418,-26,8124.0,-2.4914193153381348,-48,9909.0
3340,0.27018967270851135,2.804858922958374,-2,8124.0,-3.146528959274292,-91,9909.0
3350,0.27037227153778076,2.6086442470550537,212,8124.0,-2.5819687843322754,34,9909.0
3360,0.2705687880516052,-1.6302708387374878,-12,8124.0,-1.3991645574569702,23,9909.0
3370,0.27126801013946533,-2.763974905014038,-14,8124.0,-1.634042501449585,-145,9909.0
3380,0.27151843905448914,-6.129904747009277,-11,8124.0,3.413355588912964,110,9909.0
3390,0.2717339098453522,-4.184901237487793,-110,8124.0,0.11072911322116852,-45,9909.0
3400,0.2719389796257019,-1.2905912399291992,-182,8124.0,2.8304014205932617,-161,9909.0
3410,0.27287864685058594,-1.611081838607788,84,8124.0,-4.192931652069092,-25,9909.0
3420,0.27313515543937683,1.9948451519012451,38,8124.0,4.626546382904053,64,9909.0
3430,0.27341052889823914,3.374408006668091,1,8124.0,7.998181343078613,-101,9909.0
3440,0.2737101912498474,4.235538959503174,154,8124.0,3.041451930999756,158,9909.0
3450,0.2739662230014801,3.131866931915283,-7,8124.0,1.9958090782165527,155,9909.0
3460,0.2743862569332123,5.10928201675415,-59,8124.0,2.4003100395202637,-34,9909.0
3470,0.27469009160995483,0.40615421533584595,68,8124.0,-0.784684419631958,58,9909.0
3480,0.2749677896499634,-1.2026879787445068,-17,8124.0,4.209702968597412,81,9909.0
3490,0.27528297901153564,-3.179755926132202,-69,8124.0,-1.0308703184127808,-189,9909.0
3500,0.275350421667099,-1.098750352859497,51,8124.0,-2.7765626907348633,53,9909.0
3510,0.2756652235984802,-1.5090209245681763,27,8124.0,0.35843852162361145,142,9909.0
3520,0.27600666880607605,-4.286924362182617,-152,8124.0,-1.8871163129806519,-46,9909.0
3530,0.2763420641422272,-3.546529531478882,-56,8124.0,1.740135669708252,111,9909.0
3540,0.2760545313358307,-2.3526084423065186,-14,8124.0,3.0943448543548584,137,9909.0
3550,0.2763977646827698,-2.23222279548645,-122,8124.0,5.881984233856201,46,9909.0
3560,0.2767355442047119,0.6154260635375977,3,8124.0,-2.442302703857422,-21,9909.0
3570,0.27706125378608704,-2.729611873626709,35,8124.0,2.7173306941986084,47,9909.0
3580,0.27741989493370056,-1.7941336631774902,-121,8124.0,1.5134855508804321,-63,9909.0
3590,0.2774539887905121,-1.038321852684021,-45,8124.0,0.7907270193099976,-8,9909.0
3600,0.27780991792678833,-0.759479284286499,14,8124.0,-2.4376020431518555,273,9909.0
3610,0.2781776487827301,1.1021596193313599,-140,8124.0,2.246739149093628,-7,9909.0
3620,0.27858030796051025,2.3275158405303955,86,8124.0,-4.656684875488281,-177,9909.0
3630,0.27975523471832275,1.0411475896835327,-8,8124.0,-5.437450408935547,36,9909.0
3640,0.2802043557167053,-2.3217649459838867,-177,8124.0,-2.702399969100952,-90,9909.0
3650,0.28067758679389954,-2.640857696533203,-42,8124.0,0.20668984949588776,-185,9909.0
3660,0.2811502516269684,-1.3227261304855347,16,8124.0,-5.630441188812256,169,9909.0
3670,0.281581848859787,0.12213805317878723,-74,8124.0,-0.18265864253044128,73,9909.0
3680,0.2834019064903259,-0.2131592482328415,17,8124.0,1.9487519264221191,-46,9909.0
3690,0.28390344977378845,-3.905500888824463,20,8124.0,2.272169828414917,161,9909.0
3700,0.2843758165836334,-0.8497861623764038,-65,8124.0,-1.315847396850586,-97,9909.0
3710,0.284840852022171,-2.8591654300689697,-96,8124.0,-0.8085784316062927,-324,9909.0
3720,0.28401243686676025,0.5252900123596191,147,8124.0,-1.4508302211761475,-1,9909.0
3730,0.28438475728034973,3.22399640083313,64,8124.0,-2.753856897354126,-6,9909.0
3740,0.28473690152168274,4.030987739562988,53,8124.0,-2.638226270675659,-129,9909.0
3750,0.28503960371017456,6.935242652893066,156,8124.0,-6.049235820770264,-25,9909.0
3760,0.2855581045150757,2.4482998847961426,-6,8124.0,-1.8655667304992676,58,9909.0
3770,0.2858186364173889,5.929399013519287,-142,8124.0,-3.628871202468872,2,9909.0
3780,0.28602126240730286,4.9807209968566895,-25,8124.0,-3.4192121028900146,86,9909.0
3790,0.28624579310417175,2.8172292709350586,54,8124.0,-2.9907493591308594,92,9909.0
3800,0.2864344120025635,1.1580077409744263,-57,8124.0,3.8305790424346924,-15,9909.0
3810,0.2868201434612274,1.189171314239502,67,8124.0,3.4864706993103027,78,9909.0
3820,0.2870122790336609,-4.598186016082764,143,8124.0,2.540372610092163,177,9909.0
3830,0.28738999366760254,-2.4102351665496826,-76,8124.0,3.2388362884521484,42,9909.0
3840,0.2876361310482025,0.7006277441978455,-12,8124.0,-2.9798195362091064,-113,9909.0
3850,0.2890870273113251,1.0858159065246582,60,8124.0,-2.0420804023742676,60,9909.0
3860,0.28941965103149414,3.133476495742798,57,8124.0,-4.69608736038208,14,9909.0
3870,0.28986015915870667,6.081394195556641,-9,8124.0,-4.258768558502197,-148,9909.0
3880,0.2902202010154724,6.925687313079834,257,8124.0,-2.0389082431793213,-326,9909.0
3890,0.29059457778930664,5.176255226135254,188,8124.0,-7.338539123535156,-60,9909.0
3900,0.2915799617767334,-0.3331831395626068,-34,8124.0,-4.9720139503479,-112,9909.0
3910,0.29200685024261475,-3.45487642288208,-132,8124.0,-2.093834638595581,-176,9909.0
3920,0.2924633324146271,-5.592216491699219,-42,8124.0,-4.64177942276001,-13,9909.0
3930,0.2929048538208008,-2.2272279262542725,-64,8124.0,-5.615975856781006,68,9909.0
3940,0.2924268841743469,-3.2343082427978516,-231,8124.0,5.280712127685547,86,9909.0
3950,0.2928360402584076,-4.456801414489746,-8,8124.0,4.006219863891602,91,9909.0
3960,0.29324671626091003,-3.6754558086395264,-2,8124.0,3.332899332046509,204,9909.0
3970,0.2936832010746002,-2.3436949253082275,-65,8124.0,2.9803500175476074,64,9909.0
3980,0.2948616147041321,1.8774479627609253,3,8124.0,6.112905025482178,-149,9909.0
3990,0.29531246423721313,-0.31386280059814453,60,8124.0,4.816903591156006,49,9909.0
4000,0.2957630157470703,0.6057160496711731,-6,8124.0,2.371124744415283,41,9909.0
4010,0.29619887471199036,1.4099597930908203,-63,8124.0,2.2818636894226074,34,9909.0
4020,0.2967492640018463,0.08548526465892792,69,8124.0,-0.23331207036972046,-123,9909.0
4030,0.29693469405174255,-1.107771873474121,97,8124.0,-1.0073765516281128,104,9909.0
4040,0.2977645695209503,-5.041656017303467,-26,8124.0,-6.288910865783691,-97,9909.0
4050,0.2984709143638611,-5.871006011962891,-103,8124.0,-4.269811630249023,-174,9909.0
4060,0.29908260703086853,-2.9131383895874023,33,8124.0,-5.2994303703308105,-61,9909.0
4070,0.2993922531604767,-1.4894042015075684,-94,8124.0,-2.134042978286743,-135,9909.0
4080,0.29993540048599243,0.1090780720114708,-96,8124.0,2.4518892765045166,-199,9909.0
4090,0.300498366355896,2.522263526916504,44,8124.0,0.16270285844802856,-183,9909.0
4100,0.3010421097278595,-2.1123483180999756,-15,8124.0,4.714876174926758,287,9909.0
4110,0.30156219005584717,-1.6231660842895508,-90,8124.0,9.650629043579102,121,9909.0
4120,0.3030218780040741,-1.157323956489563,46,8124.0,8.141880989074707,166,9909.0
4130,0.3037739098072052,-0.21255923807621002,58,8124.0,6.543551921844482,303,9909.0
4140,0.3042195737361908,-1.3934550285339355,53,8124.0,3.0295791625976562,11,9909.0
4150,0.3051692843437195,0.23613987863063812,-25,8124.0,-3.8920986652374268,-202,9909.0
4160,0.30616307258605957,1.2371271848678589,108,8124.0,-2.0983023643493652,17,9909.0
4170,0.30660805106163025,-1.5323193073272705,-47,8124.0,2.9623336791992188,37,9909.0
4180,0.3072676360607147,-1.947985291481018,-87,8124.0,2.960540294647217,-74,9909.0
4190,0.30789634585380554,-2.408243179321289,78,8124.0,-0.8677173852920532,3,9909.0
4200,0.30743154883384705,0.08468157052993774,22,8124.0,-4.000014305114746,131,9909.0
4210,0.30775684118270874,-0.1873662918806076,-135,8124.0,-5.100834369659424,-135,9909.0
4220,0.30819806456565857,-1.5132814645767212,-27,8124.0,-3.4638147354125977,-104,9909.0
4230,0.3091973066329956,0.561160683631897,-14,8124.0,1.6540437936782837,122,9909.0
4240,0.3094933331012726,4.028320789337158,103,8124.0,-1.2596936225891113,-26,9909.0
4250,0.30794891715049744,3.881254196166992,143,8124.0,-0.7411767244338989,-73,9909.0
4260,0.30809202790260315,4.730256080627441,129,8124.0,-3.175992727279663,83,9909.0
4270,0.3084045350551605,4.59785795211792,-31,8124.0,-2.4694597721099854,72,9909.0
4280,0.3085614740848541,-0.672431468963623,-1,8124.0,-0.7462571859359741,-57,9909.0
4290,0.3093821108341217,0.2503637671470642,73,8124.0,1.0762889385223389,71,9909.0
4300,0.3099297285079956,-0.3612135052680969,-18,8124.0,4.882293701171875,249,9909.0
4310,0.3101097047328949,-0.8829206228256226,-35,8124.0,6.25726842880249,141,9909.0
4320,0.31069377064704895,-1.775471568107605,65,8124.0,7.883668422698975,-80,9909.0
4330,0.31084683537483215,-3.3114206790924072,13,8124.0,10.499384880065918,188,9909.0
4340,0.31013742089271545,-2.7120792865753174,-104,8124.0,7.508504390716553,24,9909.0
4350,0.31038567423820496,-2.271632194519043,-64,8124.0,3.026416301727295,7,9909.0
4360,0.310367614030838,-3.0661492347717285,-20,8124.0,1.2866443395614624,134,9909.0
4370,0.3116016983985901,0.35631000995635986,-7,8124.0,-8.632476806640625,-42,9909.0
4380,0.31075581908226013,4.036735534667969,85,8124.0,-17.18195915222168,2,9909.0
4390,0.31097182631492615,-1.40858793258667,-53,8124.0,-13.07787799835205,-244,9909.0
4400,0.3113645017147064,-0.36810460686683655,33,8124.0,-7.203064441680908,-7,9909.0
4410,0.3118073046207428,-4.460598468780518,-60,8124.0,-3.2454593181610107,-39,9909.0
4420,0.3102581202983856,-1.3056254386901855,-61,8124.0,6.121477127075195,136,9909.0
4430,0.3110932409763336,3.3866453170776367,144,8124.0,7.506536960601807,55,9909.0
4440,0.31159141659736633,0.8898773193359375,176,8124.0,11.637139320373535,214,9909.0
4450,0.31178244948387146,2.0740115642547607,-37,8124.0,12.379037857055664,135,9909.0
4460,0.3130706548690796,2.5899109840393066,-23,8124.0,8.787360191345215,35,9909.0
4470,0.3112025856971741,2.283292055130005,23,8124.0,2.5192859172821045,137,9909.0
4480,0.3120507299900055,1.184871792793274,63,8124.0,-0.45055732131004333,204,9909.0
4490,0.31227678060531616,1.6260706186294556,18,8124.0,-6.523120880126953,-139,9909.0
4500,0.3126905560493469,-4.831392288208008,-156,8124.0,-5.6393656730651855,-165,9909.0
4510,0.31377938389778137,-0.20506489276885986,32,8124.0,3.148097276687622,125,9909.0
4520,0.31406325101852417,-0.5266838669776917,27,8124.0,0.7615117430686951,73,9909.0
4530,0.3154829442501068,2.717756748199463,36,8124.0,-0.3944186568260193,-25,9909.0
4540,0.3160540461540222,4.606513023376465,90,8124.0,-2.735785722732544,-287,9909.0
4550,0.3183577358722687,3.432349443435669,111,8124.0,-3.3220417499542236,-123,9909.0
4560,0.31665077805519104,5.067948818206787,217,8124.0,-6.392848014831543,9,9909.0
4570,0.31689563393592834,-1.5423551797866821,-131,8124.0,-6.6360764503479,-195,9909.0
4580,0.31725001335144043,-2.507028579711914,-15,8124.0,-4.6359357833862305,-24,9909.0
4590,0.31751319766044617,-2.097170114517212,60,8124.0,-1.9479687213897705,73,9909.0
4600,0.31752508878707886,0.9763701558113098,-12,8124.0,-0.23621731996536255,94,9909.0
4610,0.31775861978530884,3.7851057052612305,-49,8124.0,0.32190626859664917,-139,9909.0
4620,0.31792837381362915,-1.0865588188171387,78,8124.0,-5.372612476348877,-100,9909.0
4630,0.3180747330188751,1.8344249725341797,150,8124.0,-5.544394016265869,12,9909.0
4640,0.31851741671562195,4.953598976135254,15,8124.0,-3.824788808822632,-45,9909.0
4650,0.3186699450016022,2.392596960067749,-9,8124.0,-2.5191245079040527,-114,9909.0
4660,0.3187916874885559,2.186079263687134,67,8124.0,-1.6457737684249878,-69,9909.0
4670,0.3190140128135681,1.3871655464172363,252,8124.0,4.571101188659668,172,9909.0
4680,0.3191450536251068,2.5786349773406982,-16,8124.0,-1.377994418144226,-60,9909.0
4690,0.32163020968437195,-0.6886030435562134,-86,8124.0,3.5598714351654053,-107,9909.0
4700,0.3221205174922943,-5.0550689697265625,-22,8124.0,1.6788086891174316,-90,9909.0
4710,0.3229757249355316,-2.244711399078369,30,8124.0,0.25042107701301575,136,9909.0
4720,0.3250059485435486,-4.399143218994141,-116,8124.0,-2.426703929901123,-81,9909.0
4730,0.3256324529647827,-4.547720909118652,-268,8124.0,-5.962664604187012,-235,9909.0
4740,0.32409924268722534,-9.501070976257324,-134,8124.0,-2.1852214336395264,-93,9909.0
4750,0.3254803419113159,-7.248662948608398,-98,8124.0,1.284816026687622,229,9909.0
4760,0.3269585371017456,-7.555981159210205,-220,8124.0,16.635414123535156,328,9909.0
4770,0.32864466309547424,-12.48643970489502,-251,8124.0,37.867271423339844,560,9909.0
4780,0.32855015993118286,-14.4848051071167,-162,8124.0,44.581077575683594,782,9909.0
4790,0.3294775187969208,-12.966032028198242,-203,8124.0,49.8641471862793,790,9909.0
4800,0.3301393985748291,-12.237508773803711,-273,8124.0,48.17573547363281,494,9909.0
4810,0.3308351933956146,-14.113914489746094,-174,8124.0,50.12889862060547,461,9909.0
4820,0.3299918472766876,-5.10786247253418,117,8124.0,17.8507022857666,131,9909.0
4830,0.33055463433265686,-0.4070008397102356,13,8124.0,10.268848419189453,131,9909.0
4840,0.330966055393219,2.1845884323120117,7,8124.0,-0.3872767984867096,-78,9909.0
4850,0.33142220973968506,6.497786998748779,101,8124.0,-8.806227684020996,-303,9909.0
4860,0.3322892487049103,9.126776695251465,129,8124.0,-17.38587188720703,-244,9909.0
4870,0.33289918303489685,11.173039436340332,111,8124.0,-21.346912384033203,-358,9909.0
4880,0.3333800733089447,12.1990966796875,241,8124.0,-22.96192169189453,-447,9909.0
4890,0.33397379517555237,11.157470703125,321,8124.0,-19.185401916503906,-296,9909.0
4900,0.3345089554786682,6.808145523071289,78,8124.0,-7.916006565093994,-37,9909.0
4910,0.3344075381755829,7.672763824462891,166,8124.0,-1.7883602380752563,-130,9909.0
4920,0.33488017320632935,3.700486421585083,156,8124.0,4.860610485076904,119,9909.0
4930,0.33530545234680176,1.6863516569137573,-54,8124.0,4.164856433868408,147,9909.0
4940,0.3357657790184021,0.8768384456634521,60,8124.0,4.475916385650635,-86,9909.0
4950,0.3356778025627136,-0.12201301753520966,53,8124.0,-0.46779629588127136,59,9909.0
4960,0.3361362814903259,3.3496882915496826,-61,8124.0,-11.20081901550293,-162,9909.0
4970,0.33650684356689453,4.3293070793151855,-13,8124.0,-12.885540962219238,-396,9909.0
4980,0.3369233310222626,1.0301616191864014,92,8124.0,-20.049413681030273,-418,9909.0
4990,0.3372962474822998,0.4124499559402466,15,8124.0,-19.135019302368164,-302,9909.0
5000,0.33673393726348877,1.4258449077606201,7,8124.0,-18.935245513916016,-462,9909.0
5010,0.3370545208454132,1.837212324142456,198,8124.0,-17.652616500854492,-272,9909.0
5020,0.3374311327934265,1.8971257209777832,114,8124.0,-20.463703155517578,-225,9909.0
5030,0.33772146701812744,1.127136468887329,-58,8124.0,-15.51418399810791,-386,9909.0
5040,0.3362053334712982,3.3259060382843018,103,8124.0,-8.144112586975098,-56,9909.0
5050,0.33633413910865784,4.363635063171387,102,8124.0,-8.103144645690918,-35,9909.0
5060,0.3364383578300476,2.4661223888397217,-67,8124.0,-2.2550241947174072,-106,9909.0
5070,0.3365771472454071,0.15483050048351288,63,8124.0,-0.6013934016227722,-9,9909.0
5080,0.33603188395500183,2.4913840293884277,92,8124.0,-0.9999858140945435,109,9909.0
5090,0.33605051040649414,2.8847928047180176,-53,8124.0,-3.318032741546631,-3,9909.0
5100,0.3360583484172821,1.7463411092758179,74,8124.0,2.3586883544921875,-185,9909.0
5110,0.33602917194366455,2.204451560974121,146,8124.0,-6.585824489593506,-46,9909.0
5120,0.3359816372394562,1.7942789793014526,37,8124.0,-5.823449611663818,-139,9909.0
5130,0.33468881249427795,0.9853496551513672,-37,8124.0,-7.956303596496582,-360,9909.0
5140,0.3345527946949005,1.9509221315383911,54,8124.0,-11.67741584777832,-255,9909.0
5150,0.33441072702407837,-2.781301498413086,77,8124.0,-9.583841323852539,-62,9909.0
5160,0.33421820402145386,-3.550380229949951,-137,8124.0,-6.811878681182861,-192,9909.0
5170,0.3340150713920593,-5.7510504722595215,-108,8124.0,-6.819891452789307,-276,9909.0
5180,0.33382922410964966,-6.180139064788818,5,8124.0,4.068541526794434,-74,9909.0
5190,0.3336533308029175,-6.911971569061279,-131,8124.0,-5.031363487243652,-67,9909.0
5200,0.3334810435771942,-6.529298782348633,-172,8124.0,-3.0343968868255615,-178,9909.0
5210,0.333317369222641,-2.9705729484558105,-35,8124.0,-3.5315568447113037,-97,9909.0
5220,0.33266082406044006,1.3724229335784912,188,8124.0,-0.695289134979248,183,9909.0
5230,0.3325125277042389,-1.439809799194336,-91,8124.0,-3.918253183364868,14,9909.0
5240,0.3323878049850464,-1.4910112619400024,-137,8124.0,-2.325821876525879,-79,9909.0
5250,0.3322591483592987,-4.2116217613220215,-51,8124.0,4.237585544586182,-15,9909.0
5260,0.3332502245903015,-6.946198463439941,1,8124.0,-3.3129498958587646,-25,9909.0
5270,0.3332586884498596,6.574158668518066,-121,8124.0,2.0866544246673584,39,9909.0
5280,0.3333231806755066,-3.7760472297668457,-184,8124.0,5.013848304748535,48,9909.0
5290,0.3334377408027649,-1.5823633670806885,-1,8124.0,4.162603378295898,32,9909.0
5300,0.33493947982788086,0.84079509973526,158,8124.0,3.394408702850342,145,9909.0
5310,0.33520567417144775,2.6981937885284424,-103,8124.0,0.2083352953195572,217,9909.0
5320,0.335529088973999,-0.21643461287021637,-55,8124.0,2.850937843322754,34,9909.0
5330,0.3358992636203766,3.2040839195251465,101,8124.0,2.1750547885894775,-36,9909.0
5340,0.3363243639469147,2.9784765243530273,126,8124.0,1.543054223060608,170,9909.0
5350,0.3374375104904175,6.2407331466674805,-31,8124.0,9.577284812927246,242,9909.0
5360,0.3379303812980652,-0.8309380412101746,-124,8124.0,6.702571392059326,16,9909.0
5370,0.33846569061279297,-2.6671223640441895,4,8124.0,5.72283411026001,127,9909.0
5380,0.3390190601348877,-2.624506950378418,36,8124.0,4.5510334968566895,210,9909.0
5390,0.3401731252670288,-4.060447692871094,-84,8124.0,1.8275444507598877,34,9909.0
5400,0.3408085107803345,-4.083768844604492,-115,8124.0,3.3104288578033447,7,9909.0
5410,0.34142109751701355,-3.7675750255584717,-14,8124.0,5.480700492858887,61,9909.0
5420,0.34203433990478516,-2.8673160076141357,-54,8124.0,5.602513790130615,114,9909.0
5430,0.34265923500061035,-1.1797475814819336,-163,8124.0,6.552410125732422,-28,9909.0
5440,0.34306004643440247,-4.542278289794922,50,8124.0,10.394460678100586,113,9909.0
5450,0.3437219262123108,-0.9415940046310425,1,8124.0,8.551125526428223,248,9909.0
5460,0.3443574905395508,3.022251605987549,4,8124.0,8.404109001159668,93,9909.0
5470,0.3449687063694,3.0897748470306396,162,8124.0,6.798835277557373,35,9909.0
5480,0.34596484899520874,6.772961616516113,176,8124.0,4.761968612670898,133,9909.0
5490,0.3465662896633148,11.950943946838379,120,8124.0,-0.03662405535578728,182,9909.0
5500,0.34716060757637024,6.140084743499756,121,8124.0,3.987750291824341,-43,9909.0
5510,0.34770163893699646,5.05623722076416,154,8124.0,4.083219051361084,58,9909.0
5520,0.34850817918777466,4.4668402671813965,-24,8124.0,3.8047704696655273,201,9909.0
5530,0.34899064898490906,0.950614333152771,-94,8124.0,9.224324226379395,10,9909.0
5540,0.34942513704299927,-1.258834958076477,137,8124.0,4.164566516876221,14,9909.0
5550,0.34978777170181274,-0.5172072649002075,-76,8124.0,4.877161979675293,68,9909.0
5560,0.35017257928848267,0.44745659828186035,-42,8124.0,3.1334080696105957,-17,9909.0
5570,0.3504067063331604,-1.0754703283309937,120,8124.0,8.303980827331543,168,9909.0
5580,0.350630521774292,-1.3485803604125977,-33,8124.0,4.438959121704102,126,9909.0
5590,0.35086876153945923,-0.29425859451293945,-15,8124.0,5.878495693206787,-13,9909.0
5600,0.3510929048061371,0.06624089926481247,110,8124.0,4.598237037658691,121,9909.0
5610,0.3515821397304535,3.398149251937866,59,8124.0,6.0967817306518555,244,9909.0
5620,0.3516778349876404,5.399177074432373,-38,8124.0,1.0997823476791382,-108,9909.0
5630,0.35175424814224243,2.7559661865234375,105,8124.0,4.655690670013428,99,9909.0
5640,0.3518577516078949,4.280422687530518,85,8124.0,0.5549615621566772,135,9909.0
5650,0.35190677642822266,1.7213035821914673,-92,8124.0,4.991499423980713,-32,9909.0
5660,0.3515516221523285,1.0344325304031372,58,8124.0,-0.7147825360298157,-83,9909.0
5670,0.3515704870223999,2.0987348556518555,109,8124.0,-1.587079405784607,91,9909.0
5680,0.3516157865524292,-0.6041179299354553,-84,8124.0,0.4346078336238861,183,9909.0
5690,0.351639986038208,0.30356815457344055,-22,8124.0,0.1790114790201187,-18,9909.0
5700,0.351823627948761,-5.254574775695801,-26,8124.0,7.4522905349731445,157,9909.0
5710,0.3518567979335785,-3.0753884315490723,-142,8124.0,6.763131618499756,38,9909.0
5720,0.35194727778434753,-0.9177793860435486,11,8124.0,4.8665289878845215,-62,9909.0
5730,0.35209712386131287,-0.8076210021972656,114,8124.0,6.624058723449707,199,9909.0
5740,0.35328996181488037,1.9416152238845825,-28,8124.0,10.429146766662598,210,9909.0
5750,0.35340389609336853,1.7192128896713257,-67,8124.0,10.565427780151367,-55,9909.0
5760,0.3535713851451874,2.837505340576172,72,8124.0,9.225571632385254,194,9909.0
5770,0.35372626781463623,2.2564992904663086,38,8124.0,2.8084635734558105,173,9909.0
5780,0.35391348600387573,-1.6695717573165894,-126,8124.0,1.8806296586990356,-86,9909.0
5790,0.3548629879951477,-4.908236980438232,-52,8124.0,-2.2265448570251465,-58,9909.0
5800,0.3550417423248291,-3.542567014694214,25,8124.0,-3.2789177894592285,119,9909.0
5810,0.3553871512413025,-4.176948070526123,-138,8124.0,-0.10525213181972504,-64,9909.0
5820,0.35562315583229065,-1.7577508687973022,-57,8124.0,-1.6755284070968628,-85,9909.0
5830,0.35673844814300537,-1.6812855005264282,57,8124.0,2.0342297554016113,183,9909.0
5840,0.3570687174797058,0.048361778259277344,-59,8124.0,1.9501807689666748,71,9909.0
5850,0.35740193724632263,1.1225557327270508,-49,8124.0,4.433060646057129,-39,9909.0
5860,0.35774800181388855,2.949892044067383,145,8124.0,5.363645553588867,102,9909.0
5870,0.358818382024765,0.7981448769569397,48,8124.0,2.188715696334839,118,9909.0
5880,0.3592177629470825,3.9865710735321045,-26,8124.0,4.558317184448242,18,9909.0
5890,0.35960477590560913,0.7005934119224548,97,8124.0,4.334780216217041,122,9909.0
5900,0.3599984645843506,2.397852659225464,96,8124.0,0.44899657368659973,213,9909.0
5910,0.36042100191116333,2.9535086154937744,-72,8124.0,-1.9944796562194824,7,9909.0
5920,0.3614022433757782,0.7358672618865967,63,8124.0,-1.2525641918182373,4,9909.0
5930,0.36177006363868713,-1.1793431043624878,104,8124.0,-5.621168613433838,49,9909.0
5940,0.362127423286438,-3.517441749572754,-6,8124.0,-7.007493495941162,-141,9909.0
5950,0.3624727725982666,-3.0028536319732666,27,8124.0,-6.071455001831055,-169,9909.0
5960,0.3632684051990509,-5.534758567810059,50,8124.0,-4.111276626586914,-22,9909.0
5970,0.36361756920814514,-4.270132541656494,-104,8124.0,-6.490695476531982,-42,9909.0
5980,0.3639321029186249,-8.146706581115723,-125,8124.0,-9.882043838500977,-257,9909.0
5990,0.36420783400535583,-1.7668956518173218,22,8124.0,-3.3430752754211426,102,9909.0
6000,0.3645213842391968,-0.2535511553287506,-94,8124.0,2.758533477783203,171,9909.0
6010,0.36572960019111633,8.303732872009277,-20,8124.0,3.5694422721862793,33,9909.0
6020,0.3659247159957886,2.102414608001709,110,8124.0,4.403371334075928,168,9909.0
6030,0.3660750389099121,5.146460056304932,54,8124.0,3.2892367839813232,64,9909.0
6040,0.3662091791629791,9.602511405944824,130,8124.0,4.053483486175537,-154,9909.0
6050,0.36623427271842957,11.357507705688477,270,8124.0,-3.337900400161743,2,9909.0
6060,0.3664133548736572,11.733216285705566,160,8124.0,-4.255449295043945,-27,9909.0
6070,0.366555780172348,8.108468055725098,58,8124.0,-6.127241134643555,-287,9909.0
6080,0.3666761815547943,9.00434398651123,141,8124.0,-7.153122901916504,-164,9909.0
6090,0.36644867062568665,2.1472556591033936,-135,8124.0,-5.017873287200928,-151,9909.0
6100,0.36651918292045593,-0.26908451318740845,7,8124.0,-7.754833698272705,-307,9909.0
6110,0.36656635999679565,-3.6596367359161377,-74,8124.0,-5.011529445648193,-13,9909.0
6120,0.3666289448738098,-5.831899642944336,-152,8124.0,-6.489481449127197,-87,9909.0
6130,0.3667251765727997,-8.221858978271484,-59,8124.0,-8.277106285095215,-227,9909.0
6140,0.3669034242630005,-11.972122192382812,-106,8124.0,-2.160911798477173,-84,9909.0
6150,0.3669738471508026,-4.181154727935791,-172,8124.0,-2.6488654613494873,81,9909.0
6160,0.3670955002307892,-3.6914620399475098,33,8124.0,-3.1497223377227783,-82,9909.0
6170,0.3671513795852661,0.48694097995758057,124,8124.0,-1.475050687789917,99,9909.0
6180,0.36792945861816406,3.3707408905029297,48,8124.0,-4.3459296226501465,-108,9909.0
6190,0.3680453598499298,6.875624179840088,82,8124.0,-2.5138394832611084,36,9909.0
6200,0.3681321144104004,7.294554710388184,186,8124.0,-2.4904074668884277,24,9909.0
6210,0.36818116903305054,7.117393970489502,57,8124.0,-2.895408868789673,-77,9909.0
6220,0.36820828914642334,4.371345043182373,-81,8124.0,-5.496103763580322,-120,9909.0
6230,0.3665066063404083,-5.642781734466553,-45,8124.0,-3.998753547668457,-3,9909.0
6240,0.3663245737552643,-9.511451721191406,-245,8124.0,-1.7761201858520508,9,9909.0
6250,0.36608609557151794,-10.830209732055664,-377,8124.0,-2.5054759979248047,-136,9909.0
6260,0.3657926321029663,-9.13677978515625,-131,8124.0,-12.700689315795898,-145,9909.0
6270,0.36595872044563293,-3.0488483905792236,-31,8124.0,3.458909273147583,279,9909.0
6280,0.3657017648220062,1.0358638763427734,-55,8124.0,0.6782723069190979,-35,9909.0
6290,0.36540573835372925,8.301959991455078,123,8124.0,2.045337200164795,53,9909.0
6300,0.3650777041912079,9.376185417175293,288,8124.0,0.27701759338378906,121,9909.0
6310,0.363644540309906,12.551793098449707,203,8124.0,-1.2104618549346924,17,9909.0
6320,0.3631521165370941,12.901326179504395,76,8124.0,-0.5440737009048462,-103,9909.0
6330,0.36258769035339355,0.08590791374444962,-15,8124.0,2.9681408405303955,89,9909.0
6340,0.3620228171348572,-15.029614448547363,-275,8124.0,-2.4563968181610107,22,9909.0
6350,0.36150842905044556,-23.046894073486328,-484,8124.0,-5.235260963439941,-12,9909.0
6360,0.36075493693351746,-26.945005416870117,-411,8124.0,-5.970792770385742,-146,9909.0
6370,0.36031484603881836,-24.27976417541504,-385,8124.0,-2.7845423221588135,14,9909.0
6380,0.35988640785217285,-29.028417587280273,-451,8124.0,-3.1074059009552,15,9909.0
6390,0.3594478964805603,-23.446073532104492,-396,8124.0,-1.371909260749817,-71,9909.0
6400,0.3584958016872406,-17.96070671081543,-306,8124.0,-1.8801589012145996,-201,9909.0
6410,0.35824355483055115,-12.114729881286621,-106,8124.0,-2.8661134243011475,-65,9909.0
6420,0.35810986161231995,-16.945968627929688,-50,8124.0,2.2628612518310547,-124,9909.0
6430,0.35793188214302063,-5.964460849761963,-33,8124.0,-4.8999481201171875,-5,9909.0
6440,0.3577363193035126,-1.9281072616577148,-66,8124.0,-2.0332815647125244,-136,9909.0
6450,0.35786619782447815,1.8329681158065796,-2,8124.0,-5.119141578674316,-215,9909.0
6460,0.3578380346298218,-1.9774727821350098,-19,8124.0,-9.23029899597168,-158,9909.0
6470,0.3577810227870941,-12.328133583068848,-134,8124.0,0.24579358100891113,177,9909.0
6480,0.35796239972114563,-14.493147850036621,-279,8124.0,2.793876886367798,11,9909.0
6490,0.35814130306243896,-11.252798080444336,-166,8124.0,4.714109420776367,-37,9909.0
6500,0.35828927159309387,-9.42597484588623,-25,8124.0,9.87008285522461,-15,9909.0
6510,0.358442485332489,-10.52461051940918,-183,8124.0,5.218410491943359,141,9909.0
6520,0.3589603304862976,-6.032205581665039,-132,8124.0,3.397886037826538,16,9909.0
6530,0.3593685030937195,-2.6997756958007812,-73,8124.0,0.8082337975502014,-72,9909.0
6540,0.35971933603286743,2.5771381855010986,136,8124.0,-1.3250548839569092,175,9909.0
6550,0.35996952652931213,1.455823302268982,19,8124.0,-1.392688512802124,44,9909.0
6560,0.36024948954582214,-4.662386894226074,-237,8124.0,-6.046976089477539,-144,9909.0
6570,0.3605101704597473,-16.61157989501953,-245,8124.0,-5.8774189949035645,-230,9909.0
6580,0.36173850297927856,-20.598127365112305,-239,8124.0,-5.017643928527832,93,9909.0
6590,0.3620145916938782,-21.856117248535156,-444,8124.0,-3.2059803009033203,99,9909.0
6600,0.36253461241722107,-22.008249282836914,-334,8124.0,1.9796903133392334,-49,9909.0
6610,0.36283719539642334,-14.413167953491211,-113,8124.0,1.4215244054794312,-86,9909.0
6620,0.36361122131347656,-7.244993209838867,-53,8124.0,2.1234796047210693,160,9909.0
6630,0.3639594614505768,-3.116384506225586,-149,8124.0,5.830629348754883,-1,9909.0
6640,0.3642875850200653,3.512267589569092,161,8124.0,-0.12915487587451935,30,9909.0
6650,0.3645991086959839,9.014945030212402,176,8124.0,4.327034950256348,101,9909.0
6660,0.3648991584777832,9.779335021972656,125,8124.0,5.214644432067871,-28,9909.0
6670,0.3659764230251312,11.554280281066895,142,8124.0,0.5314638614654541,-217,9909.0
6680,0.36628031730651855,2.918576240539551,195,8124.0,-0.07640837877988815,39,9909.0
6690,0.36653417348861694,7.614383697509766,130,8124.0,-5.64117431640625,-52,9909.0
6700,0.3667747378349304,8.125445365905762,175,8124.0,-2.386413097381592,-140,9909.0
6710,0.3674343228340149,8.636760711669922,296,8124.0,-0.5455774664878845,236,9909.0
6720,0.3676701486110687,11.758606910705566,24,8124.0,2.759213924407959,94,9909.0
6730,0.367881178855896,13.153883934020996,236,8124.0,1.0716153383255005,-24,9909.0
6740,0.3680707812309265,8.260720252990723,90,8124.0,7.386621475219727,182,9909.0
6750,0.3685173988342285,7.758324146270752,67,8124.0,5.2099738121032715,140,9909.0
6760,0.3687114119529724,4.793939590454102,190,8124.0,5.442488670349121,168,9909.0
6770,0.3691061735153198,3.3275492191314697,10,8124.0,4.019874095916748,7,9909.0
6780,0.36933279037475586,2.1863045692443848,72,8124.0,2.285402536392212,-10,9909.0
6790,0.36951807141304016,2.8641021251678467,177,8124.0,-0.14689765870571136,165,9909.0
6800,0.36939510703086853,8.55415153503418,16,8124.0,-3.019167900085449,-198,9909.0
6810,0.36947786808013916,4.7431111335754395,101,8124.0,-2.2099831104278564,-1,9909.0
6820,0.36954766511917114,4.433882236480713,100,8124.0,-0.2783620357513428,6,9909.0
6830,0.36957380175590515,4.97435998916626,-8,8124.0,-0.6136167049407959,52,9909.0
6840,0.36933913826942444,8.151386260986328,162,8124.0,0.45600780844688416,30,9909.0
6850,0.36934351921081543,6.014591693878174,79,8124.0,-1.740118384361267,-41,9909.0
6860,0.36938753724098206,7.545238018035889,130,8124.0,0.07916063815355301,-135,9909.0
6870,0.3694014549255371,9.208564758300781,262,8124.0,-5.04459810256958,103,9909.0
6880,0.3694204092025757,7.805853843688965,84,8124.0,-4.781973838806152,-106,9909.0
6890,0.36836177110671997,5.552222728729248,129,8124.0,-6.048892974853516,25,9909.0
6900,0.3682231307029724,7.108696460723877,153,8124.0,-2.3212997913360596,77,9909.0
6910,0.36806178092956543,9.234822273254395,43,8124.0,3.0008926391601562,-102,9909.0
6920,0.3679068386554718,11.000420570373535,264,8124.0,10.520454406738281,211,9909.0
6930,0.3681602478027344,13.521998405456543,249,8124.0,7.37501859664917,205,9909.0
6940,0.36798325181007385,13.466948509216309,177,8124.0,4.195189952850342,41,9909.0
6950,0.36780816316604614,15.53576374053955,355,8124.0,1.0687741041183472,233,9909.0
6960,0.3676793873310089,11.718624114990234,40,8124.0,5.624945163726807,88,9909.0
6970,0.367725133895874,8.92498779296875,111,8124.0,1.7343981266021729,-5,9909.0
6980,0.36759665608406067,6.456826686859131,134,8124.0,-1.4085451364517212,23,9909.0
6990,0.36746445298194885,5.896032333374023,-6,8124.0,-1.587371826171875,-127,9909.0
7000,0.3673523962497711,5.7685346603393555,135,8124.0,-4.377317428588867,-86,9909.0
7010,0.3672146201133728,5.787423133850098,201,8124.0,-3.459606409072876,50,9909.0
7020,0.36581069231033325,6.188835144042969,60,8124.0,0.34854695200920105,-68,9909.0
7030,0.3657367527484894,6.196403503417969,176,8124.0,2.029717445373535,91,9909.0
7040,0.3656109571456909,7.766600131988525,144,8124.0,0.4020601212978363,184,9909.0
7050,0.36549291014671326,6.129186153411865,-45,8124.0,2.3705201148986816,-40,9909.0
7060,0.3660641610622406,2.8228063583374023,53,8124.0,6.248175621032715,216,9909.0
7070,0.3660728335380554,0.948679506778717,-5,8124.0,6.2125372886657715,103,9909.0
7080,0.3661341965198517,1.3425246477127075,-68,8124.0,2.2834959030151367,-165,9909.0
7090,0.3662189841270447,1.8360514640808105,34,8124.0,0.9508263468742371,108,9909.0
7100,0.36626526713371277,0.131572887301445,9,8124.0,-4.121031761169434,-27,9909.0
7110,0.3657812178134918,-0.18853271007537842,-39,8124.0,-4.710747241973877,-146,9909.0
7120,0.36580443382263184,1.7094796895980835,106,8124.0,-5.877353191375732,-81,9909.0
7130,0.36590641736984253,7.979588031768799,118,8124.0,-1.7181026935577393,-3,9909.0
7140,0.36604341864585876,12.46692180633545,85,8124.0,1.527636170387268,-150,9909.0
7150,0.3660743832588196,12.960701942443848,303,8124.0,4.379272937774658,126,9909.0
7160,0.3662858307361603,11.246155738830566,262,8124.0,6.288394927978516,170,9909.0
7170,0.36653071641921997,10.92065143585205,152,8124.0,7.34926176071167,78,9909.0
7180,0.36666324734687805,7.74759578704834,184,8124.0,1.6715601682662964,126,9909.0
7190,0.3668811619281769,5.488126277923584,-13,8124.0,2.251652717590332,10,9909.0
7200,0.3682851791381836,2.1552011966705322,-99,8124.0,3.958876848220825,-167,9909.0
7210,0.3685164451599121,-1.834782361984253,65,8124.0,2.1461281776428223,89,9909.0
7220,0.3686184287071228,-2.4488980770111084,-99,8124.0,2.7703189849853516,56,9909.0
7230,0.36889395117759705,-0.23478475213050842,33,8124.0,-0.42198464274406433,-76,9909.0
7240,0.36880001425743103,2.8018758296966553,162,8124.0,1.4927994012832642,158,9909.0
7250,0.36901864409446716,5.678322792053223,-30,8124.0,-0.2631692886352539,-37,9909.0
7260,0.36929938197135925,7.4654974937438965,97,8124.0,-5.559780597686768,-263,9909.0
7270,0.36960846185684204,-1.1144709587097168,126,8124.0,5.529394626617432,-97,9909.0
7280,0.36995720863342285,0.2255152314901352,9,8124.0,-2.4065754413604736,9,9909.0
7290,0.37017714977264404,-1.6076029539108276,-17,8124.0,2.1950948238372803,55,9909.0
7300,0.3703944683074951,-2.803069829940796,-46,8124.0,1.8661558628082275,85,9909.0
7310,0.3705855906009674,-3.516209125518799,-200,8124.0,-4.555335998535156,-154,9909.0
7320,0.3707626760005951,-2.205209493637085,167,8124.0,-2.8347790241241455,-36,9909.0
7330,0.3698013126850128,-0.2747601270675659,-68,8124.0,0.2070097178220749,86,9909.0
7340,0.3698517680168152,0.8099181652069092,-41,8124.0,3.6808459758758545,103,9909.0
7350,0.36987757682800293,0.8334152698516846,51,8124.0,4.2691802978515625,83,9909.0
7360,0.36986908316612244,2.406271457672119,-21,8124.0,4.132542133331299,178,9909.0
7370,0.3690793216228485,4.507392406463623,77,8124.0,0.11409860104322433,-178,9909.0
7380,0.3690369427204132,2.1132655143737793,210,8124.0,1.256537914276123,-12,9909.0
7390,0.3689872920513153,2.405163526535034,-41,8124.0,-1.5984861850738525,35,9909.0
7400,0.36894357204437256,-0.4783390164375305,-16,8124.0,-2.6370813846588135,-32,9909.0
7410,0.36892279982566833,-1.492920160293579,12,8124.0,-5.2088212966918945,-95,9909.0
7420,0.36806821823120117,-0.9486982822418213,-120,8124.0,-5.259703159332275,127,9909.0
7430,0.36799126863479614,-1.1910239458084106,31,8124.0,-2.891963243484497,-122,9909.0
7440,0.36787351965904236,-0.9559685587882996,116,8124.0,-6.105275630950928,48,9909.0
7450,0.367713063955307,-1.9132282733917236,-67,8124.0,-1.9400864839553833,-61,9909.0
7460,0.36802995204925537,-3.1953330039978027,-45,8124.0,1.7322978973388672,-37,9909.0
7470,0.3678829073905945,-3.5904409885406494,73,8124.0,1.1357845067977905,162,9909.0
7480,0.36774569749832153,-2.808953285217285,-60,8124.0,5.19068717956543,135,9909.0
7490,0.36764538288116455,-5.696450710296631,-136,8124.0,2.832873821258545,-2,9909.0
7500,0.3680735230445862,-4.153183937072754,-12,8124.0,3.40022349357605,171,9909.0
7510,0.3680374026298523,-3.1591808795928955,-61,8124.0,0.10760192573070526,86,9909.0
7520,0.3680325448513031,-1.214311957359314,-176,8124.0,-2.514105796813965,-34,9909.0
7530,0.3680080473423004,-6.9034624099731445,-65,8124.0,-2.0739541053771973,9,9909.0
7540,0.3680057227611542,-5.954351425170898,-62,8124.0,-2.4789507389068604,-6,9909.0
7550,0.3675793409347534,-3.669372081756592,-139,8124.0,-0.1393163949251175,-110,9909.0
7560,0.367581307888031,-1.2464019060134888,23,8124.0,1.9257134199142456,74,9909.0
7570,0.36758166551589966,-4.616490364074707,61,8124.0,1.096711277961731,340,9909.0
7580,0.367583304643631,-2.2751026153564453,-129,8124.0,0.4656881093978882,20,9909.0
7590,0.36703407764434814,-1.1368855237960815,-51,8124.0,6.038142681121826,90,9909.0
7600,0.3670404553413391,-3.911921739578247,62,8124.0,8.784541130065918,243,9909.0
7610,0.367186039686203,-1.1491992473602295,-78,8124.0,5.997356414794922,89,9909.0
7620,0.3671984076499939,-4.231267929077148,-131,8124.0,4.37218713760376,26,9909.0
7630,0.3660632371902466,-5.290194034576416,-39,8124.0,4.513584136962891,134,9909.0
7640,0.3660750687122345,-4.489503860473633,-80,8124.0,1.7128225564956665,113,9909.0
7650,0.36611491441726685,-3.8683643341064453,-245,8124.0,0.7485764026641846,-70,9909.0
7660,0.3661477863788605,-0.5994827151298523,-33,8124.0,-2.666797161102295,-178,9909.0
7670,0.3661727011203766,-3.27447509765625,66,8124.0,-4.473419189453125,-178,9909.0
7680,0.36494237184524536,2.232805013656616,-30,8124.0,-6.897356033325195,-141,9909.0
7690,0.3649175465106964,-0.27664992213249207,-19,8124.0,-6.149236679077148,-113,9909.0
7700,0.3648488223552704,-2.9459214210510254,148,8124.0,-0.8015391230583191,118,9909.0
7710,0.36487919092178345,0.4481164515018463,-98,8124.0,0.3489917814731598,36,9909.0
7720,0.3656333386898041,-3.303851366043091,-77,8124.0,5.833241939544678,57,9909.0
7730,0.36564159393310547,-4.430845260620117,12,8124.0,6.806596755981445,173,9909.0
7740,0.36564192175865173,-2.838118553161621,-72,8124.0,6.484104156494141,143,9909.0
7750,0.3656407296657562,-5.113986015319824,-207,8124.0,-0.7584242224693298,-196,9909.0
7760,0.3656907081604004,-5.352330207824707,-46,8124.0,-1.8764822483062744,-148,9909.0
7770,0.36702045798301697,-5.293703556060791,-12,8124.0,-8.249897003173828,-93,9909.0
7780,0.3671495020389557,-5.843631267547607,-136,8124.0,-8.752897262573242,-252,9909.0
7790,0.3672650456428528,-5.8231048583984375,-178,8124.0,-8.009149551391602,-538,9909.0
7800,0.36738306283950806,-8.144205093383789,0,8124.0,-8.079185485839844,-49,9909.0
7810,0.36811763048171997,-4.789607048034668,-71,8124.0,-1.718628168106079,-22,9909.0
7820,0.3683010935783386,-0.5821765065193176,-54,8124.0,4.279358863830566,-52,9909.0
7830,0.3685172200202942,1.452712059020996,73,8124.0,12.877789497375488,203,9909.0
7840,0.3687427043914795,0.35324737429618835,33,8124.0,12.458592414855957,257,9909.0
7850,0.3682298958301544,-0.7549273371696472,-49,8124.0,14.201940536499023,99,9909.0
7860,0.3684426546096802,-1.8167449235916138,21,8124.0,10.710284233093262,101,9909.0
7870,0.36868637800216675,-2.907026767730713,99,8124.0,1.2055631875991821,101,9909.0
7880,0.3689776659011841,-0.47208449244499207,-67,8124.0,0.6186606287956238,17,9909.0
7890,0.36922338604927063,-3.7047877311706543,-88,8124.0,-0.9641074538230896,-194,9909.0
7900,0.36807775497436523,-3.224043369293213,5,8124.0,-6.24439001083374,-112,9909.0
7910,0.3682152330875397,-2.153090238571167,7,8124.0,-10.101958274841309,-136,9909.0
7920,0.36837756633758545,-3.621291399002075,-233,8124.0,-7.520201206207275,-189,9909.0
7930,0.3685329556465149,-4.008136749267578,14,8124.0,-4.628895282745361,-84,9909.0
7940,0.3672742247581482,-5.002245903015137,-31,8124.0,-3.5226213932037354,16,9909.0
7950,0.36737439036369324,-4.521472930908203,-89,8124.0,-1.6491912603378296,-94,9909.0
7960,0.3674614429473877,-4.239986896514893,89,8124.0,2.418919086456299,11,9909.0
7970,0.3675147593021393,-0.6625619530677795,-94,8124.0,6.389859199523926,193,9909.0
7980,0.36760595440864563,1.5680694580078125,-1,8124.0,4.6664605140686035,69,9909.0
7990,0.3677915632724762,1.0954760313034058,90,8124.0,5.039164066314697,3,9909.0
8000,0.3678278625011444,1.9692569971084595,10,8124.0,0.8424704670906067,-67,9909.0
8010,0.36789020895957947,-3.2547667026519775,-76,8124.0,-1.9895349740982056,1,9909.0
8020,0.3678928315639496,2.1828901767730713,43,8124.0,-3.7670094966888428,-104,9909.0
8030,0.3671749532222748,2.2736051082611084,126,8124.0,-3.5943453311920166,67,9909.0
8040,0.36716151237487793,2.8440191745758057,19,8124.0,-3.1179885864257812,88,9909.0
8050,0.36713558435440063,3.374957323074341,-81,8124.0,-0.4136388897895813,-129,9909.0
8060,0.36710304021835327,6.562270641326904,109,8124.0,-8.471179008483887,-7,9909.0
8070,0.3670336604118347,3.2575600147247314,89,8124.0,-3.1096901893615723,31,9909.0
8080,0.36697888374328613,1.5575820207595825,-100,8124.0,1.1378941535949707,24,9909.0
8090,0.3669512867927551,-0.05607014521956444,-60,8124.0,1.3785399198532104,-53,9909.0
8100,0.3669035732746124,-1.866644024848938,66,8124.0,1.9875458478927612,197,9909.0
8110,0.3668263554573059,-0.7746972441673279,-39,8124.0,5.307342052459717,58,9909.0
8120,0.3668454885482788,1.034697413444519,-62,8124.0,0.8748660087585449,-120,9909.0
8130,0.366773784160614,1.9551254510879517,49,8124.0,3.193939685821533,-115,9909.0
8140,0.36669886112213135,3.1594767570495605,153,8124.0,-0.21155759692192078,94,9909.0
8150,0.36660438776016235,5.705287456512451,13,8124.0,-3.1725525856018066,-115,9909.0
8160,0.36705780029296875,3.940190076828003,1,8124.0,-6.001202583312988,-175,9909.0
8170,0.3669570982456207,3.820279121398926,43,8124.0,-5.345224380493164,-71,9909.0
8180,0.36686983704566956,0.32826629281044006,59,8124.0,-13.176224708557129,44,9909.0
8190,0.366802841424942,0.12619103491306305,-64,8124.0,-5.909072399139404,-174,9909.0
8200,0.3667794466018677,-1.4261876344680786,-67,8124.0,-1.0273281335830688,-63,9909.0
8210,0.3676661252975464,-4.3582234382629395,6,8124.0,2.053103446960449,190,9909.0
8220,0.3677368462085724,-5.423168659210205,-138,8124.0,3.640707015991211,86,9909.0
8230,0.3678165078163147,-2.1403582096099854,-110,8124.0,0.28378915786743164,-49,9909.0
8240,0.36792314052581787,-2.1651644706726074,-44,8124.0,4.793415069580078,68,9909.0
8250,0.3684268593788147,3.395421028137207,143,8124.0,3.2008490562438965,229,9909.0
8260,0.3686022460460663,2.780937671661377,-42,8124.0,1.471158504486084,-9,9909.0
8270,0.36877793073654175,2.396176815032959,-42,8124.0,1.8052362203598022,-74,9909.0
8280,0.36898085474967957,1.8791500329971313,95,8124.0,-2.619328737258911,-43,9909.0
8290,0.36872074007987976,-0.7462397217750549,66,8124.0,-4.974208354949951,102,9909.0
8300,0.36888331174850464,2.5138540267944336,-51,8124.0,3.7572033405303955,-42,9909.0
8310,0.36905479431152344,3.2227344512939453,38,8124.0,1.1417491436004639,-29,9909.0
8320,0.36921951174736023,2.518709182739258,136,8124.0,-1.032359004020691,122,9909.0
8330,0.3693660497665405,3.8233070373535156,-31,8124.0,-1.3232442140579224,117,9909.0
8340,0.36973777413368225,-0.22046904265880585,-75,8124.0,4.078103065490723,-47,9909.0
8350,0.36988192796707153,-0.8604559302330017,63,8124.0,2.2194387912750244,80,9909.0
8360,0.3700268566608429,1.1082288026809692,36,8124.0,0.9200758934020996,156,9909.0
8370,0.3701614737510681,-1.1127763986587524,-104,8124.0,6.881498336791992,-64,9909.0
8380,0.37095269560813904,0.38975006341934204,37,8124.0,0.26619139313697815,-82,9909.0
8390,0.3711342513561249,3.5972354412078857,139,8124.0,-1.1196833848953247,53,9909.0
8400,0.3713081479072571,4.081951141357422,-2,8124.0,-1.5261123180389404,-43,9909.0
8410,0.3714688718318939,1.1104421615600586,-39,8124.0,0.7316906452178955,-117,9909.0
8420,0.3716156780719757,2.2760791778564453,60,8124.0,-1.3137626647949219,-67,9909.0
8430,0.3718421459197998,1.7548086643218994,95,8124.0,-0.6888827085494995,125,9909.0
8440,0.37192827463150024,-1.2608286142349243,-54,8124.0,3.4929206371307373,115,9909.0
8450,0.3719830811023712,-1.0011169910430908,-114,8124.0,-2.0615100860595703,-152,9909.0
8460,0.3720393478870392,-1.8035694360733032,5,8124.0,-3.026543378829956,0,9909.0
8470,0.3728240430355072,-2.0125083923339844,14,8124.0,-4.265676498413086,55,9909.0
8480,0.3728824555873871,-3.412036657333374,-154,8124.0,4.512153148651123,117,9909.0
8490,0.37291955947875977,-1.4098399877548218,-67,8124.0,-4.053211688995361,-68,9909.0
8500,0.37295252084732056,-0.750117301940918,57,8124.0,-3.5152504444122314,22,9909.0
8510,0.37298208475112915,1.9861589670181274,47,8124.0,-3.7741103172302246,-41,9909.0
8520,0.3729797899723053,0.4887750446796417,-64,8124.0,-7.784562587738037,-2,9909.0
8530,0.3729667067527771,-1.0359553098678589,46,8124.0,-1.4073859453201294,-63,9909.0
8540,0.3729340136051178,-1.9212058782577515,-17,8124.0,0.36824876070022583,100,9909.0
8550,0.3728863000869751,2.2880122661590576,-78,8124.0,2.6068942546844482,118,9909.0
8560,0.3725116550922394,-5.364555835723877,-15,8124.0,7.818439960479736,68,9909.0
8570,0.3724224865436554,0.02995007298886776,115,8124.0,3.609513521194458,-52,9909.0
8580,0.37232962250709534,2.5451197624206543,-4,8124.0,0.49777480959892273,179,9909.0
8590,0.37224656343460083,3.3245441913604736,-92,8124.0,-3.5868799686431885,82,9909.0
8600,0.3733017146587372,-0.5974388718605042,-7,8124.0,-2.349471092224121,-114,9909.0
8610,0.3733004927635193,-2.1899304389953613,69,8124.0,-2.440378427505493,-77,9909.0
8620,0.373299241065979,-3.455665111541748,-69,8124.0,-3.582660436630249,1,9909.0
8630,0.373282253742218,-2.6611335277557373,-110,8124.0,-2.926177740097046,31,9909.0
8640,0.3732544779777527,-0.006276547443121672,42,8124.0,-3.9596352577209473,-88,9909.0
8650,0.37392762303352356,2.267674684524536,87,8124.0,-3.792613983154297,74,9909.0
8660,0.373938649892807,1.055708646774292,-5,8124.0,0.7061280012130737,-47,9909.0
8670,0.3739617168903351,-1.644248127937317,-83,8124.0,2.5362813472747803,-31,9909.0
8680,0.3740198612213135,-1.6925455331802368,-30,8124.0,10.17731761932373,42,9909.0
8690,0.3748394846916199,-1.4043251276016235,51,8124.0,6.536652088165283,-62,9909.0
8700,0.374970942735672,-1.036665678024292,-137,8124.0,6.218390464782715,321,9909.0
8710,0.3751022219657898,-5.412271499633789,-148,8124.0,5.660137176513672,46,9909.0
8720,0.3752370774745941,-3.4645843505859375,-24,8124.0,2.460005283355713,-3,9909.0
8730,0.3756100535392761,-1.7472541332244873,56,8124.0,0.9917771220207214,100,9909.0
8740,0.3757995367050171,1.918221116065979,106,8124.0,-4.553784370422363,85,9909.0
8750,0.37598296999931335,1.7124918699264526,45,8124.0,-0.9604840278625488,-128,9909.0
8760,0.37617093324661255,-1.5142019987106323,-55,8124.0,-2.8009185791015625,-199,9909.0
8770,0.37635135650634766,0.6206964254379272,92,8124.0,-4.029881954193115,-51,9909.0
8780,0.37708404660224915,0.09857939183712006,-7,8124.0,-5.9332380294799805,80,9909.0
8790,0.3772817850112915,-1.4620941877365112,-12,8124.0,-8.543058395385742,-15,9909.0
8800,0.3774324357509613,-1.001739501953125,39,8124.0,3.630239725112915,-115,9909.0
8810,0.3775932788848877,-0.0348634198307991,83,8124.0,-0.9036803245544434,102,9909.0
8820,0.3778565227985382,-2.9638447761535645,-64,8124.0,6.083025932312012,51,9909.0
8830,0.37793466448783875,-1.374058723449707,-144,8124.0,-0.9345991611480713,-156,9909.0
8840,0.377978652715683,-4.299927711486816,-33,8124.0,5.244534492492676,49,9909.0
8850,0.37797850370407104,-2.1388161182403564,36,8124.0,1.3752354383468628,170,9909.0
8860,0.377223938703537,-3.06331467628479,-98,8124.0,-4.9158034324646,-59,9909.0
8870,0.37709733843803406,0.11779343336820602,-43,8124.0,-0.5760053992271423,-119,9909.0
8880,0.3769276738166809,1.1574499607086182,37,8124.0,0.02766483649611473,92,9909.0
8890,0.37672898173332214,1.16106379032135,9,8124.0,0.31267085671424866,152,9909.0
8900,0.3764992654323578,1.3292841911315918,-41,8124.0,4.774524211883545,-46,9909.0
8910,0.37575143575668335,1.5181101560592651,14,8124.0,0.8430711627006531,13,9909.0
8920,0.3754446804523468,-2.0638320446014404,80,8124.0,2.964298963546753,203,9909.0
8930,0.37512513995170593,-1.1163606643676758,-3,8124.0,2.338770627975464,163,9909.0
8940,0.37481623888015747,-7.92108678817749,-123,8124.0,4.207266807556152,-20,9909.0
8950,0.3739261031150818,-2.188215732574463,23,8124.0,-3.1064603328704834,-79,9909.0
8960,0.3735993504524231,-1.2679929733276367,60,8124.0,-3.0090811252593994,7,9909.0
8970,0.3732910752296448,-0.42443355917930603,20,8124.0,-2.6805458068847656,53,9909.0
8980,0.3729868233203888,3.8195207118988037,52,8124.0,-8.785285949707031,-14,9909.0
8990,0.372678279876709,-0.8571080565452576,12,8124.0,-3.799057722091675,-125,9909.0
9000,0.3721180260181427,1.7216792106628418,128,8124.0,-2.15983510017395,5,9909.0
9010,0.3718448579311371,2.904461145401001,119,8124.0,-4.357278347015381,122,9909.0
9020,0.37157920002937317,1.9468533992767334,-13,8124.0,-2.218013286590576,-109,9909.0
9030,0.37132877111434937,2.2055978775024414,-2,8124.0,2.674196481704712,-207,9909.0
9040,0.3710615634918213,4.711731433868408,136,8124.0,8.214245796203613,148,9909.0
9050,0.3708482086658478,-0.6928634643554688,98,8124.0,4.052974700927734,150,9909.0
9060,0.3706245720386505,2.4426984786987305,-47,8124.0,2.0318148136138916,144,9909.0
9070,0.37040239572525024,-0.5183773040771484,-115,8124.0,5.235185146331787,-162,9909.0
9080,0.3712844252586365,-3.490837574005127,-107,8124.0,1.325448989868164,-48,9909.0
9090,0.3711576461791992,-3.375565767288208,-8,8124.0,-6.162277698516846,-18,9909.0
9100,0.3710574805736542,-3.5611512660980225,-118,8124.0,-2.5765929222106934,-55,9909.0
9110,0.37096697092056274,-3.562498092651367,-110,8124.0,-1.6547009944915771,-138,9909.0
9120,0.3708845376968384,-5.829537391662598,-18,8124.0,-0.6890712976455688,-26,9909.0
9130,0.3704659938812256,1.1743338108062744,98,8124.0,-2.3583829402923584,96,9909.0
9140,0.3703576326370239,0.9327455163002014,-94,8124.0,1.618638515472412,232,9909.0
9150,0.37025630474090576,2.1549978256225586,-45,8124.0,5.351973056793213,-56,9909.0
9160,0.37016618251800537,0.807988166809082,32,8124.0,2.6953492164611816,-21,9909.0
9170,0.3700363039970398,2.8275208473205566,102,8124.0,2.9901351928710938,123,9909.0
9180,0.369906485080719,2.431345224380493,-163,8124.0,2.0232198238372803,190,9909.0
9190,0.3697756230831146,0.15046992897987366,23,8124.0,8.341201782226562,34,9909.0
9200,0.36967772245407104,0.5438482761383057,86,8124.0,1.7638109922409058,-46,9909.0
9210,0.36958691477775574,-1.2481763362884521,55,8124.0,5.400870323181152,106,9909.0
9220,0.37084922194480896,-1.0098612308502197,55,8124.0,-1.4396146535873413,178,9909.0
9230,0.3708612322807312,3.646683692932129,0,8124.0,-1.2204190492630005,-6,9909.0
9240,0.37087777256965637,-3.0689008235931396,12,8124.0,-5.442359924316406,-133,9909.0
9250,0.3709053099155426,-2.8986854553222656,25,8124.0,-5.076879501342773,119,9909.0
9260,0.37055882811546326,-3.5535058975219727,-27,8124.0,-7.5943193435668945,-174,9909.0
9270,0.3705655336380005,-1.715175747871399,-149,8124.0,-2.1330463886260986,-190,9909.0
9280,0.3706025779247284,-4.002042293548584,63,8124.0,-3.108463764190674,-10,9909.0
9290,0.37065690755844116,-1.5874168872833252,95,8124.0,0.5131527185440063,186,9909.0
9300,0.37122538685798645,2.0248873233795166,14,8124.0,-2.6101486682891846,-106,9909.0
9310,0.3713192045688629,9.267918586730957,66,8124.0,9.940472602844238,7,9909.0
9320,0.37140169739723206,3.904705762863159,146,8124.0,0.2866562306880951,-119,9909.0
9330,0.3714529573917389,1.1443082094192505,84,8124.0,3.7298390865325928,121,9909.0
9340,0.3715135157108307,-0.8594172596931458,15,8124.0,-3.022782325744629,168,9909.0
9350,0.3741152882575989,-0.6534574627876282,-16,8124.0,1.921913504600525,63,9909.0
9360,0.37437310814857483,-2.4002487659454346,37,8124.0,8.30448055267334,121,9909.0
9370,0.3746242821216583,-1.4978865385055542,-61,8124.0,2.7427189350128174,22,9909.0
9380,0.3748829662799835,-1.444169521331787,-140,8124.0,3.708665132522583,159,9909.0
9390,0.3739619255065918,-2.411019802093506,43,8124.0,3.859792470932007,54,9909.0
9400,0.37417155504226685,-0.8028414249420166,73,8124.0,1.0248161554336548,138,9909.0
9410,0.3743777871131897,-0.5482564568519592,-69,8124.0,0.2049078494310379,62,9909.0
9420,0.37465691566467285,-0.8081095814704895,-162,8124.0,2.683089256286621,-176,9909.0
9430,0.37489041686058044,0.7806225419044495,25,8124.0,1.2843092679977417,-102,9909.0
9440,0.37477901577949524,1.7426351308822632,84,8124.0,-1.283815860748291,68,9909.0
9450,0.3750053644180298,2.1602976322174072,-24,8124.0,-3.470160961151123,59,9909.0
9460,0.3752363324165344,0.8859217166900635,6,8124.0,-3.578883647918701,-269,9909.0
9470,0.3754624128341675,2.1066861152648926,121,8124.0,-2.135089874267578,-155,9909.0
9480,0.37464404106140137,2.1831793785095215,16,8124.0,-2.184246063232422,56,9909.0
9490,0.3747577965259552,2.5369412899017334,-48,8124.0,0.16794836521148682,-8,9909.0
9500,0.37486323714256287,-0.1401878297328949,32,8124.0,8.101734161376953,21,9909.0
9510,0.37497177720069885,0.07678786665201187,55,8124.0,3.2731380462646484,167,9909.0
9520,0.3750515878200531,0.0586506687104702,-64,8124.0,3.635529041290283,-24,9909.0
9530,0.3751671612262726,0.5870022177696228,-44,8124.0,1.8176180124282837,41,9909.0
9540,0.3752690553665161,-2.471226692199707,-30,8124.0,3.6217424869537354,93,9909.0
9550,0.37539365887641907,-3.0461902618408203,-29,8124.0,1.9960582256317139,142,9909.0
9560,0.37553533911705017,-2.873843193054199,-108,8124.0,-0.6290713548660278,-100,9909.0
9570,0.3745962977409363,-1.28294837474823,-123,8124.0,1.9707610607147217,-156,9909.0
9580,0.3746579587459564,-1.0185507535934448,58,8124.0,-5.4822998046875,-63,9909.0
9590,0.37472835183143616,0.5121121406555176,136,8124.0,-3.9844226837158203,59,9909.0
9600,0.3747631311416626,5.368485927581787,35,8124.0,-2.8577041625976562,-106,9909.0
9610,0.3729490041732788,5.369571685791016,34,8124.0,0.5168468952178955,-157,9909.0
9620,0.3728569447994232,1.5434670448303223,133,8124.0,-2.174565315246582,62,9909.0
9630,0.37275150418281555,3.9766058921813965,133,8124.0,0.9829535484313965,123,9909.0
9640,0.37262335419654846,3.2660768032073975,41,8124.0,1.5723328590393066,-8,9909.0
9650,0.37248048186302185,4.725018501281738,-10,8124.0,5.116261005401611,-27,9909.0
9660,0.3701404333114624,4.133282661437988,119,8124.0,1.6958597898483276,38,9909.0
9670,0.36985334753990173,-0.15886200964450836,56,8124.0,0.4975605010986328,98,9909.0
9680,0.3695654571056366,-2.347003221511841,-111,8124.0,0.9200647473335266,-15,9909.0
9690,0.3692668378353119,-4.644760608673096,-163,8124.0,-3.6313726902008057,-106,9909.0
9700,0.3697773218154907,-3.3343095779418945,-49,8124.0,-0.001122841495089233,-94,9909.0
9710,0.36949440836906433,-1.3398596048355103,39,8124.0,2.9247853755950928,56,9909.0
9720,0.36918333172798157,-1.3870030641555786,22,8124.0,4.747501850128174,186,9909.0
9730,0.3688241243362427,0.7240241765975952,-38,8124.0,0.8802401423454285,28,9909.0
9740,0.36713364720344543,-0.6275479197502136,-5,8124.0,-3.216965436935425,-44,9909.0
9750,0.366742879152298,3.755492925643921,48,8124.0,-0.2573378086090088,-120,9909.0
9760,0.3663763105869293,2.1999645233154297,46,8124.0,2.7512807846069336,62,9909.0
9770,0.36602509021759033,-0.0928443893790245,53,8124.0,-2.3575685024261475,139,9909.0
9780,0.36569854617118835,-3.936858892440796,-223,8124.0,-1.0085363388061523,103,9909.0
9790,0.36441996693611145,-3.3355658054351807,-115,8124.0,0.3043338358402252,-99,9909.0
9800,0.36405348777770996,-4.441831588745117,-5,8124.0,-1.9512102603912354,-126,9909.0
9810,0.3636948764324188,-2.6733081340789795,0,8124.0,-2.4134490489959717,-34,9909.0
9820,0.3633522391319275,-1.3743692636489868,-23,8124.0,-3.324824333190918,-26,9909.0
9830,0.36187267303466797,2.97135066986084,-4,8124.0,-8.130434036254883,-14,9909.0
9840,0.3615531027317047,3.497586727142334,-46,8124.0,-0.9522235989570618,11,9909.0
9850,0.3613258898258209,0.9591158628463745,58,8124.0,1.655205488204956,66,9909.0
9860,0.36113619804382324,2.129274845123291,83,8124.0,2.056126356124878,97,9909.0
9870,0.36100080609321594,3.2364931106567383,40,8124.0,4.33088493347168,204,9909.0
9880,0.3601350486278534,4.255276679992676,12,8124.0,-4.857490062713623,-33,9909.0
9890,0.3600730895996094,2.5447144508361816,-24,8124.0,0.9579493403434753,-69,9909.0
9900,0.3600482940673828,1.9031901359558105,2,8124.0,1.46633780002594,-40,9909.0
9910,0.3600514233112335,-1.220842957496643,-56,8124.0,1.278410792350769,82,9909.0
9920,0.3596516251564026,-2.9437687397003174,53,8124.0,0.17885185778141022,84,9909.0
9930,0.35967159271240234,-4.001540660858154,-122,8124.0,-1.0029882192611694,3,9909.0
9940,0.3596991300582886,-4.966618061065674,-109,8124.0,0.9716989398002625,-116,9909.0
9950,0.35972359776496887,-4.439459323883057,-74,8124.0,-2.029348373413086,-223,9909.0
9960,0.3609960675239563,2.3276474475860596,-16,8124.0,-5.818180561065674,-156,9909.0
9970,0.3611666262149811,-1.1968319416046143,15,8124.0,-3.222973585128784,-150,9909.0
9980,0.36140623688697815,-2.16018009185791,-22,8124.0,-0.9752402305603027,43,9909.0
9990,0.3616558313369751,0.6377197504043579,-29,8124.0,-1.392533779144287,-71,9909.0
10000,0.36188560724258423,1.5485177040100098,13,8124.0,-4.162418842315674,-229,9909.0
10010,0.36220985651016235,4.3173136711120605,116,8124.0,-1.181009292602539,-128,9909.0
10020,0.3624793291091919,5.420189380645752,158,8124.0,4.832670211791992,161,9909.0
10030,0.36274081468582153,4.47043514251709,20,8124.0,2.229952573776245,103,9909.0
10040,0.36302971839904785,3.9998490810394287,-5,8124.0,5.432401657104492,65,9909.0
10050,0.3631647229194641,1.3220134973526,-74,8124.0,5.764235019683838,-90,9909.0
10060,0.3633861839771271,-1.6050748825073242,17,8124.0,-0.8436440825462341,33,9909.0
10070,0.363629549741745,-1.9280647039413452,-21,8124.0,-2.6033284664154053,24,9909.0
10080,0.3638739287853241,-2.0231330394744873,-68,8124.0,-5.891559600830078,-147,9909.0
10090,0.3641330301761627,0.84156733751297,-88,8124.0,-8.94680404663086,-319,9909.0
10100,0.36592209339141846,-1.8692244291305542,27,8124.0,-10.576651573181152,-189,9909.0
10110,0.36623600125312805,0.17950475215911865,53,8124.0,-8.487384796142578,-30,9909.0
10120,0.3665059208869934,-0.3602428436279297,-52,8124.0,-5.029300212860107,-73,9909.0
10130,0.3667551279067993,-2.418412208557129,-128,8124.0,-1.1523042917251587,-233,9909.0
10140,0.3662208318710327,-5.5214996337890625,-24,8124.0,2.036142349243164,-43,9909.0
10150,0.3664017617702484,-2.912400484085083,15,8124.0,1.4809048175811768,127,9909.0
10160,0.36652642488479614,-1.7392501831054688,-102,8124.0,4.687766075134277,-5,9909.0
10170,0.3666108250617981,-0.03927522897720337,-96,8124.0,2.413480043411255,-239,9909.0
10180,0.36833274364471436,1.193073034286499,-27,8124.0,2.4875526428222656,-23,9909.0
10190,0.368496835231781,0.4970308244228363,76,8124.0,6.016631603240967,195,9909.0
10200,0.3686578869819641,3.348275899887085,-27,8124.0,3.0448148250579834,-38,9909.0
10210,0.3687915802001953,5.973541736602783,-23,8124.0,1.5895463228225708,-143,9909.0
10220,0.3688749670982361,5.356370449066162,94,8124.0,3.5929930210113525,-149,9909.0
10230,0.3701680898666382,-5.300704479217529,109,8124.0,7.947688102722168,68,9909.0
10240,0.37025219202041626,3.5805227756500244,-15,8124.0,-2.576967716217041,-99,9909.0
10250,0.3703145980834961,1.8998082876205444,-112,8124.0,-1.9364597797393799,-213,9909.0
10260,0.3703693449497223,0.8500238656997681,-40,8124.0,-2.92452335357666,-45,9909.0
10270,0.3706463873386383,0.6945263147354126,117,8124.0,-3.074753761291504,196,9909.0
10280,0.3706807792186737,0.6445971727371216,-88,8124.0,0.8533467650413513,26,9909.0
10290,0.37067827582359314,-2.562929153442383,-125,8124.0,-1.5267372131347656,-62,9909.0
10300,0.3706224262714386,-3.7170560359954834,17,8124.0,-1.4894014596939087,131,9909.0
10310,0.37054282426834106,-1.8378024101257324,-10,8124.0,-2.3562731742858887,392,9909.0
10320,0.3689519464969635,-6.270229339599609,-143,8124.0,8.051709175109863,168,9909.0
10330,0.36869576573371887,-3.013639450073242,-28,8124.0,9.11821460723877,131,9909.0
10340,0.36840370297431946,-0.11926782876253128,79,8124.0,6.475759506225586,232,9909.0
10350,0.36809590458869934,3.3345088958740234,-11,8124.0,2.008056402206421,154,9909.0
10360,0.3690852224826813,2.0594379901885986,-167,8124.0,-2.4908974170684814,-25,9909.0
10370,0.3688029944896698,3.107659339904785,-83,8124.0,-3.3017122745513916,-122,9909.0
10380,0.3685164153575897,1.4372498989105225,59,8124.0,-1.927506446838379,20,9909.0
10390,0.36823615431785583,1.9840397834777832,87,8124.0,-0.8046591281890869,134,9909.0
10400,0.3691340982913971,0.8633759617805481,48,8124.0,4.559901237487793,28,9909.0
10410,0.3689400553703308,0.15351693332195282,-110,8124.0,0.7105100750923157,-144,9909.0
10420,0.36873847246170044,-3.1562891006469727,2,8124.0,-1.3658381700515747,8,9909.0
10430,0.36857056617736816,-3.8987069129943848,-110,8124.0,0.3848578631877899,119,9909.0
10440,0.3684247136116028,-2.900630235671997,-113,8124.0,1.33998441696167,131,9909.0
10450,0.36772146821022034,-3.617046594619751,50,8124.0,5.269837379455566,-19,9909.0
10460,0.3675716817378998,-2.3181891441345215,7,8124.0,0.9594647288322449,27,9909.0
10470,0.3674528896808624,-2.5688247680664062,-65,8124.0,-0.13321097195148468,78,9909.0
10480,0.36736831068992615,-1.5806243419647217,-78,8124.0,-1.8742488622665405,67,9909.0
10490,0.36916854977607727,1.257644772529602,46,8124.0,-3.5099306106567383,-53,9909.0
10500,0.36927440762519836,3.101569652557373,101,8124.0,0.09157940745353699,46,9909.0
10510,0.3694225549697876,1.1821751594543457,67,8124.0,-3.824052095413208,145,9909.0
10520,0.3696066737174988,1.3359041213989258,-47,8124.0,-1.6861069202423096,-67,9909.0
10530,0.3698236048221588,1.9409723281860352,-28,8124.0,-0.22534199059009552,-135,9909.0
10540,0.3709157407283783,0.0024454533122479916,4,8124.0,0.601115345954895,68,9909.0
10550,0.3711794316768646,0.2622920274734497,92,8124.0,-3.2049896717071533,129,9909.0
10560,0.3714311122894287,-1.1817165613174438,-48,8124.0,-3.509554862976074,-87,9909.0
10570,0.3716624975204468,2.360299587249756,44,8124.0,-8.062751770019531,-96,9909.0
10580,0.3719373941421509,-2.1097664833068848,108,8124.0,-2.2078049182891846,91,9909.0
10590,0.3721613585948944,2.9959876537323,-16,8124.0,-8.378064155578613,59,9909.0
10600,0.3723566234111786,-3.521397590637207,-52,8124.0,4.500580310821533,29,9909.0
10610,0.37256041169166565,-1.3269752264022827,69,8124.0,-3.5979902744293213,69,9909.0
10620,0.373213529586792,-2.03534197807312,-35,8124.0,4.946551322937012,2,9909.0
10630,0.3733954429626465,2.828716278076172,-98,8124.0,-2.4385035037994385,-60,9909.0
10640,0.37360483407974243,1.3313556909561157,102,8124.0,2.591952085494995,117,9909.0
10650,0.3738137483596802,1.0285658836364746,21,8124.0,1.295049786567688,78,9909.0
10660,0.3740127682685852,1.077864646911621,-137,8124.0,3.188977003097534,-85,9909.0
10670,0.3742135465145111,-1.6529189348220825,14,8124.0,2.8107218742370605,11,9909.0
10680,0.37440457940101624,-3.3066251277923584,-77,8124.0,2.886772394180298,55,9909.0
10690,0.37456247210502625,-1.1485635042190552,-110,8124.0,1.731324315071106,-137,9909.0
10700,0.37479647994041443,-2.5227980613708496,-24,8124.0,1.718422293663025,25,9909.0
10710,0.37419548630714417,0.7786920666694641,36,8124.0,-1.7906582355499268,-30,9909.0
10720,0.3743346035480499,3.348418712615967,52,8124.0,-1.857176423072815,-146,9909.0
10730,0.3744426667690277,5.435326099395752,203,8124.0,-3.9310028553009033,20,9909.0
10740,0.3745054304599762,5.952756404876709,55,8124.0,1.4074170589447021,88,9909.0
10750,0.3745150864124298,2.180830240249634,-14,8124.0,6.238829612731934,-66,9909.0
10760,0.37309539318084717,4.741884708404541,147,8124.0,-0.4252009391784668,73,9909.0
10770,0.3729443848133087,2.3010895252227783,-5,8124.0,3.266404867172241,-49,9909.0
10780,0.37283405661582947,3.824284553527832,62,8124.0,5.250127792358398,13,9909.0
10790,0.37264925241470337,-1.6689784526824951,58,8124.0,8.638092041015625,211,9909.0
10800,0.3718506395816803,0.5354918241500854,-39,8124.0,7.595724105834961,0,9909.0
10810,0.3715896010398865,0.3093715012073517,59,8124.0,4.129502773284912,-3,9909.0
10820,0.3713317811489105,0.20135597884655,157,8124.0,6.7123122215271,151,9909.0
10830,0.3710798919200897,1.174716591835022,-45,8124.0,-0.7035431861877441,-32,9909.0
10840,0.3704945743083954,0.6996653079986572,40,8124.0,-1.1202963590621948,-64,9909.0
10850,0.3702413737773895,3.1063599586486816,143,8124.0,-2.8139307498931885,90,9909.0
10860,0.36996912956237793,0.6681101322174072,-74,8124.0,3.730350971221924,-19,9909.0
10870,0.369719535112381,-0.8478808999061584,7,8124.0,2.0508387088775635,-39,9909.0
10880,0.3694659471511841,0.2263599932193756,92,8124.0,0.13322864472866058,0,9909.0
10890,0.36902639269828796,1.0349184274673462,-24,8124.0,-2.607706308364868,-165,9909.0
10900,0.3687713146209717,-0.37812817096710205,-34,8124.0,2.1016016006469727,-96,9909.0
10910,0.36853888630867004,0.9739769101142883,74,8124.0,-2.5153207778930664,73,9909.0
10920,0.36830446124076843,-2.0462658405303955,-72,8124.0,-1.4175459146499634,-77,9909.0
10930,0.36640721559524536,-4.109869003295898,-70,8124.0,9.17525863647461,4,9909.0
10940,0.366068035364151,-5.734382152557373,14,8124.0,7.835992813110352,224,9909.0
10950,0.36573654413223267,-4.621850490570068,-144,8124.0,11.045187950134277,213,9909.0
10960,0.3654109537601471,-2.3658902645111084,-209,8124.0,10.270075798034668,97,9909.0
10970,0.3651144206523895,-0.6031806468963623,55,8124.0,6.962146759033203,165,9909.0
10980,0.36602944135665894,0.6974244713783264,29,8124.0,5.107001304626465,121,9909.0
10990,0.36586782336235046,-0.5975466966629028,-92,8124.0,0.9229457378387451,-103,9909.0
11000,0.3657236099243164,-0.7807255983352661,0,8124.0,-4.513680458068848,-222,9909.0
11010,0.36558017134666443,-1.5133299827575684,34,8124.0,-6.276300430297852,-44,9909.0
11020,0.3644513785839081,-4.185349941253662,-131,8124.0,-3.7647476196289062,-82,9909.0
11030,0.364281564950943,-3.709787368774414,-121,8124.0,-3.6320996284484863,-180,9909.0
11040,0.36418357491493225,-3.1597366333007812,-4,8124.0,-2.951326370239258,59,9909.0
11050,0.3640829920768738,-1.3004891872406006,-28,8124.0,1.1311745643615723,108,9909.0
11060,0.36365020275115967,-0.7331010699272156,28,8124.0,4.345834732055664,-74,9909.0
11070,0.36362209916114807,-0.4506332576274872,36,8124.0,5.956698894500732,54,9909.0
11080,0.363620787858963,-4.5291948318481445,-131,8124.0,-0.378356397151947,122,9909.0
11090,0.36371392011642456,-0.4029276669025421,-78,8124.0,1.5630797147750854,-20,9909.0
11100,0.36382782459259033,-0.4851931035518646,83,8124.0,3.209306478500366,-30,9909.0
11110,0.3628355860710144,0.21031542122364044,-49,8124.0,6.888086318969727,238,9909.0
11120,0.3629409074783325,2.687208890914917,-101,8124.0,1.8031107187271118,23,9909.0
11130,0.3630601763725281,1.8241223096847534,81,8124.0,-0.46219560503959656,24,9909.0
11140,0.363180011510849,2.096113920211792,24,8124.0,-0.4819454252719879,66,9909.0
11150,0.3635806739330292,2.2059056758880615,-80,8124.0,-3.5583269596099854,-181,9909.0
11160,0.363735169172287,-0.20255084335803986,14,8124.0,-0.6221247315406799,-44,9909.0
11170,0.3639010488986969,0.6903789639472961,79,8124.0,-2.617091655731201,71,9909.0
11180,0.3640940487384796,1.4565428495407104,-54,8124.0,0.35354605317115784,-123,9909.0
11190,0.36429473757743835,2.5672004222869873,0,8124.0,-1.2027957439422607,-41,9909.0
11200,0.36641308665275574,-1.272600769996643,163,8124.0,-1.0391110181808472,48,9909.0
11210,0.3667173981666565,-4.053049564361572,-118,8124.0,2.276446502946783e-05,-105,9909.0
11220,0.36702147126197815,-3.6800434589385986,-37,8124.0,2.134321928024292,-13,9909.0
11230,0.36735644936561584,-3.3220484256744385,54,8124.0,-2.223787307739258,113,9909.0
11240,0.3675302267074585,-0.4921068251132965,-103,8124.0,3.6474661827087402,57,9909.0
11250,0.3678615093231201,-0.1551029235124588,-20,8124.0,9.262285232543945,102,9909.0
11260,0.36820539832115173,-0.6165693402290344,72,8124.0,7.389174461364746,253,9909.0
11270,0.36850640177726746,-0.43464770913124084,-72,8124.0,4.864234447479248,21,9909.0
11280,0.3681391179561615,1.5746463537216187,-22,8124.0,6.358526706695557,-6,9909.0
11290,0.3684569001197815,-0.869549572467804,68,8124.0,1.4582639932632446,32,9909.0
11300,0.36873698234558105,2.4232583045959473,8,8124.0,-0.8546589612960815,-113,9909.0
11310,0.3689855635166168,6.4861836433410645,98,8124.0,-5.103447914123535,-101,9909.0
11320,0.3691701591014862,5.0327653884887695,195,8124.0,-3.6899962425231934,240,9909.0
11330,0.3696385324001312,6.718896389007568,-35,8124.0,-4.4717535972595215,-36,9909.0
11340,0.3697839379310608,3.259958505630493,30,8124.0,-4.103437900543213,23,9909.0
11350,0.36990368366241455,2.53114914894104,85,8124.0,-0.6214855313301086,201,9909.0
11360,0.3700094521045685,1.6234841346740723,-142,8124.0,6.278282165527344,5,9909.0
11370,0.36884942650794983,-0.39619705080986023,55,8124.0,-0.23200252652168274,14,9909.0
11380,0.3688654899597168,0.17715434730052948,40,8124.0,-3.056572914123535,108,9909.0
11390,0.3688988983631134,0.09185932576656342,-85,8124.0,2.3958137035369873,-62,9909.0
11400,0.3688880503177643,-0.7431859970092773,81,8124.0,-0.9283061027526855,9,9909.0
11410,0.3688553273677826,0.7876372933387756,69,8124.0,-6.299642086029053,101,9909.0
11420,0.37090247869491577,1.1507974863052368,-89,8124.0,-6.156630992889404,-189,9909.0
11430,0.371004194021225,0.1515432745218277,57,8124.0,-5.2906413078308105,-62,9909.0
11440,0.37103742361068726,0.011960084550082684,31,8124.0,-6.33030366897583,-39,9909.0
11450,0.37106022238731384,1.5018773078918457,-103,8124.0,-4.740862846374512,-260,9909.0
11460,0.36981433629989624,-0.36155667901039124,72,8124.0,-2.0288312435150146,-8,9909.0
11470,0.3696640431880951,0.3498438000679016,91,8124.0,0.26370498538017273,47,9909.0
11480,0.36948463320732117,2.422131299972534,-24,8124.0,-3.029568910598755,-63,9909.0
11490,0.36929479241371155,1.9961330890655518,108,8124.0,3.5718705654144287,78,9909.0
11500,0.36984336376190186,2.418632984161377,77,8124.0,0.06327488273382187,115,9909.0
11510,0.3696328103542328,-0.9552243947982788,-42,8124.0,-0.3267292082309723,-44,9909.0
11520,0.36944058537483215,-1.1311686038970947,46,8124.0,2.725346088409424,-35,9909.0
11530,0.369272381067276,-2.13915753364563,-8,8124.0,-0.6898276805877686,1,9909.0
11540,0.3691238462924957,-2.0796751976013184,-233,8124.0,-2.7457852363586426,38,9909.0
11550,0.3693516254425049,-0.7182250618934631,13,8124.0,0.22723008692264557,-60,9909.0
11560,0.36924171447753906,-0.6283299922943115,-19,8124.0,-1.2061312198638916,95,9909.0
11570,0.36913588643074036,-2.3652660846710205,-105,8124.0,0.6833755373954773,-161,9909.0
11580,0.36904609203338623,-0.5179433226585388,-5,8124.0,-1.6150585412979126,5,9909.0
11590,0.3698020577430725,2.090669870376587,117,8124.0,-4.007620811462402,12,9909.0
11600,0.3697707951068878,0.7194472551345825,7,8124.0,-3.198042869567871,-73,9909.0
11610,0.36974793672561646,3.279639720916748,116,8124.0,4.050882816314697,-94,9909.0
11620,0.36972659826278687,0.5481602549552917,184,8124.0,-2.426114082336426,126,9909.0
11630,0.3696863353252411,3.090700149536133,3,8124.0,-2.247934341430664,-58,9909.0
11640,0.3709954619407654,1.7267918586730957,48,8124.0,0.5450188517570496,-56,9909.0
11650,0.3710588812828064,1.487849235534668,-57,8124.0,1.371067762374878,94,9909.0
11660,0.37110278010368347,1.1125123500823975,-42,8124.0,1.1272006034851074,-104,9909.0
11670,0.3711448013782501,1.1324656009674072,52,8124.0,-2.942918539047241,-109,9909.0
11680,0.37073785066604614,-0.6153163909912109,-45,8124.0,-1.529650092124939,0,9909.0
11690,0.37074941396713257,-1.0925109386444092,-92,8124.0,-2.5644025802612305,-167,9909.0
11700,0.3707486093044281,-1.9209561347961426,49,8124.0,-6.356783390045166,-234,9909.0
11710,0.37078046798706055,2.2562854290008545,-63,8124.0,-1.8159101009368896,-63,9909.0
11720,0.37048569321632385,-3.620461940765381,-151,8124.0,-5.778244495391846,-177,9909.0
11730,0.3704792559146881,-4.684778690338135,-26,8124.0,-5.867189884185791,-126,9909.0
11740,0.37047749757766724,-3.482905387878418,-67,8124.0,-0.8447456955909729,6,9909.0
11750,0.3704666793346405,-4.204861640930176,-180,8124.0,-3.260800838470459,-88,9909.0
11760,0.3704085946083069,-3.6157867908477783,7,8124.0,-0.5310462713241577,61,9909.0
11770,0.3713604807853699,-1.6299569606781006,-47,8124.0,-0.876896321773529,2,9909.0
11780,0.3713066577911377,1.9937241077423096,-97,8124.0,-0.09868638962507248,-19,9909.0
11790,0.3712407946586609,1.3149492740631104,77,8124.0,-2.2997820377349854,-5,9909.0
11800,0.3711416721343994,3.395906925201416,96,8124.0,-2.735424518585205,61,9909.0
11810,0.37061458826065063,5.7789692878723145,23,8124.0,-3.0725231170654297,-16,9909.0
11820,0.3704487681388855,4.220730304718018,121,8124.0,1.3371280431747437,110,9909.0
11830,0.37026408314704895,4.947304725646973,60,8124.0,-0.25652575492858887,69,9909.0
11840,0.37007835507392883,2.748730421066284,5,8124.0,2.5687057971954346,-56,9909.0
11850,0.369901567697525,3.001375436782837,145,8124.0,2.778207778930664,109,9909.0
11860,0.3697618842124939,2.319793462753296,-38,8124.0,5.199795246124268,120,9909.0
11870,0.36958375573158264,-1.357134461402893,-94,8124.0,8.346240997314453,51,9909.0
11880,0.36941587924957275,0.56139075756073,103,8124.0,4.448781490325928,189,9909.0
11890,0.36922508478164673,2.2948572635650635,24,8124.0,7.1153244972229,74,9909.0
11900,0.3688983619213104,3.280636787414551,-14,8124.0,5.6231889724731445,-50,9909.0
11910,0.36874210834503174,1.6505966186523438,52,8124.0,1.148714542388916,45,9909.0
11920,0.36854758858680725,2.8025076389312744,13,8124.0,-6.921065330505371,-72,9909.0
11930,0.3683851957321167,-0.8731086254119873,-71,8124.0,0.05782085284590721,-228,9909.0
11940,0.3685247600078583,-1.4702272415161133,39,8124.0,-6.706084251403809,-43,9909.0
11950,0.36839988827705383,-3.104578971862793,-82,8124.0,-2.1135833263397217,-109,9909.0
11960,0.36828580498695374,-1.860107183456421,-71,8124.0,-4.106204986572266,-201,9909.0
11970,0.3681902587413788,0.5833001732826233,106,8124.0,-3.9674675464630127,34,9909.0
11980,0.3681293725967407,0.6427461504936218,-24,8124.0,1.9209738969802856,-16,9909.0
11990,0.3664054572582245,-0.5538563132286072,-33,8124.0,7.903655529022217,29,9909.0
12000,0.3662436902523041,0.3694211542606354,140,8124.0,4.939640522003174,298,9909.0
12010,0.36609533429145813,1.0516016483306885,-56,8124.0,8.544815063476562,57,9909.0
12020,0.3659261167049408,1.70341157913208,27,8124.0,3.099600315093994,-68,9909.0
12030,0.3646080791950226,1.2195851802825928,82,8124.0,2.732614755630493,165,9909.0
12040,0.3643728196620941,2.3930232524871826,-85,8124.0,1.8645720481872559,-32,9909.0
12050,0.3641442358493805,-0.2445094883441925,-16,8124.0,3.90585994720459,-54,9909.0
12060,0.36396050453186035,-2.8504109382629395,19,8124.0,-0.6160517930984497,-22,9909.0
12070,0.3637775182723999,-3.990393877029419,-135,8124.0,-4.271835803985596,-285,9909.0
12080,0.3633098006248474,-3.462993621826172,-16,8124.0,-4.818898677825928,-4,9909.0
12090,0.3631976246833801,-2.663672924041748,16,8124.0,-8.79967975616455,-30,9909.0
12100,0.36313825845718384,0.07567065209150314,-16,8124.0,-5.0299248695373535,-9,9909.0
12110,0.3630356788635254,0.9877769947052002,112,8124.0,1.7923386096954346,239,9909.0
12120,0.362542062997818,-1.1783180236816406,-20,8124.0,5.646787166595459,131,9909.0
12130,0.36244839429855347,-0.7577031850814819,-19,8124.0,1.4974209070205688,75,9909.0
12140,0.36234918236732483,0.1307108998298645,47,8124.0,7.479803562164307,215,9909.0
12150,0.36227333545684814,0.010475966148078442,-163,8124.0,9.939718246459961,66,9909.0
12160,0.36253347992897034,-2.86456298828125,24,8124.0,6.306790828704834,135,9909.0
12170,0.36256974935531616,-2.4143753051757812,-49,8124.0,4.1671247482299805,45,9909.0
12180,0.36266130208969116,-3.4609668254852295,-101,8124.0,0.9453185200691223,-111,9909.0
12190,0.3627532422542572,-1.277806043624878,9,8124.0,0.6440869569778442,93,9909.0
12200,0.3628852069377899,-2.2434985637664795,-46,8124.0,-5.454475402832031,-59,9909.0
12210,0.3630787134170532,-2.7260406017303467,-39,8124.0,-1.0991519689559937,-76,9909.0
12220,0.3632298409938812,0.35604971647262573,72,8124.0,-4.875284194946289,86,9909.0
12230,0.36336877942085266,-0.42722952365875244,-86,8124.0,-4.596033096313477,-68,9909.0
12240,0.36353176832199097,-0.014900779351592064,27,8124.0,0.37217000126838684,79,9909.0
12250,0.3642425239086151,0.7240397930145264,-41,8124.0,5.176661968231201,12,9909.0
12260,0.3644586503505707,0.6712474822998047,-47,8124.0,6.639760971069336,-22,9909.0
12270,0.3646335005760193,0.06652791798114777,84,8124.0,3.5663554668426514,65,9909.0
12280,0.3648030161857605,-4.11997127532959,-51,8124.0,-1.9192079305648804,-41,9909.0
12290,0.3649662733078003,-5.460771083831787,-44,8124.0,0.13984830677509308,95,9909.0
12300,0.3667660653591156,-3.825988292694092,-192,8124.0,0.03482391685247421,28,9909.0
12310,0.3669992685317993,-5.24550199508667,-25,8124.0,-0.057262543588876724,43,9909.0
12320,0.3672275245189667,-2.4907705783843994,-114,8124.0,2.5496790409088135,48,9909.0
12330,0.3674595355987549,-0.3008030652999878,34,8124.0,1.8600744009017944,-125,9909.0
12340,0.36747753620147705,-2.2093122005462646,-45,8124.0,7.0086565017700195,86,9909.0
12350,0.36766594648361206,-2.9017441272735596,-75,8124.0,0.9205747246742249,-65,9909.0
12360,0.36781322956085205,-1.1018744707107544,37,8124.0,-1.5283005237579346,103,9909.0
12370,0.3679412007331848,1.1924129724502563,-152,8124.0,-1.5905017852783203,-157,9909.0
12380,0.36647897958755493,-1.443987250328064,34,8124.0,-2.338365316390991,-103,9909.0
12390,0.3665544092655182,-0.25335049629211426,-48,8124.0,-2.3396124839782715,-88,9909.0
12400,0.36662036180496216,1.3649998903274536,48,8124.0,0.47047558426856995,32,9909.0
12410,0.36667439341545105,1.1816140413284302,55,8124.0,5.148721694946289,174,9909.0
12420,0.3667115867137909,1.577765703201294,-52,8124.0,5.323452949523926,14,9909.0
12430,0.3680744767189026,2.2319910526275635,104,8124.0,1.3773750066757202,147,9909.0
12440,0.36819350719451904,3.3888309001922607,-78,8124.0,2.1773483753204346,-145,9909.0
12450,0.3682854473590851,1.0805364847183228,102,8124.0,1.5157934427261353,85,9909.0
12460,0.3683384656906128,2.541506290435791,25,8124.0,1.556775689125061,184,9909.0
12470,0.3678836524486542,1.4727705717086792,18,8124.0,1.4017263650894165,-21,9909.0
12480,0.3678874373435974,0.8913351893424988,146,8124.0,3.832789182662964,157,9909.0
12490,0.36785876750946045,-0.5978999733924866,-39,8124.0,3.4069337844848633,68,9909.0
12500,0.36779335141181946,1.4264652729034424,100,8124.0,3.8558104038238525,194,9909.0
12510,0.36769622564315796,1.3561936616897583,-29,8124.0,4.516160011291504,79,9909.0
12520,0.3672620952129364,3.6923837661743164,30,8124.0,1.5144362449645996,27,9909.0
12530,0.3670956492424011,2.8190813064575195,55,8124.0,0.33758822083473206,38,9909.0
12540,0.3668850064277649,1.1156196594238281,-81,8124.0,1.8773071765899658,-203,9909.0
12550,0.3666525185108185,-1.5496221780776978,93,8124.0,-1.4798314571380615,12,9909.0
12560,0.3669288158416748,-1.4364917278289795,-69,8124.0,1.493140459060669,-66,9909.0
12570,0.36669206619262695,-1.2891086339950562,5,8124.0,-0.2059207558631897,-40,9909.0
12580,0.36642420291900635,-5.1718363761901855,135,8124.0,1.3235691785812378,124,9909.0
12590,0.36610904335975647,-2.3556299209594727,-76,8124.0,1.4361927509307861,-46,9909.0
12600,0.3658483028411865,-0.8238946795463562,47,8124.0,-2.646911859512329,130,9909.0
12610,0.3655267059803009,-3.0304126739501953,-76,8124.0,1.1163111925125122,8,9909.0
12620,0.3652587831020355,1.266182541847229,-4,8124.0,1.542004942893982,-25,9909.0
12630,0.3649974763393402,-1.0373679399490356,13,8124.0,3.6779401302337646,151,9909.0
12640,0.3647240996360779,-0.5577501654624939,-126,8124.0,2.9556808471679688,38,9909.0
12650,0.36379221081733704,0.9482149481773376,21,8124.0,1.1702101230621338,11,9909.0
12660,0.36354348063468933,-0.2556464672088623,-2,8124.0,3.912224769592285,45,9909.0
12670,0.36327022314071655,-1.1910396814346313,-56,8124.0,6.978918552398682,-28,9909.0
12680,0.36300668120384216,-4.152029514312744,55,8124.0,8.050130844116211,219,9909.0
12690,0.3623380959033966,-3.2684032917022705,-114,8124.0,9.055298805236816,126,9909.0
12700,0.3621213436126709,-3.8068528175354004,-20,8124.0,6.1359944343566895,53,9909.0
12710,0.36191102862358093,-3.3660833835601807,118,8124.0,4.924981594085693,220,9909.0
12720,0.36173364520072937,-1.9097121953964233,-76,8124.0,4.779634952545166,-16,9909.0
12730,0.36159226298332214,-1.7673670053482056,44,8124.0,0.05272189900279045,-95,9909.0
12740,0.3607739508152008,-1.6996116638183594,1,8124.0,0.38778549432754517,127,9909.0
12750,0.36061325669288635,0.23640109598636627,-207,8124.0,-4.515746116638184,-155,9909.0
12760,0.3604736626148224,0.3307107388973236,3,8124.0,-4.817146301269531,41,9909.0
12770,0.3603644371032715,0.8974754214286804,18,8124.0,-2.3767335414886475,17,9909.0
12780,0.3609439432621002,1.4553362131118774,-65,8124.0,1.2634494304656982,-155,9909.0
12790,0.36093589663505554,2.407538652420044,117,8124.0,3.4815268516540527,56,9909.0
12800,0.36098095774650574,2.3197970390319824,-3,8124.0,-1.1199100017547607,-92,9909.0
12810,0.36099088191986084,3.0326361656188965,25,8124.0,-0.7986573576927185,-89,9909.0
12820,0.36059388518333435,2.515552282333374,90,8124.0,-2.8395743370056152,151,9909.0
12830,0.36055266857147217,0.29935166239738464,-52,8124.0,-2.3370914459228516,-125,9909.0
12840,0.36054661870002747,-2.6596004962921143,-32,8124.0,2.1270647048950195,83,9909.0
12850,0.3605513870716095,-0.12691448628902435,-62,8124.0,-0.6891061067581177,128,9909.0
12860,0.3605654537677765,-4.709605693817139,-123,8124.0,4.390353679656982,36,9909.0
12870,0.35953471064567566,-3.9325525760650635,23,8124.0,7.132808685302734,238,9909.0
12880,0.359534353017807,-3.7097933292388916,-144,8124.0,4.475222110748291,50,9909.0
12890,0.35955220460891724,-3.8288068771362305,-63,8124.0,3.947852373123169,-24,9909.0
12900,0.35955893993377686,-4.233291149139404,-95,8124.0,-1.9049372673034668,66,9909.0
12910,0.36091992259025574,-4.493794918060303,-138,8124.0,-5.5817084312438965,-193,9909.0
12920,0.3610323965549469,-3.2381808757781982,40,8124.0,-10.358037948608398,-338,9909.0
12930,0.3610769510269165,-2.046184539794922,-82,8124.0,-10.817853927612305,-91,9909.0
12940,0.36110010743141174,-1.32807195186615,-24,8124.0,-9.758057594299316,-274,9909.0
12950,0.36112815141677856,1.130130410194397,145,8124.0,-2.1347286701202393,127,9909.0
12960,0.3611134886741638,0.2764274477958679,-56,8124.0,3.1108622550964355,28,9909.0
12970,0.3611446022987366,2.1783876419067383,104,8124.0,6.69431209564209,107,9909.0
12980,0.36117157340049744,4.0872063636779785,137,8124.0,6.597781658172607,327,9909.0
12990,0.361215740442276,2.7216882705688477,-8,8124.0,11.610672950744629,154,9909.0
13000,0.3615454435348511,2.285301685333252,87,8124.0,11.413498878479004,255,9909.0
13010,0.3615938425064087,-0.6782758831977844,60,8124.0,7.127570152282715,270,9909.0
13020,0.3617228865623474,-4.300307750701904,-128,8124.0,5.004556655883789,-9,9909.0
13030,0.36186447739601135,-3.287360429763794,-19,8124.0,-5.799722671508789,-222,9909.0
13040,0.3615531027317047,-5.695218563079834,37,8124.0,-10.545313835144043,-119,9909.0
13050,0.36159825325012207,-0.6323804259300232,-45,8124.0,-9.639081954956055,-177,9909.0
13060,0.3616850674152374,-4.074887275695801,38,8124.0,-11.24874210357666,-339,9909.0
13070,0.3617495596408844,1.6278445720672607,162,8124.0,-2.92461895942688,43,9909.0
13080,0.3618079423904419,2.6766836643218994,-10,8124.0,-2.477534532546997,-102,9909.0
13090,0.36194565892219543,2.427114963531494,35,8124.0,-2.535464286804199,-106,9909.0
13100,0.3619876801967621,-1.37043035030365,108,8124.0,1.1970148086547852,89,9909.0
13110,0.3620123267173767,-0.007686324417591095,-73,8124.0,-0.47701388597488403,-41,9909.0
13120,0.36203649640083313,-2.074110746383667,-76,8124.0,2.1025643348693848,-53,9909.0
13130,0.36320391297340393,-5.352654933929443,22,8124.0,-3.046619415283203,145,9909.0
13140,0.3632599115371704,-5.431942939758301,-134,8124.0,-2.4684808254241943,-43,9909.0
13150,0.3633290231227875,-5.205044269561768,-99,8124.0,-0.7418684363365173,-61,9909.0
13160,0.36339104175567627,-2.745429754257202,119,8124.0,-5.831056594848633,-5,9909.0
13170,0.36345550417900085,-1.8250569105148315,-70,8124.0,-2.5355381965637207,25,9909.0
13180,0.3633120656013489,1.3277614116668701,-38,8124.0,0.3398084044456482,-101,9909.0
13190,0.36336347460746765,2.8317792415618896,153,8124.0,-2.427971839904785,-11,9909.0
13200,0.3634165823459625,5.926302433013916,68,8124.0,-2.935098171234131,-26,9909.0
13210,0.3634771704673767,5.537598133087158,24,8124.0,-7.183182239532471,-112,9909.0
13220,0.36332565546035767,2.5261504650115967,66,8124.0,-2.7696573734283447,54,9909.0
13230,0.36342552304267883,1.0554466247558594,6,8124.0,3.3308396339416504,158,9909.0
13240,0.36350563168525696,1.7538906335830688,-117,8124.0,0.566131055355072,-33,9909.0
13250,0.36361163854599,-1.8366804122924805,32,8124.0,2.226785182952881,141,9909.0
13260,0.36307820677757263,-0.9367326498031616,16,8124.0,2.7691433429718018,59,9909.0
13270,0.36313557624816895,2.4546732902526855,-57,8124.0,4.513761520385742,-38,9909.0
13280,0.3631758987903595,2.577188491821289,93,8124.0,1.8759907484054565,25,9909.0
13290,0.3632170259952545,2.6151785850524902,55,8124.0,-0.8012964129447937,18,9909.0
13300,0.3632405996322632,2.1319305896759033,-53,8124.0,-5.157425880432129,-180,9909.0
13310,0.36231788992881775,-3.738184928894043,-44,8124.0,-5.290591239929199,-140,9909.0
13320,0.3622998893260956,-5.2171478271484375,-61,8124.0,-8.76725959777832,-6,9909.0
13330,0.3622859716415405,-7.824254512786865,-196,8124.0,-2.9336795806884766,-121,9909.0
13340,0.3623013198375702,-6.380733013153076,-52,8124.0,-5.702102184295654,-18,9909.0
13350,0.3613669276237488,-5.6004638671875,-40,8124.0,2.073618173599243,128,9909.0
13360,0.36130693554878235,-1.335033893585205,-72,8124.0,1.2437877655029297,213,9909.0
13370,0.36123162508010864,-2.107902765274048,11,8124.0,2.3569884300231934,-45,9909.0
13380,0.3611826002597809,1.321581244468689,153,8124.0,2.1690592765808105,52,9909.0
13390,0.36110082268714905,1.647420048713684,-43,8124.0,1.6636693477630615,-66,9909.0
13400,0.3618285357952118,2.2475290298461914,-37,8124.0,-2.3109350204467773,-187,9909.0
13410,0.36181142926216125,4.93002986907959,142,8124.0,0.005902738310396671,40,9909.0
13420,0.36177197098731995,8.612056732177734,85,8124.0,-0.07662664353847504,102,9909.0
13430,0.3617291748523712,6.197412490844727,-6,8124.0,1.8940497636795044,-89,9909.0
13440,0.3601027727127075,4.400047779083252,148,8124.0,0.4704343378543854,23,9909.0
13450,0.3599587380886078,3.953792095184326,72,8124.0,-2.4387929439544678,39,9909.0
13460,0.3597791790962219,1.2996492385864258,-35,8124.0,2.4706671237945557,-112,9909.0
13470,0.3596189022064209,0.52596116065979,17,8124.0,3.466135263442993,-78,9909.0
13480,0.35917356610298157,-0.31592512130737305,47,8124.0,6.954823017120361,215,9909.0
13490,0.3589591383934021,-3.718376636505127,-83,8124.0,5.318508625030518,23,9909.0
13500,0.3587469756603241,-3.1312246322631836,-64,8124.0,0.932321310043335,-161,9909.0
13510,0.358546644449234,-0.4809138774871826,-25,8124.0,4.374551296234131,-61,9909.0
13520,0.35837212204933167,-3.1236016750335693,-99,8124.0,-1.2176929712295532,70,9909.0
13530,0.3585156798362732,0.3527776896953583,50,8124.0,-2.3435163497924805,-186,9909.0
13540,0.35843896865844727,1.914821982383728,170,8124.0,-4.567812919616699,9,9909.0
13550,0.35837632417678833,2.9108269214630127,60,8124.0,-5.835489749908447,3,9909.0
13560,0.3583828806877136,7.781169891357422,10,8124.0,-3.3501837253570557,-26,9909.0
13570,0.3594507575035095,7.0126471519470215,138,8124.0,-0.2938493490219116,-74,9909.0
13580,0.35956433415412903,4.679163455963135,112,8124.0,0.9742012023925781,129,9909.0
13590,0.35970959067344666,5.579425811767578,-94,8124.0,1.067847490310669,81,9909.0
13600,0.3598538041114807,1.1169532537460327,50,8124.0,3.0595011711120605,-56,9909.0
13610,0.3600054681301117,-0.2989008128643036,1,8124.0,1.316271185874939,80,9909.0
13620,0.3592846393585205,-2.516883611679077,-136,8124.0,0.2285327911376953,-272,9909.0
13630,0.35935837030410767,-0.982555091381073,113,8124.0,-8.70390796661377,-275,9909.0
13640,0.3595236837863922,-2.658867359161377,-1,8124.0,-3.8279807567596436,-51,9909.0
13650,0.35965001583099365,-4.3935370445251465,-138,8124.0,-1.4440562725067139,-130,9909.0
13660,0.359503835439682,-3.3721768856048584,-44,8124.0,-1.5905348062515259,-56,9909.0
13670,0.3595917522907257,-3.5456480979919434,89,8124.0,0.8942019939422607,176,9909.0
13680,0.359701931476593,-0.012941496446728706,-84,8124.0,3.9940903186798096,1,9909.0
13690,0.359805703163147,0.33957889676094055,58,8124.0,0.9320389032363892,-96,9909.0
13700,0.3599642813205719,3.221198320388794,107,8124.0,-0.48393714427948,99,9909.0
13710,0.36005377769470215,5.765431880950928,-57,8124.0,1.8690986633300781,18,9909.0
13720,0.3601415753364563,4.0384721755981445,108,8124.0,-2.557424545288086,-41,9909.0
13730,0.36021825671195984,1.8074222803115845,124,8124.0,-6.498852729797363,3,9909.0
13740,0.36026230454444885,3.1433043479919434,19,8124.0,-2.2098774909973145,-126,9909.0
13750,0.3609485328197479,4.895883560180664,141,8124.0,-1.322569489479065,-36,9909.0
13760,0.36106204986572266,1.0320013761520386,175,8124.0,1.4642422199249268,193,9909.0
13770,0.36106181144714355,1.5489635467529297,42,8124.0,0.07673051208257675,-5,9909.0
13780,0.36115097999572754,1.3538886308670044,56,8124.0,1.6932615041732788,74,9909.0
13790,0.35959959030151367,-0.45514586567878723,5,8124.0,5.4422926902771,101,9909.0
13800,0.35949400067329407,0.40798285603523254,-154,8124.0,2.3568601608276367,-74,9909.0
13810,0.35949796438217163,0.33629289269447327,51,8124.0,0.7358490228652954,109,9909.0
13820,0.3594529926776886,-0.30774545669555664,4,8124.0,1.661802053451538,35,9909.0
13830,0.36040210723876953,1.561608076095581,-47,8124.0,-0.43963587284088135,-85,9909.0
13840,0.3604313135147095,0.8457167148590088,100,8124.0,-1.6764999628067017,27,9909.0
13850,0.3604575991630554,0.7234811186790466,21,8124.0,-3.9968888759613037,59,9909.0
13860,0.36051252484321594,-1.5531421899795532,-120,8124.0,-6.227921962738037,-132,9909.0
13870,0.36057958006858826,-0.5149472951889038,6,8124.0,-7.7986273765563965,-185,9909.0
13880,0.3611767292022705,-0.8358608484268188,-31,8124.0,-5.020524501800537,32,9909.0
13890,0.36140745878219604,2.17384934425354,-84,8124.0,-2.584947347640991,-204,9909.0
13900,0.36138200759887695,-1.1582785844802856,53,8124.0,0.7553483247756958,106,9909.0
13910,0.36158323287963867,2.6223011016845703,81,8124.0,4.49913215637207,161,9909.0
13920,0.36137694120407104,6.059329032897949,77,8124.0,7.667983055114746,82,9909.0
13930,0.36146631836891174,6.008620262145996,206,8124.0,3.8312268257141113,261,9909.0
13940,0.36146387457847595,6.121753692626953,102,8124.0,11.465999603271484,204,9909.0
13950,0.361408531665802,5.027947902679443,-38,8124.0,9.833664894104004,3,9909.0
13960,0.3614315688610077,3.917398452758789,102,8124.0,5.617414474487305,93,9909.0
13970,0.36166098713874817,0.8307480812072754,-18,8124.0,-2.3471758365631104,-118,9909.0
13980,0.3616041839122772,0.615395724773407,-24,8124.0,-3.8167948722839355,-199,9909.0
13990,0.3616093695163727,-2.4904932975769043,132,8124.0,-8.839485168457031,-8,9909.0
14000,0.3615502417087555,-0.9460764527320862,-159,8124.0,1.0558677911758423,-139,9909.0
14010,0.3616832494735718,-2.0394680500030518,-86,8124.0,-9.46863842010498,-119,9909.0
14020,0.3615923225879669,-4.311001777648926,-7,8124.0,-6.990927219390869,-113,9909.0
14030,0.3615201413631439,-3.2624547481536865,-149,8124.0,-6.889406681060791,-269,9909.0
14040,0.3614499270915985,-4.706066131591797,-101,8124.0,-3.851365804672241,-68,9909.0
14050,0.3627414107322693,-2.6567542552948,15,8124.0,-2.6460282802581787,50,9909.0
14060,0.36271026730537415,-2.1569244861602783,-95,8124.0,-3.4794747829437256,-88,9909.0
14070,0.36271846294403076,-0.11102344840765,51,8124.0,1.8455829620361328,104,9909.0
14080,0.362705796957016,2.287208080291748,35,8124.0,6.5060930252075195,171,9909.0
14090,0.36267268657684326,2.937563896179199,-92,8124.0,4.42465353012085,-45,9909.0
14100,0.361978679895401,2.667659044265747,143,8124.0,4.907352447509766,10,9909.0
14110,0.36190345883369446,2.0298922061920166,-19,8124.0,5.983858585357666,16,9909.0
14120,0.36180731654167175,0.15840700268745422,-28,8124.0,1.2856160402297974,-37,9909.0
14130,0.36164870858192444,-0.9761569499969482,-40,8124.0,-0.09729745984077454,154,9909.0
14140,0.36127352714538574,-2.421794891357422,-146,8124.0,2.70735764503479,-74,9909.0
14150,0.361066609621048,-2.2880914211273193,16,8124.0,-4.048511028289795,-112,9909.0
14160,0.36081257462501526,-4.466622829437256,-130,8124.0,-2.230116128921509,64,9909.0
14170,0.36051756143569946,-5.061537742614746,-64,8124.0,-2.2228102684020996,-180,9909.0
14180,0.36022812128067017,-3.1181914806365967,80,8124.0,-0.5799089670181274,2,9909.0
14190,0.3599685728549957,-2.8241145610809326,-168,8124.0,-3.1070051193237305,258,9909.0
14200,0.3596591055393219,-4.940621376037598,-21,8124.0,6.48159646987915,90,9909.0
14210,0.359320729970932,-5.069947719573975,-39,8124.0,8.969532012939453,244,9909.0
