timestamp,kalman.stateZ,gyro.x,gyro.xRaw,gyro.xVariance,gyro.y,gyro.yRaw,gyro.yVariance
0,0.3028320074081421,0.3061102628707886,11,7186.0,-10.55522346496582,-159,9833.0
10,0.30312567949295044,0.7015336155891418,15,7186.0,-8.82825756072998,-140,9833.0
20,0.3031051754951477,0.8106321096420288,5,7186.0,-9.619989395141602,-159,9833.0
30,0.3021544814109802,-1.311309576034546,-26,7186.0,-10.76264476776123,-182,9833.0
40,0.3022804856300354,-2.6479036808013916,-44,7186.0,-11.532513618469238,-193,9833.0
50,0.3024584949016571,-3.3629634380340576,-56,7186.0,-12.247310638427734,-205,9833.0
60,0.30264729261398315,-3.25545334815979,-49,7186.0,-12.347052574157715,-197,9833.0
70,0.30313214659690857,-1.8050172328948975,-18,7186.0,-11.922408103942871,-193,9833.0
80,0.30351394414901733,0.4685463607311249,15,7186.0,-10.556845664978027,-161,9833.0
90,0.30362668633461,1.2020559310913086,24,7186.0,-5.878047943115234,-37,9833.0
100,0.30369049310684204,1.321872353553772,21,7186.0,3.4876348972320557,130,9833.0
110,0.3039133548736572,0.5351883769035339,2,7186.0,14.79817008972168,326,9833.0
120,0.30417826771736145,-1.2862154245376587,-33,7186.0,26.65053367614746,487,9833.0
130,0.3040691018104553,-2.7069785594940186,-50,7186.0,34.397926330566406,608,9833.0
140,0.30383679270744324,-2.8907222747802734,-46,7186.0,40.45920944213867,684,9833.0
150,0.30359068512916565,-0.8914470076560974,-4,7186.0,42.29449462890625,692,9833.0
160,0.3025197386741638,1.8092737197875977,54,7186.0,40.0647087097168,632,9833.0
170,0.30251026153564453,6.197020530700684,120,7186.0,33.456974029541016,465,9833.0
180,0.3025330901145935,6.846466541290283,134,7186.0,20.169471740722656,209,9833.0
190,0.3029896318912506,7.497798442840576,110,7186.0,-2.212463617324829,-134,9833.0
200,0.3030237555503845,6.0005083084106445,100,7186.0,-35.604312896728516,-833,9833.0
210,0.3038550615310669,2.96840238571167,76,7186.0,-76.5220947265625,-1492,9833.0
220,0.30469658970832825,3.3774662017822266,113,7186.0,-119.90637969970703,-2183,9833.0
230,0.30548232793807983,2.469515800476074,36,7186.0,-156.50146484375,-2684,9833.0
240,0.3067112863063812,-4.316442012786865,-98,7186.0,-172.40928649902344,-2860,9833.0
250,0.30509787797927856,-12.807819366455078,-241,7186.0,-169.7581329345703,-2710,9833.0
260,0.30409762263298035,-19.34170150756836,-284,7186.0,-128.91793823242188,-1841,9833.0
270,0.30378004908561707,-12.356820106506348,-89,7186.0,-61.10203552246094,-742,9833.0
280,0.3058568239212036,4.381213665008545,187,7186.0,10.588446617126465,349,9833.0
290,0.30932632088661194,24.05633544921875,377,7186.0,65.6277084350586,1298,9833.0
300,0.31069329380989075,40.041934967041016,755,7186.0,92.82769012451172,1685,9833.0
310,0.3118072748184204,38.53681945800781,480,7186.0,93.60445404052734,1610,9833.0
320,0.3121546804904938,16.620174407958984,133,7186.0,80.37237548828125,1225,9833.0
330,0.31297215819358826,-11.155622482299805,-271,7186.0,42.95166778564453,462,9833.0
340,0.31259527802467346,-27.341814041137695,-459,7186.0,-6.553515434265137,-397,9833.0
350,0.3133198022842407,-25.586105346679688,-385,7186.0,-57.652610778808594,-1148,9833.0
360,0.3140578269958496,-12.24167537689209,-114,7186.0,-109.92269134521484,-1916,9833.0
370,0.31447678804397583,3.9830446243286133,170,7186.0,-149.42213439941406,-2567,9833.0
380,0.31359750032424927,19.967540740966797,451,7186.0,-171.5009002685547,-3022,9833.0
390,0.31301596760749817,24.35335350036621,371,7186.0,-165.4320068359375,-2547,9833.0
400,0.3118650019168854,18.099504470825195,392,7186.0,-131.34799194335938,-1949,9833.0
410,0.3186270594596863,9.816363334655762,114,7186.0,-94.66793060302734,-1280,9833.0
420,0.3249286711215973,6.598363399505615,99,7186.0,-43.518348693847656,-390,9833.0
430,0.3274121880531311,7.877896785736084,129,7186.0,23.419710159301758,601,9833.0
440,0.33019888401031494,21.577978134155273,411,7186.0,83.96390533447266,1468,9833.0
450,0.332299143075943,25.2528076171875,403,7186.0,132.8406524658203,2140,9833.0
460,0.3333835303783417,13.581767082214355,169,7186.0,153.47804260253906,2427,9833.0
470,0.3335418999195099,-12.03459644317627,-344,7186.0,152.63262939453125,2401,9833.0
480,0.335752010345459,-38.44144821166992,-659,7186.0,138.9217071533203,2171,9833.0
490,0.3375135064125061,-49.88375473022461,-724,7186.0,114.3676986694336,1779,9833.0
500,0.3392532467842102,-47.03203582763672,-773,7186.0,86.00988006591797,1315,9833.0
510,0.3322403132915497,-23.49236488342285,-196,7186.0,48.06532287597656,550,9833.0
520,0.3335336446762085,4.969455242156982,205,7186.0,3.2301807403564453,-128,9833.0
530,0.3350752294063568,24.236295700073242,318,7186.0,-30.837291717529297,-521,9833.0
540,0.3367551565170288,22.19928550720215,401,7186.0,-41.98288345336914,-751,9833.0
550,0.3340085744857788,13.808683395385742,198,7186.0,-38.04115295410156,-713,9833.0
560,0.3358854651451111,-1.2524563074111938,-150,7186.0,-29.35491371154785,-402,9833.0
570,0.3379829227924347,-26.40518569946289,-504,7186.0,0.9192765355110168,297,9833.0
580,0.3402041494846344,-47.54767990112305,-813,7186.0,42.1552848815918,903,9833.0
590,0.3425956070423126,-51.823795318603516,-860,7186.0,82.36784362792969,1531,9833.0
600,0.3404405117034912,-39.153770446777344,-599,7186.0,99.97650909423828,1703,9833.0
610,0.343063086271286,-14.83750057220459,-102,7186.0,87.78395080566406,1157,9833.0
620,0.3445225656032562,11.661840438842773,285,7186.0,52.73735427856445,823,9833.0
630,0.3458852469921112,37.44733428955078,651,7186.0,8.30671501159668,-86,9833.0
640,0.3455342948436737,71.37639617919922,1408,7186.0,-32.89655303955078,-778,9833.0
650,0.3468392491340637,99.90633392333984,1716,7186.0,-67.2210922241211,-1272,9833.0
660,0.3476856052875519,105.94976043701172,1646,7186.0,-101.96199798583984,-1703,9833.0
670,0.3479636013507843,88.49244689941406,1310,7186.0,-122.74231719970703,-1974,9833.0
680,0.3490411341190338,55.50909423828125,766,7186.0,-118.21601104736328,-1865,9833.0
690,0.34837648272514343,16.932090759277344,53,7186.0,-94.17039489746094,-1279,9833.0
700,0.34882688522338867,-23.168516159057617,-545,7186.0,-58.307315826416016,-652,9833.0
710,0.3491828441619873,-52.701969146728516,-950,7186.0,-13.727035522460938,149,9833.0
720,0.35102346539497375,-71.6504898071289,-1261,7186.0,36.7643928527832,810,9833.0
730,0.3483019173145294,-81.42578125,-1375,7186.0,80.5123062133789,1444,9833.0
740,0.3483070135116577,-85.45427703857422,-1440,7186.0,112.1619873046875,2001,9833.0
750,0.34778085350990295,-78.03588104248047,-1209,7186.0,123.13188934326172,2040,9833.0
760,0.3463294506072998,-59.840003967285156,-735,7186.0,117.85133361816406,1804,9833.0
770,0.3450483977794647,-25.8956241607666,-339,7186.0,94.82737731933594,1267,9833.0
780,0.3439437747001648,9.907010078430176,441,7186.0,49.321197509765625,466,9833.0
790,0.34317880868911743,52.37432861328125,1020,7186.0,-16.031476974487305,-720,9833.0
800,0.34285518527030945,70.51234436035156,1150,7186.0,-84.67201232910156,-1727,9833.0
810,0.3428449332714081,65.84456634521484,1091,7186.0,-138.18911743164062,-2595,9833.0
820,0.33981430530548096,55.22604751586914,785,7186.0,-184.20423889160156,-3210,9833.0
830,0.33881059288978577,43.033329010009766,673,7186.0,-215.67559814453125,-3744,9833.0
840,0.3380811810493469,35.685386657714844,471,7186.0,-228.29844665527344,-3600,9833.0
850,0.3359498381614685,8.18565559387207,-125,7186.0,-210.04393005371094,-3340,9833.0
860,0.33692440390586853,-33.00004196166992,-846,7186.0,-159.97470092773438,-2361,9833.0
870,0.3358919024467468,-61.91346740722656,-1115,7186.0,-98.47496795654297,-1229,9833.0
880,0.33659371733665466,-61.0654182434082,-893,7186.0,-19.504987716674805,232,9833.0
890,0.3384299576282501,-36.12733459472656,-469,7186.0,72.35597229003906,1589,9833.0
900,0.3406499922275543,-8.053426742553711,95,7186.0,136.63612365722656,2420,9833.0
910,0.344136118888855,16.91463851928711,384,7186.0,169.75791931152344,2776,9833.0
920,0.3459073603153229,25.28445816040039,389,7186.0,182.19512939453125,3076,9833.0
930,0.3466357886791229,18.980371475219727,169,7186.0,183.55543518066406,2968,9833.0
940,0.34876543283462524,7.045572757720947,200,7186.0,159.40550231933594,2405,9833.0
950,0.3398617208003998,12.809743881225586,217,7186.0,109.54208374023438,1589,9833.0
960,0.34008389711380005,5.110822677612305,111,7186.0,46.46482467651367,415,9833.0
970,0.34181371331214905,-0.16925285756587982,-53,7186.0,-17.370149612426758,-549,9833.0
980,0.3435572385787964,-6.228640556335449,-39,7186.0,-85.77919006347656,-1761,9833.0
990,0.3453679382801056,-12.11512279510498,-234,7186.0,-151.3677520751953,-2637,9833.0
1000,0.33882397413253784,-26.241390228271484,-577,7186.0,-183.11703491210938,-3011,9833.0
1010,0.33981138467788696,-28.02535629272461,-398,7186.0,-173.23910522460938,-2780,9833.0
1020,0.3426920771598816,-10.751514434814453,-63,7186.0,-136.1313934326172,-2005,9833.0
1030,0.3437404930591583,-1.3801383972167969,11,7186.0,-83.85926818847656,-998,9833.0
1040,0.34155765175819397,-7.699458122253418,-75,7186.0,-25.464550018310547,-109,9833.0
1050,0.34310564398765564,-13.490782737731934,-210,7186.0,32.10348892211914,765,9833.0
1060,0.34514933824539185,-15.09133529663086,-219,7186.0,90.63481903076172,1772,9833.0
1070,0.34669142961502075,-0.28839051723480225,-26,7186.0,133.0201416015625,2422,9833.0
1080,0.34548094868659973,22.408761978149414,427,7186.0,150.29949951171875,2457,9833.0
1090,0.34642016887664795,44.136112213134766,707,7186.0,149.6561279296875,2409,9833.0
1100,0.3466379642486572,52.12018585205078,897,7186.0,139.6990203857422,2200,9833.0
1110,0.3493245244026184,51.112613677978516,868,7186.0,109.06856536865234,1550,9833.0
1120,0.34967461228370667,32.000797271728516,316,7186.0,60.750457763671875,780,9833.0
1130,0.3426974415779114,-1.0729546546936035,-242,7186.0,-2.4668667316436768,-233,9833.0
1140,0.34396877884864807,-38.55744934082031,-746,7186.0,-63.808570861816406,-1395,9833.0
1150,0.3453671932220459,-57.133419036865234,-919,7186.0,-99.13015747070312,-1793,9833.0
1160,0.3463541269302368,-50.533084869384766,-721,7186.0,-110.2046127319336,-1692,9833.0
1170,0.341597318649292,-25.619182586669922,-305,7186.0,-78.70264434814453,-859,9833.0
1180,0.3426624834537506,1.5717108249664307,99,7186.0,-23.077978134155273,-27,9833.0
1190,0.34423235058784485,23.957170486450195,411,7186.0,25.062103271484375,553,9833.0
1200,0.3453085124492645,35.8037109375,512,7186.0,59.323204040527344,1112,9833.0
1210,0.342351496219635,33.29250717163086,438,7186.0,93.28158569335938,1623,9833.0
1220,0.34242597222328186,20.378341674804688,320,7186.0,101.83440399169922,1550,9833.0
1230,0.3430657386779785,5.1550445556640625,126,7186.0,92.78202819824219,1486,9833.0
1240,0.34254729747772217,-2.9073598384857178,13,7186.0,68.94815063476562,989,9833.0
1250,0.3424038589000702,-2.0143167972564697,-38,7186.0,32.22855758666992,250,9833.0
1260,0.3377883732318878,0.4591377079486847,-62,7186.0,-4.361995220184326,-302,9833.0
1270,0.33841556310653687,-11.485854148864746,-164,7186.0,-44.13298797607422,-903,9833.0
1280,0.33822816610336304,-34.373111724853516,-706,7186.0,-86.20240020751953,-1549,9833.0
1290,0.3384673595428467,-61.42153549194336,-1133,7186.0,-120.36984252929688,-2044,9833.0
1300,0.33833885192871094,-70.26058959960938,-1198,7186.0,-115.36205291748047,-1851,9833.0
1310,0.33870261907577515,-62.31844711303711,-796,7186.0,-90.23261260986328,-1279,9833.0
1320,0.33859995007514954,-30.4218692779541,-289,7186.0,-49.92722702026367,-581,9833.0
1330,0.3383394181728363,-7.976857662200928,-55,7186.0,1.9856986999511719,333,9833.0
1340,0.3384527564048767,17.94099998474121,356,7186.0,47.32381820678711,988,9833.0
1350,0.3383970856666565,42.62086868286133,846,7186.0,88.39280700683594,1436,9833.0
1360,0.33829182386398315,69.37733459472656,1240,7186.0,106.3977279663086,1760,9833.0
1370,0.3378238081932068,78.16098022460938,1161,7186.0,109.86322021484375,1808,9833.0
1380,0.33675482869148254,72.41493225097656,1094,7186.0,94.38526916503906,1378,9833.0
1390,0.335849791765213,54.6793212890625,934,7186.0,68.20087432861328,885,9833.0
1400,0.33518144488334656,28.324180603027344,289,7186.0,24.873136520385742,147,9833.0
1410,0.3341101109981537,-12.171144485473633,-439,7186.0,-37.13847732543945,-1152,9833.0
1420,0.3348419666290283,-49.26620864868164,-924,7186.0,-108.4916000366211,-2191,9833.0
1430,0.3350939452648163,-74.53323364257812,-1225,7186.0,-158.0323486328125,-2622,9833.0
1440,0.3349880874156952,-62.18115997314453,-1009,7186.0,-169.67379760742188,-2548,9833.0
1450,0.33442583680152893,-28.41301727294922,-201,7186.0,-140.19825744628906,-2067,9833.0
1460,0.33367976546287537,-2.4064550399780273,131,7186.0,-82.72569274902344,-1026,9833.0
1470,0.3353022038936615,12.188838958740234,218,7186.0,-22.4221248626709,-43,9833.0
1480,0.3362261950969696,18.0982723236084,246,7186.0,22.656448364257812,752,9833.0
1490,0.3368382453918457,20.73410415649414,236,7186.0,68.28131866455078,1481,9833.0
1500,0.33757850527763367,13.407501220703125,122,7186.0,100.55223846435547,1872,9833.0
1510,0.33788785338401794,2.1364738941192627,44,7186.0,115.06369018554688,1845,9833.0
1520,0.3359212279319763,-3.487788438796997,19,7186.0,108.43926239013672,1652,9833.0
1530,0.3359322249889374,-0.8770409822463989,4,7186.0,87.86398315429688,1356,9833.0
1540,0.3362181782722473,10.885746955871582,252,7186.0,57.59884262084961,667,9833.0
1550,0.3365025222301483,13.314963340759277,129,7186.0,11.243948936462402,47,9833.0
1560,0.33766335248947144,0.2473858892917633,-127,7186.0,-43.502906799316406,-930,9833.0
1570,0.33365049958229065,-27.873743057250977,-563,7186.0,-80.27880096435547,-1518,9833.0
1580,0.3345925509929657,-49.9567985534668,-858,7186.0,-88.7180404663086,-1452,9833.0
1590,0.3348972201347351,-44.102291107177734,-692,7186.0,-82.24394989013672,-1063,9833.0
1600,0.336600124835968,-28.009748458862305,-334,7186.0,-58.04808044433594,-808,9833.0
1610,0.33445942401885986,-1.4340847730636597,72,7186.0,-33.97956848144531,-392,9833.0
1620,0.3349282443523407,7.367215633392334,235,7186.0,16.0462703704834,323,9833.0
1630,0.33540138602256775,26.46950912475586,566,7186.0,47.74360275268555,946,9833.0
1640,0.3354793190956116,39.8444938659668,682,7186.0,76.88253784179688,1338,9833.0
1650,0.3342759907245636,47.00316619873047,764,7186.0,89.19444274902344,1609,9833.0
1660,0.33372241258621216,47.508209228515625,681,7186.0,90.90779113769531,1430,9833.0
1670,0.3333965241909027,40.630558013916016,670,7186.0,78.77857208251953,1206,9833.0
1680,0.3338058292865753,34.43440628051758,379,7186.0,57.556236267089844,927,9833.0
1690,0.33269065618515015,19.24604034423828,178,7186.0,36.262020111083984,525,9833.0
1700,0.3327786326408386,-7.595963001251221,-303,7186.0,3.0947248935699463,-254,9833.0
1710,0.33314087986946106,-37.555755615234375,-821,7186.0,-42.879974365234375,-884,9833.0
1720,0.33362430334091187,-55.95295715332031,-1002,7186.0,-84.58390045166016,-1363,9833.0
1730,0.3338710367679596,-54.87156677246094,-684,7186.0,-94.60967254638672,-1657,9833.0
1740,0.3320472538471222,-29.094406127929688,-340,7186.0,-90.41388702392578,-1405,9833.0
1750,0.3325418531894684,-5.188177585601807,-38,7186.0,-70.52357482910156,-966,9833.0
1760,0.33274513483047485,9.8360595703125,161,7186.0,-33.181636810302734,-246,9833.0
1770,0.33307987451553345,19.263338088989258,296,7186.0,12.243741989135742,475,9833.0
1780,0.33368635177612305,19.331377029418945,292,7186.0,51.812679290771484,1022,9833.0
1790,0.3336363434791565,15.951507568359375,301,7186.0,81.36650848388672,1381,9833.0
1800,0.33341655135154724,15.138378143310547,279,7186.0,93.39306640625,1516,9833.0
1810,0.3335920572280884,10.11827564239502,200,7186.0,88.81257629394531,1432,9833.0
1820,0.33312952518463135,4.352774620056152,60,7186.0,68.23995208740234,919,9833.0
1830,0.33287230134010315,0.27390140295028687,14,7186.0,30.981708526611328,289,9833.0
1840,0.33287373185157776,-0.7214964628219604,-115,7186.0,-11.63245964050293,-348,9833.0
1850,0.3332320749759674,-7.127974510192871,-73,7186.0,-58.461761474609375,-1216,9833.0
1860,0.333715558052063,-10.614117622375488,-120,7186.0,-100.8226089477539,-1830,9833.0
1870,0.3332281708717346,-11.169051170349121,-260,7186.0,-130.44964599609375,-2075,9833.0
1880,0.33304598927497864,-10.580647468566895,-228,7186.0,-129.29464721679688,-1990,9833.0
1890,0.334168940782547,-5.713601112365723,-67,7186.0,-97.08537292480469,-1527,9833.0
1900,0.33496496081352234,4.149346828460693,180,7186.0,-55.80327606201172,-686,9833.0
1910,0.33546358346939087,13.582697868347168,294,7186.0,7.171047210693359,432,9833.0
1920,0.33622026443481445,10.245213508605957,176,7186.0,62.9310188293457,1139,9833.0
1930,0.3373512327671051,1.498195767402649,109,7186.0,103.61905670166016,1818,9833.0
1940,0.33766457438468933,1.275612711906433,81,7186.0,128.7642059326172,2136,9833.0
1950,0.33728140592575073,4.651245594024658,122,7186.0,134.7074432373047,2341,9833.0
1960,0.3337401747703552,8.84782600402832,123,7186.0,117.81839752197266,1748,9833.0
1970,0.33467531204223633,6.790189743041992,97,7186.0,65.11491394042969,793,9833.0
1980,0.33442023396492004,-3.7219080924987793,-195,7186.0,20.28651237487793,292,9833.0
1990,0.3343046307563782,-14.327014923095703,-229,7186.0,-23.229923248291016,-772,9833.0
2000,0.3352356255054474,-26.310474395751953,-423,7186.0,-84.2896728515625,-1781,9833.0
2010,0.33145561814308167,-22.52124786376953,-403,7186.0,-145.9303741455078,-2562,9833.0
2020,0.3321497142314911,-14.72689437866211,-123,7186.0,-177.6927947998047,-2930,9833.0
2030,0.33226391673088074,2.719322919845581,91,7186.0,-165.74351501464844,-2613,9833.0
2040,0.33193352818489075,4.731027603149414,93,7186.0,-123.70530700683594,-1565,9833.0
2050,0.3345716893672943,7.791223049163818,92,7186.0,-51.845855712890625,-448,9833.0
2060,0.33534109592437744,13.473638534545898,217,7186.0,9.944744110107422,463,9833.0
2070,0.3366948366165161,14.255341529846191,154,7186.0,60.3488883972168,1290,9833.0
2080,0.33901697397232056,13.089385032653809,115,7186.0,100.8681411743164,1858,9833.0
2090,0.33861327171325684,8.662527084350586,41,7186.0,121.19147491455078,1996,9833.0
2100,0.33953022956848145,-0.4093451499938965,17,7186.0,124.14348602294922,1925,9833.0
2110,0.3402365744113922,-4.303004741668701,-38,7186.0,114.10608673095703,1902,9833.0
2120,0.340878963470459,-5.6583251953125,-131,7186.0,92.37625885009766,1281,9833.0
2130,0.34122711420059204,-8.797272682189941,-127,7186.0,52.66352081298828,477,9833.0
2140,0.33805009722709656,-5.73762845993042,-98,7186.0,-8.718010902404785,-387,9833.0
2150,0.3389228880405426,5.986966609954834,217,7186.0,-69.60657501220703,-1314,9833.0
2160,0.3398815989494324,19.11050033569336,374,7186.0,-87.85912322998047,-1412,9833.0
2170,0.3405124247074127,21.284198760986328,315,7186.0,-76.86595153808594,-1331,9833.0
2180,0.33625009655952454,8.420051574707031,34,7186.0,-66.32760620117188,-993,9833.0
2190,0.33653292059898376,0.3088408410549164,-27,7186.0,-34.0539665222168,-310,9833.0
2200,0.33667656779289246,1.8993492126464844,-145,7186.0,10.126912117004395,561,9833.0
2210,0.3374677002429962,-5.769809246063232,-177,7186.0,56.36507797241211,1108,9833.0
2220,0.3377872407436371,-18.486923217773438,-359,7186.0,88.64277648925781,1506,9833.0
2230,0.33465123176574707,-25.778501510620117,-381,7186.0,100.82808685302734,1623,9833.0
2240,0.3341224491596222,-18.697818756103516,-193,7186.0,96.40608978271484,1546,9833.0
2250,0.3332419991493225,-8.710555076599121,-102,7186.0,74.54801177978516,1192,9833.0
2260,0.33501285314559937,-5.856628894805908,-179,7186.0,43.148704528808594,407,9833.0
2270,0.33069509267807007,-11.810784339904785,-259,7186.0,0.5225145816802979,-120,9833.0
2280,0.3311609625816345,-12.877087593078613,-211,7186.0,-52.34264373779297,-1181,9833.0
2290,0.33169081807136536,-10.655529022216797,-142,7186.0,-106.8147201538086,-1995,9833.0
2300,0.33158811926841736,-3.5770139694213867,-56,7186.0,-129.5511932373047,-1951,9833.0
2310,0.3295750319957733,6.214195251464844,276,7186.0,-118.53795623779297,-1797,9833.0
2320,0.3294063210487366,25.610267639160156,512,7186.0,-84.93936920166016,-1304,9833.0
2330,0.3293657600879669,32.43552017211914,553,7186.0,-35.91399002075195,-402,9833.0
2340,0.33041971921920776,23.001455307006836,255,7186.0,8.23416519165039,322,9833.0
2350,0.33056771755218506,9.30057144165039,46,7186.0,49.29865264892578,1044,9833.0
2360,0.33022329211235046,-0.16849476099014282,-81,7186.0,81.91885375976562,1424,9833.0
2370,0.32997435331344604,-2.9552085399627686,-104,7186.0,104.68526458740234,1629,9833.0
2380,0.32964035868644714,-3.721492052078247,-34,7186.0,100.66397857666016,1528,9833.0
2390,0.32874932885169983,-7.3901238441467285,-160,7186.0,78.64482879638672,1331,9833.0
2400,0.32627439498901367,-8.414994239807129,-127,7186.0,53.00348663330078,643,9833.0
2410,0.32601398229599,-5.05036735534668,-51,7186.0,5.358361721038818,-173,9833.0
2420,0.32570964097976685,0.8211565613746643,-29,7186.0,-57.12556457519531,-1240,9833.0
2430,0.3267499506473541,-1.277802586555481,72,7186.0,-122.1297607421875,-2250,9833.0
2440,0.3254755437374115,-1.307511568069458,-20,7186.0,-143.9481658935547,-2324,9833.0
2450,0.3251574635505676,-2.735787868499756,-119,7186.0,-126.94965362548828,-2007,9833.0
2460,0.3254794180393219,0.27121633291244507,36,7186.0,-92.13804626464844,-1380,9833.0
2470,0.3279848098754883,7.092685222625732,154,7186.0,-51.29536819458008,-598,9833.0
2480,0.3285541832447052,0.9161875247955322,12,7186.0,7.464035987854004,316,9833.0
2490,0.32903626561164856,0.08139927685260773,-31,7186.0,57.32008361816406,1142,9833.0
2500,0.32995161414146423,-0.2609686255455017,-41,7186.0,91.6150894165039,1745,9833.0
2510,0.33030083775520325,0.08720286935567856,-68,7186.0,113.45328521728516,1958,9833.0
2520,0.33044666051864624,-0.39342933893203735,-2,7186.0,112.1969223022461,1734,9833.0
2530,0.32802116870880127,-2.053384304046631,48,7186.0,86.7522201538086,1203,9833.0
2540,0.3280908763408661,-1.1391850709915161,-68,7186.0,51.99122619628906,731,9833.0
2550,0.329824835062027,0.25557780265808105,-38,7186.0,6.913872718811035,-159,9833.0
2560,0.33036601543426514,-11.126670837402344,-162,7186.0,-45.71230697631836,-899,9833.0
2570,0.33155640959739685,-23.0098934173584,-482,7186.0,-85.3121566772461,-1511,9833.0
2580,0.32895201444625854,-26.089920043945312,-463,7186.0,-100.50517272949219,-1636,9833.0
2590,0.33035096526145935,-11.897890090942383,47,7186.0,-96.3837890625,-1521,9833.0
2600,0.33137908577919006,10.020133018493652,198,7186.0,-75.31880950927734,-1054,9833.0
2610,0.33266565203666687,7.696881294250488,97,7186.0,-38.712223052978516,-469,9833.0
2620,0.3303295075893402,6.142830848693848,55,7186.0,-2.8235864639282227,269,9833.0
2630,0.33173486590385437,10.396953582763672,238,7186.0,40.09785461425781,864,9833.0
2640,0.3328377306461334,15.78443431854248,214,7186.0,75.17522430419922,1458,9833.0
2650,0.3338886499404907,16.697479248046875,172,7186.0,104.7965316772461,1740,9833.0
2660,0.33060914278030396,15.75851821899414,234,7186.0,111.84549713134766,1836,9833.0
2670,0.3309643864631653,7.567955493927002,39,7186.0,103.34011840820312,1483,9833.0
2680,0.3307288885116577,-2.900423288345337,-75,7186.0,75.64557647705078,1024,9833.0
2690,0.3317442536354065,-10.97291088104248,-297,7186.0,39.31956100463867,404,9833.0
2700,0.3322930634021759,-24.423250198364258,-429,7186.0,-17.175106048583984,-639,9833.0
2710,0.3302993178367615,-28.49195098876953,-536,7186.0,-62.65282440185547,-1144,9833.0
2720,0.33105504512786865,-30.67831802368164,-522,7186.0,-90.55599212646484,-1427,9833.0
2730,0.331880122423172,-16.427692413330078,-104,7186.0,-73.82034301757812,-1173,9833.0
2740,0.3325914144515991,6.075647830963135,194,7186.0,-37.260963439941406,-267,9833.0
2750,0.33075442910194397,20.75821304321289,402,7186.0,14.265338897705078,646,9833.0
2760,0.3313193917274475,30.1744384765625,537,7186.0,46.617645263671875,969,9833.0
2770,0.3316253423690796,37.87648391723633,579,7186.0,58.77378845214844,910,9833.0
2780,0.3316712975502014,35.83464431762695,565,7186.0,58.39514923095703,824,9833.0
2790,0.33155834674835205,30.090499877929688,492,7186.0,45.804317474365234,604,9833.0
2800,0.3288123309612274,20.951387405395508,304,7186.0,30.627628326416016,357,9833.0
2810,0.32820889353752136,8.364295959472656,-20,7186.0,8.200606346130371,129,9833.0
2820,0.3279667794704437,-3.957582473754883,-115,7186.0,-16.430259704589844,-347,9833.0
2830,0.32800018787384033,-11.710515022277832,-146,7186.0,-38.316162109375,-879,9833.0
2840,0.3260326683521271,-24.82769775390625,-548,7186.0,-60.90635681152344,-1134,9833.0
2850,0.325724720954895,-48.20204162597656,-988,7186.0,-90.28194427490234,-1397,9833.0
2860,0.3255738914012909,-63.60646438598633,-1078,7186.0,-96.40830993652344,-1478,9833.0
2870,0.32567286491394043,-58.89768981933594,-775,7186.0,-78.22924041748047,-1350,9833.0
2880,0.32450369000434875,-32.013057708740234,-229,7186.0,-45.40180587768555,-679,9833.0
2890,0.3252650499343872,3.304478883743286,193,7186.0,-9.875791549682617,-6,9833.0
2900,0.3256593644618988,23.170141220092773,504,7186.0,20.998619079589844,603,9833.0
2910,0.3261274993419647,34.888671875,566,7186.0,59.941226959228516,1275,9833.0
2920,0.32622969150543213,38.729122161865234,558,7186.0,76.526123046875,1132,9833.0
2930,0.3270600438117981,25.72171401977539,373,7186.0,61.87746810913086,853,9833.0
2940,0.32709231972694397,11.34298324584961,159,7186.0,40.28057098388672,579,9833.0
2950,0.32710984349250793,-3.147939920425415,-119,7186.0,16.83454132080078,266,9833.0
2960,0.32734915614128113,-1.8537150621414185,154,7186.0,6.387912273406982,-76,9833.0
2970,0.3252309262752533,5.475806713104248,70,7186.0,-13.055286407470703,-291,9833.0
2980,0.3251834511756897,-0.8691930770874023,-139,7186.0,-30.658634185791016,-447,9833.0
2990,0.32531365752220154,-8.744477272033691,-174,7186.0,-51.78286361694336,-947,9833.0
3000,0.32556647062301636,-12.284106254577637,-148,7186.0,-72.15310668945312,-1390,9833.0
3010,0.32604795694351196,-6.503738880157471,-95,7186.0,-85.5400161743164,-1438,9833.0
3020,0.3246467411518097,10.874329566955566,285,7186.0,-83.25348663330078,-1179,9833.0
3030,0.3249506950378418,35.09267807006836,687,7186.0,-53.5521240234375,-615,9833.0
3040,0.3263509273529053,43.28904342651367,642,7186.0,-10.328994750976562,84,9833.0
3050,0.3268572986125946,32.480247497558594,419,7186.0,30.30618667602539,627,9833.0
3060,0.3272589445114136,1.30754816532135,-162,7186.0,63.51814270019531,1113,9833.0
3070,0.3280060291290283,-21.59955406188965,-535,7186.0,75.32516479492188,1202,9833.0
3080,0.3285820186138153,-43.870662689208984,-921,7186.0,66.99923706054688,1125,9833.0
3090,0.3289242684841156,-59.37547302246094,-976,7186.0,55.288055419921875,916,9833.0
3100,0.3260824680328369,-47.43099594116211,-650,7186.0,27.881345748901367,231,9833.0
3110,0.3261842429637909,-12.70503044128418,-20,7186.0,-3.8415632247924805,-230,9833.0
3120,0.32700785994529724,27.385236740112305,690,7186.0,-30.714859008789062,-467,9833.0
3130,0.3274838626384735,60.10816192626953,954,7186.0,-42.05610275268555,-776,9833.0
3140,0.328059583902359,55.78694152832031,813,7186.0,-57.336997985839844,-1024,9833.0
3150,0.3261954188346863,18.79946517944336,153,7186.0,-56.437503814697266,-878,9833.0
3160,0.32690152525901794,-27.29410743713379,-574,7186.0,-36.03956604003906,-411,9833.0
3170,0.32763606309890747,-54.8956413269043,-876,7186.0,8.176900863647461,216,9833.0
3180,0.32850727438926697,-53.188018798828125,-759,7186.0,48.56680679321289,852,9833.0
3190,0.32818567752838135,-23.644210815429688,-81,7186.0,84.07847595214844,1428,9833.0
3200,0.3289678394794464,10.628613471984863,204,7186.0,103.84723663330078,1762,9833.0
3210,0.3296235203742981,33.54857635498047,560,7186.0,85.47087860107422,1500,9833.0
3220,0.32989493012428284,40.39329147338867,584,7186.0,61.01124572753906,791,9833.0
3230,0.33023950457572937,26.217815399169922,361,7186.0,32.60550308227539,418,9833.0
3240,0.32973816990852356,5.1045331954956055,136,7186.0,9.256891250610352,172,9833.0
3250,0.3300708830356598,-11.280821800231934,-277,7186.0,-5.442897796630859,-221,9833.0
3260,0.3300197720527649,-19.956764221191406,-274,7186.0,-29.47247886657715,-610,9833.0
3270,0.3301940858364105,-16.44992446899414,-253,7186.0,-53.88418197631836,-1017,9833.0
3280,0.3294329345226288,-11.63207721710205,-121,7186.0,-76.61030578613281,-1369,9833.0
3290,0.32959023118019104,4.392195701599121,112,7186.0,-95.5047836303711,-1563,9833.0
3300,0.32970288395881653,22.456573486328125,321,7186.0,-103.0984878540039,-1565,9833.0
3310,0.3305792212486267,20.658536911010742,270,7186.0,-93.46559143066406,-1401,9833.0
3320,0.32918110489845276,4.146214008331299,14,7186.0,-66.89460754394531,-737,9833.0
3330,0.33122050762176514,-18.401260375976562,-355,7186.0,-9.274227142333984,270,9833.0
3340,0.3320830464363098,-33.59712219238281,-540,7186.0,52.11249923706055,1219,9833.0
3350,0.33366116881370544,-25.469467163085938,-256,7186.0,96.35660552978516,1805,9833.0
3360,0.334515780210495,-0.2575690746307373,202,7186.0,124.41000366210938,2092,9833.0
3370,0.3330787420272827,21.439918518066406,482,7186.0,131.8244171142578,2199,9833.0
3380,0.3330400288105011,37.48445129394531,606,7186.0,119.88567352294922,1826,9833.0
3390,0.33275488018989563,42.5113525390625,683,7186.0,84.0335693359375,1120,9833.0
3400,0.3322307765483856,36.010948181152344,612,7186.0,39.80844497680664,305,9833.0
3410,0.3303789496421814,27.992481231689453,321,7186.0,-6.029926300048828,-257,9833.0
3420,0.33004966378211975,20.61314582824707,295,7186.0,-46.33185577392578,-1053,9833.0
3430,0.3309789299964905,10.375411033630371,146,7186.0,-87.75743865966797,-1705,9833.0
3440,0.33105602860450745,0.4087693989276886,-84,7186.0,-123.5218276977539,-2102,9833.0
3450,0.3308636248111725,-7.5482940673828125,-228,7186.0,-139.06375122070312,-2214,9833.0
3460,0.3300066888332367,-27.821592330932617,-738,7186.0,-127.80135345458984,-1850,9833.0
3470,0.3300958573818207,-54.49077606201172,-975,7186.0,-105.05635070800781,-1507,9833.0
3480,0.32939282059669495,-65.00911712646484,-1050,7186.0,-56.562217712402344,-505,9833.0
3490,0.3297404646873474,-50.25802230834961,-636,7186.0,1.005378007888794,237,9833.0
3500,0.33193439245224,-19.043970108032227,-76,7186.0,59.65262222290039,1169,9833.0
3510,0.33311140537261963,17.997760772705078,572,7186.0,102.40901184082031,1749,9833.0
3520,0.3337472081184387,45.98125457763672,820,7186.0,118.05709075927734,1964,9833.0
3530,0.3341638147830963,54.12101745605469,1020,7186.0,107.05119323730469,1723,9833.0
3540,0.3304535746574402,45.77593231201172,676,7186.0,80.3185043334961,1189,9833.0
3550,0.32988229393959045,28.578428268432617,292,7186.0,53.807918548583984,603,9833.0
3560,0.32991623878479004,9.474677085876465,42,7186.0,6.469779014587402,-102,9833.0
3570,0.32982903718948364,-2.4461193084716797,-151,7186.0,-52.93366622924805,-1141,9833.0
3580,0.3304550051689148,-9.465003967285156,-181,7186.0,-96.1319351196289,-1749,9833.0
3590,0.3291809856891632,-10.374482154846191,-189,7186.0,-117.84355163574219,-2010,9833.0
3600,0.32952818274497986,-15.848243713378906,-254,7186.0,-121.02745819091797,-1931,9833.0
3610,0.32956355810165405,-27.720029830932617,-442,7186.0,-96.48185729980469,-1529,9833.0
3620,0.3318535387516022,-35.78810119628906,-587,7186.0,-54.14664840698242,-803,9833.0
3630,0.3309277594089508,-37.05598068237305,-560,7186.0,9.908679962158203,296,9833.0
3640,0.3323611319065094,-35.138771057128906,-592,7186.0,76.76515197753906,1417,9833.0
3650,0.33399105072021484,-28.659582138061523,-282,7186.0,120.25188446044922,2070,9833.0
3660,0.3354331851005554,-0.034670908004045486,292,7186.0,134.9255828857422,2263,9833.0
3670,0.33258455991744995,33.62709045410156,580,7186.0,120.50923919677734,1869,9833.0
3680,0.3327701985836029,54.457088470458984,917,7186.0,91.49874114990234,1334,9833.0
3690,0.33279797434806824,58.81710433959961,995,7186.0,41.47590255737305,375,9833.0
3700,0.33353906869888306,50.11056137084961,652,7186.0,-1.8453093767166138,-28,9833.0
3710,0.3339775800704956,28.960866928100586,386,7186.0,-34.564151763916016,-786,9833.0
3720,0.3301703631877899,4.535656452178955,-5,7186.0,-69.95519256591797,-1433,9833.0
3730,0.33090725541114807,-19.324207305908203,-389,7186.0,-100.13182067871094,-1769,9833.0
3740,0.3308553397655487,-33.46390914916992,-558,7186.0,-123.63030242919922,-2048,9833.0
3750,0.33067575097084045,-38.10734939575195,-657,7186.0,-128.2239990234375,-1971,9833.0
3760,0.32643643021583557,-45.78615951538086,-834,7186.0,-117.66619873046875,-1855,9833.0
3770,0.3264283537864685,-52.58570861816406,-941,7186.0,-97.28417205810547,-1507,9833.0
3780,0.3257142901420593,-48.780025482177734,-796,7186.0,-63.034706115722656,-848,9833.0
3790,0.32870355248451233,-28.6168270111084,-417,7186.0,-18.87892723083496,-138,9833.0
3800,0.32844245433807373,2.5910866260528564,149,7186.0,32.384193420410156,777,9833.0
3810,0.33119821548461914,26.715072631835938,471,7186.0,101.47457885742188,1933,9833.0
3820,0.333387166261673,42.93604278564453,738,7186.0,161.99697875976562,2940,9833.0
3830,0.33416879177093506,46.54682922363281,744,7186.0,194.41285705566406,3444,9833.0
3840,0.3349320590496063,26.325279235839844,239,7186.0,198.48025512695312,3170,9833.0
3850,0.33311158418655396,-2.351663827896118,-227,7186.0,178.09278869628906,2519,9833.0
3860,0.3318710923194885,-19.82784080505371,-237,7186.0,110.98739624023438,1556,9833.0
3870,0.33653801679611206,-11.19913101196289,-203,7186.0,34.98950958251953,228,9833.0
3880,0.33735671639442444,-4.837769985198975,-29,7186.0,-25.878536224365234,-620,9833.0
3890,0.334598183631897,-1.009809136390686,-60,7186.0,-81.1455078125,-1601,9833.0
3900,0.3367899954319,-4.49442720413208,-93,7186.0,-136.64894104003906,-2527,9833.0
3910,0.33721479773521423,-3.998746871948242,-76,7186.0,-179.8035125732422,-2982,9833.0
3920,0.3390505909919739,-3.1947288513183594,-107,7186.0,-180.94100952148438,-2918,9833.0
3930,0.3401837944984436,-6.023437023162842,-159,7186.0,-150.2257843017578,-2257,9833.0
3940,0.337482750415802,-3.2847959995269775,-73,7186.0,-107.56314086914062,-1487,9833.0
3950,0.33994346857070923,2.300604820251465,166,7186.0,-48.84646987915039,-464,9833.0
3960,0.34188756346702576,14.135687828063965,360,7186.0,10.612737655639648,603,9833.0
3970,0.3432691991329193,27.54553985595703,488,7186.0,68.67420196533203,1440,9833.0
3980,0.34332743287086487,29.7955322265625,509,7186.0,110.63453674316406,1800,9833.0
3990,0.3442012667655945,26.52120018005371,391,7186.0,124.17931365966797,1860,9833.0
4000,0.3446103036403656,21.685449600219727,320,7186.0,113.27500915527344,1725,9833.0
4010,0.3446039855480194,0.13424687087535858,50,7186.0,87.38787078857422,1072,9833.0
4020,0.34522151947021484,-11.690463066101074,-291,7186.0,48.50849151611328,646,9833.0
4030,0.3431955873966217,-18.470111846923828,-345,7186.0,7.243508815765381,-151,9833.0
4040,0.3434990644454956,-20.05147361755371,-292,7186.0,-39.915740966796875,-940,9833.0
4050,0.34497055411338806,-24.93585968017578,-369,7186.0,-83.0571517944336,-1695,9833.0
4060,0.3462041914463043,-36.64365768432617,-680,7186.0,-108.22307586669922,-1800,9833.0
4070,0.34295761585235596,-30.75637435913086,-424,7186.0,-101.77892303466797,-1355,9833.0
4080,0.3438444435596466,-8.058568954467773,-63,7186.0,-72.66157531738281,-928,9833.0
4090,0.34497499465942383,21.496627807617188,442,7186.0,-39.59029006958008,-300,9833.0
4100,0.3459489643573761,39.650856018066406,674,7186.0,1.5432777404785156,323,9833.0
4110,0.3453264534473419,39.93589782714844,615,7186.0,44.92416000366211,912,9833.0
4120,0.34605345129966736,36.206668853759766,479,7186.0,77.59561920166016,1401,9833.0
4130,0.3461501896381378,21.985353469848633,219,7186.0,94.17484283447266,1810,9833.0
4140,0.3464828431606293,6.02881383895874,-39,7186.0,96.41473388671875,1576,9833.0
4150,0.3460773229598999,-10.461833953857422,-348,7186.0,76.8989486694336,1247,9833.0
4160,0.34282955527305603,-10.402334213256836,-41,7186.0,33.0421028137207,225,9833.0
4170,0.34265437722206116,-6.383902549743652,-167,7186.0,-11.334773063659668,-287,9833.0
4180,0.34191855788230896,-24.17574691772461,-516,7186.0,-43.242088317871094,-947,9833.0
4190,0.3413855731487274,-45.972015380859375,-923,7186.0,-86.67840576171875,-1380,9833.0
4200,0.3368913531303406,-63.96281814575195,-1004,7186.0,-119.44683837890625,-2114,9833.0
4210,0.33562859892845154,-52.741943359375,-699,7186.0,-133.4915008544922,-2329,9833.0
4220,0.33413344621658325,-22.06297492980957,-96,7186.0,-131.40789794921875,-2124,9833.0
4230,0.33230504393577576,9.36293888092041,350,7186.0,-103.91781616210938,-1627,9833.0
4240,0.33412930369377136,39.85297775268555,672,7186.0,-60.133731842041016,-682,9833.0
4250,0.33304840326309204,53.1005859375,830,7186.0,7.543911933898926,488,9833.0
4260,0.33301401138305664,47.95188522338867,762,7186.0,79.17677307128906,1648,9833.0
4270,0.33338287472724915,43.499961853027344,645,7186.0,130.088623046875,2338,9833.0
4280,0.33192330598831177,22.04072380065918,234,7186.0,153.024658203125,2712,9833.0
4290,0.32982927560806274,4.344307899475098,-33,7186.0,158.17706298828125,2564,9833.0
4300,0.3295038342475891,1.8499685525894165,-107,7186.0,130.54884338378906,1829,9833.0
4310,0.32855960726737976,-17.138639450073242,-367,7186.0,82.25003814697266,1143,9833.0
4320,0.3308259844779968,-27.20003890991211,-455,7186.0,31.41947364807129,318,9833.0
4330,0.32265132665634155,-30.321611404418945,-486,7186.0,-14.718355178833008,-552,9833.0
4340,0.3232928216457367,-27.307777404785156,-386,7186.0,-79.4663314819336,-1493,9833.0
4350,0.32460084557533264,-24.381818771362305,-436,7186.0,-133.9015350341797,-2461,9833.0
4360,0.3256530165672302,-16.858564376831055,-185,7186.0,-144.231201171875,-2246,9833.0
4370,0.32634657621383667,-4.5113701820373535,67,7186.0,-127.00926971435547,-1849,9833.0
4380,0.3243197202682495,14.10588264465332,211,7186.0,-88.0293197631836,-1150,9833.0
4390,0.32534703612327576,18.790597915649414,246,7186.0,-29.234567642211914,-250,9833.0
4400,0.3284795880317688,16.937931060791016,262,7186.0,27.90657615661621,574,9833.0
4410,0.3308279812335968,18.420894622802734,267,7186.0,77.37464141845703,1435,9833.0
4420,0.33186012506484985,21.96932029724121,359,7186.0,115.46853637695312,1898,9833.0
4430,0.33393198251724243,19.46173858642578,370,7186.0,129.9529571533203,2218,9833.0
4440,0.33510905504226685,15.810629844665527,331,7186.0,132.3790740966797,2011,9833.0
4450,0.33697402477264404,5.267431735992432,19,7186.0,122.80221557617188,1909,9833.0
4460,0.3321889340877533,-5.502360820770264,-131,7186.0,103.29293823242188,1713,9833.0
4470,0.33198779821395874,-15.438697814941406,-328,7186.0,63.96144485473633,772,9833.0
4480,0.33216503262519836,-21.3994197845459,-296,7186.0,14.12615966796875,-31,9833.0
4490,0.33394211530685425,-17.0748233795166,-268,7186.0,-37.871238708496094,-820,9833.0
4500,0.33481210470199585,-13.929032325744629,-234,7186.0,-83.47299194335938,-1578,9833.0
4510,0.33217447996139526,-9.741949081420898,-107,7186.0,-110.28694915771484,-1992,9833.0
4520,0.3320464789867401,2.6997809410095215,116,7186.0,-114.9578628540039,-1857,9833.0
4530,0.3325023949146271,6.71572208404541,200,7186.0,-99.22374725341797,-1493,9833.0
4540,0.3317675292491913,11.309179306030273,262,7186.0,-62.472686767578125,-784,9833.0
4550,0.3286925256252289,23.86652374267578,395,7186.0,-15.483168601989746,-27,9833.0
4560,0.3286093473434448,38.360870361328125,628,7186.0,32.08563232421875,685,9833.0
4570,0.32757872343063354,38.08229064941406,541,7186.0,68.41158294677734,1270,9833.0
4580,0.32621675729751587,17.58883285522461,47,7186.0,82.6900863647461,1481,9833.0
4590,0.3240694999694824,-19.271240234375,-574,7186.0,84.78219604492188,1486,9833.0
4600,0.32019439339637756,-54.04181671142578,-942,7186.0,70.09577941894531,1028,9833.0
4610,0.31839945912361145,-56.44176483154297,-808,7186.0,40.12575149536133,382,9833.0
4620,0.3164978623390198,-43.136898040771484,-749,7186.0,7.344498157501221,-64,9833.0
4630,0.31457996368408203,-26.08733558654785,-239,7186.0,-27.918813705444336,-621,9833.0
4640,0.3116200566291809,-4.933276176452637,17,7186.0,-61.89716720581055,-1203,9833.0
4650,0.30991098284721375,10.189105033874512,218,7186.0,-88.70650482177734,-1666,9833.0
4660,0.3085968792438507,16.579055786132812,315,7186.0,-94.41045379638672,-1482,9833.0
4670,0.3073244094848633,17.93354034423828,199,7186.0,-78.23426818847656,-951,9833.0
4680,0.3064241409301758,15.712841987609863,264,7186.0,-38.50252914428711,-286,9833.0
4690,0.30500897765159607,22.262069702148438,424,7186.0,17.665023803710938,604,9833.0
4700,0.3047892153263092,22.293066024780273,401,7186.0,82.79742431640625,1621,9833.0
4710,0.3045773208141327,18.388208389282227,288,7186.0,122.28707122802734,2237,9833.0
4720,0.3036249577999115,12.416650772094727,142,7186.0,130.13372802734375,2089,9833.0
4730,0.30250605940818787,0.07156925648450851,-144,7186.0,114.98356628417969,1484,9833.0
4740,0.301347941160202,-18.76678466796875,-314,7186.0,70.07332611083984,807,9833.0
4750,0.30044642090797424,-20.759855270385742,-406,7186.0,17.1694393157959,115,9833.0
4760,0.29941093921661377,-16.597007751464844,-134,7186.0,-20.40695571899414,-650,9833.0
4770,0.297929584980011,-13.772663116455078,-263,7186.0,-55.20136260986328,-1058,9833.0
4780,0.29741063714027405,-12.791230201721191,-196,7186.0,-88.42735290527344,-1565,9833.0
4790,0.2969130873680115,-14.3986177444458,-337,7186.0,-113.3131332397461,-2009,9833.0
4800,0.2961609959602356,-24.858478546142578,-501,7186.0,-123.92427825927734,-1961,9833.0
4810,0.2951837480068207,-35.6081657409668,-532,7186.0,-117.37185668945312,-1840,9833.0
4820,0.29575541615486145,-32.729698181152344,-429,7186.0,-96.67585754394531,-1515,9833.0
4830,0.2948174476623535,-13.422277450561523,-38,7186.0,-56.99916076660156,-780,9833.0
4840,0.29445621371269226,6.397378921508789,247,7186.0,-6.758220672607422,113,9833.0
4850,0.2950064241886139,26.811098098754883,496,7186.0,45.50218200683594,956,9833.0
4860,0.29305994510650635,27.894350051879883,409,7186.0,90.29949951171875,1591,9833.0
4870,0.2939712405204773,23.816293716430664,368,7186.0,114.76217651367188,1919,9833.0
4880,0.29393336176872253,18.374971389770508,240,7186.0,113.56330871582031,1947,9833.0
4890,0.29359063506126404,13.072169303894043,196,7186.0,89.77923583984375,1326,9833.0
4900,0.2915438711643219,9.121824264526367,130,7186.0,51.4116325378418,554,9833.0
4910,0.29082170128822327,13.633984565734863,347,7186.0,24.868013381958008,355,9833.0
4920,0.2901289761066437,24.04306411743164,435,7186.0,-5.151925563812256,-213,9833.0
4930,0.28945353627204895,20.383813858032227,240,7186.0,-35.588138580322266,-752,9833.0
4940,0.28913819789886475,10.959638595581055,168,7186.0,-52.8785400390625,-1015,9833.0
4950,0.28721919655799866,8.528549194335938,96,7186.0,-68.8720932006836,-1235,9833.0
4960,0.2864079177379608,-9.257301330566406,-327,7186.0,-63.34526824951172,-978,9833.0
4970,0.28529950976371765,-31.072505950927734,-651,7186.0,-41.65641784667969,-573,9833.0
4980,0.2852446734905243,-52.83012008666992,-818,7186.0,-2.8259973526000977,42,9833.0
4990,0.28346875309944153,-51.56103515625,-823,7186.0,40.339054107666016,834,9833.0
5000,0.2828185260295868,-36.66511535644531,-510,7186.0,93.4455795288086,1700,9833.0
5010,0.2834137976169586,-7.064795970916748,-59,7186.0,113.83100128173828,1988,9833.0
5020,0.2821883261203766,15.881067276000977,397,7186.0,106.01854705810547,1587,9833.0
5030,0.28209981322288513,38.05923843383789,712,7186.0,80.08609771728516,1137,9833.0
5040,0.28003832697868347,40.25468826293945,579,7186.0,53.64741516113281,792,9833.0
5050,0.27892619371414185,41.90653991699219,831,7186.0,28.33558464050293,349,9833.0
5060,0.278401643037796,50.5386962890625,872,7186.0,14.394180297851562,233,9833.0
5070,0.2773462235927582,53.386314392089844,759,7186.0,10.630741119384766,160,9833.0
5080,0.2759227752685547,44.0704345703125,675,7186.0,1.1612168550491333,-150,9833.0
5090,0.27507227659225464,22.895627975463867,302,7186.0,-16.10595703125,-263,9833.0
5100,0.2744824290275574,-3.6204092502593994,-181,7186.0,-31.757335662841797,-421,9833.0
5110,0.2739272713661194,-27.891942977905273,-629,7186.0,-44.97737503051758,-738,9833.0
5120,0.27366626262664795,-46.43303298950195,-782,7186.0,-59.163658142089844,-1006,9833.0
5130,0.2732125222682953,-66.12067413330078,-1134,7186.0,-61.62622833251953,-1047,9833.0
5140,0.27242615818977356,-92.79502868652344,-1471,7186.0,-44.24942398071289,-596,9833.0
5150,0.27410760521888733,-86.08488464355469,-1459,7186.0,1.8497803211212158,306,9833.0
5160,0.27464979887008667,-66.07504272460938,-953,7186.0,51.227691650390625,1034,9833.0
5170,0.273744136095047,-42.423316955566406,-520,7186.0,93.43882751464844,1518,9833.0
5180,0.2736199200153351,1.8708672523498535,200,7186.0,102.26882934570312,1718,9833.0
5190,0.27518031001091003,40.60651779174805,940,7186.0,87.30224609375,1342,9833.0
5200,0.2755938470363617,64.47467041015625,1043,7186.0,70.51022338867188,1057,9833.0
5210,0.27369213104248047,68.68585205078125,1109,7186.0,47.21965026855469,729,9833.0
5220,0.27310192584991455,59.23177719116211,858,7186.0,20.220369338989258,186,9833.0
5230,0.27401235699653625,46.26910400390625,695,7186.0,-8.54804801940918,-263,9833.0
5240,0.2731214165687561,30.865493774414062,429,7186.0,-41.01871871948242,-848,9833.0
5250,0.2728879153728485,20.298032760620117,295,7186.0,-69.14922332763672,-1270,9833.0
5260,0.2696548402309418,6.598596096038818,33,7186.0,-91.81104278564453,-1608,9833.0
5270,0.2689833641052246,-2.332747220993042,-91,7186.0,-110.30268859863281,-1908,9833.0
5280,0.26780450344085693,-8.968273162841797,-126,7186.0,-122.44049835205078,-2054,9833.0
5290,0.26609253883361816,-13.06138801574707,-211,7186.0,-121.2925033569336,-1799,9833.0
5300,0.2642873227596283,-17.34988784790039,-286,7186.0,-82.26580810546875,-862,9833.0
5310,0.26539990305900574,-14.250432014465332,-257,7186.0,-4.291218280792236,318,9833.0
5320,0.26502934098243713,-9.65238094329834,-24,7186.0,57.404693603515625,1235,9833.0
5330,0.2652997076511383,5.307370662689209,232,7186.0,102.78497314453125,1846,9833.0
5340,0.2628575265407562,21.349464416503906,362,7186.0,124.59591674804688,2191,9833.0
5350,0.2620928883552551,25.308826446533203,393,7186.0,126.04126739501953,1850,9833.0
5360,0.2607870101928711,22.88338851928711,427,7186.0,114.54413604736328,1768,9833.0
5370,0.2589975893497467,21.44754409790039,261,7186.0,84.60122680664062,1054,9833.0
5380,0.25691309571266174,19.73785972595215,314,7186.0,39.32910919189453,488,9833.0
5390,0.2556961178779602,17.643339157104492,233,7186.0,-10.845916748046875,-540,9833.0
5400,0.253840833902359,6.4719367027282715,85,7186.0,-59.90885925292969,-1226,9833.0
5410,0.252708375453949,-0.9961928725242615,-73,7186.0,-107.40306091308594,-2041,9833.0
5420,0.25110992789268494,-4.114442825317383,-54,7186.0,-128.5460662841797,-2186,9833.0
5430,0.24806922674179077,-11.591534614562988,-271,7186.0,-132.08079528808594,-2123,9833.0
5440,0.24628946185112,-16.584627151489258,-304,7186.0,-128.91799926757812,-2080,9833.0
5450,0.2442864626646042,-23.022409439086914,-438,7186.0,-111.01492309570312,-1792,9833.0
5460,0.24229294061660767,-37.92765426635742,-570,7186.0,-89.19615936279297,-1386,9833.0
5470,0.24082764983177185,-41.70354461669922,-627,7186.0,-36.89451599121094,-263,9833.0
5480,0.24269188940525055,-34.84891891479492,-534,7186.0,22.021211624145508,655,9833.0
5490,0.24336470663547516,-14.962010383605957,-241,7186.0,78.87362670898438,1369,9833.0
5500,0.24409030377864838,-1.1134124994277954,18,7186.0,103.36244201660156,1713,9833.0
5510,0.244419664144516,-0.28228145837783813,-11,7186.0,118.50484466552734,2036,9833.0
5520,0.24180418252944946,-1.5500788688659668,-79,7186.0,118.40472412109375,1861,9833.0
5530,0.24180753529071808,5.62078332901001,230,7186.0,106.29960632324219,1720,9833.0
5540,0.24174273014068604,12.4793701171875,199,7186.0,87.96564483642578,1106,9833.0
5550,0.24212849140167236,18.2592830657959,310,7186.0,48.29751968383789,482,9833.0
5560,0.24145682156085968,18.8677978515625,281,7186.0,5.054450511932373,-153,9833.0
5570,0.24179449677467346,16.984638214111328,316,7186.0,-42.32136535644531,-812,9833.0
5580,0.24262931942939758,17.95684242248535,155,7186.0,-75.70840454101562,-1437,9833.0
5590,0.24370591342449188,14.610237121582031,287,7186.0,-104.20635223388672,-1827,9833.0
5600,0.24419060349464417,11.785540580749512,243,7186.0,-120.73283386230469,-1921,9833.0
5610,0.24229636788368225,9.372700691223145,74,7186.0,-111.38373565673828,-1613,9833.0
5620,0.24186398088932037,0.19241905212402344,-101,7186.0,-82.73340606689453,-1196,9833.0
5630,0.24268127977848053,-21.874216079711914,-486,7186.0,-22.942583084106445,-157,9833.0
5640,0.245432049036026,-35.59880828857422,-711,7186.0,23.42849349975586,540,9833.0
5650,0.24151958525180817,-42.187042236328125,-763,7186.0,57.542999267578125,1081,9833.0
5660,0.24209405481815338,-40.340240478515625,-562,7186.0,88.4237060546875,1603,9833.0
5670,0.24288195371627808,-22.489206314086914,-164,7186.0,113.73101806640625,1975,9833.0
5680,0.24317149817943573,9.286797523498535,282,7186.0,127.36969757080078,2132,9833.0
5690,0.24181140959262848,31.90294075012207,533,7186.0,108.24756622314453,1561,9833.0
5700,0.24158701300621033,38.5775260925293,620,7186.0,58.77375411987305,837,9833.0
5710,0.24143023788928986,37.70110321044922,598,7186.0,2.3764541149139404,-253,9833.0
5720,0.24167579412460327,29.956851959228516,477,7186.0,-43.736385345458984,-816,9833.0
5730,0.240947425365448,16.735214233398438,126,7186.0,-67.78618621826172,-1227,9833.0
5740,0.23745699226856232,2.315706491470337,-38,7186.0,-79.82274627685547,-1427,9833.0
5750,0.23627065122127533,-9.29049015045166,-154,7186.0,-82.58287811279297,-1255,9833.0
5760,0.23623061180114746,-17.914094924926758,-398,7186.0,-70.60528564453125,-998,9833.0
5770,0.2347681224346161,-33.81328201293945,-669,7186.0,-39.225624084472656,-388,9833.0
5780,0.23144833743572235,-56.21903610229492,-963,7186.0,9.034042358398438,202,9833.0
5790,0.23167696595191956,-67.2931137084961,-1057,7186.0,42.75984573364258,779,9833.0
5800,0.2320006787776947,-66.94422149658203,-1048,7186.0,67.31688690185547,1308,9833.0
5810,0.23103687167167664,-54.44986343383789,-759,7186.0,77.95722198486328,1236,9833.0
5820,0.23039348423480988,-27.314870834350586,-322,7186.0,72.39118957519531,1141,9833.0
5830,0.22956719994544983,13.245543479919434,360,7186.0,57.67353057861328,880,9833.0
5840,0.22979339957237244,45.505531311035156,855,7186.0,36.08871841430664,493,9833.0
5850,0.23031501471996307,71.60655212402344,1241,7186.0,22.153017044067383,402,9833.0
5860,0.22992804646492004,81.55780029296875,1411,7186.0,4.455006122589111,-71,9833.0
5870,0.23040999472141266,76.9028549194336,1179,7186.0,-13.4544038772583,-248,9833.0
5880,0.2300320416688919,58.04588317871094,892,7186.0,-31.664058685302734,-678,9833.0
5890,0.23094357550144196,35.1755485534668,540,7186.0,-45.28030776977539,-769,9833.0
5900,0.2308879792690277,16.069007873535156,144,7186.0,-49.953834533691406,-738,9833.0
5910,0.2326023429632187,0.28061527013778687,-110,7186.0,-41.71062088012695,-546,9833.0
5920,0.23284825682640076,-10.974031448364258,-155,7186.0,-23.834686279296875,-260,9833.0
5930,0.23313893377780914,-11.179540634155273,-141,7186.0,3.563246488571167,221,9833.0
5940,0.23348072171211243,-7.847089767456055,-91,7186.0,24.086912155151367,450,9833.0
5950,0.23391641676425934,2.517263889312744,25,7186.0,32.4463005065918,616,9833.0
5960,0.23339374363422394,10.17486572265625,139,7186.0,34.720664978027344,558,9833.0
5970,0.23292015492916107,14.333271980285645,290,7186.0,29.659847259521484,397,9833.0
5980,0.23278269171714783,9.708951950073242,135,7186.0,23.828603744506836,310,9833.0
5990,0.2321813702583313,1.1845145225524902,-4,7186.0,17.939626693725586,406,9833.0
6000,0.23426003754138947,1.2267003059387207,-80,7186.0,17.610639572143555,379,9833.0
6010,0.233963280916214,-10.594788551330566,-177,7186.0,9.540828704833984,41,9833.0
6020,0.2331305593252182,-21.582839965820312,-328,7186.0,-1.5921498537063599,-170,9833.0
6030,0.23235324025154114,-28.375682830810547,-447,7186.0,-15.68882942199707,-359,9833.0
6040,0.23524798452854156,-30.72317123413086,-580,7186.0,-29.971240997314453,-508,9833.0
6050,0.23398691415786743,-28.39296531677246,-495,7186.0,-43.15046691894531,-673,9833.0
6060,0.2332887351512909,-23.056377410888672,-316,7186.0,-41.005035400390625,-611,9833.0
6070,0.231992706656456,-12.347371101379395,-119,7186.0,-22.178682327270508,-288,9833.0
6080,0.23114566504955292,3.7918541431427,106,7186.0,-1.4639735221862793,124,9833.0
6090,0.23331110179424286,9.893903732299805,197,7186.0,26.608449935913086,629,9833.0
6100,0.23267744481563568,14.23901081085205,134,7186.0,42.07250213623047,851,9833.0
6110,0.23237772285938263,10.553743362426758,266,7186.0,51.852535247802734,788,9833.0
6120,0.23176641762256622,8.1342134475708,92,7186.0,49.69147491455078,828,9833.0
6130,0.2308746874332428,3.665532350540161,51,7186.0,39.792694091796875,724,9833.0
6140,0.23014992475509644,4.355557918548584,110,7186.0,27.30502700805664,329,9833.0
6150,0.2293073832988739,6.123332500457764,148,7186.0,9.758058547973633,121,9833.0
6160,0.22820886969566345,9.750859260559082,136,7186.0,-7.763315200805664,-161,9833.0
6170,0.22566263377666473,6.952205181121826,62,7186.0,-21.847082138061523,-560,9833.0
6180,0.22421228885650635,2.2201175689697266,40,7186.0,-33.69205856323242,-689,9833.0
6190,0.2227420061826706,-4.445933818817139,-57,7186.0,-44.581546783447266,-720,9833.0
6200,0.22092361748218536,-10.349987983703613,-218,7186.0,-46.0142936706543,-695,9833.0
6210,0.2189234346151352,-14.466597557067871,-271,7186.0,-36.503963470458984,-497,9833.0
6220,0.2185661941766739,-12.335644721984863,-130,7186.0,-11.420212745666504,-160,9833.0
6230,0.21765369176864624,-4.438973903656006,60,7186.0,11.831220626831055,232,9833.0
6240,0.21711726486682892,5.510119438171387,114,7186.0,36.263092041015625,767,9833.0
6250,0.21638359129428864,11.984935760498047,130,7186.0,55.317867279052734,1043,9833.0
6260,0.21471832692623138,7.85518741607666,125,7186.0,65.04615020751953,933,9833.0
6270,0.21439357101917267,-0.22103744745254517,-113,7186.0,61.809268951416016,1076,9833.0
6280,0.2138366550207138,-6.6660871505737305,-189,7186.0,55.12321472167969,801,9833.0
6290,0.21285656094551086,-16.47247886657715,-250,7186.0,37.70109939575195,547,9833.0
6300,0.21527880430221558,-18.743789672851562,-292,7186.0,5.9179229736328125,-45,9833.0
6310,0.21397162973880768,-9.804556846618652,-38,7186.0,-26.640016555786133,-538,9833.0
6320,0.21388313174247742,-6.505786418914795,-117,7186.0,-52.723228454589844,-957,9833.0
6330,0.21377156674861908,-5.069383144378662,-31,7186.0,-68.00138092041016,-1258,9833.0
6340,0.2135208696126938,-5.278412342071533,-93,7186.0,-75.71070098876953,-1192,9833.0
6350,0.2101220190525055,-4.066973686218262,-99,7186.0,-72.18768310546875,-1251,9833.0
6360,0.20987120270729065,-3.2516262531280518,15,7186.0,-56.920406341552734,-852,9833.0
6370,0.20985540747642517,1.8413606882095337,49,7186.0,-32.72641372680664,-361,9833.0
6380,0.2109498530626297,5.9532341957092285,28,7186.0,-9.017542839050293,31,9833.0
6390,0.20787271857261658,8.316717147827148,155,7186.0,16.2686767578125,318,9833.0
6400,0.20850789546966553,13.172374725341797,311,7186.0,37.934635162353516,678,9833.0
6410,0.20898637175559998,17.181190490722656,265,7186.0,51.392181396484375,906,9833.0
6420,0.2095724642276764,13.41063404083252,152,7186.0,55.49860763549805,839,9833.0
6430,0.20942234992980957,6.09893798828125,167,7186.0,52.810062408447266,753,9833.0
6440,0.20677104592323303,-0.5037974715232849,-128,7186.0,37.310977935791016,515,9833.0
6450,0.20651137828826904,-8.520004272460938,-181,7186.0,15.247554779052734,16,9833.0
6460,0.20733051002025604,-11.184464454650879,-180,7186.0,-11.666719436645508,-193,9833.0
6470,0.2072441428899765,-14.176392555236816,-277,7186.0,-27.59796905517578,-580,9833.0
6480,0.20566242933273315,-14.286101341247559,-150,7186.0,-43.414730072021484,-829,9833.0
6490,0.20504461228847504,-9.827272415161133,-174,7186.0,-50.59877395629883,-707,9833.0
6500,0.20471864938735962,-4.645978927612305,-152,7186.0,-51.00733184814453,-774,9833.0
6510,0.20395050942897797,-1.137473225593567,106,7186.0,-44.810447692871094,-753,9833.0
6520,0.20335429906845093,2.5849621295928955,95,7186.0,-28.720476150512695,-336,9833.0
6530,0.20393911004066467,8.075653076171875,102,7186.0,-7.0555830001831055,12,9833.0
6540,0.20404641330242157,2.775891065597534,-65,7186.0,18.38092803955078,303,9833.0
6550,0.20421966910362244,-14.461287498474121,-272,7186.0,40.47446823120117,721,9833.0
6560,0.20438434183597565,-27.67655372619629,-532,7186.0,54.62169647216797,1112,9833.0
6570,0.20289303362369537,-27.50580406188965,-424,7186.0,66.1850357055664,981,9833.0
6580,0.2034340500831604,-7.522445201873779,81,7186.0,61.06680679321289,900,9833.0
6590,0.2031744122505188,19.303255081176758,330,7186.0,42.34461212158203,406,9833.0
6600,0.20251186192035675,35.17462158203125,652,7186.0,18.554203033447266,245,9833.0
6610,0.20225019752979279,40.74889373779297,663,7186.0,-5.754990577697754,-312,9833.0
6620,0.20286718010902405,37.45547103881836,634,7186.0,-28.644638061523438,-625,9833.0
6630,0.20275698602199554,24.801111221313477,301,7186.0,-47.4399528503418,-801,9833.0
6640,0.201932892203331,10.532255172729492,89,7186.0,-55.30088806152344,-955,9833.0
6650,0.20116999745368958,-2.4312691688537598,-23,7186.0,-49.955684661865234,-832,9833.0
6660,0.20165643095970154,-11.926433563232422,-267,7186.0,-40.84208297729492,-436,9833.0
6670,0.20196060836315155,-16.28670883178711,-316,7186.0,-19.825151443481445,-62,9833.0
6680,0.20218467712402344,-14.088345527648926,-247,7186.0,7.141345977783203,184,9833.0
6690,0.20189054310321808,-12.701958656311035,-107,7186.0,28.899930953979492,531,9833.0
6700,0.2028016299009323,-6.996739864349365,-102,7186.0,48.16051483154297,941,9833.0
6710,0.20279349386692047,2.472808599472046,38,7186.0,58.37294387817383,995,9833.0
6720,0.2029365748167038,5.434895992279053,123,7186.0,61.3219108581543,998,9833.0
6730,0.20443038642406464,1.3257211446762085,-75,7186.0,47.81193923950195,791,9833.0
6740,0.20442496240139008,-4.533287048339844,-49,7186.0,29.981037139892578,274,9833.0
6750,0.20514795184135437,-5.15271520614624,-31,7186.0,5.5393571853637695,14,9833.0
6760,0.2048366814851761,-0.5621282458305359,-33,7186.0,-12.8212890625,-204,9833.0
6770,0.2044532746076584,0.4960569441318512,85,7186.0,-28.012073516845703,-620,9833.0
6780,0.2040913850069046,2.6023926734924316,-6,7186.0,-36.639102935791016,-595,9833.0
6790,0.20596259832382202,0.9574172496795654,13,7186.0,-37.08760452270508,-535,9833.0
6800,0.2055908888578415,-1.7565075159072876,-30,7186.0,-31.83479881286621,-565,9833.0
6810,0.20563435554504395,-2.3081750869750977,-66,7186.0,-23.457914352416992,-327,9833.0
6820,0.20544064044952393,-6.211740970611572,-146,7186.0,-3.4591126441955566,96,9833.0
6830,0.20496563613414764,-11.766606330871582,-269,7186.0,18.833633422851562,367,9833.0
6840,0.20508642494678497,-15.684883117675781,-201,7186.0,33.77677917480469,548,9833.0
6850,0.20594947040081024,-4.885377407073975,50,7186.0,46.81832504272461,899,9833.0
6860,0.20631517469882965,9.043137550354004,109,7186.0,56.455284118652344,986,9833.0
6870,0.20675206184387207,12.392934799194336,304,7186.0,54.601043701171875,841,9833.0
6880,0.20705483853816986,16.396451950073242,251,7186.0,45.634334564208984,692,9833.0
6890,0.2071651965379715,15.717373847961426,337,7186.0,32.485416412353516,426,9833.0
6900,0.2072531133890152,16.43270492553711,258,7186.0,10.742422103881836,119,9833.0
6910,0.2074919492006302,12.017253875732422,165,7186.0,-13.8924560546875,-454,9833.0
6920,0.20998257398605347,1.3740630149841309,-50,7186.0,-29.85462188720703,-503,9833.0
6930,0.21019326150417328,-8.722977638244629,-213,7186.0,-39.70111846923828,-588,9833.0
6940,0.20990058779716492,-13.517592430114746,-190,7186.0,-42.79830551147461,-784,9833.0
6950,0.20971554517745972,-12.379450798034668,-132,7186.0,-39.6504020690918,-620,9833.0
6960,0.20934469997882843,-11.91740894317627,-189,7186.0,-32.80902862548828,-467,9833.0
6970,0.20951753854751587,-11.507940292358398,-215,7186.0,-23.061738967895508,-404,9833.0
6980,0.20942029356956482,-11.85079574584961,-165,7186.0,-13.68692398071289,-220,9833.0
6990,0.20989330112934113,-15.005409240722656,-269,7186.0,4.6136674880981445,218,9833.0
7000,0.2100304514169693,-21.729816436767578,-451,7186.0,32.942832946777344,686,9833.0
7010,0.21244309842586517,-31.316814422607422,-561,7186.0,43.1829719543457,633,9833.0
7020,0.21334540843963623,-37.4471549987793,-559,7186.0,50.6873779296875,928,9833.0
7030,0.2138766348361969,-36.5189094543457,-653,7186.0,58.406654357910156,983,9833.0
7040,0.21450071036815643,-30.57108497619629,-324,7186.0,51.371246337890625,823,9833.0
7050,0.21644863486289978,-11.075850486755371,-143,7186.0,32.32589340209961,345,9833.0
7060,0.2168813943862915,5.072553634643555,211,7186.0,-2.857626438140869,-125,9833.0
7070,0.21714769303798676,18.811166763305664,282,7186.0,-28.59776496887207,-595,9833.0
7080,0.2174445539712906,27.139759063720703,511,7186.0,-42.13522720336914,-706,9833.0
7090,0.2174493819475174,34.12968826293945,565,7186.0,-44.90007781982422,-701,9833.0
7100,0.21927078068256378,41.35633087158203,677,7186.0,-37.75864791870117,-627,9833.0
7110,0.21939879655838013,36.75414276123047,620,7186.0,-25.6717586517334,-358,9833.0
7120,0.22038747370243073,31.076580047607422,387,7186.0,-13.5907564163208,-73,9833.0
7130,0.2206864356994629,19.628122329711914,256,7186.0,-4.146173477172852,-150,9833.0
7140,0.2177373468875885,8.82518482208252,163,7186.0,2.8650667667388916,-23,9833.0
7150,0.21813909709453583,-0.7827620506286621,54,7186.0,9.717975616455078,207,9833.0
7160,0.2187863439321518,-11.390650749206543,-210,7186.0,27.206830978393555,538,9833.0
7170,0.21931931376457214,-20.792444229125977,-427,7186.0,44.03650665283203,875,9833.0
7180,0.22185106575489044,-18.995698928833008,-331,7186.0,58.60433578491211,944,9833.0
7190,0.2225339412689209,-23.570955276489258,-370,7186.0,68.23797607421875,1225,9833.0
7200,0.2234620749950409,-21.514942169189453,-359,7186.0,65.25459289550781,996,9833.0
7210,0.22380807995796204,-2.6814253330230713,167,7186.0,45.19043731689453,598,9833.0
7220,0.22436515986919403,33.495323181152344,621,7186.0,17.710588455200195,210,9833.0
7230,0.22181591391563416,51.025177001953125,876,7186.0,-5.389863014221191,-250,9833.0
7240,0.2215837687253952,49.36778259277344,782,7186.0,-28.730682373046875,-546,9833.0
7250,0.22098098695278168,34.254573822021484,384,7186.0,-50.104339599609375,-918,9833.0
7260,0.22039975225925446,9.780014038085938,62,7186.0,-67.42583465576172,-1173,9833.0
7270,0.22098247706890106,-14.094958305358887,-259,7186.0,-73.47785186767578,-1259,9833.0
7280,0.22147144377231598,-23.616161346435547,-451,7186.0,-72.71369171142578,-1139,9833.0
7290,0.22125503420829773,-29.73822021484375,-598,7186.0,-60.903533935546875,-764,9833.0
7300,0.22086921334266663,-32.23019790649414,-541,7186.0,-45.561126708984375,-571,9833.0
7310,0.21970953047275543,-28.184404373168945,-423,7186.0,-26.824487686157227,-398,9833.0
7320,0.21556620299816132,-21.679624557495117,-311,7186.0,-1.9423497915267944,57,9833.0
7330,0.21543096005916595,-17.698278427124023,-256,7186.0,25.3944149017334,541,9833.0
7340,0.21556547284126282,-15.771570205688477,-329,7186.0,40.223419189453125,793,9833.0
7350,0.21523140370845795,-12.468360900878906,-167,7186.0,44.59403610229492,686,9833.0
7360,0.21633939445018768,-6.075892448425293,-9,7186.0,45.164817810058594,717,9833.0
7370,0.216456338763237,4.3324503898620605,136,7186.0,39.99189376831055,504,9833.0
7380,0.21641241014003754,12.208176612854004,248,7186.0,32.9642219543457,458,9833.0
7390,0.21646013855934143,15.304868698120117,224,7186.0,23.808229446411133,379,9833.0
7400,0.21683090925216675,18.747194290161133,377,7186.0,5.659912109375,16,9833.0
7410,0.21729956567287445,18.809595108032227,251,7186.0,-17.330434799194336,-310,9833.0
7420,0.217396542429924,19.127853393554688,336,7186.0,-34.616886138916016,-738,9833.0
7430,0.21750153601169586,21.221817016601562,301,7186.0,-47.62933349609375,-719,9833.0
7440,0.2173420637845993,19.062427520751953,231,7186.0,-47.294551849365234,-658,9833.0
7450,0.21943353116512299,13.291011810302734,229,7186.0,-40.78879165649414,-641,9833.0
7460,0.22007955610752106,6.856807231903076,186,7186.0,-27.475961685180664,-427,9833.0
7470,0.2202085554599762,7.582977294921875,139,7186.0,-3.8283565044403076,100,9833.0
7480,0.22083725035190582,10.730393409729004,228,7186.0,23.744050979614258,562,9833.0
7490,0.21866920590400696,15.195867538452148,255,7186.0,44.32447052001953,804,9833.0
7500,0.21969138085842133,18.529186248779297,367,7186.0,46.54367446899414,695,9833.0
7510,0.22018910944461823,15.226707458496094,268,7186.0,37.023170471191406,501,9833.0
7520,0.2206905335187912,6.101754665374756,1,7186.0,21.84939193725586,366,9833.0
7530,0.22324034571647644,-4.786531925201416,-137,7186.0,5.6601881980896,11,9833.0
7540,0.22373554110527039,-14.565101623535156,-194,7186.0,-0.26515069603919983,-142,9833.0
7550,0.2241436392068863,-19.08609390258789,-359,7186.0,-7.429817199707031,-28,9833.0
7560,0.22435405850410461,-25.900726318359375,-465,7186.0,-5.890645503997803,-60,9833.0
7570,0.2248089462518692,-20.770780563354492,-323,7186.0,-9.660334587097168,-270,9833.0
7580,0.22430524230003357,-11.558417320251465,-95,7186.0,-14.008514404296875,-299,9833.0
7590,0.2245820313692093,-5.095863342285156,-6,7186.0,-16.877685546875,-273,9833.0
7600,0.22489561140537262,-0.11207070201635361,-38,7186.0,-14.469978332519531,-186,9833.0
7610,0.2252163290977478,0.9639187455177307,-20,7186.0,-6.504610538482666,-139,9833.0
7620,0.22913533449172974,-7.628207683563232,-119,7186.0,3.436256170272827,5,9833.0
7630,0.22978734970092773,-7.096510887145996,19,7186.0,15.515010833740234,300,9833.0
7640,0.23054088652133942,7.611985206604004,187,7186.0,22.54987335205078,459,9833.0
7650,0.23142364621162415,20.43138885498047,341,7186.0,20.262086868286133,295,9833.0
7660,0.2320125550031662,29.356597900390625,512,7186.0,15.94376277923584,140,9833.0
7670,0.23269054293632507,25.321409225463867,446,7186.0,11.941530227661133,187,9833.0
7680,0.23342126607894897,15.717133522033691,180,7186.0,7.2690229415893555,153,9833.0
7690,0.2339327037334442,4.57528018951416,-3,7186.0,-1.6907933950424194,-89,9833.0
7700,0.23449856042861938,-5.733189582824707,-137,7186.0,-10.24803352355957,-254,9833.0
7710,0.23424886167049408,-9.250208854675293,-61,7186.0,-10.042848587036133,-207,9833.0
7720,0.2347732037305832,-4.480000019073486,13,7186.0,-9.442893981933594,-167,9833.0
7730,0.23534248769283295,-1.2659369707107544,-23,7186.0,-12.63521671295166,-212,9833.0
7740,0.2359684556722641,0.9989081621170044,-55,7186.0,-17.853164672851562,-229,9833.0
7750,0.23638314008712769,-0.31191009283065796,-20,7186.0,-25.450647354125977,-381,9833.0
7760,0.23719608783721924,-5.74956750869751,-127,7186.0,-20.942821502685547,-319,9833.0
7770,0.23807521164417267,-17.504318237304688,-288,7186.0,-1.6398035287857056,-35,9833.0
7780,0.23899824917316437,-28.239900588989258,-478,7186.0,28.174190521240234,643,9833.0
7790,0.23963111639022827,-32.142005920410156,-570,7186.0,49.21537780761719,856,9833.0
7800,0.24061770737171173,-26.947561264038086,-474,7186.0,52.59566116333008,859,9833.0
7810,0.24077832698822021,-6.7295026779174805,-15,7186.0,45.60803985595703,618,9833.0
7820,0.24454843997955322,18.398706436157227,351,7186.0,35.82118606567383,577,9833.0
7830,0.24522091448307037,41.932273864746094,852,7186.0,18.80076789855957,189,9833.0
7840,0.24460256099700928,59.65388488769531,1052,7186.0,-8.202249526977539,-314,9833.0
7850,0.2451397031545639,58.4235954284668,943,7186.0,-34.6107292175293,-626,9833.0
7860,0.24573467671871185,42.04944610595703,519,7186.0,-50.86744689941406,-777,9833.0
7870,0.24593614041805267,17.000308990478516,131,7186.0,-57.183536529541016,-909,9833.0
7880,0.24560289084911346,-7.16094970703125,-240,7186.0,-57.211551666259766,-958,9833.0
7890,0.24547375738620758,-28.030288696289062,-496,7186.0,-53.525657653808594,-840,9833.0
7900,0.24671527743339539,-38.058067321777344,-619,7186.0,-40.731719970703125,-620,9833.0
7910,0.2468239665031433,-38.248390197753906,-502,7186.0,-24.79762077331543,-335,9833.0
7920,0.24703001976013184,-29.449567794799805,-280,7186.0,4.211071014404297,311,9833.0
7930,0.246662437915802,-7.62631893157959,-74,7186.0,46.15901184082031,977,9833.0
7940,0.24724958837032318,2.777848482131958,50,7186.0,73.57427978515625,1305,9833.0
7950,0.24852681159973145,11.556609153747559,153,7186.0,86.65190887451172,1528,9833.0
7960,0.24883116781711578,10.879792213439941,129,7186.0,90.79926300048828,1297,9833.0
7970,0.24843557178974152,-3.6265106201171875,-82,7186.0,64.06233215332031,895,9833.0
7980,0.24989812076091766,-18.467205047607422,-395,7186.0,28.317506790161133,181,9833.0
7990,0.2502377927303314,-29.05258560180664,-492,7186.0,-5.020845413208008,-290,9833.0
8000,0.2509229779243469,-39.205081939697266,-689,7186.0,-34.18403625488281,-763,9833.0
8010,0.2504854202270508,-39.85810089111328,-602,7186.0,-55.984222412109375,-933,9833.0
8020,0.2510216236114502,-25.736812591552734,-298,7186.0,-69.22340393066406,-1226,9833.0
8030,0.251537024974823,-8.671038627624512,-144,7186.0,-72.78470611572266,-1076,9833.0
8040,0.25191283226013184,-0.688022792339325,14,7186.0,-64.7465591430664,-1017,9833.0
8050,0.25223374366760254,4.480927467346191,174,7186.0,-58.378536224365234,-860,9833.0
8060,0.25140485167503357,10.510958671569824,225,7186.0,-34.322776794433594,-453,9833.0
8070,0.25287771224975586,16.537952423095703,175,7186.0,-10.083990097045898,30,9833.0
8080,0.2538091838359833,12.121284484863281,98,7186.0,18.649694442749023,489,9833.0
8090,0.2548849284648895,10.77143383026123,135,7186.0,38.21620178222656,709,9833.0
8100,0.2533518970012665,-0.4474296271800995,-23,7186.0,43.99468994140625,661,9833.0
8110,0.2544811964035034,-4.0370941162109375,-81,7186.0,38.15007400512695,511,9833.0
8120,0.255247563123703,-4.731059551239014,-117,7186.0,30.958160400390625,575,9833.0
8130,0.25624048709869385,-10.093521118164062,-214,7186.0,28.393007278442383,470,9833.0
8140,0.25696736574172974,-10.673162460327148,-168,7186.0,19.018795013427734,214,9833.0
8150,0.2574250102043152,-10.010629653930664,-129,7186.0,1.890647053718567,-63,9833.0
8160,0.25836414098739624,-11.19330883026123,-245,7186.0,-15.837581634521484,-230,9833.0
8170,0.2591383457183838,-11.08055305480957,-206,7186.0,-24.007139205932617,-513,9833.0
8180,0.25973162055015564,-8.83146858215332,-91,7186.0,-37.31819534301758,-776,9833.0
8190,0.2591308653354645,-4.776195526123047,-10,7186.0,-50.55232620239258,-724,9833.0
8200,0.25958940386772156,5.007503032684326,68,7186.0,-47.134735107421875,-663,9833.0
8210,0.2601199746131897,15.418388366699219,262,7186.0,-34.42700958251953,-557,9833.0
8220,0.26092031598091125,24.200634002685547,469,7186.0,-16.574546813964844,-223,9833.0
8230,0.2609144449234009,25.931074142456055,487,7186.0,5.864535331726074,239,9833.0
8240,0.2618022859096527,19.95237159729004,225,7186.0,33.9916877746582,667,9833.0
8250,0.2625846564769745,-1.1069018840789795,-183,7186.0,46.80695343017578,851,9833.0
8260,0.26340633630752563,-23.523868560791016,-518,7186.0,45.43800354003906,820,9833.0
8270,0.2645154595375061,-34.42499542236328,-587,7186.0,39.669471740722656,506,9833.0
8280,0.26330140233039856,-25.972923278808594,-275,7186.0,26.582096099853516,413,9833.0
8290,0.2635543644428253,-3.1300365924835205,34,7186.0,17.800336837768555,325,9833.0
8300,0.2639313340187073,23.61843490600586,429,7186.0,5.509036064147949,-59,9833.0
8310,0.26434326171875,33.56583023071289,609,7186.0,-13.3197021484375,-280,9833.0
8320,0.2633447051048279,29.19369888305664,412,7186.0,-29.588035583496094,-501,9833.0
8330,0.2634460926055908,24.36270523071289,366,7186.0,-46.093849182128906,-849,9833.0
8340,0.26330694556236267,18.07469367980957,271,7186.0,-59.36341094970703,-1075,9833.0
8350,0.26373374462127686,7.816302299499512,118,7186.0,-64.46573638916016,-1016,9833.0
8360,0.2639402747154236,-2.155705690383911,-93,7186.0,-60.15779113769531,-869,9833.0
8370,0.26570913195610046,-9.074466705322266,-184,7186.0,-40.42254638671875,-419,9833.0
8380,0.26622840762138367,-6.665206432342529,-201,7186.0,1.070527195930481,289,9833.0
8390,0.2668830454349518,-10.352921485900879,-191,7186.0,44.939674377441406,874,9833.0
8400,0.267660528421402,-14.886311531066895,-194,7186.0,69.74181365966797,1057,9833.0
8410,0.2680957019329071,-14.231388092041016,-123,7186.0,73.0829086303711,1249,9833.0
8420,0.26828575134277344,-1.3237169981002808,-51,7186.0,71.21784210205078,1151,9833.0
8430,0.2689110338687897,8.968648910522461,283,7186.0,56.27105712890625,826,9833.0
8440,0.2700100243091583,19.43073272705078,338,7186.0,40.24301528930664,587,9833.0
8450,0.27142277359962463,22.562402725219727,423,7186.0,21.687124252319336,233,9833.0
8460,0.2717912495136261,26.308897018432617,361,7186.0,-6.218099117279053,-242,9833.0
8470,0.27209216356277466,24.68482780456543,427,7186.0,-42.3452033996582,-812,9833.0
8480,0.27224448323249817,22.008121490478516,352,7186.0,-67.98944854736328,-1091,9833.0
8490,0.2724384367465973,19.50542449951172,268,7186.0,-80.2606430053711,-1417,9833.0
8500,0.2752554416656494,9.71850299835205,145,7186.0,-84.51959991455078,-1326,9833.0
8510,0.27568942308425903,2.431614875793457,-50,7186.0,-65.86593627929688,-734,9833.0
8520,0.2778104245662689,-9.239693641662598,-212,7186.0,-19.33808708190918,9,9833.0
8530,0.27844318747520447,-8.256362915039062,-95,7186.0,26.68436050415039,556,9833.0
8540,0.27894142270088196,-1.5789849758148193,49,7186.0,60.15007019042969,1207,9833.0
8550,0.279670387506485,5.3318772315979,66,7186.0,75.40650177001953,1195,9833.0
8560,0.2805550992488861,4.99803352355957,96,7186.0,58.86301803588867,842,9833.0
8570,0.28102636337280273,-4.437788009643555,-216,7186.0,33.67611312866211,470,9833.0
8580,0.2815544307231903,-20.391420364379883,-372,7186.0,11.275069236755371,4,9833.0
8590,0.28324174880981445,-36.844608306884766,-738,7186.0,-8.520801544189453,-230,9833.0
8600,0.2841206192970276,-43.507198333740234,-656,7186.0,-28.947696685791016,-628,9833.0
8610,0.2846716344356537,-32.52733612060547,-469,7186.0,-56.09341049194336,-1003,9833.0
8620,0.28489723801612854,-18.703706741333008,-166,7186.0,-70.34667205810547,-1185,9833.0
8630,0.28575870394706726,-3.268418550491333,-54,7186.0,-87.47489166259766,-1644,9833.0
8640,0.2867452800273895,5.030501365661621,240,7186.0,-99.83194732666016,-1604,9833.0
8650,0.28750789165496826,22.185394287109375,466,7186.0,-108.55227661132812,-1712,9833.0
8660,0.28773632645606995,48.57815933227539,998,7186.0,-89.13572692871094,-1385,9833.0
8670,0.2888036370277405,67.13218688964844,1124,7186.0,-46.00313186645508,-548,9833.0
8680,0.29132720828056335,63.233192443847656,929,7186.0,12.479734420776367,541,9833.0
8690,0.2931497395038605,49.47663497924805,696,7186.0,64.8932113647461,1271,9833.0
8700,0.2948697507381439,22.129987716674805,291,7186.0,96.94224548339844,1626,9833.0
8710,0.29654836654663086,-6.793612003326416,-251,7186.0,105.9970703125,1656,9833.0
8720,0.29700958728790283,-28.50695037841797,-599,7186.0,87.62216186523438,1395,9833.0
8730,0.29826033115386963,-41.281890869140625,-669,7186.0,53.027095794677734,588,9833.0
8740,0.29958757758140564,-43.4998779296875,-701,7186.0,17.35356903076172,221,9833.0
8750,0.3010103702545166,-38.666786193847656,-623,7186.0,-16.160215377807617,-428,9833.0
8760,0.3015119135379791,-22.923757553100586,-244,7186.0,-35.624183654785156,-596,9833.0
8770,0.3027547597885132,-7.299434661865234,-126,7186.0,-47.65838623046875,-822,9833.0
8780,0.3040350079536438,3.382812261581421,144,7186.0,-54.97358322143555,-989,9833.0
8790,0.3050544559955597,11.181925773620605,231,7186.0,-42.671836853027344,-578,9833.0
8800,0.3065148591995239,19.32843589782715,367,7186.0,-33.98764419555664,-448,9833.0
8810,0.30773526430130005,28.693729400634766,411,7186.0,-19.40233039855957,-168,9833.0
8820,0.3091616630554199,20.421218872070312,268,7186.0,18.64664649963379,443,9833.0
8830,0.31088680028915405,3.2798385620117188,-6,7186.0,61.19139862060547,1135,9833.0
8840,0.31251561641693115,-12.872274398803711,-153,7186.0,87.30126953125,1489,9833.0
8850,0.3141564428806305,-13.135909080505371,-208,7186.0,98.57121276855469,1722,9833.0
8860,0.31518760323524475,-3.1681926250457764,-39,7186.0,95.83958435058594,1481,9833.0
8870,0.3160938322544098,6.60861873626709,189,7186.0,78.6343765258789,1210,9833.0
8880,0.31661680340766907,9.68724250793457,114,7186.0,52.9173469543457,787,9833.0
8890,0.32031744718551636,4.569666862487793,105,7186.0,19.739013671875,112,9833.0
8900,0.32071763277053833,-8.36945629119873,-251,7186.0,-19.85176658630371,-394,9833.0
8910,0.3213745653629303,-25.41691780090332,-473,7186.0,-50.43244171142578,-961,9833.0
8920,0.3219626247882843,-35.227535247802734,-494,7186.0,-71.2594985961914,-1238,9833.0
8930,0.3222927749156952,-31.302297592163086,-571,7186.0,-83.46644592285156,-1320,9833.0
8940,0.3247867226600647,-24.748722076416016,-374,7186.0,-84.7230224609375,-1419,9833.0
8950,0.3251011073589325,-19.04900360107422,-225,7186.0,-72.15929412841797,-1085,9833.0
8960,0.3255949914455414,-6.5664215087890625,-57,7186.0,-51.16753387451172,-650,9833.0
8970,0.327623188495636,17.931337356567383,365,7186.0,-10.159741401672363,-17,9833.0
8980,0.3290008008480072,30.351421356201172,518,7186.0,26.907678604125977,527,9833.0
8990,0.3300802707672119,20.080724716186523,275,7186.0,50.276248931884766,948,9833.0
9000,0.33121249079704285,8.285598754882812,21,7186.0,62.307525634765625,1042,9833.0
9010,0.332160621881485,-1.2121785879135132,-51,7186.0,54.67332458496094,758,9833.0
9020,0.3323099911212921,-7.110160827636719,-91,7186.0,30.040775299072266,388,9833.0
9030,0.3330238163471222,-19.713821411132812,-390,7186.0,6.267788887023926,54,9833.0
9040,0.3335760235786438,-21.990596771240234,-324,7186.0,-15.587997436523438,-378,9833.0
9050,0.33416247367858887,-7.853154182434082,21,7186.0,-27.715856552124023,-556,9833.0
9060,0.3347131311893463,9.636377334594727,179,7186.0,-36.036624908447266,-544,9833.0
9070,0.33476436138153076,14.918329238891602,184,7186.0,-37.1050910949707,-511,9833.0
9080,0.33548614382743835,4.331621170043945,12,7186.0,-24.119476318359375,-425,9833.0
9090,0.336545467376709,-12.015740394592285,-205,7186.0,-7.391411304473877,-44,9833.0
9100,0.33758947253227234,-28.973037719726562,-464,7186.0,14.253546714782715,280,9833.0
9110,0.33792319893836975,-43.70290756225586,-682,7186.0,36.64118576049805,699,9833.0
9120,0.33879896998405457,-41.42089080810547,-728,7186.0,50.639896392822266,864,9833.0
9130,0.3398626446723938,-36.86543273925781,-605,7186.0,49.03947448730469,819,9833.0
9140,0.340607225894928,-24.491939544677734,-325,7186.0,43.35759735107422,485,9833.0
9150,0.34151607751846313,-4.588674545288086,85,7186.0,12.169109344482422,-133,9833.0
9160,0.3424968719482422,16.052539825439453,323,7186.0,-31.153364181518555,-591,9833.0
9170,0.3434063494205475,39.257442474365234,736,7186.0,-52.83515548706055,-977,9833.0
9180,0.3440077006816864,53.50601577758789,987,7186.0,-57.999820709228516,-1069,9833.0
9190,0.34451624751091003,60.23558044433594,1053,7186.0,-53.79198455810547,-823,9833.0
9200,0.3453781008720398,56.963157653808594,846,7186.0,-41.97059631347656,-455,9833.0
9210,0.3459383547306061,33.48275375366211,357,7186.0,-19.028499603271484,-148,9833.0
9220,0.3475746810436249,3.1712450981140137,-136,7186.0,6.427003383636475,341,9833.0
9230,0.34859004616737366,-30.664396286010742,-743,7186.0,35.433685302734375,832,9833.0
9240,0.34971025586128235,-58.30085372924805,-1103,7186.0,58.30855941772461,1056,9833.0
9250,0.34837958216667175,-73.3961181640625,-1273,7186.0,64.77022552490234,1052,9833.0
9260,0.34962156414985657,-70.27666473388672,-945,7186.0,59.18312454223633,793,9833.0
9270,0.3505168557167053,-38.6689567565918,-381,7186.0,37.38315200805664,395,9833.0
9280,0.35150089859962463,0.7515895366668701,209,7186.0,-6.495676040649414,-356,9833.0
9290,0.35178235173225403,21.20940589904785,435,7186.0,-38.538414001464844,-662,9833.0
9300,0.35260993242263794,37.98804473876953,703,7186.0,-53.02526092529297,-824,9833.0
9310,0.3532707393169403,57.58172607421875,1122,7186.0,-50.49532699584961,-873,9833.0
9320,0.3540562093257904,66.55609893798828,1037,7186.0,-41.39958572387695,-581,9833.0
9330,0.35402607917785645,63.6793098449707,916,7186.0,-27.992399215698242,-366,9833.0
9340,0.35488519072532654,49.65435028076172,673,7186.0,-16.87108612060547,-144,9833.0
9350,0.35540342330932617,29.00401496887207,374,7186.0,-8.028786659240723,-3,9833.0
9360,0.35597577691078186,8.858450889587402,31,7186.0,5.74697732925415,71,9833.0
9370,0.35645875334739685,-14.899109840393066,-264,7186.0,13.34088134765625,243,9833.0
9380,0.3540824055671692,-37.62350845336914,-619,7186.0,25.340118408203125,378,9833.0
9390,0.35456719994544983,-45.73450469970703,-847,7186.0,17.344572067260742,236,9833.0
9400,0.35507839918136597,-59.066165924072266,-994,7186.0,4.287445068359375,121,9833.0
9410,0.3555343449115753,-59.36315155029297,-975,7186.0,-6.922300815582275,-253,9833.0
9420,0.3534795641899109,-40.89448928833008,-490,7186.0,-16.319536209106445,-266,9833.0
9430,0.3541763126850128,-8.801955223083496,-62,7186.0,-9.381155967712402,-112,9833.0
9440,0.35483574867248535,28.586563110351562,647,7186.0,-14.890538215637207,-319,9833.0
9450,0.355934739112854,56.76468276977539,1032,7186.0,-16.661745071411133,-242,9833.0
9460,0.3547476530075073,71.41265106201172,1152,7186.0,-11.655932426452637,-143,9833.0
9470,0.3552374541759491,75.98631286621094,1331,7186.0,-8.281900405883789,-200,9833.0
9480,0.35564517974853516,74.33470916748047,1261,7186.0,-7.41995096206665,-192,9833.0
9490,0.3558788597583771,56.41352462768555,819,7186.0,-2.2560296058654785,-15,9833.0
9500,0.3569602966308594,31.022991180419922,392,7186.0,5.715977668762207,159,9833.0
9510,0.35417085886001587,10.552099227905273,1,7186.0,6.604957580566406,87,9833.0
9520,0.35458943247795105,-20.940397262573242,-558,7186.0,3.9881768226623535,135,9833.0
9530,0.35504674911499023,-46.87466049194336,-897,7186.0,-1.6615015268325806,40,9833.0
9540,0.355528861284256,-63.614845275878906,-1108,7186.0,7.501561164855957,153,9833.0
9550,0.355149507522583,-78.36368560791016,-1198,7186.0,21.08515167236328,287,9833.0
9560,0.3554982841014862,-76.510498046875,-1113,7186.0,26.811054229736328,511,9833.0
9570,0.3556145429611206,-56.32301330566406,-871,7186.0,33.39895248413086,585,9833.0
9580,0.35563385486602783,-21.1363468170166,-69,7186.0,30.0481014251709,457,9833.0
9590,0.356669157743454,19.714475631713867,408,7186.0,16.856813430786133,315,9833.0
9600,0.35569292306900024,39.29737091064453,771,7186.0,-7.244764804840088,-294,9833.0
9610,0.35578614473342896,47.93477249145508,747,7186.0,-20.815454483032227,-273,9833.0
9620,0.35565951466560364,44.365577697753906,673,7186.0,-22.82198143005371,-430,9833.0
9630,0.3553508222103119,36.75983428955078,632,7186.0,-24.89896583557129,-377,9833.0
9640,0.35493361949920654,36.91810989379883,634,7186.0,-24.451072692871094,-335,9833.0
9650,0.3544406294822693,43.85651397705078,667,7186.0,-22.020339965820312,-244,9833.0
9660,0.3539488613605499,40.80926513671875,588,7186.0,-7.213046550750732,-143,9833.0
9670,0.3539365530014038,11.17791748046875,71,7186.0,12.627070426940918,254,9833.0
9680,0.3539065718650818,-27.515485763549805,-524,7186.0,29.780275344848633,514,9833.0
9690,0.35408270359039307,-56.256378173828125,-1027,7186.0,34.95597457885742,641,9833.0
9700,0.3543207347393036,-75.45790100097656,-1286,7186.0,31.254852294921875,446,9833.0
9710,0.35466429591178894,-72.3170166015625,-1115,7186.0,25.503564834594727,456,9833.0
9720,0.35490721464157104,-54.45214080810547,-786,7186.0,29.664094924926758,436,9833.0
9730,0.35785749554634094,-18.032367706298828,-71,7186.0,20.242759704589844,260,9833.0
9740,0.3583642542362213,13.209516525268555,339,7186.0,-7.078135013580322,-303,9833.0
9750,0.35908427834510803,24.262100219726562,490,7186.0,-21.608606338500977,-262,9833.0
9760,0.35992103815078735,30.85856056213379,510,7186.0,-15.895028114318848,-361,9833.0
9770,0.36017999053001404,37.33918380737305,636,7186.0,-13.377401351928711,-205,9833.0
9780,0.36060822010040283,40.64382553100586,641,7186.0,-14.48839282989502,-246,9833.0
9790,0.3610200881958008,36.15972137451172,564,7186.0,-17.199583053588867,-381,9833.0
9800,0.36146825551986694,24.937950134277344,415,7186.0,-23.83054542541504,-398,9833.0
9810,0.3620896637439728,10.214899063110352,96,7186.0,-20.05141258239746,-192,9833.0
9820,0.36302632093429565,0.7799521684646606,-69,7186.0,-12.352431297302246,-231,9833.0
9830,0.36387011408805847,-22.234285354614258,-455,7186.0,-5.845091819763184,-52,9833.0
9840,0.3646283745765686,-49.10382080078125,-854,7186.0,6.293888092041016,156,9833.0
9850,0.3653990626335144,-65.16131591796875,-1139,7186.0,12.192342758178711,363,9833.0
9860,0.3648691475391388,-55.33388137817383,-832,7186.0,17.944866180419922,306,9833.0
9870,0.3656593859195709,-22.560863494873047,-170,7186.0,24.8011474609375,460,9833.0
9880,0.3672981560230255,10.865657806396484,382,7186.0,30.828462600708008,460,9833.0
9890,0.3683452904224396,39.88186264038086,809,7186.0,33.08214569091797,533,9833.0
9900,0.3695073127746582,51.48305892944336,768,7186.0,20.38556671142578,273,9833.0
9910,0.3709331750869751,46.644290924072266,737,7186.0,11.458173751831055,125,9833.0
9920,0.37205415964126587,33.78517532348633,452,7186.0,2.0945353507995605,-23,9833.0
9930,0.3728164732456207,16.574872970581055,211,7186.0,-13.239337921142578,-300,9833.0
9940,0.37356460094451904,12.969082832336426,168,7186.0,-21.810306549072266,-530,9833.0
9950,0.3733738362789154,1.3578766584396362,-49,7186.0,-30.533536911010742,-429,9833.0
9960,0.3740250766277313,-18.33498764038086,-442,7186.0,-26.73089599609375,-433,9833.0
9970,0.3747798204421997,-30.615209579467773,-579,7186.0,-28.694377899169922,-491,9833.0
9980,0.375501424074173,-39.52439498901367,-622,7186.0,-30.661863327026367,-607,9833.0
9990,0.3745397627353668,-39.077945709228516,-541,7186.0,-32.43777847290039,-513,9833.0
10000,0.37533798813819885,-33.79147720336914,-588,7186.0,-16.997417449951172,-154,9833.0
10010,0.37587276101112366,-28.66155433654785,-421,7186.0,1.5545151233673096,130,9833.0
10020,0.37649667263031006,-13.003250122070312,-35,7186.0,17.682144165039062,331,9833.0
10030,0.37722814083099365,5.493798732757568,272,7186.0,34.22214126586914,615,9833.0
10040,0.3761647939682007,34.39699172973633,664,7186.0,36.27924346923828,575,9833.0
10050,0.37678730487823486,44.5723876953125,714,7186.0,31.673919677734375,480,9833.0
10060,0.3770865797996521,36.22172927856445,632,7186.0,31.801128387451172,501,9833.0
10070,0.3774223327636719,38.11967849731445,636,7186.0,18.793752670288086,268,9833.0
10080,0.37664562463760376,49.546321868896484,807,7186.0,1.157103419303894,-126,9833.0
10090,0.3766593337059021,55.26131057739258,979,7186.0,-15.675500869750977,-340,9833.0
10100,0.37673190236091614,47.404136657714844,585,7186.0,-33.942020416259766,-516,9833.0
10110,0.3768024146556854,23.165069580078125,185,7186.0,-49.69355010986328,-862,9833.0
10120,0.3766469359397888,-17.036418914794922,-507,7186.0,-59.08082962036133,-1080,9833.0
10130,0.3760938048362732,-68.62113189697266,-1259,7186.0,-56.53814697265625,-903,9833.0
10140,0.37658005952835083,-101.11714935302734,-1667,7186.0,-40.02997589111328,-659,9833.0
10150,0.37677520513534546,-115.6190185546875,-1885,7186.0,-16.485530853271484,-13,9833.0
10160,0.3773117661476135,-106.72557067871094,-1723,7186.0,14.064659118652344,329,9833.0
10170,0.37677666544914246,-86.01461029052734,-1171,7186.0,28.39324951171875,394,9833.0
10180,0.3769659996032715,-46.00657272338867,-515,7186.0,14.562955856323242,242,9833.0
10190,0.3778517246246338,8.57252311706543,362,7186.0,3.9104061126708984,-16,9833.0
10200,0.3789665102958679,44.10470199584961,716,7186.0,3.078049659729004,98,9833.0
10210,0.37839818000793457,62.77552795410156,1176,7186.0,6.329012870788574,157,9833.0
10220,0.3790850043296814,87.9959487915039,1427,7186.0,2.1481730937957764,6,9833.0
10230,0.37977829575538635,99.1516342163086,1745,7186.0,1.3494511842727661,-24,9833.0
10240,0.38018599152565,99.40547180175781,1543,7186.0,-7.979696750640869,-125,9833.0
10250,0.38134416937828064,72.96298217773438,959,7186.0,-14.395804405212402,-242,9833.0
10260,0.3790789246559143,29.070497512817383,303,7186.0,-27.17137336730957,-521,9833.0
10270,0.3793664276599884,-16.20095443725586,-384,7186.0,-27.7123966217041,-472,9833.0
10280,0.3800414502620697,-52.29454040527344,-962,7186.0,-25.415855407714844,-424,9833.0
10290,0.3808633089065552,-72.817138671875,-1298,7186.0,-24.43631362915039,-249,9833.0
10300,0.3796611428260803,-87.38146209716797,-1513,7186.0,-6.879051208496094,74,9833.0
10310,0.3801196813583374,-79.33729553222656,-1242,7186.0,23.060203552246094,409,9833.0
10320,0.38053372502326965,-59.44833755493164,-824,7186.0,38.70439147949219,719,9833.0
10330,0.38163843750953674,-29.573379516601562,-400,7186.0,58.00404357910156,1035,9833.0
10340,0.38112589716911316,15.440638542175293,554,7186.0,58.809024810791016,930,9833.0
10350,0.38148409128189087,58.10964584350586,1019,7186.0,52.55046844482422,846,9833.0
10360,0.3818858563899994,85.01734924316406,1543,7186.0,35.850250244140625,489,9833.0
10370,0.3823506832122803,93.46858215332031,1483,7186.0,15.881471633911133,189,9833.0
10380,0.3822966516017914,88.7737808227539,1391,7186.0,-19.08341407775879,-501,9833.0
10390,0.38291624188423157,64.22933197021484,929,7186.0,-49.46957778930664,-902,9833.0
10400,0.38335809111595154,27.5825138092041,243,7186.0,-71.92033386230469,-1203,9833.0
10410,0.38386082649230957,-16.902360916137695,-522,7186.0,-82.7332763671875,-1343,9833.0
10420,0.3843841552734375,-57.949886322021484,-1088,7186.0,-77.59783935546875,-1260,9833.0
10430,0.38433417677879333,-85.09408569335938,-1437,7186.0,-67.7835464477539,-1158,9833.0
10440,0.3848199248313904,-96.46170043945312,-1509,7186.0,-54.62758255004883,-883,9833.0
10450,0.38584330677986145,-87.9572982788086,-1406,7186.0,-26.468103408813477,-157,9833.0
10460,0.3864164650440216,-66.78327941894531,-975,7186.0,0.33630380034446716,51,9833.0
10470,0.3870503306388855,-24.37302017211914,-126,7186.0,23.843624114990234,525,9833.0
10480,0.38695037364959717,16.714841842651367,456,7186.0,44.81061935424805,866,9833.0
10490,0.3880309760570526,43.211978912353516,824,7186.0,54.60321044921875,826,9833.0
10500,0.3893727660179138,52.75974655151367,787,7186.0,57.04324722290039,1023,9833.0
10510,0.3903445601463318,36.84685516357422,539,7186.0,52.87517166137695,671,9833.0
10520,0.3918919861316681,22.289384841918945,391,7186.0,38.27561950683594,590,9833.0
10530,0.39289936423301697,20.079599380493164,294,7186.0,20.373950958251953,324,9833.0
10540,0.39378753304481506,23.68974494934082,444,7186.0,10.07505989074707,26,9833.0
10550,0.3944999575614929,19.56299591064453,232,7186.0,-6.926216125488281,-267,9833.0
10560,0.39512529969215393,8.660120010375977,72,7186.0,-35.22932434082031,-646,9833.0
10570,0.39749717712402344,-3.5300376415252686,-189,7186.0,-52.87897872924805,-861,9833.0
10580,0.3984732925891876,-18.547578811645508,-318,7186.0,-58.72237777709961,-985,9833.0
10590,0.39945605397224426,-22.993877410888672,-362,7186.0,-50.515037536621094,-680,9833.0
10600,0.4003812372684479,-39.739200592041016,-781,7186.0,-20.805639266967773,-215,9833.0
10610,0.4032715857028961,-73.84728240966797,-1224,7186.0,17.333955764770508,419,9833.0
10620,0.4050436317920685,-82.13055419921875,-1220,7186.0,54.647483825683594,843,9833.0
10630,0.4065670371055603,-63.64167785644531,-855,7186.0,57.21125030517578,826,9833.0
10640,0.40827199816703796,-36.503440856933594,-467,7186.0,39.08933639526367,618,9833.0
10650,0.40841078758239746,-1.9125365018844604,73,7186.0,24.750362396240234,391,9833.0
10660,0.4098627269268036,13.374003410339355,349,7186.0,18.32267189025879,176,9833.0
10670,0.4112588167190552,17.75135612487793,298,7186.0,14.841103553771973,179,9833.0
10680,0.41243457794189453,15.667790412902832,221,7186.0,17.459184646606445,367,9833.0
10690,0.4133131504058838,19.46337890625,418,7186.0,29.567790985107422,609,9833.0
10700,0.41249334812164307,40.262142181396484,718,7186.0,34.31067657470703,576,9833.0
10710,0.41314536333084106,51.626487731933594,964,7186.0,34.08646774291992,541,9833.0
10720,0.4135983884334564,54.55516815185547,909,7186.0,31.489864349365234,349,9833.0
10730,0.41384387016296387,39.038692474365234,698,7186.0,24.647363662719727,394,9833.0
10740,0.41565242409706116,24.578964233398438,235,7186.0,17.140108108520508,266,9833.0
10750,0.41559889912605286,3.5635602474212646,-189,7186.0,14.302129745483398,213,9833.0
10760,0.41533127427101135,-20.451148986816406,-549,7186.0,-2.7362992763519287,-69,9833.0
10770,0.4150324761867523,-43.0288200378418,-867,7186.0,-20.383800506591797,-389,9833.0
10780,0.41534772515296936,-63.78618621826172,-1164,7186.0,-33.38593292236328,-454,9833.0
10790,0.4147057831287384,-73.81359100341797,-1189,7186.0,-29.152690887451172,-534,9833.0
10800,0.4138657748699188,-69.03866577148438,-936,7186.0,-25.01570701599121,-468,9833.0
10810,0.41299739480018616,-37.55057144165039,-407,7186.0,-23.26029396057129,-349,9833.0
10820,0.4130202829837799,-1.6197932958602905,156,7186.0,-21.95794677734375,-245,9833.0
10830,0.4131423830986023,42.27003479003906,837,7186.0,-12.58505916595459,-196,9833.0
10840,0.41346457600593567,77.08678436279297,1406,7186.0,-1.598535418510437,-79,9833.0
10850,0.413407564163208,95.9700927734375,1649,7186.0,4.142332077026367,143,9833.0
10860,0.41335469484329224,90.76004791259766,1447,7186.0,17.681324005126953,354,9833.0
10870,0.41156986355781555,63.07146453857422,849,7186.0,27.210607528686523,523,9833.0
10880,0.41127294301986694,28.126741409301758,301,7186.0,32.97757339477539,599,9833.0
10890,0.4108043611049652,-1.418165683746338,-178,7186.0,43.029701232910156,815,9833.0
10900,0.4104948937892914,-24.299501419067383,-542,7186.0,51.97060012817383,909,9833.0
10910,0.4098113775253296,-33.89300537109375,-555,7186.0,53.38604736328125,824,9833.0
10920,0.41014623641967773,-40.04951858520508,-664,7186.0,32.992496490478516,297,9833.0
10930,0.40914973616600037,-42.72284698486328,-665,7186.0,4.938837051391602,49,9833.0
10940,0.40820690989494324,-44.37068557739258,-786,7186.0,-11.595903396606445,-240,9833.0
10950,0.4071166217327118,-35.42313003540039,-412,7186.0,-15.491925239562988,-242,9833.0
10960,0.40692779421806335,-9.180602073669434,-47,7186.0,-11.449524879455566,-166,9833.0
10970,0.40613919496536255,28.467369079589844,624,7186.0,-11.294312477111816,-264,9833.0
10980,0.4056031107902527,53.56245040893555,943,7186.0,-13.270149230957031,-205,9833.0
10990,0.4049750566482544,63.821529388427734,1033,7186.0,-20.485145568847656,-380,9833.0
11000,0.4039340615272522,68.4326171875,1215,7186.0,-34.313140869140625,-689,9833.0
11010,0.4035845398902893,68.66889953613281,1050,7186.0,-43.63288497924805,-714,9833.0
11020,0.4034455716609955,60.090354919433594,845,7186.0,-34.89800262451172,-419,9833.0
11030,0.4042700231075287,36.94313049316406,428,7186.0,-13.369087219238281,-134,9833.0
11040,0.40463986992836,-7.612428665161133,-306,7186.0,4.783487796783447,227,9833.0
11050,0.40560227632522583,-44.31139373779297,-837,7186.0,25.912738800048828,434,9833.0
11060,0.40618133544921875,-63.18759536743164,-1054,7186.0,39.19937515258789,664,9833.0
11070,0.40634819865226746,-59.59449005126953,-886,7186.0,47.75606918334961,820,9833.0
11080,0.40649256110191345,-38.159263610839844,-566,7186.0,50.36797332763672,831,9833.0
11090,0.40692830085754395,-22.981576919555664,-259,7186.0,35.071441650390625,367,9833.0
11100,0.40686026215553284,-5.725998878479004,-100,7186.0,9.697921752929688,162,9833.0
11110,0.40698984265327454,5.946145057678223,132,7186.0,-9.062257766723633,-396,9833.0
11120,0.40670284628868103,12.938459396362305,172,7186.0,-41.2640495300293,-870,9833.0
11130,0.40664660930633545,12.72728443145752,202,7186.0,-68.72945404052734,-1097,9833.0
11140,0.40678948163986206,13.844681739807129,321,7186.0,-77.58789825439453,-1406,9833.0
11150,0.40652745962142944,21.43115234375,424,7186.0,-79.17668151855469,-1259,9833.0
11160,0.40619412064552307,29.62980842590332,480,7186.0,-80.9143295288086,-1245,9833.0
11170,0.40573129057884216,28.59050750732422,386,7186.0,-77.25279235839844,-1126,9833.0
11180,0.4035538136959076,18.25583267211914,237,7186.0,-57.38908004760742,-791,9833.0
11190,0.40429413318634033,10.083222389221191,210,7186.0,-24.232736587524414,-246,9833.0
11200,0.404250830411911,6.60141134262085,108,7186.0,10.317657470703125,300,9833.0
11210,0.40421730279922485,-9.08827018737793,-292,7186.0,42.10361862182617,889,9833.0
11220,0.4037996232509613,-26.697010040283203,-458,7186.0,71.88557434082031,1252,9833.0
11230,0.4035895764827728,-40.24258804321289,-844,7186.0,68.40231323242188,1048,9833.0
11240,0.4034005403518677,-56.047325134277344,-918,7186.0,51.56592559814453,674,9833.0
11250,0.40304091572761536,-59.36723709106445,-979,7186.0,34.75014877319336,580,9833.0
11260,0.4025379717350006,-44.55544662475586,-447,7186.0,24.70265769958496,269,9833.0
11270,0.40073004364967346,-9.156903266906738,56,7186.0,14.925887107849121,172,9833.0
11280,0.40044400095939636,27.380346298217773,670,7186.0,-11.620718955993652,-478,9833.0
11290,0.40048009157180786,43.25028991699219,711,7186.0,-45.496368408203125,-801,9833.0
11300,0.40043485164642334,39.8544807434082,614,7186.0,-69.14815521240234,-1239,9833.0
11310,0.39911413192749023,32.13246536254883,536,7186.0,-78.46810150146484,-1362,9833.0
11320,0.39929017424583435,18.11924171447754,168,7186.0,-75.74586486816406,-1168,9833.0
11330,0.3993667662143707,0.18749478459358215,-118,7186.0,-53.4903450012207,-636,9833.0
11340,0.3995577096939087,-10.896256446838379,-215,7186.0,-25.696781158447266,-219,9833.0
11350,0.39997807145118713,-15.981255531311035,-304,7186.0,-1.1192207336425781,27,9833.0
11360,0.4003879725933075,-21.917461395263672,-245,7186.0,23.618656158447266,502,9833.0
11370,0.40086594223976135,-18.190078735351562,-243,7186.0,47.1595573425293,769,9833.0
11380,0.4011261761188507,-15.1370210647583,-142,7186.0,57.83863830566406,938,9833.0
11390,0.40118303894996643,-13.478304862976074,-251,7186.0,56.48981857299805,932,9833.0
11400,0.40117940306663513,-11.643275260925293,-256,7186.0,31.684234619140625,387,9833.0
11410,0.40116995573043823,-11.918100357055664,-93,7186.0,14.181939125061035,104,9833.0
11420,0.4011816680431366,-6.805922031402588,-95,7186.0,2.9660532474517822,41,9833.0
11430,0.40140506625175476,-1.078382134437561,-85,7186.0,-8.230118751525879,-126,9833.0
11440,0.40097901225090027,-1.1892704963684082,-2,7186.0,-10.331830024719238,-247,9833.0
11450,0.4012305736541748,-8.107616424560547,-65,7186.0,-11.631800651550293,-274,9833.0
11460,0.4015023410320282,-12.536341667175293,-288,7186.0,-9.645742416381836,-108,9833.0
11470,0.4017522931098938,-15.216852188110352,-285,7186.0,-10.546833038330078,-72,9833.0
11480,0.4020332992076874,-12.968109130859375,-204,7186.0,-2.983314275741577,44,9833.0
11490,0.40200167894363403,-8.051834106445312,-105,7186.0,11.550013542175293,202,9833.0
11500,0.40239936113357544,-4.686755657196045,7,7186.0,22.699954986572266,346,9833.0
11510,0.40269967913627625,0.7544975280761719,90,7186.0,30.417673110961914,553,9833.0
11520,0.4029100835323334,6.956760406494141,100,7186.0,40.90266036987305,720,9833.0
11530,0.40250805020332336,0.3500652015209198,-109,7186.0,19.893108367919922,193,9833.0
11540,0.4025217294692993,-6.702951431274414,-73,7186.0,-12.307639122009277,-343,9833.0
11550,0.4027007818222046,-9.568528175354004,-124,7186.0,-19.928401947021484,-235,9833.0
11560,0.4026602506637573,-3.8021790981292725,-59,7186.0,-4.526209354400635,64,9833.0
11570,0.4026651978492737,6.485929489135742,141,7186.0,17.54766273498535,374,9833.0
11580,0.4019428491592407,10.789793968200684,228,7186.0,33.008995056152344,461,9833.0
11590,0.40182211995124817,7.440789222717285,137,7186.0,24.641029357910156,340,9833.0
11600,0.4018469750881195,6.477310657501221,18,7186.0,5.7348527908325195,85,9833.0
11610,0.4019007384777069,6.775970458984375,174,7186.0,-3.7565972805023193,-234,9833.0
11620,0.40326255559921265,18.541967391967773,366,7186.0,-17.310392379760742,-296,9833.0
11630,0.4035170078277588,21.466493606567383,256,7186.0,-28.44740867614746,-442,9833.0
11640,0.40367695689201355,3.7359540462493896,39,7186.0,-25.376861572265625,-484,9833.0
11650,0.40388622879981995,-11.96981430053711,-180,7186.0,-14.133345603942871,-96,9833.0
11660,0.4047466218471527,-8.965339660644531,-195,7186.0,11.115306854248047,300,9833.0
11670,0.40455591678619385,0.497948557138443,-22,7186.0,24.448226928710938,521,9833.0
11680,0.4042121469974518,5.737950325012207,166,7186.0,25.937475204467773,301,9833.0
11690,0.40384212136268616,-1.9278253316879272,9,7186.0,11.501998901367188,96,9833.0
11700,0.4036732316017151,-13.012460708618164,-287,7186.0,-4.63458251953125,8,9833.0
11710,0.4032285511493683,-19.021121978759766,-218,7186.0,-5.618900775909424,-147,9833.0
11720,0.4030698835849762,-7.218029022216797,68,7186.0,-3.8273794651031494,-102,9833.0
11730,0.40308812260627747,9.683775901794434,159,7186.0,-10.081149101257324,-152,9833.0
11740,0.40304404497146606,10.697738647460938,108,7186.0,-20.881370544433594,-451,9833.0
11750,0.401035338640213,-3.072154998779297,-38,7186.0,-31.54903221130371,-489,9833.0
11760,0.4008587598800659,-7.020806789398193,-107,7186.0,-29.312692642211914,-409,9833.0
11770,0.4005563259124756,6.705582141876221,99,7186.0,-25.07908058166504,-360,9833.0
11780,0.40022513270378113,10.546141624450684,180,7186.0,-7.391191005706787,-75,9833.0
11790,0.39978668093681335,5.69733190536499,66,7186.0,13.174572944641113,377,9833.0
11800,0.400171160697937,3.8351595401763916,135,7186.0,27.842548370361328,490,9833.0
11810,0.3995903432369232,16.33416175842285,372,7186.0,29.44167709350586,388,9833.0
11820,0.39912205934524536,26.828248977661133,459,7186.0,23.433088302612305,462,9833.0
11830,0.3986702263355255,35.96528244018555,637,7186.0,16.819658279418945,106,9833.0
11840,0.39840009808540344,38.72056579589844,640,7186.0,7.209533214569092,110,9833.0
11850,0.39843279123306274,25.0943546295166,249,7186.0,-0.766420841217041,-19,9833.0
11860,0.39836376905441284,0.3697066605091095,-135,7186.0,-8.849654197692871,-298,9833.0
11870,0.39859330654144287,-21.86414909362793,-425,7186.0,-22.71971893310547,-452,9833.0
11880,0.39774221181869507,-34.88740158081055,-721,7186.0,-37.49327850341797,-625,9833.0
11890,0.39803722500801086,-44.39659881591797,-678,7186.0,-36.45571517944336,-626,9833.0
11900,0.39842554926872253,-38.34968948364258,-517,7186.0,-28.792919158935547,-384,9833.0
11910,0.3987793028354645,-18.150480270385742,-193,7186.0,-20.66512107849121,-177,9833.0
11920,0.39940503239631653,10.2517728805542,378,7186.0,-4.716549873352051,-54,9833.0
11930,0.3984759449958801,26.384525299072266,419,7186.0,12.853033065795898,373,9833.0
11940,0.3988458812236786,29.438072204589844,466,7186.0,21.925817489624023,267,9833.0
11950,0.3991025984287262,35.251285552978516,674,7186.0,13.510004997253418,165,9833.0
11960,0.3994205594062805,37.67905807495117,616,7186.0,1.1937782764434814,136,9833.0
11970,0.3991898000240326,32.59891891479492,390,7186.0,7.327849864959717,163,9833.0
11980,0.3994382619857788,4.875692844390869,-31,7186.0,20.541732788085938,380,9833.0
11990,0.3996753692626953,-30.75606918334961,-679,7186.0,21.47260856628418,433,9833.0
12000,0.4000391662120819,-53.11205291748047,-988,7186.0,9.795591354370117,-40,9833.0
12010,0.4004216492176056,-60.02742385864258,-905,7186.0,-12.943805694580078,-353,9833.0
12020,0.4018932580947876,-53.09737777709961,-774,7186.0,-31.53185272216797,-613,9833.0
12030,0.40245887637138367,-30.216602325439453,-363,7186.0,-36.91141891479492,-689,9833.0
12040,0.40284019708633423,-10.809675216674805,-160,7186.0,-28.5080509185791,-309,9833.0
12050,0.40344125032424927,3.5006492137908936,143,7186.0,-8.02722454071045,-156,9833.0
12060,0.402794748544693,20.553659439086914,399,7186.0,11.132296562194824,350,9833.0
12070,0.40316689014434814,27.575754165649414,396,7186.0,19.618865966796875,338,9833.0
12080,0.4034172594547272,24.64686393737793,412,7186.0,12.052943229675293,160,9833.0
12090,0.40343567728996277,20.507125854492188,269,7186.0,-2.055338144302368,-25,9833.0
12100,0.40207597613334656,12.440030097961426,135,7186.0,-22.756322860717773,-493,9833.0
12110,0.4019987881183624,1.3665894269943237,59,7186.0,-23.55183219909668,-355,9833.0
12120,0.40191563963890076,-1.7151248455047607,-55,7186.0,-13.154234886169434,-102,9833.0
12130,0.40189602971076965,8.971819877624512,225,7186.0,5.255175590515137,53,9833.0
12140,0.40192753076553345,18.799392700195312,387,7186.0,16.67731285095215,342,9833.0
12150,0.40320539474487305,21.017112731933594,359,7186.0,10.080859184265137,189,9833.0
12160,0.4033765196800232,29.003257751464844,405,7186.0,5.38011360168457,56,9833.0
12170,0.4036257565021515,9.281707763671875,99,7186.0,12.743507385253906,212,9833.0
12180,0.40397652983665466,-13.003154754638672,-258,7186.0,28.883047103881836,502,9833.0
12190,0.4071474075317383,-19.09456443786621,-329,7186.0,36.7581787109375,506,9833.0
12200,0.40772745013237,-19.211284637451172,-271,7186.0,32.022552490234375,560,9833.0
12210,0.4081951081752777,-14.752398490905762,-226,7186.0,28.575366973876953,320,9833.0
12220,0.4089075028896332,-3.0611824989318848,111,7186.0,16.56546401977539,255,9833.0
12230,0.410340815782547,14.978805541992188,316,7186.0,5.5257568359375,-34,9833.0
12240,0.4106466472148895,39.16461944580078,744,7186.0,4.061092853546143,158,9833.0
12250,0.41083312034606934,54.709651947021484,855,7186.0,-2.672929525375366,-130,9833.0
12260,0.4110165536403656,55.44287872314453,967,7186.0,-18.183650970458984,-497,9833.0
12270,0.4108918607234955,48.792205810546875,629,7186.0,-42.59097671508789,-690,9833.0
12280,0.41271573305130005,27.180753707885742,258,7186.0,-41.021766662597656,-580,9833.0
12290,0.41249844431877136,0.269255667924881,-73,7186.0,-26.129932403564453,-425,9833.0
12300,0.41266486048698425,-15.213632583618164,-222,7186.0,-16.451637268066406,-271,9833.0
12310,0.41296806931495667,-19.823354721069336,-421,7186.0,-11.008280754089355,-116,9833.0
12320,0.41602084040641785,-33.42360305786133,-681,7186.0,-10.628612518310547,-58,9833.0
12330,0.4163467288017273,-43.53398895263672,-793,7186.0,8.288676261901855,269,9833.0
12340,0.41658815741539,-45.06174850463867,-727,7186.0,37.223175048828125,714,9833.0
12350,0.4168616533279419,-49.74778747558594,-792,7186.0,58.59738540649414,1050,9833.0
12360,0.4170030951499939,-40.3519287109375,-638,7186.0,64.96354675292969,1025,9833.0
12370,0.4201871454715729,-23.218360900878906,-200,7186.0,53.6411247253418,744,9833.0
12380,0.42098042368888855,0.7137609124183655,75,7186.0,28.453182220458984,224,9833.0
12390,0.42134833335876465,23.60302734375,573,7186.0,-4.016523361206055,-222,9833.0
12400,0.42175453901290894,44.969207763671875,757,7186.0,-30.917211532592773,-574,9833.0
12410,0.4232906997203827,58.02194595336914,1003,7186.0,-47.674896240234375,-963,9833.0
12420,0.42356717586517334,56.11023712158203,915,7186.0,-53.224029541015625,-845,9833.0
12430,0.423714816570282,43.975643157958984,593,7186.0,-45.444278717041016,-634,9833.0
12440,0.4240519404411316,16.73876190185547,66,7186.0,-36.968345642089844,-481,9833.0
12450,0.4241913855075836,-10.05116081237793,-255,7186.0,-20.15930938720703,-144,9833.0
12460,0.4248965084552765,-22.119077682495117,-389,7186.0,5.062072277069092,240,9833.0
12470,0.4254014790058136,-32.242000579833984,-532,7186.0,26.47209930419922,498,9833.0
12480,0.4258532226085663,-31.622026443481445,-451,7186.0,43.67339324951172,733,9833.0
12490,0.4259985089302063,-30.209392547607422,-353,7186.0,51.51802444458008,827,9833.0
12500,0.42483049631118774,-23.256555557250977,-359,7186.0,52.05475616455078,873,9833.0
12510,0.4246557354927063,-17.28860855102539,-249,7186.0,44.448143005371094,591,9833.0
12520,0.4244091808795929,-4.726921558380127,45,7186.0,35.29520034790039,452,9833.0
12530,0.4241374135017395,5.156811237335205,113,7186.0,13.69336986541748,176,9833.0
12540,0.4249155819416046,1.0827091932296753,-63,7186.0,-12.686161041259766,-406,9833.0
12550,0.42455363273620605,-10.816288948059082,-149,7186.0,-35.127017974853516,-695,9833.0
12560,0.4241175651550293,-12.816168785095215,-256,7186.0,-48.643394470214844,-801,9833.0
12570,0.4235493242740631,-12.143450736999512,-171,7186.0,-57.745460510253906,-869,9833.0
12580,0.42320141196250916,-7.694579601287842,-120,7186.0,-50.53168487548828,-715,9833.0
12590,0.4232994318008423,-16.97273063659668,-270,7186.0,-23.185012817382812,-354,9833.0
12600,0.4228660464286804,-24.271709442138672,-346,7186.0,0.29986780881881714,72,9833.0
12610,0.4230566620826721,-21.95857048034668,-449,7186.0,22.404659271240234,458,9833.0
12620,0.4230805039405823,-23.518722534179688,-314,7186.0,35.591094970703125,752,9833.0
12630,0.4213712215423584,-16.718578338623047,-224,7186.0,47.0683479309082,856,9833.0
12640,0.4211690425872803,-7.760091781616211,17,7186.0,51.08272171020508,710,9833.0
12650,0.4209881126880646,5.517138957977295,122,7186.0,47.51012420654297,784,9833.0
12660,0.42037954926490784,16.88264274597168,260,7186.0,38.33082580566406,662,9833.0
12670,0.4196910858154297,19.68106460571289,400,7186.0,28.366472244262695,324,9833.0
12680,0.41815245151519775,21.330453872680664,330,7186.0,15.477970123291016,196,9833.0
12690,0.4172743260860443,19.710525512695312,235,7186.0,-0.1874631941318512,24,9833.0
12700,0.4164164364337921,6.789107799530029,-38,7186.0,-13.2493314743042,-248,9833.0
12710,0.41561755537986755,-8.782697677612305,-134,7186.0,-24.793563842773438,-498,9833.0
12720,0.4128164052963257,-2.7345004081726074,56,7186.0,-39.880741119384766,-663,9833.0
12730,0.41173112392425537,6.856180191040039,158,7186.0,-40.582916259765625,-635,9833.0
12740,0.4107659161090851,27.389392852783203,479,7186.0,-40.20370101928711,-597,9833.0
12750,0.40974611043930054,41.357322692871094,672,7186.0,-33.79301834106445,-510,9833.0
12760,0.4093520939350128,39.0675048828125,618,7186.0,-22.481046676635742,-340,9833.0
12770,0.40871864557266235,18.033946990966797,226,7186.0,-3.0538275241851807,58,9833.0
12780,0.4085504710674286,-1.9214757680892944,-97,7186.0,29.802364349365234,501,9833.0
12790,0.4080911874771118,-20.98499870300293,-296,7186.0,51.32720184326172,863,9833.0
12800,0.407675564289093,-15.99167251586914,-200,7186.0,72.90312194824219,1318,9833.0
12810,0.40563127398490906,-11.303686141967773,-107,7186.0,82.74908447265625,1442,9833.0
12820,0.4049663543701172,-9.698556900024414,-232,7186.0,71.52638244628906,1056,9833.0
12830,0.40438318252563477,-9.42725944519043,-97,7186.0,39.65101623535156,402,9833.0
12840,0.4050884246826172,-9.040960311889648,-167,7186.0,-3.0791056156158447,-211,9833.0
12850,0.40370962023735046,-11.55260944366455,-137,7186.0,-40.79174041748047,-827,9833.0
12860,0.4035494923591614,-2.9422607421875,3,7186.0,-71.9878158569336,-1251,9833.0
12870,0.40342554450035095,6.01987886428833,45,7186.0,-88.64447021484375,-1490,9833.0
12880,0.4037095308303833,10.234786987304688,222,7186.0,-91.10643005371094,-1523,9833.0
12890,0.4020615220069885,13.915203094482422,241,7186.0,-88.75914001464844,-1473,9833.0
12900,0.4023360311985016,-0.6174712777137756,-135,7186.0,-82.03197479248047,-1194,9833.0
12910,0.40273553133010864,-16.67497444152832,-385,7186.0,-57.534671783447266,-743,9833.0
12920,0.4042578637599945,-23.8199520111084,-409,7186.0,-28.90398406982422,-309,9833.0
12930,0.4048618972301483,-20.182584762573242,-226,7186.0,-4.172813892364502,7,9833.0
12940,0.4012637138366699,-12.684722900390625,-147,7186.0,25.830955505371094,512,9833.0
12950,0.40215304493904114,-3.9083964824676514,54,7186.0,60.45465850830078,1100,9833.0
12960,0.40279361605644226,9.439800262451172,267,7186.0,94.81800079345703,1622,9833.0
12970,0.4034590721130371,10.647436141967773,112,7186.0,97.23719024658203,1603,9833.0
12980,0.4025971591472626,3.75431752204895,51,7186.0,81.74083709716797,1298,9833.0
12990,0.4028852581977844,1.085877537727356,-40,7186.0,55.49309158325195,780,9833.0
13000,0.40359219908714294,0.6194444298744202,67,7186.0,30.34060287475586,472,9833.0
13010,0.4036809504032135,8.811491966247559,76,7186.0,-0.15843825042247772,-152,9833.0
13020,0.4040377140045166,5.538131237030029,83,7186.0,-38.275413513183594,-839,9833.0
13030,0.402201384305954,0.4512893557548523,137,7186.0,-64.21990203857422,-1122,9833.0
13040,0.40219390392303467,7.9876861572265625,109,7186.0,-81.57884979248047,-1370,9833.0
13050,0.4023298919200897,4.307827472686768,28,7186.0,-94.19498443603516,-1479,9833.0
13060,0.4024372696876526,-7.167015552520752,-211,7186.0,-91.080810546875,-1484,9833.0
13070,0.40076515078544617,-23.333206176757812,-410,7186.0,-76.46002960205078,-1118,9833.0
13080,0.4017382562160492,-38.02732467651367,-597,7186.0,-47.518226623535156,-673,9833.0
13090,0.4018571674823761,-36.47678756713867,-450,7186.0,-12.112153053283691,21,9833.0
13100,0.40212246775627136,-27.469711303710938,-336,7186.0,22.936491012573242,554,9833.0
13110,0.39894798398017883,-9.564462661743164,-147,7186.0,52.709022521972656,1019,9833.0
13120,0.39898166060447693,0.6409459114074707,38,7186.0,77.0320816040039,1344,9833.0
13130,0.39917802810668945,5.212118148803711,63,7186.0,87.69603729248047,1376,9833.0
13140,0.3992175757884979,6.744075298309326,167,7186.0,75.66654205322266,927,9833.0
13150,0.3991623520851135,-0.0875677689909935,6,7186.0,36.26704406738281,445,9833.0
13160,0.39807915687561035,-7.637486457824707,-135,7186.0,2.875446081161499,-79,9833.0
13170,0.3977528512477875,-2.5670955181121826,21,7186.0,-15.50367259979248,-394,9833.0
13180,0.39749759435653687,10.253142356872559,278,7186.0,-23.044958114624023,-444,9833.0
13190,0.39723578095436096,17.91177749633789,272,7186.0,-38.404327392578125,-624,9833.0
13200,0.39468953013420105,24.08229637145996,342,7186.0,-52.20987319946289,-888,9833.0
13210,0.3944236636161804,13.69778823852539,166,7186.0,-57.844051361083984,-975,9833.0
13220,0.39435505867004395,-1.7961790561676025,-3,7186.0,-58.18364715576172,-995,9833.0
13230,0.39418914914131165,-4.983297824859619,-67,7186.0,-43.55685806274414,-623,9833.0
13240,0.394265353679657,-4.347602367401123,-50,7186.0,-6.135217189788818,90,9833.0
13250,0.39237114787101746,1.7448902130126953,24,7186.0,32.53864669799805,641,9833.0
13260,0.39239898324012756,3.556912422180176,13,7186.0,50.29426574707031,901,9833.0
13270,0.3923976421356201,5.725223541259766,52,7186.0,58.28160095214844,1047,9833.0
13280,0.3923810124397278,4.5630083084106445,94,7186.0,67.03040313720703,1026,9833.0
13290,0.39017102122306824,0.7259088754653931,2,7186.0,57.3631591796875,798,9833.0
13300,0.3899312913417816,-0.07293380796909332,-27,7186.0,33.45924758911133,507,9833.0
13310,0.38963088393211365,-0.7713748812675476,-49,7186.0,4.991987705230713,-127,9833.0
13320,0.38943397998809814,-2.382162094116211,-14,7186.0,-16.822479248046875,-244,9833.0
13330,0.38689783215522766,-5.406569480895996,-124,7186.0,-24.003862380981445,-401,9833.0
13340,0.3867267966270447,7.967321872711182,266,7186.0,-33.75341796875,-663,9833.0
13350,0.3866061270236969,24.221397399902344,410,7186.0,-42.89129638671875,-618,9833.0
13360,0.38662105798721313,25.10040283203125,345,7186.0,-44.77045822143555,-787,9833.0
13370,0.3867770731449127,15.907371520996094,265,7186.0,-40.16244125366211,-646,9833.0
13380,0.38660338521003723,0.7576569318771362,-61,7186.0,-20.62834358215332,-244,9833.0
13390,0.38704144954681396,-4.287429332733154,-98,7186.0,2.6096909046173096,256,9833.0
13400,0.3874281644821167,-2.5731494426727295,-82,7186.0,28.270978927612305,555,9833.0
13410,0.3877245783805847,9.292964935302734,362,7186.0,46.46183395385742,727,9833.0
13420,0.38605859875679016,24.31620979309082,438,7186.0,56.03807830810547,948,9833.0
13430,0.38608115911483765,18.27899932861328,148,7186.0,57.41797637939453,943,9833.0
13440,0.3860372006893158,-2.4902045726776123,-110,7186.0,41.55244827270508,508,9833.0
13450,0.3866002559661865,-7.760914325714111,-60,7186.0,15.824644088745117,173,9833.0
13460,0.38657087087631226,10.665079116821289,235,7186.0,-6.699644088745117,-218,9833.0
13470,0.3854990303516388,25.682260513305664,466,7186.0,-25.828296661376953,-491,9833.0
13480,0.3854381740093231,14.192499160766602,105,7186.0,-38.508506774902344,-603,9833.0
13490,0.38543426990509033,-15.514922142028809,-413,7186.0,-35.21535110473633,-560,9833.0
13500,0.3855149745941162,-41.750179290771484,-736,7186.0,-33.86524200439453,-615,9833.0
13510,0.38385239243507385,-58.394718170166016,-957,7186.0,-34.380523681640625,-487,9833.0
13520,0.3838765025138855,-56.27803421020508,-900,7186.0,-33.17454147338867,-506,9833.0
13530,0.3838635981082916,-41.36272048950195,-576,7186.0,-22.294132232666016,-333,9833.0
13540,0.38421177864074707,-13.353099822998047,-34,7186.0,-3.7175238132476807,22,9833.0
13550,0.38288772106170654,15.54111099243164,368,7186.0,17.892208099365234,444,9833.0
13560,0.38303107023239136,37.454322814941406,684,7186.0,34.51384735107422,539,9833.0
13570,0.3831038773059845,45.04158401489258,817,7186.0,53.1331672668457,941,9833.0
13580,0.3831780254840851,43.54137420654297,654,7186.0,58.8444938659668,1006,9833.0
13590,0.38309207558631897,40.919700622558594,753,7186.0,49.44770050048828,643,9833.0
13600,0.3835383653640747,45.38445281982422,826,7186.0,29.46213150024414,457,9833.0
13610,0.38373062014579773,46.433719635009766,638,7186.0,16.738479614257812,265,9833.0
13620,0.38424354791641235,23.47527503967285,298,7186.0,4.243320941925049,-137,9833.0
13630,0.3845711648464203,-7.396567344665527,-211,7186.0,-13.195103645324707,-293,9833.0
13640,0.3849562704563141,-37.01502227783203,-770,7186.0,-40.22670364379883,-654,9833.0
13650,0.38539573550224304,-56.6550407409668,-1050,7186.0,-61.241451263427734,-1153,9833.0
13660,0.38555803894996643,-75.87870788574219,-1259,7186.0,-69.12982177734375,-1151,9833.0
13670,0.3856622576713562,-78.94786071777344,-1267,7186.0,-60.383480072021484,-785,9833.0
13680,0.3856026828289032,-63.44063186645508,-877,7186.0,-46.924522399902344,-715,9833.0
13690,0.38440409302711487,-41.25810623168945,-538,7186.0,-29.456222534179688,-409,9833.0
13700,0.3851790428161621,-22.549280166625977,-308,7186.0,-6.378612041473389,93,9833.0
13710,0.38554829359054565,-4.637243747711182,-56,7186.0,26.389137268066406,496,9833.0
13720,0.3859294056892395,13.42189884185791,425,7186.0,48.990535736083984,878,9833.0
13730,0.38477280735969543,45.48387145996094,937,7186.0,55.43415451049805,875,9833.0
13740,0.38520967960357666,78.86759185791016,1426,7186.0,42.95147705078125,570,9833.0
13750,0.38550668954849243,88.505615234375,1404,7186.0,27.18267250061035,360,9833.0
13760,0.3860357105731964,70.34992218017578,970,7186.0,-0.6414327025413513,-246,9833.0
13770,0.3847252428531647,30.62738609313965,343,7186.0,-32.82068634033203,-816,9833.0
13780,0.38552165031433105,-11.654297828674316,-285,7186.0,-57.5131950378418,-939,9833.0
13790,0.38623249530792236,-34.871559143066406,-666,7186.0,-61.47065353393555,-903,9833.0
13800,0.38695237040519714,-39.17607879638672,-695,7186.0,-50.29497146606445,-592,9833.0
13810,0.38761162757873535,-35.91651916503906,-639,7186.0,-23.85563087463379,-243,9833.0
13820,0.38505837321281433,-32.69393539428711,-469,7186.0,-1.6847208738327026,32,9833.0
13830,0.38554927706718445,-24.117271423339844,-194,7186.0,23.449296951293945,575,9833.0
13840,0.38608378171920776,-6.649660110473633,-65,7186.0,50.734413146972656,846,9833.0
13850,0.3865431249141693,-1.381890058517456,-117,7186.0,47.660545349121094,683,9833.0
13860,0.386231929063797,-9.516600608825684,-257,7186.0,29.6419620513916,386,9833.0
13870,0.3863743841648102,-19.388277053833008,-334,7186.0,18.058246612548828,319,9833.0
13880,0.3865222632884979,-11.552120208740234,-26,7186.0,16.43975067138672,149,9833.0
13890,0.3866071403026581,11.459736824035645,274,7186.0,2.3620615005493164,-88,9833.0
13900,0.3866560161113739,27.842212677001953,353,7186.0,-22.481348037719727,-386,9833.0
13910,0.3864125609397888,15.247162818908691,76,7186.0,-46.94123840332031,-729,9833.0
13920,0.3862711191177368,0.7560083866119385,14,7186.0,-53.88982009887695,-854,9833.0
13930,0.3861243724822998,9.35198974609375,281,7186.0,-48.828922271728516,-791,9833.0
13940,0.3862188458442688,12.984661102294922,247,7186.0,-26.978178024291992,-353,9833.0
13950,0.3854866623878479,13.085319519042969,242,7186.0,8.397144317626953,207,9833.0
13960,0.38581836223602295,10.420282363891602,248,7186.0,43.69496536254883,741,9833.0
13970,0.38650479912757874,-8.260858535766602,-230,7186.0,69.41320037841797,1218,9833.0
13980,0.38705193996429443,-25.844200134277344,-479,7186.0,84.62165832519531,1436,9833.0
13990,0.38636553287506104,-27.613834381103516,-466,7186.0,79.041748046875,1337,9833.0
14000,0.3866294324398041,-19.407196044921875,-233,7186.0,60.03786849975586,749,9833.0
14010,0.3869727849960327,-7.621994495391846,-27,7186.0,27.325660705566406,363,9833.0
14020,0.3872314393520355,9.868216514587402,199,7186.0,-7.563607215881348,-268,9833.0
