timestamp,kalman.stateZ,gyro.x,gyro.xRaw,gyro.xVariance,gyro.y,gyro.yRaw,gyro.yVariance
0,0.3107272982597351,-1.9983845949172974,-34,9524.0,4.592856407165527,61,9984.0
10,0.31085747480392456,-2.7665963172912598,-50,9524.0,2.439270496368408,17,9984.0
20,0.3111414909362793,-2.3024468421936035,-24,9524.0,-0.10888691991567612,-11,9984.0
30,0.3112945556640625,-1.3064634799957275,-7,9524.0,-1.8074395656585693,-32,9984.0
40,0.3114481270313263,0.0706290528178215,15,9524.0,-3.399972438812256,-82,9984.0
50,0.31161633133888245,3.0335195064544678,59,9524.0,-7.951429843902588,-175,9984.0
60,0.3100779056549072,5.188475608825684,82,9524.0,-17.574569702148438,-341,9984.0
70,0.31001490354537964,4.2752838134765625,38,9524.0,-28.395206451416016,-499,9984.0
80,0.3101712763309479,3.797485589981079,53,9524.0,-39.65132522583008,-743,9984.0
90,0.3102417588233948,3.9399590492248535,104,9524.0,-54.499671936035156,-988,9984.0
100,0.31050050258636475,4.943730354309082,44,9524.0,-68.0329818725586,-1207,9984.0
110,0.3089650869369507,3.2662672996520996,86,9524.0,-86.17330932617188,-1530,9984.0
120,0.3086683750152588,0.7799531817436218,-20,9524.0,-98.4179916381836,-1590,9984.0
130,0.3086625635623932,4.016754150390625,125,9524.0,-96.69944763183594,-1578,9984.0
140,0.30836591124534607,12.066106796264648,293,9524.0,-85.99446868896484,-1408,9984.0
150,0.30989283323287964,19.376371383666992,381,9524.0,-64.33528137207031,-1117,9984.0
160,0.3100377023220062,20.862947463989258,379,9524.0,-36.087982177734375,-427,9984.0
170,0.3108474612236023,16.986642837524414,198,9524.0,-3.012017250061035,122,9984.0
180,0.31177791953086853,0.6836429834365845,-30,9524.0,26.34539222717285,309,9984.0
190,0.3121914267539978,-7.931515216827393,-163,9524.0,36.028079986572266,581,9984.0
200,0.31529420614242554,-18.129039764404297,-356,9524.0,40.46476364135742,554,9984.0
210,0.3159104287624359,-15.893769264221191,-125,9524.0,30.264963150024414,245,9984.0
220,0.3164478540420532,-5.901861667633057,-32,9524.0,14.78115177154541,126,9984.0
230,0.31693366169929504,4.904216289520264,72,9524.0,-1.0397893190383911,84,9984.0
240,0.31619444489479065,15.423955917358398,251,9524.0,-7.062414646148682,-219,9984.0
250,0.3165208697319031,22.36225128173828,377,9524.0,-19.002819061279297,-324,9984.0
260,0.3167244791984558,15.098628044128418,327,9524.0,-26.705514907836914,-522,9984.0
270,0.31726694107055664,4.821580410003662,-42,9524.0,-32.818992614746094,-416,9984.0
280,0.3176206350326538,-8.697585105895996,-141,9524.0,-34.42319107055664,-622,9984.0
290,0.3179764449596405,-17.476036071777344,-343,9524.0,-34.00383377075195,-600,9984.0
300,0.3183842897415161,-20.956270217895508,-269,9524.0,-31.913118362426758,-600,9984.0
310,0.31911084055900574,-16.576702117919922,-275,9524.0,-26.774045944213867,-310,9984.0
320,0.3199649751186371,-5.616621017456055,-29,9524.0,-14.575282096862793,-97,9984.0
330,0.3198463022708893,11.036395072937012,205,9524.0,-3.6415042877197266,-164,9984.0
340,0.3208088278770447,15.577061653137207,315,9524.0,12.903993606567383,258,9984.0
350,0.3216182291507721,14.110071182250977,282,9524.0,26.03656768798828,561,9984.0
360,0.32270267605781555,8.904624938964844,65,9524.0,35.12511444091797,569,9984.0
370,0.32295775413513184,1.4542726278305054,-45,9524.0,34.69803237915039,534,9984.0
380,0.32403233647346497,-3.252239227294922,-10,9524.0,21.8006649017334,216,9984.0
390,0.3250170052051544,-10.205517768859863,-200,9524.0,10.93249797821045,172,9984.0
400,0.3259078562259674,-16.170331954956055,-295,9524.0,2.8401026725769043,141,9984.0
410,0.3266696333885193,-13.229641914367676,-162,9524.0,6.208029270172119,127,9984.0
420,0.3263760209083557,-2.148275375366211,103,9524.0,12.62069320678711,251,9984.0
430,0.326813668012619,16.393213272094727,313,9524.0,7.9982194900512695,164,9984.0
440,0.3273325264453888,29.00974464416504,420,9524.0,-2.1339657306671143,-173,9984.0
450,0.327551931142807,25.50499153137207,453,9524.0,-11.522883415222168,-196,9984.0
460,0.32528528571128845,17.114816665649414,242,9524.0,-19.31246566772461,-293,9984.0
470,0.32512158155441284,1.2048934698104858,-132,9524.0,-17.102170944213867,-269,9984.0
480,0.3249340355396271,-14.497867584228516,-287,9524.0,-4.399144172668457,-52,9984.0
490,0.324797660112381,-26.248010635375977,-368,9524.0,11.625765800476074,244,9984.0
500,0.32343927025794983,-31.766845703125,-535,9524.0,27.61006736755371,611,9984.0
510,0.32328012585639954,-28.595550537109375,-546,9524.0,37.83979797363281,549,9984.0
520,0.3233307898044586,-16.76683807373047,-130,9524.0,32.505157470703125,499,9984.0
530,0.3232989013195038,-1.6951820850372314,24,9524.0,12.448710441589355,112,9984.0
540,0.32358264923095703,10.264044761657715,165,9524.0,-10.458040237426758,-315,9984.0
550,0.323841392993927,18.17162322998047,385,9524.0,-28.60085678100586,-437,9984.0
560,0.32443585991859436,21.121679306030273,269,9524.0,-37.320838928222656,-616,9984.0
570,0.3252168893814087,16.364519119262695,197,9524.0,-38.44929122924805,-704,9984.0
580,0.3259654939174652,7.551416397094727,116,9524.0,-29.484947204589844,-310,9984.0
590,0.3261924684047699,-2.0628879070281982,-61,9524.0,-17.080007553100586,-129,9984.0
600,0.32694074511528015,-8.048521041870117,-227,9524.0,-9.25252628326416,-126,9984.0
610,0.327697217464447,-12.689096450805664,-252,9524.0,-6.177969932556152,-206,9984.0
620,0.32869210839271545,-13.102052688598633,-149,9524.0,-9.31454849243164,-144,9984.0
630,0.3295759856700897,-9.536213874816895,-18,9524.0,-3.3833096027374268,66,9984.0
640,0.3300832509994507,6.34778356552124,51,9524.0,10.077030181884766,370,9984.0
650,0.33084094524383545,11.838786125183105,165,9524.0,31.785451889038086,602,9984.0
660,0.33135777711868286,15.716959953308105,432,9524.0,36.84211349487305,476,9984.0
670,0.331712543964386,22.892837524414062,398,9524.0,33.29072952270508,531,9984.0
680,0.3315713107585907,26.555532455444336,331,9524.0,20.511810302734375,204,9984.0
690,0.33184319734573364,16.37672996520996,263,9524.0,2.643036365509033,-102,9984.0
700,0.33182957768440247,0.8669055700302124,-90,9524.0,-9.132134437561035,-205,9984.0
710,0.3320326507091522,-18.888113021850586,-471,9524.0,-15.328763961791992,-117,9984.0
720,0.33219823241233826,-30.17677879333496,-449,9524.0,-22.06560707092285,-452,9984.0
730,0.32989442348480225,-27.479171752929688,-351,9524.0,-26.837080001831055,-563,9984.0
740,0.32951316237449646,-19.177400588989258,-176,9524.0,-31.358043670654297,-422,9984.0
750,0.3291974365711212,-5.846681594848633,-69,9524.0,-31.679397583007812,-531,9984.0
760,0.32862022519111633,9.211005210876465,167,9524.0,-29.28426742553711,-545,9984.0
770,0.32706958055496216,19.48786735534668,402,9524.0,-17.141544342041016,-242,9984.0
780,0.32689544558525085,24.44197654724121,395,9524.0,2.7304036617279053,254,9984.0
790,0.32693466544151306,19.69092559814453,218,9524.0,17.541969299316406,354,9984.0
800,0.32703807950019836,8.675813674926758,43,9524.0,22.194746017456055,247,9984.0
810,0.32674580812454224,-8.439075469970703,-150,9524.0,20.959524154663086,289,9984.0
820,0.32699960470199585,-19.848217010498047,-368,9524.0,16.64051628112793,405,9984.0
830,0.32745715975761414,-24.785837173461914,-436,9524.0,8.724138259887695,130,9984.0
840,0.32793307304382324,-23.200103759765625,-338,9524.0,0.9881896376609802,-170,9984.0
850,0.32848572731018066,-18.887649536132812,-287,9524.0,-9.099761962890625,-146,9984.0
860,0.32781124114990234,-13.790502548217773,-220,9524.0,-13.412325859069824,-195,9984.0
870,0.32853513956069946,-6.936302185058594,-24,9524.0,-8.469552993774414,-262,9984.0
880,0.3293762803077698,3.6475720405578613,76,9524.0,-0.02905379980802536,183,9984.0
890,0.3301239013671875,9.705694198608398,174,9524.0,5.839483737945557,69,9984.0
900,0.3307540714740753,18.340118408203125,358,9524.0,2.882267951965332,-26,9984.0
910,0.3313496708869934,18.80095100402832,190,9524.0,-10.949576377868652,-164,9984.0
920,0.3319043219089508,14.378539085388184,180,9524.0,-12.051706314086914,-122,9984.0
930,0.3322640657424927,5.990273475646973,171,9524.0,-3.1018030643463135,-34,9984.0
940,0.33114132285118103,2.103174924850464,11,9524.0,2.017913341522217,54,9984.0
950,0.33108729124069214,1.571523666381836,-44,9524.0,3.901153802871704,39,9984.0
960,0.3308541178703308,-5.998054027557373,-71,9524.0,3.5397090911865234,57,9984.0
970,0.3308935761451721,-8.781590461730957,-195,9524.0,3.1415371894836426,152,9984.0
980,0.3303734064102173,-9.424505233764648,-208,9524.0,3.298090696334839,12,9984.0
990,0.3282673954963684,-6.9251532554626465,-87,9524.0,1.9466533660888672,-17,9984.0
1000,0.3277309238910675,-3.792491912841797,-15,9524.0,-0.4555707275867462,63,9984.0
1010,0.3277398645877838,3.2439687252044678,93,9524.0,-0.9952389001846313,-52,9984.0
1020,0.32755571603775024,13.514141082763672,287,9524.0,-4.757066249847412,-182,9984.0
1030,0.3280744254589081,22.795156478881836,400,9524.0,-5.613580226898193,71,9984.0
1040,0.3281451463699341,23.655506134033203,308,9524.0,-2.1317672729492188,28,9984.0
1050,0.3283335566520691,10.852090835571289,175,9524.0,0.009968099184334278,-119,9984.0
1060,0.32859593629837036,-4.627007484436035,-114,9524.0,2.312166213989258,-7,9984.0
1070,0.32797226309776306,-16.658082962036133,-414,9524.0,3.145313262939453,179,9984.0
1080,0.3284074664115906,-27.861635208129883,-568,9524.0,9.007909774780273,250,9984.0
1090,0.32892510294914246,-36.44065856933594,-553,9524.0,17.322643280029297,158,9984.0
1100,0.32961246371269226,-46.076847076416016,-802,9524.0,13.79855728149414,252,9984.0
1110,0.33131805062294006,-46.64450454711914,-778,9524.0,6.507236957550049,98,9984.0
1120,0.32906678318977356,-32.38136672973633,-333,9524.0,0.9751342535018921,-24,9984.0
1130,0.33091187477111816,-7.44455623626709,-110,9524.0,-0.2255157232284546,-2,9984.0
1140,0.3309860825538635,11.194568634033203,405,9524.0,3.7198405265808105,43,9984.0
1150,0.3319895565509796,28.806093215942383,453,9524.0,-4.152450084686279,-118,9984.0
1160,0.33155903220176697,32.47468948364258,523,9524.0,-18.77716636657715,-415,9984.0
1170,0.3322252333164215,36.12938690185547,606,9524.0,-22.750486373901367,-209,9984.0
1180,0.3321264386177063,34.32319259643555,522,9524.0,-17.826017379760742,-354,9984.0
1190,0.3325748145580292,25.685001373291016,462,9524.0,-4.936677932739258,-17,9984.0
1200,0.3328295350074768,21.631031036376953,285,9524.0,9.525091171264648,228,9984.0
1210,0.33314278721809387,15.30738639831543,127,9524.0,18.84129524230957,356,9984.0
1220,0.3332696259021759,5.959347724914551,121,9524.0,28.711523056030273,433,9984.0
1230,0.333423912525177,0.5617389678955078,-66,9524.0,27.309057235717773,565,9984.0
1240,0.33348900079727173,-7.539392471313477,-197,9524.0,22.607873916625977,325,9984.0
1250,0.33094820380210876,-14.361661911010742,-231,9524.0,10.495749473571777,84,9984.0
1260,0.3309013545513153,-17.27757453918457,-309,9524.0,-0.21675433218479156,-57,9984.0
1270,0.3308098018169403,-12.727235794067383,-231,9524.0,-8.50340461730957,-160,9984.0
1280,0.3308749496936798,-10.23689079284668,-36,9524.0,-11.014622688293457,-193,9984.0
1290,0.32908380031585693,-4.542074680328369,-71,9524.0,-13.729155540466309,-230,9984.0
1300,0.3291652202606201,2.3396708965301514,76,9524.0,-14.39323616027832,-426,9984.0
1310,0.3294450342655182,10.159017562866211,233,9524.0,-18.427005767822266,-176,9984.0
1320,0.3299519717693329,5.0402092933654785,-20,9524.0,-14.139610290527344,-141,9984.0
1330,0.330531507730484,-9.253604888916016,-265,9524.0,-4.820245265960693,-181,9984.0
1340,0.32920098304748535,-23.14619255065918,-421,9524.0,-0.9413228631019592,-71,9984.0
1350,0.3298477232456207,-33.46219253540039,-524,9524.0,-8.604877471923828,-163,9984.0
1360,0.3305383622646332,-26.528154373168945,-483,9524.0,-11.305952072143555,-87,9984.0
1370,0.33136042952537537,-12.64220142364502,-49,9524.0,-0.5830791592597961,-37,9984.0
1380,0.33010005950927734,10.285198211669922,302,9524.0,10.653690338134766,334,9984.0
1390,0.3305121660232544,34.16822814941406,563,9524.0,20.850866317749023,300,9984.0
1400,0.33073532581329346,50.44635772705078,899,9524.0,24.213069915771484,421,9984.0
1410,0.33067891001701355,54.68014907836914,909,9524.0,21.246292114257812,371,9984.0
1420,0.33023691177368164,49.133934020996094,812,9524.0,11.632913589477539,-11,9984.0
1430,0.3297916352748871,31.69928550720215,405,9524.0,1.4587492942810059,11,9984.0
1440,0.3290753662586212,11.947420120239258,83,9524.0,-7.4989333152771,-49,9984.0
1450,0.32865431904792786,-3.3430871963500977,-79,9524.0,-15.891167640686035,-381,9984.0
1460,0.3277502655982971,-15.804258346557617,-243,9524.0,-21.691181182861328,-332,9984.0
1470,0.32639676332473755,-21.927284240722656,-460,9524.0,-20.38656997680664,-247,9984.0
1480,0.3253946602344513,-22.926599502563477,-411,9524.0,-11.433963775634766,-212,9984.0
1490,0.3245530426502228,-19.59554100036621,-250,9524.0,-4.138343334197998,-67,9984.0
1500,0.3237244486808777,-16.591432571411133,-182,9524.0,-3.0218722820281982,-16,9984.0
1510,0.3253740668296814,-9.727449417114258,-189,9524.0,-6.143076419830322,-121,9984.0
1520,0.32506194710731506,-6.571526527404785,-67,9524.0,-11.192055702209473,-244,9984.0
1530,0.32486119866371155,3.2904534339904785,35,9524.0,-18.08557891845703,-194,9984.0
1540,0.32477638125419617,4.572591781616211,16,9524.0,-17.356571197509766,-255,9984.0
1550,0.32493460178375244,-0.9809384942054749,81,9524.0,-8.541658401489258,-166,9984.0
1560,0.3254449665546417,-3.4871950149536133,-59,9524.0,-0.6594540476799011,72,9984.0
1570,0.3257496953010559,-5.083816051483154,-159,9524.0,7.685940265655518,100,9984.0
1580,0.3261043429374695,-10.374030113220215,-164,9524.0,15.128580093383789,225,9984.0
1590,0.32653921842575073,-14.5084867477417,-271,9524.0,20.196088790893555,443,9984.0
1600,0.32733869552612305,-24.35515594482422,-418,9524.0,19.35320472717285,249,9984.0
1610,0.327840656042099,-36.265480041503906,-563,9524.0,13.2252779006958,104,9984.0
1620,0.32818603515625,-36.455841064453125,-667,9524.0,7.610968589782715,206,9984.0
1630,0.3288249373435974,-26.374845504760742,-242,9524.0,7.330052852630615,50,9984.0
1640,0.33002719283103943,-6.407042980194092,-44,9524.0,11.593464851379395,213,9984.0
1650,0.330586314201355,16.695337295532227,391,9524.0,14.157195091247559,218,9984.0
1660,0.3310233950614929,37.55990982055664,690,9524.0,9.822185516357422,216,9984.0
1670,0.33142930269241333,49.18067169189453,868,9524.0,2.302722215652466,-118,9984.0
1680,0.3317587971687317,53.16502380371094,805,9524.0,-8.058823585510254,-127,9984.0
1690,0.3330581486225128,43.37775802612305,604,9524.0,-16.81423568725586,-237,9984.0
1700,0.33311283588409424,25.495840072631836,412,9524.0,-18.633159637451172,-354,9984.0
1710,0.3328365385532379,9.98148250579834,123,9524.0,-19.188692092895508,-223,9984.0
1720,0.3323354721069336,5.20851469039917,27,9524.0,-17.751670837402344,-357,9984.0
1730,0.3323262929916382,3.1776630878448486,56,9524.0,-14.555946350097656,-338,9984.0
1740,0.3319553732872009,-5.272885322570801,-108,9524.0,-5.988275527954102,-37,9984.0
1750,0.3317325711250305,-12.227540016174316,-273,9524.0,11.161006927490234,370,9984.0
1760,0.33139967918395996,-15.62343692779541,-370,9524.0,24.195663452148438,414,9984.0
1770,0.33113962411880493,-29.665922164916992,-453,9524.0,31.33855438232422,466,9984.0
1780,0.33093133568763733,-31.754281997680664,-438,9524.0,29.952171325683594,496,9984.0
1790,0.3306996524333954,-25.78963279724121,-429,9524.0,20.562000274658203,283,9984.0
1800,0.33074498176574707,-14.823920249938965,-149,9524.0,10.222521781921387,25,9984.0
1810,0.3308209180831909,7.927090644836426,207,9524.0,-3.2545688152313232,59,9984.0
1820,0.33030691742897034,17.29326820373535,282,9524.0,-5.482146739959717,-127,9984.0
1830,0.33055806159973145,8.641921997070312,126,9524.0,0.16713769733905792,-27,9984.0
1840,0.3309261202812195,-9.326000213623047,-383,9524.0,2.4305901527404785,126,9984.0
1850,0.33135369420051575,-35.42424392700195,-694,9524.0,-1.5177165269851685,-93,9984.0
1860,0.3321731984615326,-54.12114334106445,-839,9524.0,-4.219740867614746,-82,9984.0
1870,0.33271074295043945,-52.06214904785156,-913,9524.0,-7.881144046783447,-148,9984.0
1880,0.3334370255470276,-30.297718048095703,-312,9524.0,-12.19891357421875,-157,9984.0
1890,0.33419057726860046,-7.145101547241211,13,9524.0,-13.71347427368164,-229,9984.0
1900,0.3351516127586365,14.185070037841797,326,9524.0,-13.721707344055176,-251,9984.0
1910,0.33426520228385925,26.735172271728516,465,9524.0,-14.429947853088379,-108,9984.0
1920,0.33502838015556335,36.252197265625,758,9524.0,-9.24184513092041,-158,9984.0
1930,0.3355264961719513,46.5090446472168,746,9524.0,-9.376389503479004,-174,9984.0
1940,0.3358587622642517,45.00895309448242,644,9524.0,-11.893302917480469,-329,9984.0
1950,0.3337037265300751,34.738914489746094,502,9524.0,-12.276175498962402,-187,9984.0
1960,0.3336345851421356,17.8441162109375,170,9524.0,-7.603673458099365,26,9984.0
1970,0.33360207080841064,5.646083831787109,41,9524.0,3.249713897705078,145,9984.0
1980,0.3333563506603241,0.5602784156799316,34,9524.0,9.404302597045898,86,9984.0
1990,0.33305224776268005,-3.3783841133117676,5,9524.0,11.268109321594238,69,9984.0
2000,0.3320603370666504,-5.185147762298584,-209,9524.0,6.391289710998535,279,9984.0
2010,0.3317495286464691,-7.732892036437988,-148,9524.0,5.076388835906982,76,9984.0
2020,0.3314465582370758,-4.082457542419434,18,9524.0,2.706611394882202,-55,9984.0
2030,0.33114784955978394,-1.3199635744094849,-26,9524.0,0.0210605226457119,32,9984.0
2040,0.3289830684661865,2.2944042682647705,-52,9524.0,3.26422381401062,22,9984.0
2050,0.32860666513442993,7.5526862144470215,185,9524.0,5.214699745178223,72,9984.0
2060,0.3282983899116516,4.904229640960693,152,9524.0,0.9226750135421753,57,9984.0
2070,0.3281289339065552,6.859763145446777,106,9524.0,-3.301046848297119,-58,9984.0
2080,0.32690542936325073,5.468228816986084,115,9524.0,-3.565744638442993,-140,9984.0
2090,0.3269718587398529,-3.311805009841919,-21,9524.0,1.9893081188201904,51,9984.0
2100,0.3272453844547272,-17.054460525512695,-361,9524.0,4.519251346588135,203,9984.0
2110,0.32757768034935,-35.44187545776367,-713,9524.0,8.428465843200684,89,9984.0
2120,0.32797229290008545,-46.537269592285156,-755,9524.0,9.83862590789795,179,9984.0
2130,0.3281758427619934,-44.73833084106445,-648,9524.0,10.402763366699219,231,9984.0
2140,0.3286857306957245,-30.616891860961914,-402,9524.0,5.764109134674072,-93,9984.0
2150,0.32899871468544006,-10.373564720153809,-91,9524.0,-3.5353050231933594,131,9984.0
2160,0.329111248254776,15.02374267578125,361,9524.0,-5.611624240875244,-240,9984.0
2170,0.327928751707077,32.741943359375,549,9524.0,-6.574085712432861,-68,9984.0
2180,0.32791489362716675,40.246158599853516,689,9524.0,-9.09682559967041,-133,9984.0
2190,0.3276245892047882,38.4472541809082,657,9524.0,-8.314587593078613,-60,9984.0
2200,0.32748323678970337,30.812274932861328,412,9524.0,-7.58062744140625,-155,9984.0
2210,0.32718005776405334,23.028017044067383,372,9524.0,-5.314631462097168,-181,9984.0
2220,0.32653987407684326,16.435808181762695,178,9524.0,-6.204296112060547,34,9984.0
2230,0.3257885277271271,10.160655975341797,107,9524.0,-1.5512372255325317,-59,9984.0
2240,0.3250569701194763,4.8405632972717285,196,9524.0,7.310039043426514,148,9984.0
2250,0.3243463933467865,7.949850082397461,159,9524.0,16.950645446777344,398,9984.0
2260,0.32403233647346497,13.010087966918945,148,9524.0,18.060781478881836,161,9984.0
2270,0.3230833113193512,6.865401744842529,67,9524.0,6.889383792877197,-72,9984.0
2280,0.3222823739051819,-9.303853988647461,-282,9524.0,-4.805837631225586,15,9984.0
2290,0.3215808570384979,-21.897062301635742,-451,9524.0,-11.565679550170898,-288,9984.0
2300,0.3216666579246521,-24.845108032226562,-252,9524.0,-23.44253158569336,-422,9984.0
2310,0.3211118280887604,-17.10396957397461,-238,9524.0,-31.998634338378906,-465,9984.0
2320,0.32080256938934326,-6.888002395629883,-70,9524.0,-34.691654205322266,-686,9984.0
2330,0.32043740153312683,5.632600784301758,142,9524.0,-28.483102798461914,-417,9984.0
2340,0.320702463388443,11.993050575256348,140,9524.0,-10.727987289428711,2,9984.0
2350,0.3237330913543701,6.643545150756836,-24,9524.0,12.50679874420166,317,9984.0
2360,0.32421401143074036,-4.984453201293945,-36,9524.0,28.230661392211914,481,9984.0
2370,0.32480448484420776,-6.404606819152832,-38,9524.0,45.1413459777832,902,9984.0
2380,0.3251906931400299,1.7524150609970093,59,9524.0,62.97290802001953,1172,9984.0
2390,0.3278939127922058,7.823774814605713,165,9524.0,71.02333068847656,1050,9984.0
2400,0.3280632197856903,9.222172737121582,162,9524.0,66.97071838378906,1078,9984.0
2410,0.3282686173915863,9.039263725280762,70,9524.0,51.084232330322266,692,9984.0
2420,0.3287598490715027,2.7147819995880127,13,9524.0,24.765743255615234,412,9984.0
2430,0.32870423793792725,-8.405557632446289,-172,9524.0,-4.280477523803711,-317,9984.0
2440,0.3291361927986145,-23.099903106689453,-481,9524.0,-27.612274169921875,-456,9984.0
2450,0.3290330171585083,-33.82569885253906,-565,9524.0,-41.26267623901367,-763,9984.0
2460,0.3285885453224182,-35.10260772705078,-502,9524.0,-50.06082534790039,-701,9984.0
2470,0.3283151388168335,-22.226367950439453,-322,9524.0,-52.91878128051758,-1063,9984.0
2480,0.32828202843666077,0.8785587549209595,172,9524.0,-57.208438873291016,-834,9984.0
2490,0.3278273344039917,23.234886169433594,427,9524.0,-55.696720123291016,-887,9984.0
2500,0.32747992873191833,34.78059387207031,633,9524.0,-42.17366409301758,-585,9984.0
2510,0.3275991976261139,36.76747131347656,603,9524.0,-18.804584503173828,-162,9984.0
2520,0.3293444812297821,37.511199951171875,485,9524.0,4.822142124176025,143,9984.0
2530,0.32944995164871216,26.844343185424805,385,9524.0,18.928539276123047,263,9984.0
2540,0.32983365654945374,12.980850219726562,150,9524.0,29.22127342224121,512,9984.0
2550,0.33021825551986694,-5.587234020233154,-257,9524.0,37.88633346557617,713,9984.0
2560,0.3307652473449707,-25.361074447631836,-570,9524.0,43.62528991699219,771,9984.0
2570,0.33020126819610596,-39.22024917602539,-631,9524.0,39.37041473388672,553,9984.0
2580,0.3304022550582886,-43.879539489746094,-647,9524.0,28.285335540771484,428,9984.0
2590,0.3317098021507263,-42.818641662597656,-809,9524.0,14.242603302001953,123,9984.0
2600,0.33213552832603455,-37.89963150024414,-490,9524.0,3.779741048812866,13,9984.0
2610,0.3308239281177521,-25.396501541137695,-303,9524.0,-5.880484104156494,-192,9984.0
2620,0.3314114212989807,-4.748194217681885,23,9524.0,-15.056822776794434,-276,9984.0
2630,0.3319714367389679,11.516243934631348,315,9524.0,-16.035324096679688,-123,9984.0
2640,0.33255359530448914,29.49757194519043,571,9524.0,-10.531842231750488,-275,9984.0
2650,0.3330647647380829,42.11005401611328,763,9524.0,-2.569650411605835,0,9984.0
2660,0.33243122696876526,47.568824768066406,729,9524.0,6.357293128967285,148,9984.0
2670,0.3329980969429016,42.42256546020508,663,9524.0,10.428576469421387,132,9984.0
2680,0.332987517118454,29.61547088623047,436,9524.0,6.9640350341796875,30,9984.0
2690,0.33294087648391724,15.18420696258545,203,9524.0,0.5123286247253418,122,9984.0
2700,0.3312598466873169,1.6031324863433838,-47,9524.0,-3.588381290435791,16,9984.0
2710,0.3309490382671356,-13.288432121276855,-278,9524.0,1.3558292388916016,-84,9984.0
2720,0.3307127356529236,-22.414155960083008,-333,9524.0,11.553308486938477,185,9984.0
2730,0.3304002583026886,-25.298236846923828,-485,9524.0,18.361982345581055,486,9984.0
2740,0.3285409212112427,-28.759096145629883,-479,9524.0,11.338120460510254,2,9984.0
2750,0.3283206522464752,-32.82575988769531,-452,9524.0,-9.578168869018555,-249,9984.0
2760,0.3281991183757782,-22.501724243164062,-421,9524.0,-27.78807830810547,-466,9984.0
2770,0.3283582627773285,-13.415783882141113,-66,9524.0,-36.39699172973633,-680,9984.0
2780,0.32842588424682617,1.7630062103271484,128,9524.0,-39.37433624267578,-632,9984.0
2790,0.327769011259079,16.11561393737793,228,9524.0,-32.84843063354492,-451,9984.0
2800,0.32828089594841003,21.89225196838379,431,9524.0,-20.456449508666992,-316,9984.0
2810,0.3288068175315857,23.15475082397461,410,9524.0,-6.649198532104492,-68,9984.0
2820,0.32953912019729614,19.468687057495117,174,9524.0,5.6834306716918945,217,9984.0
2830,0.3301222026348114,6.768332481384277,17,9524.0,13.663742065429688,303,9984.0
2840,0.3307611346244812,-7.251725673675537,-59,9524.0,22.080331802368164,302,9984.0
2850,0.33124735951423645,-15.159809112548828,-220,9524.0,21.932964324951172,262,9984.0
2860,0.3317492604255676,-22.094757080078125,-417,9524.0,14.95264720916748,264,9984.0
2870,0.33239245414733887,-23.33550262451172,-282,9524.0,3.7012887001037598,-34,9984.0
2880,0.33136454224586487,-18.871599197387695,-255,9524.0,-5.835939884185791,-76,9984.0
2890,0.3316552937030792,-8.287813186645508,-96,9524.0,-7.6683244705200195,-215,9984.0
2900,0.3320493996143341,7.065310955047607,180,9524.0,-9.38160228729248,-78,9984.0
2910,0.33224183320999146,15.338624000549316,247,9524.0,-11.400640487670898,-289,9984.0
2920,0.3307124972343445,18.752897262573242,321,9524.0,-16.00702667236328,-314,9984.0
2930,0.3308160901069641,18.063446044921875,237,9524.0,-20.759563446044922,-241,9984.0
2940,0.3307444155216217,15.096075057983398,269,9524.0,-27.23948860168457,-491,9984.0
2950,0.3308260440826416,16.237253189086914,322,9524.0,-29.994728088378906,-606,9984.0
2960,0.3294001519680023,18.02458381652832,238,9524.0,-28.961811065673828,-328,9984.0
2970,0.32936012744903564,13.75466537475586,95,9524.0,-18.908456802368164,-174,9984.0
2980,0.32959863543510437,0.6982254981994629,-8,9524.0,-6.418248653411865,-91,9984.0
2990,0.329998254776001,-10.630982398986816,-111,9524.0,10.284744262695312,192,9984.0
3000,0.33057716488838196,-18.818117141723633,-240,9524.0,25.117198944091797,423,9984.0
3010,0.32899361848831177,-21.52446174621582,-438,9524.0,32.922462463378906,571,9984.0
3020,0.3292867839336395,-23.49155044555664,-453,9524.0,35.5726318359375,651,9984.0
3030,0.32969436049461365,-21.090147018432617,-267,9524.0,32.975643157958984,417,9984.0
3040,0.33062025904655457,-14.506897926330566,-199,9524.0,28.802959442138672,455,9984.0
3050,0.32920894026756287,-2.11138653755188,-26,9524.0,20.482004165649414,442,9984.0
3060,0.3296978771686554,6.746962070465088,137,9524.0,13.50026798248291,49,9984.0
3070,0.3302902579307556,10.498600959777832,177,9524.0,5.179569721221924,77,9984.0
3080,0.33089306950569153,6.055384635925293,79,9524.0,2.6802539825439453,125,9984.0
3090,0.33157074451446533,-1.1090753078460693,-82,9524.0,-0.39458832144737244,-97,9984.0
3100,0.330915629863739,-5.290786266326904,-54,9524.0,-2.855971574783325,-69,9984.0
3110,0.33142170310020447,-2.7783374786376953,-29,9524.0,-5.5016703605651855,-69,9984.0
3120,0.3318294286727905,-0.8513255715370178,-65,9524.0,-11.20485782623291,-265,9984.0
3130,0.33220207691192627,-0.22170723974704742,114,9524.0,-18.732803344726562,-377,9984.0
3140,0.33145269751548767,6.1717448234558105,161,9524.0,-23.079925537109375,-336,9984.0
3150,0.3314422369003296,12.003470420837402,137,9524.0,-28.736661911010742,-468,9984.0
3160,0.3313275873661041,9.683982849121094,196,9524.0,-27.99104881286621,-427,9984.0
3170,0.3312760293483734,9.067462921142578,210,9524.0,-14.084553718566895,-38,9984.0
3180,0.330127477645874,7.2610063552856445,105,9524.0,4.463407516479492,232,9984.0
3190,0.3297862410545349,10.98645305633545,116,9524.0,22.818628311157227,346,9984.0
3200,0.3295893371105194,11.067048072814941,244,9524.0,35.40189743041992,615,9984.0
3210,0.32931071519851685,14.890877723693848,265,9524.0,40.3040771484375,821,9984.0
3220,0.3288816809654236,10.767406463623047,59,9524.0,36.2371711730957,505,9984.0
3230,0.32753273844718933,1.6458699703216553,19,9524.0,29.982255935668945,375,9984.0
3240,0.32746240496635437,-6.052443027496338,-153,9524.0,16.86770248413086,305,9984.0
3250,0.32735583186149597,-15.093315124511719,-280,9524.0,1.8463398218154907,-50,9984.0
3260,0.3272224962711334,-19.88457679748535,-345,9524.0,-10.448143005371094,-361,9984.0
3270,0.32636111974716187,-21.133316040039062,-291,9524.0,-19.079147338867188,-226,9984.0
3280,0.3263562023639679,-13.648726463317871,-155,9524.0,-25.426074981689453,-491,9984.0
3290,0.32648617029190063,-1.114621639251709,25,9524.0,-31.476943969726562,-635,9984.0
3300,0.3266749978065491,9.007537841796875,261,9524.0,-35.606815338134766,-700,9984.0
3310,0.32682013511657715,13.573185920715332,200,9524.0,-33.512855529785156,-527,9984.0
3320,0.32806551456451416,7.886683464050293,-2,9524.0,-26.756616592407227,-221,9984.0
3330,0.3285341262817383,-4.740010738372803,-209,9524.0,-12.960103034973145,-125,9984.0
3340,0.32870709896087646,-14.460249900817871,-222,9524.0,5.065823554992676,86,9984.0
3350,0.32883220911026,-16.907058715820312,-229,9524.0,21.98992347717285,339,9984.0
3360,0.33063408732414246,-10.531440734863281,-163,9524.0,30.203556060791016,574,9984.0
3370,0.3308873176574707,-3.2851014137268066,-6,9524.0,33.86109924316406,590,9984.0
3380,0.33092591166496277,3.3812689781188965,191,9524.0,30.974666595458984,386,9984.0
3390,0.3307042419910431,12.791041374206543,190,9524.0,24.3133544921875,442,9984.0
3400,0.32955464720726013,25.63494300842285,388,9524.0,19.748167037963867,349,9984.0
3410,0.32943838834762573,28.428285598754883,533,9524.0,13.363554000854492,187,9984.0
3420,0.328799843788147,22.279956817626953,242,9524.0,6.7658209800720215,93,9984.0
3430,0.3280682861804962,6.569441795349121,22,9524.0,-2.286973476409912,-106,9984.0
3440,0.3272159993648529,-11.426534652709961,-130,9524.0,-5.717626571655273,-46,9984.0
3450,0.32621851563453674,-19.722570419311523,-405,9524.0,-5.386635780334473,-88,9984.0
3460,0.3252682089805603,-24.544143676757812,-440,9524.0,-9.890639305114746,-288,9984.0
3470,0.32439854741096497,-23.09505271911621,-295,9524.0,-16.953502655029297,-183,9984.0
3480,0.32364222407341003,-8.652971267700195,-74,9524.0,-23.581552505493164,-428,9984.0
3490,0.3235093653202057,3.756166696548462,124,9524.0,-26.341760635375977,-522,9984.0
3500,0.3232012987136841,15.139378547668457,262,9524.0,-30.708908081054688,-349,9984.0
3510,0.32309308648109436,23.19678497314453,403,9524.0,-29.411930084228516,-573,9984.0
3520,0.32307741045951843,25.16356658935547,450,9524.0,-28.880950927734375,-519,9984.0
3530,0.32510629296302795,18.50897979736328,178,9524.0,-27.172515869140625,-420,9984.0
3540,0.32562771439552307,7.236973762512207,6,9524.0,-22.075170516967773,-223,9984.0
3550,0.3264015018939972,-1.3555582761764526,-55,9524.0,-11.699577331542969,-133,9984.0
3560,0.3268435299396515,-2.9233365058898926,10,9524.0,2.7237346172332764,59,9984.0
3570,0.3274111747741699,-1.4230376482009888,69,9524.0,11.120978355407715,122,9984.0
3580,0.3292795419692993,1.1542413234710693,-17,9524.0,20.71749496459961,361,9984.0
3590,0.32978928089141846,-5.491633892059326,-207,9524.0,34.384857177734375,777,9984.0
3600,0.33020129799842834,-15.72188949584961,-376,9524.0,48.42102813720703,825,9984.0
3610,0.33017081022262573,-25.525482177734375,-357,9524.0,47.556312561035156,658,9984.0
3620,0.33077117800712585,-28.121784210205078,-409,9524.0,42.80378341674805,673,9984.0
3630,0.33064964413642883,-19.924068450927734,-276,9524.0,39.44694519042969,779,9984.0
3640,0.3304212689399719,-5.169677257537842,96,9524.0,35.10237503051758,413,9984.0
3650,0.3301912546157837,11.61137866973877,192,9524.0,21.666889190673828,438,9984.0
3660,0.32999542355537415,19.828493118286133,356,9524.0,4.280845642089844,-95,9984.0
3670,0.3272888958454132,22.27667808532715,389,9524.0,-13.359832763671875,-283,9984.0
3680,0.3268859088420868,17.765005111694336,159,9524.0,-27.675695419311523,-414,9984.0
3690,0.3264962136745453,6.2507004737854,101,9524.0,-37.80184555053711,-772,9984.0
3700,0.32622137665748596,-3.9155519008636475,-77,9524.0,-43.7021598815918,-710,9984.0
3710,0.3260330557823181,-7.581366539001465,-220,9524.0,-41.54359817504883,-485,9984.0
3720,0.3260073959827423,-12.699315071105957,-225,9524.0,-30.7906436920166,-445,9984.0
3730,0.3258804678916931,-9.324535369873047,-8,9524.0,-15.413707733154297,-317,9984.0
3740,0.32629093527793884,-1.0605071783065796,55,9524.0,-0.5406715869903564,1,9984.0
3750,0.32773396372795105,7.201599597930908,58,9524.0,11.19234848022461,410,9984.0
3760,0.32828637957572937,11.37012004852295,160,9524.0,17.118000030517578,293,9984.0
3770,0.32906243205070496,11.27059268951416,255,9524.0,15.480674743652344,151,9984.0
3780,0.32985275983810425,8.877965927124023,152,9524.0,8.267409324645996,70,9984.0
3790,0.3306659758090973,6.517514228820801,29,9524.0,4.19486665725708,87,9984.0
3800,0.32966935634613037,5.653820991516113,99,9524.0,3.6249892711639404,236,9984.0
3810,0.33035948872566223,9.521459579467773,177,9524.0,7.327626705169678,19,9984.0
3820,0.33097895979881287,6.728787899017334,127,9524.0,10.659157752990723,102,9984.0
3830,0.3314930200576782,-1.066872239112854,-59,9524.0,9.645936012268066,138,9984.0
3840,0.3316250443458557,-12.267111778259277,-232,9524.0,12.98129940032959,370,9984.0
3850,0.33181798458099365,-21.193429946899414,-434,9524.0,14.34292984008789,252,9984.0
3860,0.33179327845573425,-28.94573974609375,-514,9524.0,15.006340026855469,126,9984.0
3870,0.33183470368385315,-25.3693790435791,-244,9524.0,9.88207721710205,110,9984.0
3880,0.3317083418369293,-17.1208553314209,-275,9524.0,6.8260016441345215,159,9984.0
3890,0.3298700451850891,-7.702396392822266,-117,9524.0,9.453483581542969,137,9984.0
3900,0.32932785153388977,1.4208691120147705,163,9524.0,13.376532554626465,189,9984.0
3910,0.3287164270877838,10.187454223632812,120,9524.0,11.544768333435059,255,9984.0
3920,0.3280114531517029,14.424473762512207,305,9524.0,5.391294002532959,-42,9984.0
3930,0.3272111117839813,16.89641571044922,291,9524.0,-9.583958625793457,-258,9984.0
3940,0.32665780186653137,11.390630722045898,65,9524.0,-28.986242294311523,-513,9984.0
3950,0.32607701420783997,2.0432097911834717,-1,9524.0,-40.53856658935547,-715,9984.0
3960,0.32567092776298523,-7.0663652420043945,-79,9524.0,-38.00222396850586,-731,9984.0
3970,0.32538312673568726,-9.53146743774414,-74,9524.0,-33.78773880004883,-477,9984.0
3980,0.3255683481693268,-5.079354286193848,-79,9524.0,-19.713520050048828,-191,9984.0
3990,0.32592639327049255,4.19549036026001,-12,9524.0,-8.56897258758545,-265,9984.0
4000,0.32629311084747314,7.643662929534912,142,9524.0,-8.376021385192871,-150,9984.0
4010,0.3267212510108948,7.013128280639648,223,9524.0,-11.247274398803711,-186,9984.0
4020,0.32747986912727356,7.573537826538086,107,9524.0,-19.993558883666992,-400,9984.0
4030,0.32792550325393677,7.5558929443359375,47,9524.0,-22.901451110839844,-394,9984.0
4040,0.3283335268497467,9.363131523132324,234,9524.0,-22.49932861328125,-352,9984.0
4050,0.32902488112449646,11.699366569519043,278,9524.0,-13.604950904846191,-204,9984.0
4060,0.33048903942108154,11.511528015136719,180,9524.0,-1.7957484722137451,-5,9984.0
4070,0.3310420513153076,4.627501010894775,-17,9524.0,13.018010139465332,326,9984.0
4080,0.33154332637786865,-3.0357155799865723,-187,9524.0,25.943634033203125,651,9984.0
4090,0.3319358229637146,-15.463144302368164,-286,9524.0,32.36282730102539,507,9984.0
4100,0.332224041223526,-22.095903396606445,-357,9524.0,33.85686111450195,397,9984.0
4110,0.3322578966617584,-25.636457443237305,-363,9524.0,28.374893188476562,407,9984.0
4120,0.33223047852516174,-23.2313289642334,-319,9524.0,18.266677856445312,316,9984.0
4130,0.33228799700737,-15.994491577148438,-303,9524.0,8.105108261108398,145,9984.0
4140,0.33221808075904846,-6.211986541748047,-34,9524.0,2.8024654388427734,-31,9984.0
4150,0.33058375120162964,1.3242039680480957,93,9524.0,-10.80263614654541,-302,9984.0
4160,0.33043190836906433,6.093599796295166,65,9524.0,-24.628877639770508,-264,9984.0
4170,0.3302654027938843,7.112972259521484,95,9524.0,-26.162351608276367,-401,9984.0
4180,0.33016857504844666,5.479068756103516,61,9524.0,-20.72469711303711,-423,9984.0
4190,0.3274822235107422,-0.29665759205818176,-76,9524.0,-10.50454330444336,-27,9984.0
4200,0.32759368419647217,-5.4519147872924805,-106,9524.0,6.4443182945251465,268,9984.0
4210,0.32789885997772217,-5.582425594329834,-184,9524.0,23.965526580810547,437,9984.0
4220,0.32837650179862976,2.5507965087890625,112,9524.0,34.51935577392578,592,9984.0
4230,0.3290000259876251,12.412152290344238,331,9524.0,37.556156158447266,564,9984.0
4240,0.3273119032382965,20.508079528808594,265,9524.0,31.678926467895508,563,9984.0
4250,0.3279860317707062,18.71575164794922,288,9524.0,18.877418518066406,267,9984.0
4260,0.32897132635116577,12.574644088745117,171,9524.0,0.7860748171806335,-213,9984.0
4270,0.33030831813812256,4.62927770614624,90,9524.0,-18.86542510986328,-309,9984.0
4280,0.3305663466453552,-2.572737455368042,-125,9524.0,-32.69644546508789,-549,9984.0
4290,0.3318054676055908,-7.511977195739746,-191,9524.0,-39.112205505371094,-621,9984.0
4300,0.3330034911632538,-7.2313971519470215,-46,9524.0,-34.87895202636719,-589,9984.0
4310,0.33437302708625793,-4.674458980560303,-20,9524.0,-21.077789306640625,-497,9984.0
4320,0.33572036027908325,-4.634971618652344,-60,9524.0,-7.3210649490356445,-42,9984.0
4330,0.3360957205295563,-8.639025688171387,-266,9524.0,7.713302135467529,296,9984.0
4340,0.33734917640686035,-15.93715763092041,-363,9524.0,25.485010147094727,510,9984.0
4350,0.33843475580215454,-19.071178436279297,-375,9524.0,40.595436096191406,905,9984.0
4360,0.33976906538009644,-14.889307975769043,-227,9524.0,49.45783615112305,730,9984.0
4370,0.33929070830345154,0.3284284472465515,133,9524.0,56.54167556762695,940,9984.0
4380,0.34042030572891235,15.76699447631836,351,9524.0,58.626319885253906,935,9984.0
4390,0.34119313955307007,30.47186851501465,470,9524.0,47.85426330566406,848,9984.0
4400,0.3423170745372772,30.818681716918945,419,9524.0,29.91325569152832,253,9984.0
4410,0.33996912837028503,17.618741989135742,170,9524.0,1.8630871772766113,-137,9984.0
4420,0.34059563279151917,5.676255702972412,-34,9524.0,-27.365867614746094,-466,9984.0
4430,0.3411905765533447,-1.8167304992675781,-62,9524.0,-53.56018829345703,-999,9984.0
4440,0.3414726257324219,-6.370090961456299,-191,9524.0,-74.14974212646484,-1352,9984.0
4450,0.3418216407299042,-12.062165260314941,-151,9524.0,-80.71824645996094,-1388,9984.0
4460,0.340982586145401,-16.61709213256836,-285,9524.0,-75.65972137451172,-1251,9984.0
4470,0.3411540985107422,-12.526451110839844,-114,9524.0,-60.027950286865234,-808,9984.0
4480,0.34166762232780457,-5.414269924163818,-37,9524.0,-39.79286575317383,-507,9984.0
4490,0.3424529433250427,1.7413110733032227,5,9524.0,-13.999796867370605,-68,9984.0
4500,0.3462042808532715,7.611453533172607,119,9524.0,10.108593940734863,404,9984.0
4510,0.3474433124065399,9.26262092590332,111,9524.0,26.07773208618164,555,9984.0
4520,0.3487469255924225,11.20555305480957,103,9524.0,34.4530029296875,637,9984.0
4530,0.35027024149894714,13.64739990234375,228,9524.0,36.90363693237305,669,9984.0
4540,0.3516584634780884,16.724924087524414,256,9524.0,34.49879455566406,450,9984.0
4550,0.35323384404182434,20.709186553955078,394,9524.0,29.483291625976562,409,9984.0
4560,0.35424062609672546,19.76335334777832,377,9524.0,27.601348876953125,239,9984.0
4570,0.355695903301239,9.28688907623291,106,9524.0,25.279191970825195,370,9984.0
4580,0.35643577575683594,-6.681197643280029,-222,9524.0,25.651123046875,365,9984.0
4590,0.35691168904304504,-21.871862411499023,-450,9524.0,16.9835262298584,376,9984.0
4600,0.3568800687789917,-30.39204216003418,-558,9524.0,9.401081085205078,63,9984.0
4610,0.3565353453159332,-28.29848289489746,-465,9524.0,-0.7070615291595459,19,9984.0
4620,0.3558982312679291,-25.63937759399414,-346,9524.0,-17.92644691467285,-410,9984.0
4630,0.35490351915359497,-16.98394775390625,-111,9524.0,-25.437196731567383,-589,9984.0
4640,0.35178622603416443,-0.9247444868087769,93,9524.0,-33.084293365478516,-456,9984.0
4650,0.34982654452323914,12.923927307128906,211,9524.0,-36.388851165771484,-616,9984.0
4660,0.34779730439186096,25.90763282775879,437,9524.0,-41.73276901245117,-708,9984.0
4670,0.34549009799957275,29.192092895507812,541,9524.0,-43.69511032104492,-835,9984.0
4680,0.3441181182861328,19.929946899414062,249,9524.0,-37.48871612548828,-547,9984.0
4690,0.3421332538127899,2.5041050910949707,-91,9524.0,-20.62136459350586,-189,9984.0
4700,0.34050998091697693,-17.213884353637695,-415,9524.0,-1.3754334449768066,232,9984.0
4710,0.3385242223739624,-31.372108459472656,-514,9524.0,15.784523010253906,322,9984.0
4720,0.33963310718536377,-32.761253356933594,-463,9524.0,22.90157127380371,225,9984.0
4730,0.3383215367794037,-18.733713150024414,-226,9524.0,17.557878494262695,346,9984.0
4740,0.33721259236335754,0.9913437962532043,59,9524.0,11.617939949035645,131,9984.0
4750,0.3365490138530731,20.221708297729492,494,9524.0,5.033811092376709,110,9984.0
4760,0.336091011762619,35.23023986816406,528,9524.0,4.890446662902832,93,9984.0
4770,0.3366228938102722,41.051292419433594,681,9524.0,5.350006580352783,73,9984.0
4780,0.33664068579673767,39.061988830566406,574,9524.0,8.922894477844238,277,9984.0
4790,0.3367226719856262,19.828214645385742,230,9524.0,16.388879776000977,341,9984.0
4800,0.3369140625,-0.986162543296814,-102,9524.0,18.81683349609375,214,9984.0
4810,0.33844393491744995,-22.66879653930664,-377,9524.0,25.421497344970703,334,9984.0
4820,0.3386736512184143,-35.0880241394043,-631,9524.0,29.730581283569336,674,9984.0
4830,0.3389493227005005,-32.117618560791016,-503,9524.0,33.980655670166016,517,9984.0
4840,0.33900561928749084,-27.519678115844727,-376,9524.0,27.70402717590332,372,9984.0
4850,0.3401013910770416,-21.644914627075195,-426,9524.0,13.79707145690918,267,9984.0
4860,0.34050726890563965,-19.329893112182617,-224,9524.0,2.0732810497283936,-105,9984.0
4870,0.34028130769729614,-12.337457656860352,-201,9524.0,-16.31772804260254,-349,9984.0
4880,0.339815229177475,-6.4716949462890625,-79,9524.0,-31.85090446472168,-536,9984.0
4890,0.33919355273246765,5.855693340301514,202,9524.0,-39.884464263916016,-734,9984.0
4900,0.33862465620040894,12.991793632507324,128,9524.0,-35.49678421020508,-413,9984.0
4910,0.3377755880355835,12.815814018249512,229,9524.0,-22.900903701782227,-300,9984.0
4920,0.3368232846260071,14.214585304260254,333,9524.0,-11.26956844329834,-260,9984.0
4930,0.3357912003993988,20.79129409790039,331,9524.0,-5.343703269958496,-10,9984.0
4940,0.3367181718349457,26.21923828125,350,9524.0,3.6046059131622314,228,9984.0
4950,0.33544376492500305,22.766225814819336,328,9524.0,16.360549926757812,361,9984.0
4960,0.3343544602394104,14.407500267028809,263,9524.0,27.285751342773438,367,9984.0
4970,0.33309686183929443,2.5489959716796875,-7,9524.0,35.27581024169922,605,9984.0
4980,0.33168426156044006,-10.267138481140137,-276,9524.0,39.60747146606445,752,9984.0
4990,0.3298444151878357,-15.14494800567627,-222,9524.0,34.447845458984375,487,9984.0
5000,0.32815343141555786,-13.249022483825684,-112,9524.0,19.43512535095215,205,9984.0
5010,0.3266701102256775,3.5383009910583496,54,9524.0,4.7237114906311035,67,9984.0
5020,0.32547998428344727,26.23421287536621,678,9524.0,-5.9179511070251465,-185,9984.0
5030,0.3254238963127136,52.814781188964844,934,9524.0,-16.605756759643555,-246,9984.0
5040,0.3238832354545593,66.79559326171875,1102,9524.0,-21.451221466064453,-500,9984.0
5050,0.3224271535873413,66.50415802001953,1055,9524.0,-24.25408935546875,-391,9984.0
5060,0.32162660360336304,41.706146240234375,477,9524.0,-17.660884857177734,-110,9984.0
5070,0.3213244378566742,1.6083298921585083,-269,9524.0,-1.6142823696136475,79,9984.0
5080,0.32058829069137573,-49.29922866821289,-929,9524.0,18.848722457885742,378,9984.0
5090,0.3195837736129761,-89.14151000976562,-1494,9524.0,37.12255096435547,705,9984.0
5100,0.3184545636177063,-103.06521606445312,-1743,9524.0,39.67420959472656,599,9984.0
5110,0.3172483742237091,-98.75587463378906,-1505,9524.0,29.66402816772461,372,9984.0
5120,0.31695765256881714,-71.3868408203125,-1089,9524.0,16.26255989074707,222,9984.0
5130,0.31586092710494995,-27.696910858154297,-149,9524.0,6.462729454040527,166,9984.0
5140,0.31456419825553894,22.181575775146484,509,9524.0,2.798739433288574,5,9984.0
5150,0.31524449586868286,52.14117431640625,937,9524.0,-1.5021768808364868,-44,9984.0
5160,0.3159468472003937,64.58941650390625,1095,9524.0,-8.040160179138184,-171,9984.0
5170,0.31528791785240173,59.792991638183594,783,9524.0,-21.34770965576172,-532,9984.0
5180,0.3144710063934326,43.06135940551758,652,9524.0,-32.233699798583984,-470,9984.0
5190,0.313955694437027,26.790971755981445,272,9524.0,-37.27468490600586,-543,9984.0
5200,0.31358131766319275,8.056543350219727,134,9524.0,-34.446781158447266,-564,9984.0
5210,0.31503355503082275,-5.94716739654541,-150,9524.0,-24.332529067993164,-229,9984.0
5220,0.3147927522659302,-9.82838249206543,-206,9524.0,-13.379080772399902,-62,9984.0
5230,0.31471043825149536,-8.330676078796387,-88,9524.0,-0.5953092575073242,29,9984.0
5240,0.31451416015625,-4.184951305389404,-92,9524.0,8.391800880432129,226,9984.0
5250,0.31548255681991577,2.9370124340057373,60,9524.0,15.789754867553711,200,9984.0
5260,0.3154182732105255,7.796749114990234,208,9524.0,15.905074119567871,208,9984.0
5270,0.31533142924308777,9.135746955871582,108,9524.0,6.367631912231445,7,9984.0
5280,0.31522732973098755,5.243751049041748,54,9524.0,-10.568767547607422,-371,9984.0
5290,0.31457117199897766,3.8120276927948,77,9524.0,-27.30470085144043,-524,9984.0
5300,0.31413522362709045,3.960301637649536,23,9524.0,-33.70774459838867,-432,9984.0
5310,0.31387197971343994,-2.0249080657958984,-86,9524.0,-29.38510513305664,-478,9984.0
5320,0.3132185935974121,-12.543891906738281,-163,9524.0,-14.250534057617188,-137,9984.0
5330,0.31257569789886475,-16.11798095703125,-245,9524.0,4.667713165283203,186,9984.0
5340,0.31257596611976624,-12.576373100280762,-133,9524.0,26.3989200592041,499,9984.0
5350,0.3113897144794464,-4.438503742218018,-74,9524.0,41.87100601196289,679,9984.0
5360,0.3100079894065857,1.1792681217193604,40,9524.0,47.04054260253906,858,9984.0
5370,0.3086696267127991,0.779866635799408,-4,9524.0,45.81193161010742,783,9984.0
5380,0.30785778164863586,-7.700681209564209,-118,9524.0,41.169925689697266,554,9984.0
5390,0.30625852942466736,-18.841999053955078,-472,9524.0,30.322006225585938,508,9984.0
5400,0.3044244647026062,-29.9637451171875,-470,9524.0,16.172834396362305,172,9984.0
5410,0.30235809087753296,-33.39252853393555,-537,9524.0,1.6949776411056519,42,9984.0
5420,0.2998417615890503,-27.748559951782227,-327,9524.0,-9.344614028930664,-298,9984.0
5430,0.2979375720024109,-15.740336418151855,-239,9524.0,-15.485984802246094,-110,9984.0
5440,0.2955932915210724,-2.731480360031128,86,9524.0,-15.07225227355957,-311,9984.0
5450,0.2936515808105469,8.956666946411133,130,9524.0,-7.991262912750244,-20,9984.0
5460,0.2916712164878845,17.050500869750977,277,9524.0,-0.2914307415485382,16,9984.0
5470,0.2878684401512146,21.27400016784668,418,9524.0,9.975744247436523,324,9984.0
5480,0.28543397784233093,21.828554153442383,280,9524.0,14.794069290161133,117,9984.0
5490,0.28299835324287415,17.979167938232422,275,9524.0,17.53960609436035,324,9984.0
5500,0.280765175819397,10.438336372375488,85,9524.0,15.373485565185547,280,9984.0
5510,0.27960190176963806,0.6744003295898438,104,9524.0,9.350479125976562,118,9984.0
5520,0.2774869501590729,-2.3073670864105225,-55,9524.0,-4.423539161682129,-139,9984.0
5530,0.2754823565483093,-1.0053677558898926,41,9524.0,-14.569016456604004,-291,9984.0
5540,0.2735561430454254,7.375607490539551,31,9524.0,-16.86281967163086,-243,9984.0
5550,0.27244308590888977,13.403687477111816,328,9524.0,-10.588254928588867,-147,9984.0
5560,0.2709200978279114,24.056194305419922,329,9524.0,5.446898460388184,315,9984.0
5570,0.270394891500473,26.160137176513672,456,9524.0,25.84427261352539,475,9984.0
5580,0.2694720923900604,23.307266235351562,355,9524.0,43.31178283691406,865,9984.0
5590,0.2693289518356323,15.394794464111328,89,9524.0,50.6657600402832,846,9984.0
5600,0.2675643861293793,-2.1939165592193604,-99,9524.0,47.25247573852539,764,9984.0
5610,0.26716071367263794,-14.070832252502441,-359,9524.0,36.691741943359375,625,9984.0
5620,0.26678216457366943,-24.78647804260254,-344,9524.0,25.378772735595703,287,9984.0
5630,0.26654383540153503,-22.710309982299805,-440,9524.0,9.336335182189941,31,9984.0
5640,0.26683151721954346,-15.878030776977539,-108,9524.0,-6.9599609375,-145,9984.0
5650,0.2665875256061554,-0.6617965698242188,-38,9524.0,-13.820362091064453,-178,9984.0
5660,0.26640158891677856,5.526281356811523,209,9524.0,-15.11485767364502,-224,9984.0
5670,0.266196072101593,8.191400527954102,106,9524.0,-12.472908020019531,-106,9984.0
5680,0.26578086614608765,3.8893752098083496,11,9524.0,-7.706909656524658,-231,9984.0
5690,0.262609601020813,-2.007601261138916,-48,9524.0,-7.485507011413574,-145,9984.0
5700,0.2619600296020508,-5.41922664642334,-166,9524.0,-4.190575122833252,-8,9984.0
5710,0.26134711503982544,-8.420915603637695,-140,9524.0,-3.904327392578125,-111,9984.0
5720,0.26044654846191406,-6.246088027954102,10,9524.0,-2.764176368713379,14,9984.0
5730,0.2597179710865021,-4.610720157623291,-89,9524.0,0.268328458070755,38,9984.0
5740,0.2589164078235626,-2.6935853958129883,-29,9524.0,7.592340469360352,23,9984.0
5750,0.25817230343818665,-2.1579368114471436,-24,9524.0,15.03300666809082,253,9984.0
5760,0.25734978914260864,0.1172989085316658,-35,9524.0,18.027433395385742,395,9984.0
5770,0.2567349076271057,1.3490331172943115,117,9524.0,17.058931350708008,202,9984.0
5780,0.2560887932777405,4.076523303985596,62,9524.0,10.632392883300781,253,9984.0
5790,0.25555619597435,1.792262077331543,-19,9524.0,5.872873783111572,-132,9984.0
5800,0.25497838854789734,-4.839189052581787,-59,9524.0,1.7050329446792603,31,9984.0
5810,0.25443145632743835,-2.636220932006836,-26,9524.0,2.985778331756592,25,9984.0
5820,0.255196750164032,3.033220052719116,196,9524.0,2.9618942737579346,29,9984.0
5830,0.25450530648231506,5.499272346496582,67,9524.0,-0.8215352296829224,95,9984.0
5840,0.25401657819747925,4.793009281158447,77,9524.0,2.4458255767822266,-78,9984.0
5850,0.25320905447006226,1.6916959285736084,9,9524.0,5.876676082611084,76,9984.0
5860,0.2526675760746002,0.3422777056694031,-79,9524.0,6.203588962554932,46,9984.0
5870,0.2514880895614624,-4.036233901977539,-3,9524.0,4.753707408905029,66,9984.0
5880,0.2504626214504242,-7.984379291534424,-142,9524.0,4.741127014160156,141,9984.0
5890,0.24914652109146118,-8.568564414978027,-138,9524.0,-0.5367605090141296,-111,9984.0
5900,0.24818332493305206,-10.318414688110352,-208,9524.0,-6.7885003089904785,-162,9984.0
5910,0.2488223761320114,-13.782718658447266,-287,9524.0,-10.410543441772461,-209,9984.0
5920,0.2477748990058899,-14.839028358459473,-206,9524.0,-10.785618782043457,-210,9984.0
5930,0.2466813027858734,-15.288485527038574,-219,9524.0,-8.060464859008789,-41,9984.0
5940,0.24537009000778198,-11.744669914245605,-149,9524.0,-3.706568479537964,-112,9984.0
5950,0.2440175563097,-7.563839435577393,-45,9524.0,-1.428320288658142,22,9984.0
5960,0.24289251863956451,-3.1197545528411865,-51,9524.0,6.230398178100586,2,9984.0
5970,0.24167101085186005,1.8031748533248901,98,9524.0,10.829025268554688,206,9984.0
5980,0.24092775583267212,4.126254558563232,-1,9524.0,13.570649147033691,129,9984.0
5990,0.23993638157844543,3.8762929439544678,103,9524.0,14.307133674621582,286,9984.0
6000,0.23723913729190826,3.7947776317596436,14,9524.0,11.683344841003418,89,9984.0
6010,0.2359783947467804,0.8016201853752136,18,9524.0,1.755318522453308,128,9984.0
6020,0.23480962216854095,-1.225166916847229,-117,9524.0,-4.547174453735352,-104,9984.0
6030,0.2340637594461441,-4.88029670715332,12,9524.0,-12.915609359741211,-124,9984.0
6040,0.23137922585010529,-2.9545130729675293,-135,9524.0,-14.057026863098145,-241,9984.0
6050,0.23039492964744568,-4.486052989959717,26,9524.0,-15.903493881225586,-217,9984.0
6060,0.22934378683567047,-1.5427396297454834,-78,9524.0,-13.72972297668457,-160,9984.0
6070,0.22890159487724304,-2.7041633129119873,10,9524.0,-8.219744682312012,-120,9984.0
6080,0.2316151261329651,-1.851430058479309,-82,9524.0,0.552642822265625,113,9984.0
6090,0.23142556846141815,-6.3976640701293945,-87,9524.0,13.205756187438965,232,9984.0
6100,0.2309652417898178,-7.699969291687012,-112,9524.0,26.486160278320312,553,9984.0
6110,0.23081925511360168,-7.420561790466309,-95,9524.0,37.06200408935547,582,9984.0
6120,0.22732388973236084,0.8395671248435974,40,9524.0,42.00315856933594,717,9984.0
6130,0.22693650424480438,11.188093185424805,337,9524.0,39.975772857666016,558,9984.0
6140,0.22632253170013428,20.279422760009766,238,9524.0,31.25651741027832,459,9984.0
6150,0.22594211995601654,24.913122177124023,462,9524.0,16.233793258666992,225,9984.0
6160,0.22525693476200104,26.473814010620117,367,9524.0,1.758035659790039,-39,9984.0
6170,0.22438901662826538,24.041624069213867,460,9524.0,-13.383502960205078,-273,9984.0
6180,0.22365643084049225,17.370328903198242,218,9524.0,-20.95340919494629,-309,9984.0
6190,0.22281430661678314,8.263579368591309,168,9524.0,-25.718210220336914,-496,9984.0
6200,0.2220684289932251,-0.6532748937606812,-51,9524.0,-21.68954849243164,-211,9984.0
6210,0.21662501990795135,-9.639747619628906,-252,9524.0,-17.58363151550293,-313,9984.0
6220,0.21568074822425842,-18.097654342651367,-296,9524.0,-8.863282203674316,9,9984.0
6230,0.2144494503736496,-22.27324676513672,-458,9524.0,-3.0038328170776367,-5,9984.0
6240,0.21366237103939056,-25.142417907714844,-312,9524.0,2.3038089275360107,60,9984.0
6250,0.212167426943779,-24.08678436279297,-404,9524.0,6.543033123016357,145,9984.0
6260,0.21211783587932587,-20.001489639282227,-222,9524.0,6.555441856384277,90,9984.0
6270,0.2117571234703064,-13.852892875671387,-205,9524.0,6.884746551513672,161,9984.0
6280,0.21093741059303284,-7.826364040374756,13,9524.0,7.887142181396484,143,9984.0
6290,0.21017134189605713,-1.8813693523406982,-50,9524.0,8.238018989562988,123,9984.0
6300,0.2101241797208786,2.014957904815674,147,9524.0,4.690179347991943,95,9984.0
6310,0.2093762457370758,5.705509662628174,45,9524.0,1.445020079612732,-67,9984.0
6320,0.20891162753105164,5.408762454986572,174,9524.0,-3.258136034011841,-4,9984.0
6330,0.20849142968654633,4.53665018081665,44,9524.0,-6.6686625480651855,-247,9984.0
6340,0.20740869641304016,2.6711909770965576,74,9524.0,-7.428793907165527,14,9984.0
6350,0.20737330615520477,-6.910935878753662,-177,9524.0,0.00975131243467331,-63,9984.0
6360,0.20729419589042664,-10.348692893981934,-113,9524.0,10.679049491882324,334,9984.0
6370,0.2070353478193283,-13.867097854614258,-256,9524.0,20.319488525390625,260,9984.0
6380,0.20672166347503662,-10.506860733032227,-80,9524.0,18.724590301513672,420,9984.0
6390,0.20478053390979767,-2.549461603164673,31,9524.0,14.586362838745117,91,9984.0
6400,0.2047458440065384,10.471612930297852,211,9524.0,10.204830169677734,207,9984.0
6410,0.20439136028289795,12.744328498840332,283,9524.0,8.170623779296875,45,9984.0
6420,0.204185351729393,12.972907066345215,175,9524.0,6.213277339935303,113,9984.0
6430,0.20249715447425842,9.161280632019043,201,9524.0,3.578616142272949,-74,9984.0
6440,0.2018805891275406,5.916222095489502,18,9524.0,0.2787878215312958,31,9984.0
6450,0.20128963887691498,-1.6777751445770264,-52,9524.0,-1.4698354005813599,-144,9984.0
6460,0.2009778618812561,-7.006078720092773,-158,9524.0,-8.71511459350586,-148,9984.0
6470,0.20017997920513153,-6.35590934753418,-95,9524.0,-15.053926467895508,-378,9984.0
6480,0.19779177010059357,-7.132892608642578,-130,9524.0,-19.875356674194336,-269,9984.0
6490,0.19683074951171875,-7.620180606842041,-98,9524.0,-17.36152458190918,-409,9984.0
6500,0.19611376523971558,-8.716229438781738,-174,9524.0,-15.336725234985352,-102,9984.0
6510,0.194997638463974,-10.883872032165527,-156,9524.0,-7.443881511688232,-207,9984.0
6520,0.19480888545513153,-6.3079047203063965,-58,9524.0,-0.7036073207855225,132,9984.0
6530,0.19466456770896912,1.6305731534957886,80,9524.0,6.805357933044434,18,9984.0
6540,0.194028839468956,7.162209987640381,139,9524.0,13.316258430480957,199,9984.0
6550,0.19334089756011963,9.212889671325684,152,9524.0,18.31060028076172,344,9984.0
6560,0.19347983598709106,9.067841529846191,139,9524.0,20.955257415771484,396,9984.0
6570,0.19328556954860687,8.932987213134766,70,9524.0,18.516399383544922,271,9984.0
6580,0.19331136345863342,7.87064266204834,227,9524.0,14.521272659301758,203,9984.0
6590,0.1927802860736847,4.95449161529541,94,9524.0,9.954549789428711,53,9984.0
6600,0.1928454339504242,-2.5378615856170654,-1,9524.0,3.964071273803711,84,9984.0
6610,0.19457314908504486,-11.716607093811035,-243,9524.0,2.6457951068878174,-100,9984.0
6620,0.19433167576789856,-19.99058723449707,-304,9524.0,-2.407392740249634,-37,9984.0
6630,0.19454751908779144,-21.60916519165039,-281,9524.0,-5.751654148101807,-211,9984.0
6640,0.1945187896490097,-12.248429298400879,-230,9524.0,-7.362326622009277,-73,9984.0
6650,0.1938232183456421,-4.493377208709717,52,9524.0,-4.799356937408447,-54,9984.0
6660,0.19396661221981049,3.7864723205566406,31,9524.0,-2.8680784702301025,-99,9984.0
6670,0.19402259588241577,10.259331703186035,232,9524.0,-1.9038456678390503,69,9984.0
6680,0.19446410238742828,12.230210304260254,201,9524.0,-1.7745815515518188,-130,9984.0
6690,0.19272904098033905,15.74569034576416,204,9524.0,0.4336708188056946,76,9984.0
6700,0.19271773099899292,17.44024085998535,312,9524.0,5.650360107421875,42,9984.0
6710,0.193435937166214,19.923524856567383,288,9524.0,6.322488307952881,181,9984.0
6720,0.19353371858596802,10.934123992919922,168,9524.0,9.072281837463379,104,9984.0
6730,0.19374556839466095,-0.29241448640823364,-57,9524.0,9.149794578552246,181,9984.0
6740,0.19450408220291138,-8.345430374145508,-112,9524.0,9.442646980285645,76,9984.0
6750,0.1949329525232315,-13.89112663269043,-327,9524.0,5.445154190063477,95,9984.0
6760,0.19483892619609833,-16.442590713500977,-211,9524.0,0.8553697466850281,-49,9984.0
6770,0.19506481289863586,-17.12607192993164,-306,9524.0,-4.637435436248779,-152,9984.0
6780,0.19479458034038544,-13.483962059020996,-140,9524.0,-10.87386703491211,-161,9984.0
6790,0.19458825886249542,-8.975297927856445,-130,9524.0,-13.88023853302002,-322,9984.0
6800,0.19453808665275574,-4.520509243011475,-4,9524.0,-13.802762031555176,-126,9984.0
6810,0.19600075483322144,1.6079338788986206,92,9524.0,-10.699153900146484,-264,9984.0
6820,0.1953822672367096,7.684082508087158,51,9524.0,-5.643728256225586,-38,9984.0
6830,0.19592104852199554,7.885942459106445,230,9524.0,-0.8510527014732361,-4,9984.0
6840,0.19616596400737762,8.86923599243164,70,9524.0,2.674950361251831,50,9984.0
6850,0.19654612243175507,7.71743106842041,140,9524.0,7.566764831542969,207,9984.0
6860,0.19682034850120544,6.665009498596191,71,9524.0,11.179067611694336,158,9984.0
6870,0.19477687776088715,5.0774126052856445,105,9524.0,12.509900093078613,311,9984.0
6880,0.19503803551197052,2.873987913131714,-6,9524.0,10.858240127563477,127,9984.0
6890,0.19516141712665558,0.2911035120487213,-5,9524.0,5.590580940246582,178,9984.0
6900,0.19546513259410858,-2.2233786582946777,-36,9524.0,-0.22613617777824402,-88,9984.0
6910,0.19914981722831726,-5.132740020751953,-174,9524.0,-5.7237114906311035,-41,9984.0
6920,0.19955715537071228,-9.048646926879883,-69,9524.0,-4.859928131103516,-92,9984.0
6930,0.2000327855348587,-7.159607887268066,-212,9524.0,-2.0949299335479736,-6,9984.0
6940,0.20047540962696075,-9.732460021972656,-119,9524.0,-2.3136346340179443,36,9984.0
6950,0.2000574767589569,-9.77820110321045,-166,9524.0,-1.7906267642974854,-25,9984.0
6960,0.2007128894329071,-9.748753547668457,-94,9524.0,-0.9582356214523315,50,9984.0
6970,0.20106856524944305,-4.599268436431885,-156,9524.0,1.4295387268066406,-32,9984.0
6980,0.20184798538684845,0.5460156798362732,50,9524.0,1.8267313241958618,167,9984.0
6990,0.20206892490386963,5.74384069442749,75,9524.0,-0.8697471618652344,-91,9984.0
7000,0.20122064650058746,10.308464050292969,144,9524.0,-1.9053056240081787,43,9984.0
7010,0.20103970170021057,16.155189514160156,351,9524.0,-3.1824209690093994,-38,9984.0
7020,0.20136716961860657,19.49226188659668,240,9524.0,-0.42555204033851624,67,9984.0
7030,0.20175738632678986,21.142093658447266,434,9524.0,8.625842094421387,130,9984.0
7040,0.20080645382404327,20.09305191040039,279,9524.0,19.475637435913086,371,9984.0
7050,0.2009856402873993,17.80657196044922,353,9524.0,25.097036361694336,429,9984.0
7060,0.20143255591392517,14.099802017211914,161,9524.0,22.32233428955078,289,9984.0
7070,0.2014888972043991,7.193546772003174,128,9524.0,13.029414176940918,290,9984.0
7080,0.20237810909748077,2.160649538040161,-23,9524.0,2.74299693107605,-101,9984.0
7090,0.2003706991672516,-3.0877301692962646,-136,9524.0,-7.3588409423828125,-87,9984.0
7100,0.200712189078331,-9.506122589111328,-172,9524.0,-14.922755241394043,-308,9984.0
7110,0.2011890709400177,-13.22792911529541,-265,9524.0,-22.83682632446289,-336,9984.0
7120,0.20181314647197723,-15.463740348815918,-244,9524.0,-21.083288192749023,-353,9984.0
7130,0.20185238122940063,-20.377338409423828,-368,9524.0,-17.315275192260742,-192,9984.0
7140,0.20231221616268158,-23.65265464782715,-317,9524.0,-9.72939682006836,-227,9984.0
7150,0.2025325447320938,-24.211292266845703,-454,9524.0,-5.003637313842773,-90,9984.0
7160,0.20337995886802673,-20.63425636291504,-202,9524.0,1.7229880094528198,198,9984.0
7170,0.2039971798658371,-6.424773216247559,-21,9524.0,8.17686939239502,63,9984.0
7180,0.2031652182340622,10.797266960144043,236,9524.0,10.583404541015625,230,9984.0
7190,0.2035614401102066,24.103097915649414,505,9524.0,10.96969985961914,62,9984.0
7200,0.20405258238315582,28.695619583129883,420,9524.0,8.182629585266113,168,9984.0
7210,0.20458321273326874,23.274656295776367,454,9524.0,0.9686346650123596,-30,9984.0
7220,0.20376817882061005,14.311912536621094,113,9524.0,-4.979675769805908,-178,9984.0
7230,0.20412863790988922,2.5513978004455566,84,9524.0,-12.565332412719727,-167,9984.0
7240,0.20465680956840515,-4.292298316955566,-155,9524.0,-12.750070571899414,-285,9984.0
7250,0.2049388736486435,-9.239405632019043,-95,9524.0,-12.769890785217285,-117,9984.0
7260,0.2047470062971115,-9.921369552612305,-165,9524.0,-10.894815444946289,-251,9984.0
7270,0.20481087267398834,-10.008225440979004,-126,9524.0,-8.17794418334961,-85,9984.0
7280,0.20523779094219208,-9.664204597473145,-193,9524.0,-5.77923583984375,-185,9984.0
7290,0.20551523566246033,-7.265945911407471,-88,9524.0,-1.8935199975967407,133,9984.0
7300,0.20575329661369324,-6.0642805099487305,-56,9524.0,4.74125337600708,56,9984.0
7310,0.20533283054828644,-4.278732776641846,-118,9524.0,5.029319763183594,113,9984.0
7320,0.20563897490501404,-1.2229259014129639,81,9524.0,7.094462871551514,112,9984.0
7330,0.20595689117908478,0.9478459358215332,-9,9524.0,9.047197341918945,87,9984.0
7340,0.2062968611717224,4.351475238800049,131,9524.0,6.821300029754639,155,9984.0
7350,0.20776371657848358,7.385788440704346,117,9524.0,1.178985357284546,-60,9984.0
7360,0.20829659700393677,9.327094078063965,130,9524.0,-4.036008358001709,-10,9984.0
7370,0.20931470394134521,10.543140411376953,207,9524.0,-6.415877342224121,-123,9984.0
7380,0.2099543958902359,8.473687171936035,44,9524.0,-4.681210041046143,-5,9984.0
7390,0.20977245271205902,0.19645653665065765,47,9524.0,-0.12335174530744553,55,9984.0
7400,0.21012382209300995,-3.578866958618164,-136,9524.0,10.259572982788086,213,9984.0
7410,0.21098533272743225,-5.6446356773376465,-57,9524.0,19.843128204345703,407,9984.0
7420,0.21111005544662476,-5.9217729568481445,-103,9524.0,24.691709518432617,251,9984.0
7430,0.21256986260414124,-2.2302496433258057,42,9524.0,23.6068115234375,500,9984.0
7440,0.21411268413066864,-0.3486003279685974,10,9524.0,17.312835693359375,164,9984.0
7450,0.2152138352394104,-1.1518034934997559,-85,9524.0,8.06392765045166,78,9984.0
7460,0.21547013521194458,-3.764131784439087,-4,9524.0,-6.9396843910217285,-146,9984.0
7470,0.2162136733531952,-7.829198837280273,-176,9524.0,-18.168697357177734,-446,9984.0
7480,0.2159956395626068,-13.218050003051758,-298,9524.0,-23.46086883544922,-293,9984.0
7490,0.21644434332847595,-14.86788272857666,-267,9524.0,-21.309316635131836,-413,9984.0
7500,0.217543363571167,-13.372831344604492,-211,9524.0,-13.618531227111816,-102,9984.0
7510,0.21777331829071045,-7.671286106109619,-35,9524.0,-4.874512195587158,-95,9984.0
7520,0.21784456074237823,3.344241142272949,14,9524.0,3.3539934158325195,79,9984.0
7530,0.2175133228302002,12.541168212890625,322,9524.0,5.082696437835693,127,9984.0
7540,0.217458575963974,19.321434020996094,272,9524.0,6.0703325271606445,-12,9984.0
7550,0.21745525300502777,20.98664665222168,367,9524.0,5.533798694610596,197,9984.0
7560,0.21758925914764404,16.318828582763672,269,9524.0,8.38162612915039,-3,9984.0
7570,0.21962997317314148,10.465283393859863,153,9524.0,6.850071907043457,180,9984.0
7580,0.219856396317482,3.286949634552002,77,9524.0,5.9693403244018555,18,9984.0
7590,0.2205384522676468,-1.3122963905334473,-107,9524.0,3.306159734725952,106,9984.0
7600,0.22102509438991547,-4.099324703216553,-9,9524.0,-0.341486394405365,-82,9984.0
7610,0.22274288535118103,-6.6452250480651855,-161,9524.0,-5.722742080688477,-174,9984.0
7620,0.2237788587808609,-9.305570602416992,-90,9524.0,-13.133829116821289,-176,9984.0
7630,0.22381554543972015,-9.894526481628418,-197,9524.0,-18.271839141845703,-426,9984.0
7640,0.22513796389102936,-10.324033737182617,-138,9524.0,-20.680044174194336,-246,9984.0
7650,0.22501185536384583,-6.005313396453857,-73,9524.0,-14.377080917358398,-160,9984.0
7660,0.22364714741706848,3.5917587280273438,125,9524.0,-5.370055675506592,38,9984.0
7670,0.2242714911699295,13.639267921447754,308,9524.0,5.491289138793945,55,9984.0
7680,0.22512957453727722,15.949762344360352,243,9524.0,15.871125221252441,360,9984.0
7690,0.22566941380500793,17.012052536010742,303,9524.0,21.309633255004883,320,9984.0
7700,0.2313748598098755,13.831480026245117,244,9524.0,26.026954650878906,478,9984.0
7710,0.23211196064949036,9.955437660217285,104,9524.0,21.07622718811035,206,9984.0
7720,0.23456420004367828,1.7099474668502808,14,9524.0,7.235838413238525,161,9984.0
7730,0.235664963722229,-1.8412196636199951,-44,9524.0,-1.2974433898925781,-183,9984.0
7740,0.2345954179763794,-9.265469551086426,-192,9524.0,-13.846983909606934,-246,9984.0
7750,0.23531867563724518,-16.782442092895508,-420,9524.0,-25.71637725830078,-454,9984.0
7760,0.23598846793174744,-25.711488723754883,-419,9524.0,-25.777868270874023,-436,9984.0
7770,0.23646166920661926,-26.541749954223633,-509,9524.0,-22.913192749023438,-314,9984.0
7780,0.2379264384508133,-25.20540428161621,-321,9524.0,-13.591691970825195,-188,9984.0
7790,0.24147765338420868,-17.171667098999023,-226,9524.0,-2.5599305629730225,78,9984.0
7800,0.2423827201128006,-3.985485315322876,-16,9524.0,6.292497634887695,69,9984.0
7810,0.24323545396327972,5.395601749420166,110,9524.0,6.923831939697266,253,9984.0
7820,0.24409562349319458,10.693136215209961,235,9524.0,7.084988117218018,-19,9984.0
7830,0.2426627278327942,13.198445320129395,166,9524.0,5.476362705230713,211,9984.0
7840,0.2434195876121521,11.583272933959961,199,9524.0,4.268835544586182,7,9984.0
7850,0.24423851072788239,7.278882026672363,126,9524.0,2.4990689754486084,-1,9984.0
7860,0.24518424272537231,3.66275691986084,-2,9524.0,2.4511661529541016,66,9984.0
7870,0.246268630027771,-2.5515635013580322,33,9524.0,-0.4511546194553375,-110,9984.0
7880,0.2516362965106964,-4.638437271118164,-115,9524.0,-5.0304388999938965,-74,9984.0
7890,0.2530425488948822,-5.603527069091797,-89,9524.0,-3.775115966796875,-70,9984.0
7900,0.25439348816871643,-6.648714542388916,-106,9524.0,6.989260673522949,233,9984.0
7910,0.25566861033439636,-12.537186622619629,-290,9524.0,15.3768892288208,176,9984.0
7920,0.25345468521118164,-18.398605346679688,-263,9524.0,12.2565279006958,342,9984.0
7930,0.2545422911643982,-13.144506454467773,-151,9524.0,12.113615989685059,72,9984.0
7940,0.25546154379844666,-3.8030619621276855,-14,9524.0,13.253951072692871,341,9984.0
7950,0.25613003969192505,7.664527893066406,189,9524.0,12.25589370727539,101,9984.0
7960,0.2566693127155304,21.431608200073242,330,9524.0,6.313963413238525,171,9984.0
7970,0.2574567496776581,22.273649215698242,353,9524.0,-6.829991817474365,-279,9984.0
7980,0.2582060694694519,12.250128746032715,94,9524.0,-27.560565948486328,-443,9984.0
7990,0.25880321860313416,-0.15353898704051971,23,9524.0,-35.485694885253906,-709,9984.0
8000,0.2596193253993988,-3.7112905979156494,-79,9524.0,-35.17351531982422,-497,9984.0
8010,0.2582991421222687,-1.9014959335327148,-34,9524.0,-25.450777053833008,-380,9984.0
8020,0.2587857246398926,1.432039737701416,129,9524.0,-12.390772819519043,-184,9984.0
8030,0.2592918872833252,6.729409694671631,61,9524.0,-2.523838520050049,67,9984.0
8040,0.2598588764667511,7.5307536125183105,188,9524.0,7.520264148712158,71,9984.0
8050,0.26071158051490784,5.3458099365234375,33,9524.0,14.577385902404785,386,9984.0
8060,0.261305570602417,1.5010974407196045,73,9524.0,18.653621673583984,286,9984.0
8070,0.26189184188842773,0.6872392892837524,-47,9524.0,17.385665893554688,383,9984.0
8080,0.2625475227832794,-0.4759708046913147,10,9524.0,12.518088340759277,146,9984.0
8090,0.26463326811790466,-0.9813939929008484,-65,9524.0,4.337499141693115,35,9984.0
8100,0.26550132036209106,-0.4315766990184784,35,9524.0,-4.83234977722168,-111,9984.0
8110,0.2663378417491913,2.7174508571624756,-49,9524.0,-9.702038764953613,-104,9984.0
8120,0.26719334721565247,-2.426781415939331,-1,9524.0,-6.933200359344482,-84,9984.0
8130,0.26811397075653076,-8.644163131713867,-204,9524.0,-0.38163629174232483,3,9984.0
8140,0.2678627073764801,-10.828617095947266,-146,9524.0,4.468588829040527,165,9984.0
8150,0.26870113611221313,-8.911962509155273,-223,9524.0,14.883855819702148,285,9984.0
8160,0.2695245146751404,-7.154536247253418,-6,9524.0,21.454519271850586,393,9984.0
8170,0.2701904773712158,3.723344087600708,91,9524.0,22.987438201904297,283,9984.0
8180,0.2701294720172882,15.355351448059082,306,9524.0,20.841190338134766,337,9984.0
8190,0.27081412076950073,20.639427185058594,448,9524.0,11.237793922424316,1,9984.0
8200,0.2713392674922943,19.511411666870117,263,9524.0,-2.8378303050994873,-154,9984.0
8210,0.2718874216079712,11.553939819335938,231,9524.0,-14.019710540771484,-242,9984.0
8220,0.27285364270210266,2.3371167182922363,-85,9524.0,-20.577524185180664,-417,9984.0
8230,0.2732113301753998,-6.778590202331543,-81,9524.0,-22.677154541015625,-254,9984.0
8240,0.2734662890434265,-11.174525260925293,-193,9524.0,-23.44601058959961,-499,9984.0
8250,0.2736371159553528,-13.331077575683594,-219,9524.0,-18.355525970458984,-126,9984.0
8260,0.27390092611312866,-12.69083309173584,-258,9524.0,-8.539556503295898,-181,9984.0
8270,0.27485522627830505,-8.094320297241211,-119,9524.0,-3.227867364883423,71,9984.0
8280,0.2753293216228485,-0.560777485370636,126,9524.0,3.777674913406372,72,9984.0
8290,0.2758461833000183,7.60378360748291,89,9524.0,8.044822692871094,127,9984.0
8300,0.2763875424861908,12.277902603149414,254,9524.0,15.79708194732666,399,9984.0
8310,0.2770143151283264,14.68136978149414,241,9524.0,21.609148025512695,314,9984.0
8320,0.2775992751121521,18.065582275390625,230,9524.0,20.612926483154297,305,9984.0
8330,0.27836063504219055,19.095197677612305,350,9524.0,15.14712142944336,330,9984.0
8340,0.27931106090545654,14.145578384399414,197,9524.0,7.789555072784424,-41,9984.0
8350,0.2802763283252716,12.19212818145752,139,9524.0,-0.9425992369651794,-4,9984.0
8360,0.2837410271167755,8.005230903625488,151,9524.0,-4.652539253234863,-108,9984.0
8370,0.28470173478126526,1.7139731645584106,-42,9524.0,-6.950938701629639,-147,9984.0
8380,0.2874721586704254,0.019494539126753807,73,9524.0,-2.3914144039154053,64,9984.0
8390,0.28877413272857666,1.4242608547210693,25,9524.0,1.450193166732788,-50,9984.0
8400,0.2912422716617584,-0.5555700659751892,-60,9524.0,-0.7814244031906128,30,9984.0
8410,0.29244741797447205,-8.1165189743042,-197,9524.0,1.734538197517395,31,9984.0
8420,0.2935336232185364,-21.37664794921875,-492,9524.0,5.127254962921143,151,9984.0
8430,0.2946152091026306,-31.79396629333496,-490,9524.0,12.576469421386719,269,9984.0
8440,0.29542866349220276,-28.71144676208496,-415,9524.0,12.795459747314453,110,9984.0
8450,0.2966170608997345,-14.538507461547852,-169,9524.0,13.482335090637207,312,9984.0
8460,0.29733672738075256,6.241663932800293,326,9524.0,11.772116661071777,99,9984.0
8470,0.29809316992759705,32.0031623840332,638,9524.0,0.6931584477424622,-112,9984.0
8480,0.2985725700855255,44.013771057128906,647,9524.0,-2.2181148529052734,-28,9984.0
8490,0.3013809323310852,42.493350982666016,677,9524.0,-8.590239524841309,-142,9984.0
8500,0.30205339193344116,27.946462631225586,400,9524.0,-21.521240234375,-502,9984.0
8510,0.30245375633239746,7.566526889801025,27,9524.0,-29.65976905822754,-357,9984.0
8520,0.302980899810791,-15.184073448181152,-332,9524.0,-30.194705963134766,-619,9984.0
8530,0.30397623777389526,-26.969274520874023,-434,9524.0,-27.78050994873047,-402,9984.0
8540,0.30421745777130127,-24.36969757080078,-308,9524.0,-28.22690773010254,-505,9984.0
8550,0.30449992418289185,-14.403817176818848,-208,9524.0,-28.459747314453125,-554,9984.0
8560,0.304768830537796,-1.2072347402572632,69,9524.0,-25.557537078857422,-236,9984.0
8570,0.3050754964351654,7.561917304992676,196,9524.0,-16.292146682739258,-254,9984.0
8580,0.30523040890693665,9.993144989013672,174,9524.0,-3.961534023284912,-80,9984.0
8590,0.30561235547065735,4.6126017570495605,83,9524.0,5.31967830657959,237,9984.0
8600,0.3060208559036255,0.4386826753616333,-13,9524.0,7.988286972045898,1,9984.0
8610,0.30657070875167847,-2.1329925060272217,-131,9524.0,7.782784938812256,167,9984.0
8620,0.30779004096984863,-6.198023319244385,-134,9524.0,12.887465476989746,331,9984.0
8630,0.30832046270370483,1.6677156686782837,69,9524.0,21.060609817504883,303,9984.0
8640,0.308887779712677,9.979872703552246,159,9524.0,27.320310592651367,463,9984.0
8650,0.309444397687912,11.258064270019531,204,9524.0,23.625532150268555,489,9984.0
8660,0.3091987669467926,8.41828441619873,66,9524.0,14.073907852172852,102,9984.0
8670,0.30996423959732056,6.754305839538574,71,9524.0,4.333844184875488,68,9984.0
8680,0.3103417754173279,7.016875743865967,138,9524.0,-7.548281192779541,-117,9984.0
8690,0.3107559084892273,6.1582350730896,82,9524.0,-15.200662612915039,-415,9984.0
8700,0.31089863181114197,2.7671453952789307,34,9524.0,-20.10163116455078,-232,9984.0
8710,0.31019502878189087,-3.8227179050445557,-63,9524.0,-15.777433395385742,-268,9984.0
8720,0.3102957010269165,-14.201896667480469,-342,9524.0,-7.147863388061523,-41,9984.0
8730,0.31039366126060486,-28.809368133544922,-483,9524.0,-7.008962631225586,-78,9984.0
8740,0.31056278944015503,-36.80875015258789,-650,9524.0,-7.737264633178711,-261,9984.0
8750,0.31271523237228394,-31.67961311340332,-527,9524.0,-5.6582865715026855,28,9984.0
8760,0.31300532817840576,-18.67216682434082,-196,9524.0,1.2474054098129272,5,9984.0
8770,0.31349340081214905,4.5292134284973145,121,9524.0,-2.4223110675811768,-113,9984.0
8780,0.3141457140445709,23.323593139648438,388,9524.0,-11.833944320678711,-258,9984.0
8790,0.31472283601760864,30.225332260131836,558,9524.0,-23.61560821533203,-247,9984.0
8800,0.31359967589378357,29.40581512451172,414,9524.0,-26.18316650390625,-495,9984.0
8810,0.31429731845855713,16.96856689453125,215,9524.0,-16.074459075927734,-130,9984.0
8820,0.3150625228881836,2.3612098693847656,12,9524.0,-5.902889251708984,-114,9984.0
8830,0.3158930838108063,-10.271403312683105,-250,9524.0,5.901824951171875,116,9984.0
8840,0.3175923824310303,-20.896984100341797,-276,9524.0,12.437872886657715,303,9984.0
8850,0.3184470534324646,-18.02981185913086,-305,9524.0,21.145606994628906,314,9984.0
8860,0.3192659914493561,-13.769457817077637,-184,9524.0,26.0270938873291,535,9984.0
8870,0.32034313678741455,-13.66054916381836,-214,9524.0,25.223793029785156,290,9984.0
8880,0.32232865691185,-13.79732608795166,-280,9524.0,20.643779754638672,284,9984.0
8890,0.323399156332016,-10.27323055267334,-144,9524.0,12.746512413024902,240,9984.0
8900,0.3243228495121002,-3.282866954803467,17,9524.0,2.544245481491089,-5,9984.0
8910,0.32528528571128845,-4.252898216247559,-184,9524.0,-6.6898932456970215,-230,9984.0
8920,0.3261530101299286,-5.5311737060546875,-52,9524.0,-14.059167861938477,-203,9984.0
8930,0.3282433748245239,-6.653296947479248,-67,9524.0,-19.249040603637695,-361,9984.0
8940,0.32904359698295593,-4.351810932159424,-132,9524.0,-16.21858787536621,-279,9984.0
8950,0.3298172950744629,-2.417937994003296,30,9524.0,-11.065630912780762,-152,9984.0
8960,0.33059340715408325,3.9002723693847656,67,9524.0,-3.3496172428131104,-161,9984.0
8970,0.3319646716117859,8.224382400512695,219,9524.0,4.545310974121094,226,9984.0
8980,0.3327120244503021,11.533757209777832,182,9524.0,10.670655250549316,44,9984.0
8990,0.3334767520427704,16.525758743286133,303,9524.0,9.251693725585938,278,9984.0
9000,0.3342447280883789,13.06845474243164,224,9524.0,8.565610885620117,6,9984.0
9010,0.3351401686668396,5.703857421875,63,9524.0,-0.2530931532382965,-6,9984.0
9020,0.33682942390441895,-3.9536828994750977,-101,9524.0,-8.14497184753418,-165,9984.0
9030,0.3378400504589081,-13.364337921142578,-348,9524.0,-14.885107040405273,-243,9984.0
9040,0.33889180421829224,-16.6895694732666,-206,9524.0,-21.128023147583008,-333,9984.0
9050,0.33985742926597595,-18.108427047729492,-357,9524.0,-19.308120727539062,-269,9984.0
9060,0.3416537046432495,-17.73973846435547,-210,9524.0,-6.403095245361328,-61,9984.0
9070,0.342713862657547,-17.20734405517578,-352,9524.0,3.746349811553955,141,9984.0
9080,0.34438470005989075,-13.740723609924316,-110,9524.0,11.888198852539062,280,9984.0
9090,0.34548765420913696,-4.764566898345947,-39,9524.0,15.460175514221191,130,9984.0
9100,0.3474496006965637,8.52717399597168,167,9524.0,16.157838821411133,379,9984.0
9110,0.348542183637619,14.8657808303833,294,9524.0,15.530981063842773,217,9984.0
9120,0.34945884346961975,16.109556198120117,181,9524.0,14.328262329101562,244,9984.0
9130,0.35032421350479126,11.133864402770996,166,9524.0,13.275071144104004,252,9984.0
9140,0.35111722350120544,6.751018524169922,88,9524.0,14.705605506896973,257,9984.0
9150,0.352254718542099,8.075127601623535,121,9524.0,14.122529029846191,289,9984.0
9160,0.3528706431388855,8.003830909729004,263,9524.0,9.101411819458008,-3,9984.0
9170,0.35356613993644714,13.635994911193848,209,9524.0,-1.335659384727478,0,9984.0
9180,0.354128360748291,15.884613037109375,346,9524.0,-12.923746109008789,-285,9984.0
9190,0.3562668263912201,13.74963665008545,68,9524.0,-22.345108032226562,-358,9984.0
9200,0.356700599193573,9.530656814575195,198,9524.0,-23.829692840576172,-326,9984.0
9210,0.3571144640445709,6.223695755004883,-48,9524.0,-15.123988151550293,-201,9984.0
9220,0.357586532831192,0.5227934122085571,61,9524.0,-2.731532573699951,58,9984.0
9230,0.35805246233940125,1.6759449243545532,-12,9524.0,10.099785804748535,118,9984.0
9240,0.3573116660118103,10.799818992614746,231,9524.0,9.293939590454102,191,9984.0
9250,0.35774579644203186,20.941682815551758,339,9524.0,-0.5780911445617676,-120,9984.0
9260,0.3582763373851776,21.699705123901367,288,9524.0,-7.8409504890441895,-110,9984.0
9270,0.3588334321975708,15.642525672912598,292,9524.0,-12.877816200256348,-287,9984.0
9280,0.35849517583847046,2.678985118865967,-75,9524.0,-12.426953315734863,-154,9984.0
9290,0.35906466841697693,-15.088871002197266,-193,9524.0,-5.500521659851074,-35,9984.0
9300,0.35963931679725647,-20.99901008605957,-405,9524.0,6.217340469360352,134,9984.0
9310,0.3602563738822937,-16.228986740112305,-177,9524.0,17.006925582885742,364,9984.0
9320,0.3631451725959778,-5.151177406311035,20,9524.0,21.99445915222168,289,9984.0
9330,0.36382922530174255,8.115760803222656,72,9524.0,20.516456604003906,229,9984.0
9340,0.36461231112480164,15.462120056152344,354,9524.0,9.800732612609863,223,9984.0
9350,0.36517179012298584,17.328868865966797,334,9524.0,0.4426017701625824,-61,9984.0
9360,0.36566162109375,14.782629013061523,216,9524.0,-7.812962055206299,-304,9984.0
9370,0.36646899580955505,8.721006393432617,40,9524.0,-11.039680480957031,-66,9984.0
9380,0.3669109046459198,-0.0120226526632905,33,9524.0,-7.204315662384033,-137,9984.0
9390,0.36720773577690125,-1.7974580526351929,-40,9524.0,-6.300642013549805,-125,9984.0
9400,0.3675094246864319,4.564270496368408,160,9524.0,-11.556323051452637,-90,9984.0
9410,0.3670866787433624,16.654071807861328,365,9524.0,-15.952323913574219,-379,9984.0
9420,0.36731964349746704,23.70503807067871,321,9524.0,-20.45026397705078,-230,9984.0
9430,0.36760738492012024,19.93778419494629,342,9524.0,-16.076032638549805,-276,9984.0
9440,0.3678071200847626,4.918133735656738,-97,9524.0,-8.039453506469727,-17,9984.0
9450,0.3680979013442993,-18.213895797729492,-343,9524.0,4.237289905548096,91,9984.0
9460,0.3663162589073181,-33.741485595703125,-596,9524.0,12.741852760314941,229,9984.0
9470,0.36654505133628845,-30.858137130737305,-431,9524.0,14.262794494628906,284,9984.0
9480,0.3668528199195862,-19.273303985595703,-288,9524.0,8.379341125488281,-72,9984.0
9490,0.36740821599960327,-2.87444806098938,-10,9524.0,-6.778385639190674,-93,9984.0
9500,0.3665131628513336,6.106231212615967,162,9524.0,-19.790019989013672,-301,9984.0
9510,0.3670787215232849,7.645293712615967,69,9524.0,-23.634000778198242,-500,9984.0
9520,0.3676983118057251,4.792701721191406,51,9524.0,-16.878732681274414,-122,9984.0
9530,0.3684137463569641,1.966237187385559,60,9524.0,-9.674324989318848,-216,9984.0
9540,0.3701547384262085,6.100121021270752,49,9524.0,-2.8855700492858887,52,9984.0
9550,0.3708224296569824,7.815995693206787,213,9524.0,6.613480567932129,218,9984.0
9560,0.37139806151390076,8.509650230407715,108,9524.0,5.987295627593994,-52,9984.0
9570,0.37191271781921387,1.1327481269836426,-77,9524.0,-1.0419650077819824,16,9984.0
9580,0.37238097190856934,-12.932978630065918,-217,9524.0,-3.7409088611602783,-66,9984.0
9590,0.3720303773880005,-23.918779373168945,-511,9524.0,7.081904411315918,184,9984.0
9600,0.3723454177379608,-24.254037857055664,-343,9524.0,15.338356971740723,353,9984.0
9610,0.37261316180229187,-13.256950378417969,-146,9524.0,12.727984428405762,119,9984.0
9620,0.37275320291519165,2.188939094543457,-16,9524.0,6.141484260559082,43,9984.0
9630,0.3728821575641632,11.124171257019043,227,9524.0,-2.9662888050079346,27,9984.0
9640,0.3729049265384674,13.011735916137695,237,9524.0,-10.51906967163086,-318,9984.0
9650,0.37293368577957153,10.886585235595703,98,9524.0,-11.485820770263672,-75,9984.0
9660,0.37295979261398315,3.3711633682250977,69,9524.0,-2.383615016937256,132,9984.0
9670,0.3730975389480591,-2.018113851547241,-99,9524.0,12.112716674804688,121,9984.0
9680,0.37320995330810547,-7.307992935180664,-178,9524.0,20.197330474853516,403,9984.0
9690,0.37342047691345215,-6.059576034545898,-9,9524.0,21.619483947753906,343,9984.0
9700,0.37382620573043823,-0.45650723576545715,-49,9524.0,13.636435508728027,54,9984.0
9710,0.3742373287677765,3.2241036891937256,113,9524.0,1.664537787437439,-29,9984.0
9720,0.3752630949020386,10.6323881149292,273,9524.0,-11.997138023376465,-264,9984.0
9730,0.3758476972579956,10.16456413269043,38,9524.0,-22.127058029174805,-514,9984.0
9740,0.37661004066467285,-1.435286521911621,-75,9524.0,-19.28408432006836,-147,9984.0
9750,0.37736135721206665,-15.508809089660645,-400,9524.0,-5.845920562744141,-90,9984.0
9760,0.37847936153411865,-27.773059844970703,-478,9524.0,7.7687201499938965,217,9984.0
9770,0.37928447127342224,-27.175979614257812,-323,9524.0,13.050093650817871,252,9984.0
9780,0.38010460138320923,-16.977502822875977,-242,9524.0,18.68450927734375,379,9984.0
9790,0.380863755941391,-5.673276424407959,58,9524.0,22.354761123657227,400,9984.0
9800,0.3818124532699585,9.80782413482666,214,9524.0,25.08829689025879,413,9984.0
9810,0.3851475715637207,20.173324584960938,305,9524.0,25.262130737304688,470,9984.0
9820,0.38603949546813965,25.40766716003418,507,9524.0,26.4038143157959,500,9984.0
9830,0.3868075907230377,24.472543716430664,353,9524.0,22.64211082458496,234,9984.0
9840,0.387483149766922,19.031705856323242,241,9524.0,13.59623908996582,213,9984.0
9850,0.38887760043144226,9.893683433532715,122,9524.0,2.6976404190063477,103,9984.0
9860,0.3894003629684448,1.5991839170455933,-71,9524.0,-5.766899585723877,-233,9984.0
9870,0.38980332016944885,-3.4314210414886475,-57,9524.0,-15.6370210647583,-251,9984.0
9880,0.3901333212852478,-1.3061603307724,101,9524.0,-26.330339431762695,-517,9984.0
9890,0.3903726637363434,7.796823024749756,65,9524.0,-31.073530197143555,-475,9984.0
9900,0.39159178733825684,12.547441482543945,312,9524.0,-24.44607162475586,-359,9984.0
9910,0.3917975127696991,16.03606605529785,292,9524.0,-11.518284797668457,-177,9984.0
9920,0.39203962683677673,14.661991119384766,259,9524.0,2.1483051776885986,124,9984.0
9930,0.392248272895813,4.892341613769531,-39,9524.0,12.892656326293945,244,9984.0
9940,0.39352431893348694,-14.482024192810059,-263,9524.0,18.350635528564453,359,9984.0
9950,0.3939889073371887,-31.607484817504883,-660,9524.0,14.779245376586914,159,9984.0
9960,0.39449766278266907,-39.35369110107422,-629,9524.0,3.9822123050689697,98,9984.0
9970,0.39508694410324097,-36.73167419433594,-513,9524.0,-5.6668524742126465,-204,9984.0
9980,0.39576199650764465,-23.887943267822266,-448,9524.0,-15.71924114227295,-280,9984.0
9990,0.39636144042015076,-17.61774444580078,-238,9524.0,-25.93082046508789,-406,9984.0
10000,0.3968786299228668,-17.60688018798828,-360,9524.0,-30.000059127807617,-593,9984.0
10010,0.3975539207458496,-17.473236083984375,-313,9524.0,-30.907108306884766,-397,9984.0
10020,0.39876922965049744,-22.887235641479492,-363,9524.0,-19.266210556030273,-274,9984.0
10030,0.3980599343776703,-26.593454360961914,-479,9524.0,4.265141487121582,159,9984.0
10040,0.39889228343963623,-18.177343368530273,-178,9524.0,22.135108947753906,446,9984.0
10050,0.39967554807662964,-0.11843924969434738,60,9524.0,31.812793731689453,403,9984.0
10060,0.4005489647388458,21.996862411499023,443,9524.0,30.44915199279785,538,9984.0
10070,0.3999388813972473,38.55561828613281,701,9524.0,19.914823532104492,366,9984.0
10080,0.4004499614238739,41.89484786987305,609,9524.0,12.0015287399292,73,9984.0
10090,0.40097227692604065,34.408912658691406,421,9524.0,2.23539400100708,44,9984.0
10100,0.4014049768447876,19.4600887298584,303,9524.0,-5.147191047668457,-69,9984.0
10110,0.40191349387168884,5.144772529602051,-19,9524.0,-10.368297576904297,-285,9984.0
10120,0.4002455174922943,-8.743522644042969,-204,9524.0,-19.46977424621582,-274,9984.0
10130,0.4003099799156189,-19.049367904663086,-323,9524.0,-29.62348747253418,-628,9984.0
10140,0.40033793449401855,-25.380218505859375,-475,9524.0,-33.96163558959961,-600,9984.0
10150,0.40044286847114563,-23.190744400024414,-327,9524.0,-34.86674880981445,-491,9984.0
10160,0.39980804920196533,-16.011316299438477,-249,9524.0,-18.414440155029297,-259,9984.0
10170,0.39990976452827454,0.9445359706878662,133,9524.0,5.680656433105469,315,9984.0
10180,0.40021470189094543,18.424488067626953,436,9524.0,28.4438533782959,491,9984.0
10190,0.40044456720352173,30.783164978027344,472,9524.0,32.5921630859375,520,9984.0
10200,0.3985523581504822,35.20893096923828,615,9524.0,26.688364028930664,539,9984.0
10210,0.39876896142959595,28.35845375061035,432,9524.0,18.820701599121094,221,9984.0
10220,0.39910563826560974,17.96072006225586,188,9524.0,7.1501688957214355,121,9984.0
10230,0.3994600176811218,10.112031936645508,182,9524.0,1.5814884901046753,127,9984.0
10240,0.3998023271560669,10.76126766204834,124,9524.0,1.5994521379470825,-116,9984.0
10250,0.4010193943977356,12.551863670349121,193,9524.0,0.7374994158744812,71,9984.0
10260,0.4012756645679474,10.910150527954102,175,9524.0,4.540773868560791,102,9984.0
10270,0.40155327320098877,-0.7712699174880981,-153,9524.0,6.757882595062256,-15,9984.0
10280,0.4018037021160126,-19.4146671295166,-353,9524.0,8.967428207397461,234,9984.0
10290,0.4043559730052948,-34.691131591796875,-523,9524.0,11.600799560546875,182,9984.0
10300,0.40452760457992554,-35.986148834228516,-589,9524.0,11.505125045776367,58,9984.0
10310,0.40462949872016907,-26.858428955078125,-332,9524.0,7.979310035705566,191,9984.0
10320,0.4047946333885193,-9.913606643676758,12,9524.0,3.2173449993133545,91,9984.0
10330,0.4048682749271393,8.044014930725098,286,9524.0,-7.056258678436279,-197,9984.0
10340,0.40774765610694885,20.12751007080078,328,9524.0,-23.711257934570312,-543,9984.0
10350,0.4077817499637604,26.551788330078125,405,9524.0,-34.89559555053711,-525,9984.0
10360,0.40781548619270325,24.656787872314453,431,9524.0,-38.57959747314453,-557,9984.0
10370,0.4078063368797302,15.458410263061523,149,9524.0,-36.307655334472656,-595,9984.0
10380,0.4061548113822937,-1.114622712135315,-90,9524.0,-17.658660888671875,-54,9984.0
10390,0.40632060170173645,-18.583284378051758,-375,9524.0,7.696523666381836,135,9984.0
10400,0.40643054246902466,-26.791946411132812,-406,9524.0,28.731149673461914,658,9984.0
10410,0.40650540590286255,-25.425905227661133,-400,9524.0,40.314823150634766,652,9984.0
10420,0.40491729974746704,-16.94871711730957,-275,9524.0,39.48261642456055,750,9984.0
10430,0.40512946248054504,-6.322043418884277,-24,9524.0,28.498748779296875,334,9984.0
10440,0.4054824411869049,0.23814517259597778,164,9524.0,7.8381266593933105,-95,9984.0
10450,0.40591663122177124,9.804235458374023,146,9524.0,-12.879447937011719,-256,9984.0
10460,0.4063495397567749,12.270328521728516,96,9524.0,-24.97975730895996,-409,9984.0
10470,0.4078601598739624,2.5949628353118896,43,9524.0,-28.19678497314453,-578,9984.0
10480,0.40840378403663635,-13.815488815307617,-304,9524.0,-24.307857513427734,-329,9984.0
10490,0.4089955687522888,-22.550247192382812,-332,9524.0,-19.197572708129883,-282,9984.0
10500,0.4094966650009155,-18.84041404724121,-369,9524.0,-6.627261638641357,-85,9984.0
10510,0.40926364064216614,-10.038519859313965,-61,9524.0,5.873888969421387,238,9984.0
10520,0.40980932116508484,2.480783224105835,30,9524.0,14.359249114990234,199,9984.0
10530,0.41021889448165894,6.335947036743164,50,9524.0,22.87425422668457,449,9984.0
10540,0.4106026589870453,3.337798833847046,66,9524.0,31.597288131713867,586,9984.0
10550,0.41087719798088074,-0.5794616341590881,-7,9524.0,33.88407516479492,421,9984.0
10560,0.4122453033924103,8.360795974731445,230,9524.0,22.706249237060547,333,9984.0
10570,0.41243743896484375,23.506086349487305,480,9524.0,3.726280689239502,-27,9984.0
10580,0.4125966429710388,36.89567184448242,704,9524.0,-14.361776351928711,-410,9984.0
10590,0.41264668107032776,54.9401969909668,938,9524.0,-23.34088897705078,-344,9984.0
10600,0.41302797198295593,64.78414916992188,1153,9524.0,-26.704166412353516,-502,9984.0
10610,0.4137311577796936,60.10783767700195,899,9524.0,-27.012340545654297,-378,9984.0
10620,0.4137762188911438,34.1574821472168,423,9524.0,-19.0161075592041,-378,9984.0
10630,0.4141223728656769,-7.919239044189453,-322,9524.0,-11.696494102478027,-43,9984.0
10640,0.41494718194007874,-49.67441177368164,-961,9524.0,5.639379501342773,58,9984.0
10650,0.41506728529930115,-74.89540100097656,-1275,9524.0,13.056756019592285,298,9984.0
10660,0.41519612073898315,-82.70782470703125,-1399,9524.0,12.254773139953613,85,9984.0
10670,0.4154125154018402,-78.49562072753906,-1229,9524.0,12.243282318115234,220,9984.0
10680,0.41554492712020874,-55.719482421875,-755,9524.0,6.064231872558594,96,9984.0
10690,0.41398054361343384,-26.19202423095703,-262,9524.0,-1.7763429880142212,-58,9984.0
10700,0.41425031423568726,1.838037371635437,57,9524.0,-3.3125996589660645,-152,9984.0
10710,0.41471055150032043,17.295724868774414,343,9524.0,-4.1264848709106445,21,9984.0
10720,0.4151601195335388,20.690277099609375,404,9524.0,0.47637036442756653,42,9984.0
10730,0.4153479337692261,24.413551330566406,360,9524.0,7.973344802856445,40,9984.0
10740,0.41574329137802124,25.794191360473633,379,9524.0,14.555071830749512,334,9984.0
10750,0.41607406735420227,20.559101104736328,395,9524.0,17.306461334228516,261,9984.0
10760,0.4163558781147003,13.917671203613281,131,9524.0,17.07474136352539,244,9984.0
10770,0.41677403450012207,5.122457027435303,87,9524.0,14.197942733764648,305,9984.0
10780,0.41587886214256287,-1.1773779392242432,-43,9524.0,13.530769348144531,176,9984.0
10790,0.4159381687641144,-6.862790584564209,-188,9524.0,12.347890853881836,165,9984.0
10800,0.41601505875587463,-7.241281509399414,-9,9524.0,4.061048984527588,109,9984.0
10810,0.4159485995769501,-5.732035160064697,-36,9524.0,-7.825835704803467,-190,9984.0
10820,0.41666409373283386,5.578868865966797,72,9524.0,-18.55678367614746,-404,9984.0
10830,0.4164833426475525,17.87735366821289,407,9524.0,-25.959758758544922,-350,9984.0
10840,0.4161803722381592,30.30173110961914,525,9524.0,-25.997589111328125,-523,9984.0
10850,0.4160347282886505,39.26984786987305,636,9524.0,-23.187061309814453,-311,9984.0
10860,0.4154665470123291,38.00828170776367,601,9524.0,-19.910457611083984,-309,9984.0
10870,0.41522911190986633,25.897863388061523,346,9524.0,-6.287871360778809,-26,9984.0
10880,0.415068656206131,7.698500156402588,125,9524.0,10.953722953796387,240,9984.0
10890,0.41482013463974,-6.029894828796387,-215,9524.0,17.137462615966797,197,9984.0
10900,0.4145545959472656,-20.38079071044922,-329,9524.0,15.748632431030273,288,9984.0
10910,0.41364389657974243,-32.05127716064453,-648,9524.0,19.79511260986328,296,9984.0
10920,0.4135689437389374,-38.035728454589844,-599,9524.0,20.951711654663086,269,9984.0
10930,0.41346487402915955,-33.02436065673828,-401,9524.0,1.8337839841842651,-66,9984.0
10940,0.4135175943374634,-21.029521942138672,-352,9524.0,-20.19976234436035,-513,9984.0
10950,0.4137745797634125,-16.125289916992188,-276,9524.0,-33.81800842285156,-524,9984.0
10960,0.41382890939712524,-15.833600997924805,-196,9524.0,-29.918935775756836,-325,9984.0
10970,0.4138962924480438,-7.642361640930176,-22,9524.0,-19.38430404663086,-248,9984.0
10980,0.4138486981391907,6.6473541259765625,138,9524.0,-5.855017185211182,13,9984.0
10990,0.4141121804714203,22.232803344726562,499,9524.0,12.45212459564209,349,9984.0
11000,0.41324472427368164,32.37784957885742,549,9524.0,23.095840454101562,401,9984.0
11010,0.4133014678955078,35.80586242675781,491,9524.0,30.802539825439453,538,9984.0
11020,0.41314733028411865,24.449337005615234,338,9524.0,32.32052993774414,616,9984.0
11030,0.41316190361976624,-0.5221628546714783,-172,9524.0,29.83983039855957,363,9984.0
11040,0.4134830832481384,-29.263940811157227,-646,9524.0,21.488080978393555,264,9984.0
11050,0.4133542776107788,-42.577491760253906,-655,9524.0,5.581094264984131,85,9984.0
11060,0.4133952260017395,-36.63008117675781,-563,9524.0,-15.272583961486816,-416,9984.0
11070,0.4132601320743561,-12.945469856262207,-152,9524.0,-42.90190887451172,-723,9984.0
11080,0.41388657689094543,16.746095657348633,433,9524.0,-61.0629768371582,-969,9984.0
11090,0.4137904942035675,39.601680755615234,729,9524.0,-53.935279846191406,-974,9984.0
11100,0.41385143995285034,47.17007827758789,733,9524.0,-39.857627868652344,-469,9984.0
11110,0.41386204957962036,35.731605529785156,552,9524.0,-12.75464916229248,-151,9984.0
11120,0.4139496386051178,16.143451690673828,77,9524.0,15.198587417602539,361,9984.0
11130,0.41448161005973816,-10.035829544067383,-217,9524.0,37.123924255371094,724,9984.0
11140,0.4145877957344055,-21.97768211364746,-450,9524.0,48.106632232666016,669,9984.0
11150,0.41474854946136475,-27.056922912597656,-397,9524.0,43.123775482177734,696,9984.0
11160,0.4149496257305145,-21.591354370117188,-235,9524.0,25.350187301635742,296,9984.0
11170,0.41511598229408264,-12.578899383544922,-173,9524.0,-1.8562558889389038,-203,9984.0
11180,0.41542676091194153,-5.618629455566406,-134,9524.0,-25.845258712768555,-523,9984.0
11190,0.41566726565361023,-11.77096176147461,-182,9524.0,-45.21852111816406,-720,9984.0
11200,0.4158150553703308,-24.151168823242188,-471,9524.0,-52.89937210083008,-938,9984.0
11210,0.4160498082637787,-34.99235534667969,-684,9524.0,-44.19919967651367,-625,9984.0
11220,0.4169762134552002,-40.8519172668457,-581,9524.0,-17.37880516052246,-191,9984.0
11230,0.41771310567855835,-34.87410354614258,-513,9524.0,13.383779525756836,199,9984.0
11240,0.41820448637008667,-17.57056999206543,-183,9524.0,35.30425262451172,755,9984.0
11250,0.41879117488861084,5.046497821807861,274,9524.0,42.99604034423828,711,9984.0
11260,0.41921675205230713,22.42222023010254,359,9524.0,45.437686920166016,616,9984.0
11270,0.4196104109287262,27.823278427124023,370,9524.0,34.8775749206543,498,9984.0
11280,0.42003604769706726,17.51866340637207,236,9524.0,15.711454391479492,310,9984.0
11290,0.42032548785209656,-3.2572195529937744,-96,9524.0,7.1854095458984375,-18,9984.0
11300,0.42225754261016846,-12.779579162597656,-224,9524.0,-3.6045680046081543,-127,9984.0
11310,0.42254918813705444,-1.5841914415359497,102,9524.0,-20.96771812438965,-347,9984.0
11320,0.42276427149772644,15.069799423217773,353,9524.0,-33.56293487548828,-665,9984.0
11330,0.422944039106369,27.747291564941406,403,9524.0,-38.29566955566406,-586,9984.0
11340,0.4229026436805725,35.680599212646484,695,9524.0,-28.80454444885254,-377,9984.0
11350,0.42310234904289246,36.938377380371094,574,9524.0,-15.521563529968262,-230,9984.0
11360,0.42325204610824585,32.78445053100586,563,9524.0,0.4527471959590912,100,9984.0
11370,0.4234706461429596,23.839921951293945,298,9524.0,20.81434440612793,433,9984.0
11380,0.42386770248413086,5.877768039703369,29,9524.0,35.888614654541016,635,9984.0
11390,0.4260063171386719,-17.529443740844727,-393,9524.0,49.19757080078125,897,9984.0
11400,0.4262791872024536,-32.9232177734375,-501,9524.0,52.680179595947266,839,9984.0
11410,0.42652562260627747,-37.53465270996094,-699,9524.0,36.34423828125,440,9984.0
11420,0.42681288719177246,-35.77142333984375,-518,9524.0,10.101072311401367,51,9984.0
11430,0.4272862374782562,-21.58767318725586,-221,9524.0,-15.927873611450195,-245,9984.0
11440,0.4282384216785431,-0.4701879322528839,52,9524.0,-36.953582763671875,-680,9984.0
11450,0.42860347032546997,15.146102905273438,283,9524.0,-40.054481506347656,-728,9984.0
11460,0.42889299988746643,26.874692916870117,510,9524.0,-33.6125373840332,-379,9984.0
11470,0.4292929470539093,34.20417404174805,603,9524.0,-15.952607154846191,-240,9984.0
11480,0.4290619492530823,31.0022029876709,435,9524.0,6.047091007232666,255,9984.0
11490,0.4293006658554077,18.53822135925293,284,9524.0,29.145877838134766,511,9984.0
11500,0.42954376339912415,4.530518531799316,27,9524.0,43.67127227783203,681,9984.0
11510,0.42949262261390686,-4.420907497406006,-63,9524.0,44.509342193603516,758,9984.0
11520,0.42936602234840393,-9.634156227111816,-151,9524.0,37.628108978271484,528,9984.0
11530,0.42927035689353943,-12.051711082458496,-236,9524.0,25.135059356689453,278,9984.0
11540,0.4289769232273102,-13.943623542785645,-158,9524.0,12.005538940429688,170,9984.0
11550,0.42883479595184326,-11.431321144104004,-112,9524.0,-8.217708587646484,-239,9984.0
11560,0.4285648763179779,-5.431789875030518,-22,9524.0,-29.027616500854492,-566,9984.0
11570,0.42943480610847473,3.3460488319396973,29,9524.0,-39.39727783203125,-713,9984.0
11580,0.4289736747741699,14.172037124633789,353,9524.0,-40.39533615112305,-477,9984.0
11590,0.42839959263801575,30.462263107299805,643,9524.0,-26.29914665222168,-390,9984.0
11600,0.4279944598674774,41.57928466796875,617,9524.0,-7.994677543640137,-33,9984.0
11610,0.426780104637146,30.914674758911133,458,9524.0,12.037729263305664,302,9984.0
11620,0.4261031746864319,10.40266227722168,-56,9524.0,23.82655906677246,401,9984.0
11630,0.42546677589416504,-19.33050537109375,-470,9524.0,32.316951751708984,604,9984.0
11640,0.4251294732093811,-42.88558578491211,-764,9524.0,28.97256851196289,299,9984.0
11650,0.42454031109809875,-52.472450256347656,-899,9524.0,12.87371826171875,19,9984.0
11660,0.4232531189918518,-47.42066192626953,-715,9524.0,-5.652552127838135,-144,9984.0
11670,0.422836571931839,-31.863027572631836,-361,9524.0,-20.156892776489258,-370,9984.0
11680,0.422700434923172,-13.66011905670166,-111,9524.0,-27.94754981994629,-585,9984.0
11690,0.422391802072525,0.5419015288352966,106,9524.0,-23.845060348510742,-348,9984.0
11700,0.4216378629207611,14.003214836120605,216,9524.0,-20.831497192382812,-180,9984.0
11710,0.4215189516544342,16.579057693481445,280,9524.0,-14.198626518249512,-258,9984.0
11720,0.42137429118156433,6.131110191345215,-6,9524.0,-6.029191017150879,-28,9984.0
11730,0.4212627410888672,-4.818375587463379,-168,9524.0,5.820434093475342,318,9984.0
11740,0.41992202401161194,-7.387065410614014,-87,9524.0,20.607023239135742,336,9984.0
11750,0.41973865032196045,-0.23291601240634918,-26,9524.0,31.336036682128906,537,9984.0
11760,0.4196009635925293,9.317079544067383,130,9524.0,31.994136810302734,610,9984.0
11770,0.4195091724395752,14.393960952758789,255,9524.0,26.9221248626709,264,9984.0
11780,0.4191960096359253,16.640710830688477,233,9524.0,14.794211387634277,107,9984.0
11790,0.4184148907661438,15.401701927185059,302,9524.0,-0.5674537420272827,43,9984.0
11800,0.41805192828178406,15.789416313171387,328,9524.0,-17.274208068847656,-364,9984.0
11810,0.417753130197525,18.584524154663086,267,9524.0,-29.25663948059082,-578,9984.0
11820,0.4173133373260498,30.931604385375977,681,9524.0,-30.455486297607422,-335,9984.0
11830,0.4160532057285309,53.58185958862305,927,9524.0,-22.67020606994629,-380,9984.0
11840,0.41559669375419617,63.51154708862305,1035,9524.0,-14.870514869689941,-192,9984.0
11850,0.415702760219574,53.33062744140625,846,9524.0,-11.447531700134277,-258,9984.0
11860,0.4154093861579895,24.772850036621094,244,9524.0,-11.740535736083984,-132,9984.0
11870,0.41705799102783203,-17.85479164123535,-515,9524.0,-11.392644882202148,-221,9984.0
11880,0.4172101318836212,-62.6383171081543,-1097,9524.0,-4.382392883300781,-25,9984.0
11890,0.4172588884830475,-88.18587493896484,-1501,9524.0,5.064334869384766,104,9984.0
11900,0.41744866967201233,-89.4074935913086,-1377,9524.0,11.787393569946289,323,9984.0
11910,0.4177074432373047,-71.5787582397461,-1014,9524.0,13.223807334899902,131,9984.0
11920,0.4168606400489807,-36.65678405761719,-449,9524.0,3.189570188522339,-53,9984.0
11930,0.41762396693229675,-1.7621792554855347,120,9524.0,-8.506534576416016,-105,9984.0
11940,0.4182862341403961,21.317195892333984,472,9524.0,-14.50124740600586,-206,9984.0
11950,0.4189565181732178,24.809526443481445,318,9524.0,-11.869759559631348,-274,9984.0
11960,0.41705453395843506,13.979774475097656,165,9524.0,-5.525039196014404,-5,9984.0
11970,0.41763603687286377,0.016099506989121437,6,9524.0,-1.0838509798049927,-54,9984.0
11980,0.4182429015636444,-13.118489265441895,-329,9524.0,6.315003395080566,154,9984.0
11990,0.4188253581523895,-17.14063262939453,-187,9524.0,15.455695152282715,320,9984.0
12000,0.4193119704723358,-10.062498092651367,-171,9524.0,18.604930877685547,211,9984.0
12010,0.4193657338619232,-1.563386082649231,1,9524.0,15.007852554321289,299,9984.0
12020,0.419773131608963,-0.647686779499054,-7,9524.0,8.19577693939209,105,9984.0
12030,0.42012739181518555,-5.147297382354736,-122,9524.0,3.3505804538726807,-94,9984.0
12040,0.420368492603302,-9.02522087097168,-139,9524.0,-0.6716398596763611,68,9984.0
12050,0.4191499948501587,-9.248357772827148,-56,9524.0,-4.89776611328125,-116,9984.0
12060,0.41905477643013,-1.9652842283248901,-5,9524.0,-6.3291215896606445,-181,9984.0
12070,0.41888630390167236,17.977399826049805,431,9524.0,-14.160741806030273,-177,9984.0
12080,0.41859686374664307,43.14354705810547,873,9524.0,-22.040081024169922,-406,9984.0
12090,0.419086217880249,62.74406814575195,1015,9524.0,-24.226516723632812,-450,9984.0
12100,0.41873738169670105,57.1405143737793,913,9524.0,-19.36707305908203,-187,9984.0
12110,0.41853639483451843,38.3778076171875,438,9524.0,-7.242475986480713,-109,9984.0
12120,0.41872379183769226,4.082700729370117,-62,9524.0,2.108147144317627,139,9984.0
12130,0.41896799206733704,-38.321983337402344,-892,9524.0,16.86043930053711,321,9984.0
12140,0.4172879457473755,-68.24270629882812,-1120,9524.0,25.800058364868164,439,9984.0
12150,0.4172322452068329,-71.88472747802734,-1201,9524.0,28.231494903564453,380,9984.0
12160,0.4171895980834961,-56.841697692871094,-853,9524.0,21.92698860168457,386,9984.0
12170,0.4173579514026642,-37.60673141479492,-493,9524.0,12.402918815612793,269,9984.0
12180,0.4166420102119446,-15.285472869873047,-127,9524.0,-0.33446168899536133,-76,9984.0
12190,0.41680189967155457,6.558643341064453,133,9524.0,-5.785012722015381,-240,9984.0
12200,0.417062371969223,17.049612045288086,293,9524.0,-10.586505889892578,-144,9984.0
12210,0.41723692417144775,20.994306564331055,364,9524.0,-13.802667617797852,-220,9984.0
12220,0.41739439964294434,23.249557495117188,446,9524.0,-17.663162231445312,-281,9984.0
12230,0.41691356897354126,20.918563842773438,296,9524.0,-10.29163646697998,-187,9984.0
12240,0.41707712411880493,23.310665130615234,414,9524.0,1.3622626066207886,182,9984.0
12250,0.41714686155319214,28.3453426361084,510,9524.0,10.46776008605957,193,9984.0
12260,0.4171503484249115,23.716602325439453,231,9524.0,17.221961975097656,256,9984.0
12270,0.4161660671234131,11.61883544921875,129,9524.0,24.16692352294922,481,9984.0
12280,0.41581693291664124,8.072078704833984,148,9524.0,22.900869369506836,351,9984.0
12290,0.41533163189888,8.664108276367188,175,9524.0,12.811284065246582,69,9984.0
12300,0.41484108567237854,16.743833541870117,310,9524.0,6.230332374572754,54,9984.0
12310,0.414463609457016,28.14324951171875,522,9524.0,-4.3688273429870605,-48,9984.0
12320,0.4139007329940796,32.42840576171875,535,9524.0,-17.541967391967773,-477,9984.0
12330,0.41345956921577454,30.732568740844727,459,9524.0,-32.431575775146484,-509,9984.0
12340,0.41304680705070496,24.95527458190918,410,9524.0,-31.415035247802734,-368,9984.0
12350,0.412550687789917,10.082609176635742,30,9524.0,-16.006134033203125,-139,9984.0
12360,0.4122883379459381,-8.636844635009766,-237,9524.0,2.622845411300659,108,9984.0
12370,0.4120436906814575,-23.476926803588867,-478,9524.0,18.753318786621094,346,9984.0
12380,0.4116404056549072,-33.933258056640625,-580,9524.0,25.461624145507812,493,9984.0
12390,0.4112783372402191,-41.279781341552734,-692,9524.0,26.142040252685547,253,9984.0
12400,0.4109507203102112,-45.59247589111328,-716,9524.0,21.36988067626953,397,9984.0
12410,0.4106771647930145,-38.979835510253906,-561,9524.0,8.195962905883789,86,9984.0
12420,0.41055890917778015,-27.681156158447266,-398,9524.0,-6.2624030113220215,-241,9984.0
12430,0.41053953766822815,-16.43876075744629,-229,9524.0,-16.766618728637695,-333,9984.0
12440,0.4104641079902649,-10.897046089172363,-134,9524.0,-16.17974281311035,-126,9984.0
12450,0.4109925329685211,-13.760621070861816,-215,9524.0,-6.055241107940674,-98,9984.0
12460,0.4109988510608673,-13.2843656539917,-289,9524.0,4.664482593536377,118,9984.0
12470,0.4110443890094757,-12.756099700927734,-158,9524.0,16.66853904724121,416,9984.0
12480,0.41117575764656067,-10.077717781066895,-58,9524.0,22.45893096923828,325,9984.0
12490,0.41164064407348633,1.977969765663147,-17,9524.0,20.014591217041016,255,9984.0
12500,0.41174474358558655,12.69605541229248,294,9524.0,10.939459800720215,253,9984.0
12510,0.41176095604896545,15.11074447631836,253,9524.0,8.219083786010742,128,9984.0
12520,0.41180646419525146,10.75362491607666,214,9524.0,6.5308003425598145,6,9984.0
12530,0.41177263855934143,5.545627593994141,34,9524.0,3.638197898864746,148,9984.0
12540,0.41153186559677124,9.328920364379883,235,9524.0,-3.4465062618255615,-101,9984.0
12550,0.4112267792224884,19.381160736083984,313,9524.0,-11.036837577819824,-294,9984.0
12560,0.4108559191226959,30.773378372192383,540,9524.0,-14.57896614074707,-219,9984.0
12570,0.41041213274002075,44.5684700012207,857,9524.0,-21.028478622436523,-453,9984.0
12580,0.41088247299194336,51.485862731933594,813,9524.0,-27.474002838134766,-474,9984.0
12590,0.4108580946922302,47.733551025390625,817,9524.0,-28.552030563354492,-436,9984.0
12600,0.41080328822135925,31.94155502319336,348,9524.0,-18.09119415283203,-182,9984.0
12610,0.4104873538017273,4.241192817687988,-23,9524.0,-3.2506327629089355,-110,9984.0
12620,0.4098106622695923,-22.353906631469727,-492,9524.0,8.5918607711792,289,9984.0
12630,0.40961509943008423,-44.68721389770508,-813,9524.0,17.328731536865234,210,9984.0
12640,0.40954455733299255,-57.10768127441406,-955,9524.0,23.78197479248047,491,9984.0
12650,0.40956342220306396,-62.422061920166016,-924,9524.0,22.77631187438965,349,9984.0
12660,0.40950289368629456,-53.94301986694336,-900,9524.0,18.345521926879883,171,9984.0
12670,0.40996119379997253,-40.31687927246094,-543,9524.0,12.664209365844727,252,9984.0
12680,0.41006121039390564,-27.684350967407227,-356,9524.0,6.462810516357422,105,9984.0
12690,0.41017723083496094,-17.746803283691406,-306,9524.0,-1.3671653270721436,-126,9984.0
12700,0.41047701239585876,-8.446393966674805,-144,9524.0,-7.4407243728637695,-169,9984.0
12710,0.41091227531433105,3.0783698558807373,202,9524.0,-10.189836502075195,-60,9984.0
12720,0.41114020347595215,15.032631874084473,397,9524.0,-5.327515602111816,-106,9984.0
12730,0.4114202558994293,24.607107162475586,374,9524.0,-4.0034074783325195,-151,9984.0
12740,0.41149547696113586,26.01498031616211,448,9524.0,-8.884235382080078,-24,9984.0
12750,0.41128215193748474,24.344825744628906,464,9524.0,-3.8700170516967773,-43,9984.0
12760,0.4111628532409668,21.690053939819336,246,9524.0,5.932700157165527,142,9984.0
12770,0.4108768403530121,13.91262435913086,270,9524.0,13.427678108215332,321,9984.0
12780,0.41059601306915283,14.324719429016113,235,9524.0,8.291967391967773,87,9984.0
12790,0.4100891351699829,22.818355560302734,345,9524.0,4.734638214111328,120,9984.0
12800,0.4096124768257141,28.879343032836914,550,9524.0,3.8886361122131348,97,9984.0
12810,0.40919363498687744,37.16039276123047,605,9524.0,3.2823545932769775,-82,9984.0
12820,0.4084891080856323,42.38913345336914,677,9524.0,-0.833455502986908,78,9984.0
12830,0.4078601598739624,38.13597869873047,561,9524.0,-4.348371982574463,-197,9984.0
12840,0.40799933671951294,28.039871215820312,293,9524.0,-10.901667594909668,-173,9984.0
12850,0.4073737859725952,1.6987570524215698,-8,9524.0,-14.767601013183594,-281,9984.0
12860,0.4068511426448822,-18.688447952270508,-461,9524.0,-12.451481819152832,-142,9984.0
12870,0.4063088893890381,-36.676971435546875,-566,9524.0,-9.165779113769531,-173,9984.0
12880,0.40590253472328186,-46.226318359375,-906,9524.0,-11.668084144592285,-264,9984.0
12890,0.40583980083465576,-47.02671432495117,-675,9524.0,-14.200349807739258,-121,9984.0
12900,0.4053729772567749,-41.20179748535156,-585,9524.0,-14.352499961853027,-276,9984.0
12910,0.40494200587272644,-32.27755355834961,-459,9524.0,-14.936113357543945,-200,9984.0
12920,0.40493151545524597,-20.978656768798828,-290,9524.0,-6.72578763961792,107,9984.0
12930,0.40400803089141846,-14.849702835083008,-117,9524.0,6.865342617034912,155,9984.0
12940,0.40379568934440613,-2.54276442527771,-42,9524.0,20.707773208618164,338,9984.0
12950,0.4037509262561798,10.467642784118652,281,9524.0,28.666223526000977,520,9984.0
12960,0.40366286039352417,21.421186447143555,466,9524.0,22.652847290039062,347,9984.0
12970,0.40248802304267883,27.323572158813477,533,9524.0,7.435469150543213,32,9984.0
12980,0.40229272842407227,29.849531173706055,391,9524.0,-0.8351788520812988,-71,9984.0
12990,0.40213263034820557,20.958232879638672,387,9524.0,-2.0303690433502197,27,9984.0
13000,0.40190234780311584,13.17524528503418,126,9524.0,1.3731781244277954,-43,9984.0
13010,0.40166059136390686,-0.7825614809989929,-149,9524.0,1.0717494487762451,92,9984.0
13020,0.40148618817329407,-8.410865783691406,-139,9524.0,-0.24960032105445862,-103,9984.0
13030,0.4010690450668335,-15.577398300170898,-293,9524.0,-4.8308820724487305,-167,9984.0
13040,0.4005603492259979,-14.7802734375,-125,9524.0,-10.680171966552734,-41,9984.0
13050,0.400152325630188,-1.176345705986023,53,9524.0,-9.380577087402344,-238,9984.0
13060,0.40162596106529236,13.287344932556152,214,9524.0,-3.137673854827881,29,9984.0
13070,0.4013327360153198,26.768518447875977,543,9524.0,1.6476975679397583,12,9984.0
13080,0.400992214679718,36.012020111083984,603,9524.0,6.00616979598999,66,9984.0
13090,0.4012190103530884,37.7177734375,580,9524.0,13.59762954711914,337,9984.0
13100,0.40090250968933105,29.163381576538086,404,9524.0,21.201255798339844,254,9984.0
13110,0.40151068568229675,18.890613555908203,310,9524.0,18.215351104736328,366,9984.0
13120,0.401510089635849,5.359266757965088,-37,9524.0,8.117904663085938,-11,9984.0
13130,0.40146881341934204,-6.917036533355713,-158,9524.0,-1.1196458339691162,-40,9984.0
13140,0.40150681138038635,-23.03675079345703,-365,9524.0,-9.268914222717285,-242,9984.0
13150,0.4024946391582489,-33.82900619506836,-696,9524.0,-17.66840171813965,-291,9984.0
13160,0.4025397300720215,-41.73866653442383,-611,9524.0,-20.404827117919922,-247,9984.0
13170,0.40275371074676514,-46.44579315185547,-802,9524.0,-11.61497688293457,-234,9984.0
13180,0.4029396176338196,-46.668155670166016,-715,9524.0,5.384329319000244,231,9984.0
13190,0.40428057312965393,-39.539634704589844,-549,9524.0,17.242843627929688,299,9984.0
13200,0.40463340282440186,-31.801979064941406,-494,9524.0,20.483144760131836,240,9984.0
13210,0.40485695004463196,-18.503236770629883,-223,9524.0,11.384725570678711,203,9984.0
13220,0.40510043501853943,2.4846928119659424,157,9524.0,3.342998743057251,62,9984.0
13230,0.40542811155319214,20.24970817565918,371,9524.0,-3.5261526107788086,-290,9984.0
13240,0.4065493047237396,31.307971954345703,442,9524.0,-17.175029754638672,-240,9984.0
13250,0.4065644145011902,29.025127410888672,521,9524.0,-23.658884048461914,-384,9984.0
13260,0.40649548172950745,19.684484481811523,254,9524.0,-17.57732582092285,-303,9984.0
13270,0.4063606560230255,8.208470344543457,151,9524.0,-2.9791460037231445,59,9984.0
13280,0.4076594114303589,0.9591629505157471,-64,9524.0,11.215781211853027,166,9984.0
13290,0.4073783755302429,-0.16495062410831451,30,9524.0,19.374755859375,417,9984.0
13300,0.4069840908050537,2.439319372177124,87,9524.0,21.441814422607422,308,9984.0
13310,0.4065152406692505,7.75816535949707,66,9524.0,19.024829864501953,327,9984.0
13320,0.4060254395008087,14.544745445251465,330,9524.0,15.521965026855469,279,9984.0
13330,0.4067947268486023,23.170166015625,373,9524.0,13.552713394165039,97,9984.0
13340,0.4064456522464752,23.84243392944336,344,9524.0,1.9263176918029785,49,9984.0
13350,0.4060101807117462,16.403390884399414,294,9524.0,-8.37344741821289,-211,9984.0
13360,0.4056706130504608,3.2886993885040283,-143,9524.0,-16.46342658996582,-208,9984.0
13370,0.40805771946907043,-16.75494384765625,-246,9524.0,-15.180767059326172,-275,9984.0
13380,0.4077443778514862,-28.17279815673828,-619,9524.0,-9.112645149230957,-157,9984.0
13390,0.40731552243232727,-38.70210647583008,-571,9524.0,-2.211968421936035,34,9984.0
13400,0.4068503975868225,-42.01454544067383,-709,9524.0,10.662087440490723,119,9984.0
13410,0.4066016376018524,-39.58263397216797,-593,9524.0,17.866029739379883,383,9984.0
13420,0.4066171944141388,-35.09144973754883,-495,9524.0,18.775541305541992,290,9984.0
13430,0.4062686264514923,-26.725778579711914,-404,9524.0,13.173018455505371,159,9984.0
13440,0.4059557318687439,-17.001880645751953,-284,9524.0,6.724705219268799,30,9984.0
13450,0.405962735414505,-0.017070544883608818,100,9524.0,2.4741737842559814,110,9984.0
13460,0.40493422746658325,20.24424934387207,461,9524.0,1.843219518661499,159,9984.0
13470,0.40477150678634644,38.39909362792969,729,9524.0,0.7749693393707275,-34,9984.0
13480,0.4045625329017639,55.8504524230957,927,9524.0,-2.2959961891174316,-111,9984.0
13490,0.404153972864151,65.25056457519531,1025,9524.0,-8.602800369262695,-111,9984.0
13500,0.40305331349372864,57.807159423828125,942,9524.0,-11.540492057800293,-116,9984.0
13510,0.4026654362678528,32.37603759765625,367,9524.0,-7.536279201507568,-172,9984.0
13520,0.40224677324295044,3.232475996017456,-31,9524.0,-0.9176505208015442,137,9984.0
13530,0.4019183814525604,-16.0701904296875,-315,9524.0,3.4370548725128174,-45,9984.0
13540,0.40151137113571167,-20.806991577148438,-356,9524.0,1.5463367700576782,39,9984.0
13550,0.4002937376499176,-16.227800369262695,-226,9524.0,-2.6205103397369385,-23,9984.0
13560,0.3996973931789398,-6.7539963722229,-108,9524.0,-2.8992016315460205,-75,9984.0
13570,0.3990910053253174,1.6807973384857178,36,9524.0,-2.802628755569458,61,9984.0
13580,0.39851391315460205,11.651571273803711,311,9524.0,0.653401792049408,11,9984.0
13590,0.3964846432209015,22.64654541015625,419,9524.0,-4.727175235748291,-197,9984.0
13600,0.39582860469818115,29.563617706298828,491,9524.0,-8.153725624084473,-42,9984.0
13610,0.3951430022716522,29.469152450561523,431,9524.0,-3.9632880687713623,-83,9984.0
13620,0.3944564461708069,12.91301441192627,87,9524.0,-2.6901400089263916,13,9984.0
13630,0.39439207315444946,3.8016021251678467,58,9524.0,-5.482890605926514,-135,9984.0
13640,0.39408689737319946,-6.508598804473877,-181,9524.0,-4.303832530975342,-2,9984.0
13650,0.3936363756656647,-12.496002197265625,-193,9524.0,6.036821365356445,62,9984.0
13660,0.3932325839996338,-20.994049072265625,-467,9524.0,16.53816032409668,459,9984.0
13670,0.3926960229873657,-33.682456970214844,-596,9524.0,27.63800621032715,417,9984.0
13680,0.39146116375923157,-47.87229919433594,-901,9524.0,29.499113082885742,538,9984.0
13690,0.3907669484615326,-48.25442886352539,-780,9524.0,27.009353637695312,485,9984.0
13700,0.39006564021110535,-40.107627868652344,-516,9524.0,15.482946395874023,183,9984.0
13710,0.38973087072372437,-21.474102020263672,-318,9524.0,-0.4848705232143402,-157,9984.0
13720,0.39151403307914734,-2.0851686000823975,-13,9524.0,-14.592996597290039,-244,9984.0
13730,0.3913722634315491,5.548782825469971,149,9524.0,-14.677855491638184,-143,9984.0
13740,0.3911401033401489,8.324932098388672,214,9524.0,-18.064537048339844,-426,9984.0
13750,0.3908839225769043,15.536712646484375,222,9524.0,-30.39043426513672,-594,9984.0
13760,0.39077192544937134,18.63393783569336,365,9524.0,-37.812068939208984,-580,9984.0
13770,0.38983839750289917,11.84195613861084,165,9524.0,-35.88117980957031,-568,9984.0
13780,0.3895093500614166,8.822237014770508,85,9524.0,-17.97310447692871,-124,9984.0
13790,0.3894611895084381,0.44468390941619873,20,9524.0,2.9977469444274902,64,9984.0
13800,0.3892883062362671,-8.398913383483887,-194,9524.0,17.35710334777832,394,9984.0
13810,0.39063480496406555,-4.347349643707275,45,9524.0,27.47650718688965,494,9984.0
13820,0.3905499279499054,10.264250755310059,206,9524.0,24.89015769958496,239,9984.0
13830,0.39044269919395447,23.696393966674805,488,9524.0,19.376863479614258,438,9984.0
13840,0.3904016315937042,40.94699478149414,812,9524.0,15.521097183227539,177,9984.0
13850,0.39175090193748474,48.43728256225586,699,9524.0,8.51655387878418,174,9984.0
13860,0.3917616903781891,42.8401985168457,690,9524.0,8.620091438293457,199,9984.0
13870,0.391713947057724,24.72064208984375,232,9524.0,6.453399181365967,-64,9984.0
13880,0.39283862709999084,-1.944749355316162,-78,9524.0,-7.758211612701416,-90,9984.0
13890,0.39300504326820374,-23.073205947875977,-553,9524.0,-19.48613739013672,-402,9984.0
13900,0.39221060276031494,-31.130319595336914,-462,9524.0,-23.07452964782715,-308,9984.0
13910,0.39223626255989075,-36.61286544799805,-710,9524.0,-18.641096115112305,-310,9984.0
13920,0.3921462893486023,-41.53667068481445,-644,9524.0,-12.477441787719727,-73,9984.0
13930,0.39216479659080505,-38.81496810913086,-646,9524.0,-4.261918544769287,-124,9984.0
13940,0.3917420506477356,-39.3563117980957,-663,9524.0,1.5842511653900146,111,9984.0
13950,0.3916410803794861,-39.25045394897461,-553,9524.0,6.762201309204102,104,9984.0
13960,0.3917868435382843,-36.35897445678711,-613,9524.0,7.9312567710876465,41,9984.0
13970,0.39243724942207336,-28.381906509399414,-399,9524.0,4.261867523193359,131,9984.0
13980,0.39259928464889526,-19.50731086730957,-202,9524.0,-2.7459254264831543,1,9984.0
13990,0.3913043141365051,2.994033098220825,135,9524.0,-5.339330196380615,-129,9984.0
14000,0.39147669076919556,25.818359375,515,9524.0,-8.583481788635254,-96,9984.0
14010,0.39183127880096436,39.499359130859375,755,9524.0,-13.361305236816406,-280,9984.0
14020,0.39211466908454895,47.50551986694336,800,9524.0,-17.954490661621094,-351,9984.0
14030,0.39185553789138794,49.58762741088867,755,9524.0,-13.29558277130127,-149,9984.0
14040,0.39216262102127075,44.06258010864258,623,9524.0,-1.3796112537384033,28,9984.0
14050,0.3929970860481262,32.19423294067383,524,9524.0,15.517775535583496,371,9984.0
14060,0.39326241612434387,15.524142265319824,62,9524.0,35.709617614746094,597,9984.0
14070,0.39482903480529785,-6.351921558380127,-119,9524.0,45.45780944824219,766,9984.0
14080,0.39482903480529785,-20.379074096679688,-396,9524.0,42.85613250732422,619,9984.0
14090,0.3953540027141571,-21.27899932861328,-317,9524.0,26.991622924804688,455,9984.0
