timestamp,kalman.stateZ,gyro.x,gyro.xRaw,gyro.xVariance,gyro.y,gyro.yRaw,gyro.yVariance
0,0.30735790729522705,3.87019419670105,74,6638.0,10.027810096740723,163,9983.0
10,0.3073746860027313,2.8307974338531494,42,6638.0,9.716938972473145,156,9983.0
20,0.3074524402618408,1.4079614877700806,10,6638.0,8.36781120300293,128,9983.0
30,0.30751949548721313,-0.20052999258041382,-4,6638.0,6.330583572387695,100,9983.0
40,0.3076614737510681,-1.0697935819625854,-21,6638.0,4.558353424072266,72,9983.0
50,0.3096298277378082,-1.1769269704818726,-18,6638.0,3.159515619277954,53,9983.0
60,0.30979418754577637,0.2393731027841568,4,6638.0,1.8238606452941895,27,9983.0
70,0.3098967671394348,1.279140830039978,24,6638.0,0.28669974207878113,-8,9983.0
80,0.30996373295783997,2.164936065673828,51,6638.0,-1.087569236755371,-17,9983.0
90,0.3096497058868408,3.1023359298706055,48,6638.0,-0.49649524688720703,4,9983.0
100,0.3096495568752289,1.1694532632827759,4,6638.0,3.939121723175049,97,9983.0
110,0.3096279799938202,-1.0156044960021973,-24,6638.0,11.710415840148926,225,9983.0
120,0.30956944823265076,-2.0937085151672363,-33,6638.0,19.05504035949707,336,9983.0
130,0.3094419240951538,-1.896186351776123,-41,6638.0,22.623533248901367,373,9983.0
140,0.30910632014274597,-1.6166850328445435,-22,6638.0,21.742584228515625,340,9983.0
150,0.3089331090450287,-0.09391587972640991,3,6638.0,18.076879501342773,277,9983.0
160,0.30902957916259766,0.4817126393318176,11,6638.0,14.269054412841797,221,9983.0
170,0.3089529573917389,1.220512866973877,27,6638.0,10.94766902923584,161,9983.0
180,0.30813172459602356,2.188577175140381,27,6638.0,7.35423469543457,87,9983.0
190,0.30815809965133667,1.2553054094314575,25,6638.0,1.3863900899887085,-21,9983.0
200,0.30847811698913574,1.1686289310455322,6,6638.0,-12.343963623046875,-285,9983.0
210,0.30898573994636536,-0.849273681640625,5,6638.0,-27.984498977661133,-625,9983.0
220,0.30875036120414734,-0.15651239454746246,-1,6638.0,-51.69282531738281,-978,9983.0
230,0.3090628981590271,2.683906078338623,105,6638.0,-76.87114715576172,-1489,9983.0
240,0.3093124032020569,6.150166988372803,169,6638.0,-107.64452362060547,-1887,9983.0
250,0.3096601068973541,10.055842399597168,195,6638.0,-130.60079956054688,-2273,9983.0
260,0.30945682525634766,4.775651931762695,69,6638.0,-142.25294494628906,-2270,9983.0
270,0.31062641739845276,3.56253719329834,67,6638.0,-130.6807861328125,-2088,9983.0
280,0.31034374237060547,3.330956220626831,16,6638.0,-95.29085540771484,-1336,9983.0
290,0.3095376491546631,1.9330068826675415,-3,6638.0,-51.308837890625,-457,9983.0
300,0.31386280059814453,1.4788738489151,-45,6638.0,-1.5618751049041748,319,9983.0
310,0.31491634249687195,7.8623199462890625,90,6638.0,44.745933532714844,941,9983.0
320,0.3159823417663574,14.826842308044434,127,6638.0,81.98503875732422,1524,9983.0
330,0.31669431924819946,9.872591018676758,71,6638.0,97.05826568603516,1664,9983.0
340,0.316962867975235,-0.3160152733325958,-63,6638.0,93.81712341308594,1547,9983.0
350,0.3172777593135834,-5.705681324005127,-106,6638.0,74.02692413330078,1136,9983.0
360,0.3157995343208313,-8.965794563293457,-143,6638.0,35.23915481567383,321,9983.0
370,0.3160371482372284,-16.91599464416504,-330,6638.0,-16.96634864807129,-636,9983.0
380,0.3177603483200073,-19.490917205810547,-270,6638.0,-76.19570922851562,-1626,9983.0
390,0.3184880316257477,-11.862700462341309,-54,6638.0,-117.69145202636719,-2184,9983.0
400,0.31640625,-1.0355039834976196,94,6638.0,-141.95663452148438,-2341,9983.0
410,0.31653034687042236,8.952706336975098,102,6638.0,-150.51296997070312,-2528,9983.0
420,0.3192305862903595,17.948444366455078,331,6638.0,-157.26853942871094,-2520,9983.0
430,0.3190465271472931,25.101512908935547,363,6638.0,-158.25416564941406,-2565,9983.0
440,0.3203340768814087,28.65555191040039,459,6638.0,-147.00100708007812,-2296,9983.0
450,0.3204047679901123,23.595703125,419,6638.0,-118.43766021728516,-1929,9983.0
460,0.32513248920440674,17.65169334411621,291,6638.0,-72.86729431152344,-970,9983.0
470,0.3276740312576294,12.58961296081543,122,6638.0,-3.4262213706970215,354,9983.0
480,0.3297067880630493,-0.9402536749839783,-73,6638.0,79.35079956054688,1896,9983.0
490,0.3400920331478119,-14.068901062011719,-319,6638.0,152.6617889404297,2613,9983.0
500,0.34162572026252747,-28.86353302001953,-513,6638.0,198.34815979003906,3323,9983.0
510,0.3454517424106598,-33.905914306640625,-511,6638.0,219.9906463623047,3655,9983.0
520,0.3472782075405121,-30.09784507751465,-477,6638.0,230.39915466308594,3643,9983.0
530,0.34114810824394226,-19.94740867614746,-240,6638.0,219.3709259033203,3453,9983.0
540,0.3442612290382385,-4.29670524597168,83,6638.0,182.62982177734375,2701,9983.0
550,0.3445577621459961,17.00448226928711,357,6638.0,124.43183135986328,1817,9983.0
560,0.3450039327144623,23.692541122436523,312,6638.0,68.81489562988281,927,9983.0
570,0.34528642892837524,18.377866744995117,281,6638.0,13.57083511352539,-104,9983.0
580,0.33750566840171814,2.4025285243988037,45,6638.0,-49.177276611328125,-1039,9983.0
590,0.33885708451271057,-7.05074405670166,-194,6638.0,-111.40780639648438,-1997,9983.0
600,0.3394230306148529,-9.597262382507324,-227,6638.0,-160.83665466308594,-2855,9983.0
610,0.3418011963367462,-18.607152938842773,-293,6638.0,-187.9693603515625,-3232,9983.0
620,0.3362196087837219,-23.777183532714844,-303,6638.0,-189.56829833984375,-3161,9983.0
630,0.33690041303634644,-9.425360679626465,-39,6638.0,-162.60321044921875,-2449,9983.0
640,0.33710044622421265,3.0266032218933105,128,6638.0,-117.11134338378906,-1783,9983.0
650,0.3362310826778412,8.628417015075684,188,6638.0,-61.77018737792969,-957,9983.0
660,0.3357493281364441,9.490899085998535,139,6638.0,-11.976652145385742,105,9983.0
670,0.3373783826828003,5.027637481689453,65,6638.0,55.54166793823242,1223,9983.0
680,0.33843302726745605,3.3999972343444824,103,6638.0,103.74234008789062,2022,9983.0
690,0.33904793858528137,4.585788726806641,71,6638.0,141.42413330078125,2358,9983.0
700,0.33879849314689636,1.6541366577148438,27,6638.0,152.28579711914062,2396,9983.0
710,0.3360726535320282,-2.5470144748687744,-2,6638.0,141.73281860351562,2166,9983.0
720,0.33502450585365295,-10.204532623291016,-225,6638.0,113.06438446044922,1679,9983.0
730,0.3335820138454437,-18.99560546875,-330,6638.0,65.02992248535156,784,9983.0
740,0.3319877088069916,-12.64037799835205,-134,6638.0,16.013927459716797,-24,9983.0
750,0.3296169936656952,3.0370709896087646,148,6638.0,-41.949676513671875,-944,9983.0
760,0.3301662504673004,17.222713470458984,280,6638.0,-87.43551635742188,-1661,9983.0
770,0.33064404129981995,22.778118133544922,360,6638.0,-134.78321838378906,-2369,9983.0
780,0.33133387565612793,19.555606842041016,360,6638.0,-157.33447265625,-2645,9983.0
790,0.3288280665874481,0.8866989612579346,-141,6638.0,-151.57180786132812,-2329,9983.0
800,0.3291938304901123,-12.201898574829102,-304,6638.0,-127.16044616699219,-1745,9983.0
810,0.32905009388923645,-6.066756248474121,-112,6638.0,-85.90916442871094,-1046,9983.0
820,0.3301011025905609,1.5453449487686157,118,6638.0,-30.12538719177246,-145,9983.0
830,0.33164530992507935,13.52673053741455,268,6638.0,31.967920303344727,845,9983.0
840,0.3322886824607849,15.850781440734863,307,6638.0,76.68302917480469,1309,9983.0
850,0.3334544003009796,12.996358871459961,247,6638.0,100.0892105102539,1654,9983.0
860,0.3337010145187378,0.6768397092819214,-122,6638.0,114.08699035644531,1971,9983.0
870,0.3340098559856415,-17.60093116760254,-461,6638.0,110.12042999267578,1779,9983.0
880,0.33098673820495605,-30.268423080444336,-573,6638.0,76.38426971435547,869,9983.0
890,0.3309592604637146,-32.59152603149414,-426,6638.0,31.9896183013916,322,9983.0
900,0.3308785855770111,-14.374353408813477,-118,6638.0,-9.49414348602295,-438,9983.0
910,0.33131399750709534,4.846273422241211,204,6638.0,-45.59394836425781,-979,9983.0
920,0.332158625125885,21.653963088989258,409,6638.0,-77.90515899658203,-1361,9983.0
930,0.3263806700706482,33.04526901245117,633,6638.0,-105.18122100830078,-1959,9983.0
940,0.3263954520225525,37.63273239135742,650,6638.0,-124.0145263671875,-2105,9983.0
950,0.32750096917152405,36.23035430908203,496,6638.0,-118.20146942138672,-1839,9983.0
960,0.32797423005104065,25.372751235961914,391,6638.0,-90.51150512695312,-1318,9983.0
970,0.33046549558639526,11.28902816772461,126,6638.0,-43.073020935058594,-333,9983.0
980,0.3318188786506653,-4.233494281768799,-218,6638.0,19.64276123046875,516,9983.0
990,0.33285588026046753,-15.443110466003418,-322,6638.0,67.56043243408203,1266,9983.0
1000,0.3339507579803467,-25.335399627685547,-451,6638.0,112.55139923095703,1979,9983.0
1010,0.3354533016681671,-28.795297622680664,-574,6638.0,141.2193603515625,2538,9983.0
1020,0.3362386226654053,-30.729610443115234,-494,6638.0,146.2577667236328,2352,9983.0
1030,0.3362833857536316,-25.747039794921875,-333,6638.0,132.26834106445312,1842,9983.0
1040,0.339284211397171,-15.72960376739502,-202,6638.0,106.0767822265625,1773,9983.0
1050,0.33946743607521057,-3.6929993629455566,1,6638.0,67.55633544921875,732,9983.0
1060,0.33270806074142456,14.57790470123291,300,6638.0,14.435364723205566,132,9983.0
1070,0.33336132764816284,25.594881057739258,451,6638.0,-29.54186248779297,-756,9983.0
1080,0.3340596854686737,24.634044647216797,347,6638.0,-62.00334548950195,-1135,9983.0
1090,0.33498886227607727,11.846427917480469,87,6638.0,-84.61563873291016,-1408,9983.0
1100,0.33088159561157227,0.16035878658294678,58,6638.0,-103.14724731445312,-1876,9983.0
1110,0.3314865231513977,-2.941490411758423,11,6638.0,-112.71686553955078,-1865,9983.0
1120,0.33296602964401245,-5.23397159576416,-178,6638.0,-107.60806274414062,-1624,9983.0
1130,0.33370399475097656,-14.753706932067871,-349,6638.0,-85.92308044433594,-1177,9983.0
1140,0.3343379497528076,-21.3674373626709,-441,6638.0,-47.57285690307617,-392,9983.0
1150,0.33343374729156494,-27.25042152404785,-514,6638.0,0.768207848072052,377,9983.0
1160,0.3359212577342987,-23.34562873840332,-294,6638.0,46.63915252685547,1051,9983.0
1170,0.3371276259422302,-14.878541946411133,-153,6638.0,96.55519104003906,1691,9983.0
1180,0.3379867374897003,6.124932765960693,275,6638.0,136.13401794433594,2170,9983.0
1190,0.3359528183937073,24.876052856445312,467,6638.0,148.64012145996094,2530,9983.0
1200,0.33743488788604736,33.69931411743164,485,6638.0,142.9038848876953,2208,9983.0
1210,0.3371340036392212,36.09291076660156,725,6638.0,115.51758575439453,1783,9983.0
1220,0.3359140455722809,30.47058868408203,318,6638.0,78.939697265625,1044,9983.0
1230,0.33416464924812317,15.871861457824707,267,6638.0,20.296323776245117,74,9983.0
1240,0.33489736914634705,6.836056709289551,13,6638.0,-50.852935791015625,-1167,9983.0
1250,0.3358602821826935,-7.216842174530029,-132,6638.0,-108.8829574584961,-2023,9983.0
1260,0.33675268292427063,-9.684389114379883,-203,6638.0,-139.90333557128906,-2215,9983.0
1270,0.33710038661956787,-7.896416664123535,-60,6638.0,-157.8924102783203,-2680,9983.0
1280,0.33407437801361084,-5.638697624206543,-23,6638.0,-167.89874267578125,-2802,9983.0
1290,0.333657443523407,-7.607008934020996,-125,6638.0,-162.391845703125,-2583,9983.0
1300,0.3325875699520111,-6.289173126220703,-102,6638.0,-137.6012420654297,-2044,9983.0
1310,0.33185920119285583,3.410641670227051,52,6638.0,-92.27507019042969,-1270,9983.0
1320,0.3374372124671936,10.535017967224121,165,6638.0,-28.001066207885742,-125,9983.0
1330,0.33896687626838684,12.295145988464355,156,6638.0,37.5769157409668,967,9983.0
1340,0.3407697379589081,4.226727485656738,31,6638.0,105.49601745605469,2156,9983.0
1350,0.3432171940803528,-8.689153671264648,-214,6638.0,170.52249145507812,2963,9983.0
1360,0.3405431807041168,-13.289750099182129,-243,6638.0,208.11013793945312,3454,9983.0
1370,0.3410182297229767,-23.274456024169922,-319,6638.0,219.71888732910156,3555,9983.0
1380,0.34031230211257935,-18.420541763305664,-266,6638.0,204.9280548095703,3252,9983.0
1390,0.3380601704120636,4.024049758911133,144,6638.0,154.82481384277344,2227,9983.0
1400,0.3437665104866028,28.38756561279297,550,6638.0,90.87043762207031,1255,9983.0
1410,0.33705222606658936,30.9404354095459,421,6638.0,21.17848014831543,-116,9983.0
1420,0.33771654963493347,6.693899154663086,-26,6638.0,-48.95798873901367,-925,9983.0
1430,0.33981990814208984,-15.177197456359863,-281,6638.0,-108.29998779296875,-2104,9983.0
1440,0.34183600544929504,-25.272762298583984,-457,6638.0,-152.41455078125,-2622,9983.0
1450,0.334292471408844,-27.479387283325195,-475,6638.0,-173.8798065185547,-2860,9983.0
1460,0.3351556062698364,-20.563783645629883,-247,6638.0,-177.0637969970703,-2841,9983.0
1470,0.33545663952827454,-7.489385604858398,1,6638.0,-167.2018585205078,-2676,9983.0
1480,0.335060715675354,-0.6075264811515808,62,6638.0,-149.69187927246094,-2297,9983.0
1490,0.33817940950393677,7.708157539367676,92,6638.0,-122.84191131591797,-1657,9983.0
1500,0.33590856194496155,10.315057754516602,160,6638.0,-77.71414184570312,-899,9983.0
1510,0.33575382828712463,17.530895233154297,247,6638.0,-33.52214813232422,-97,9983.0
1520,0.337450236082077,17.226547241210938,186,6638.0,16.259143829345703,782,9983.0
1530,0.33934876322746277,3.4229986667633057,-112,6638.0,69.60699462890625,1513,9983.0
1540,0.3413175642490387,-26.490219116210938,-642,6638.0,112.92218780517578,2206,9983.0
1550,0.34212037920951843,-49.22878646850586,-884,6638.0,150.20257568359375,2725,9983.0
1560,0.34243959188461304,-52.979496002197266,-850,6638.0,169.81210327148438,2725,9983.0
1570,0.34413108229637146,-41.94670486450195,-573,6638.0,167.54656982421875,2845,9983.0
1580,0.34411129355430603,-24.77152442932129,-254,6638.0,146.95956420898438,2059,9983.0
1590,0.33526700735092163,-7.5858964920043945,-21,6638.0,101.95543670654297,1361,9983.0
1600,0.334725558757782,12.42176342010498,422,6638.0,37.46832275390625,246,9983.0
1610,0.3372376561164856,30.336965560913086,518,6638.0,-27.0521297454834,-959,9983.0
1620,0.3383878767490387,35.32035827636719,614,6638.0,-76.69635009765625,-1431,9983.0
1630,0.33362552523612976,33.83795166015625,450,6638.0,-105.92288208007812,-1820,9983.0
1640,0.3343338072299957,33.07465362548828,527,6638.0,-121.12232208251953,-2099,9983.0
1650,0.33505216240882874,28.275192260742188,457,6638.0,-127.37329864501953,-2025,9983.0
1660,0.3357781171798706,17.975149154663086,218,6638.0,-127.7165756225586,-1942,9983.0
1670,0.3337063789367676,13.807930946350098,174,6638.0,-117.75201416015625,-1781,9983.0
1680,0.3348883390426636,12.08734130859375,198,6638.0,-96.4956283569336,-1514,9983.0
1690,0.33743104338645935,3.013725996017456,-19,6638.0,-62.287147521972656,-861,9983.0
1700,0.3382813632488251,-12.296064376831055,-239,6638.0,-15.876782417297363,-125,9983.0
1710,0.33858442306518555,-32.40233612060547,-575,6638.0,36.33632278442383,709,9983.0
1720,0.33884868025779724,-38.25895309448242,-559,6638.0,79.38860321044922,1289,9983.0
1730,0.33967825770378113,-34.721824645996094,-453,6638.0,117.49310302734375,2005,9983.0
1740,0.3407706618309021,-16.29304313659668,-164,6638.0,152.25759887695312,2576,9983.0
1750,0.3411972224712372,2.4740047454833984,93,6638.0,159.33326721191406,2618,9983.0
1760,0.33720073103904724,19.383811950683594,444,6638.0,148.11795043945312,2293,9983.0
1770,0.33935701847076416,23.40281105041504,369,6638.0,119.44701385498047,1745,9983.0
1780,0.33862459659576416,21.196212768554688,313,6638.0,73.06805419921875,962,9983.0
1790,0.33857035636901855,11.280920028686523,169,6638.0,16.053251266479492,-58,9983.0
1800,0.33336466550827026,1.4366310834884644,-15,6638.0,-38.63380813598633,-777,9983.0
1810,0.33472779393196106,-1.5901440382003784,-68,6638.0,-76.5040283203125,-1436,9983.0
1820,0.33546149730682373,1.3406072854995728,129,6638.0,-102.83797454833984,-1744,9983.0
1830,0.33581608533859253,5.2884955406188965,-43,6638.0,-114.9976806640625,-1865,9983.0
1840,0.33615943789482117,2.6868093013763428,15,6638.0,-118.26688385009766,-1974,9983.0
1850,0.3334299623966217,2.4668562412261963,111,6638.0,-117.76176452636719,-1974,9983.0
1860,0.3351976275444031,4.628131866455078,141,6638.0,-107.55712890625,-1629,9983.0
1870,0.3358694314956665,1.2367624044418335,-28,6638.0,-83.78646850585938,-1106,9983.0
1880,0.336285799741745,-9.702230453491211,-288,6638.0,-44.45948791503906,-426,9983.0
1890,0.3356829583644867,-16.378612518310547,-284,6638.0,-0.5409952998161316,269,9983.0
1900,0.337080180644989,-9.316049575805664,-210,6638.0,43.09387969970703,1064,9983.0
1910,0.33784496784210205,-8.882692337036133,-145,6638.0,98.16397857666016,1894,9983.0
1920,0.33880239725112915,-6.7751054763793945,-70,6638.0,132.02288818359375,2262,9983.0
1930,0.33876049518585205,-0.9275481104850769,76,6638.0,152.07376098632812,2363,9983.0
1940,0.3359203636646271,6.805203914642334,181,6638.0,152.47024536132812,2537,9983.0
1950,0.3352071940898895,23.744686126708984,414,6638.0,132.07867431640625,1973,9983.0
1960,0.3331189751625061,32.35957336425781,596,6638.0,86.45704650878906,1174,9983.0
1970,0.3338947296142578,30.90216064453125,380,6638.0,23.22079086303711,17,9983.0
1980,0.3321298062801361,16.634620666503906,233,6638.0,-42.41676712036133,-842,9983.0
1990,0.3324055075645447,-3.4251978397369385,-125,6638.0,-87.3050765991211,-1693,9983.0
2000,0.33284834027290344,-18.381410598754883,-330,6638.0,-104.85774230957031,-1571,9983.0
2010,0.33358636498451233,-23.880599975585938,-417,6638.0,-105.0,-1684,9983.0
2020,0.3303147852420807,-22.266036987304688,-270,6638.0,-101.37601470947266,-1788,9983.0
2030,0.33053886890411377,-18.2821102142334,-244,6638.0,-98.78553009033203,-1597,9983.0
2040,0.3310728073120117,-15.861793518066406,-337,6638.0,-80.66781616210938,-1061,9983.0
2050,0.33127617835998535,-21.347658157348633,-441,6638.0,-44.52841567993164,-540,9983.0
2060,0.33393797278404236,-23.807918548583984,-290,6638.0,-6.616774559020996,-54,9983.0
2070,0.3324073255062103,-11.149849891662598,-79,6638.0,20.016523361206055,412,9983.0
2080,0.3331451416015625,-5.0342912673950195,-71,6638.0,47.75762939453125,973,9983.0
2090,0.3336503803730011,-0.15647563338279724,22,6638.0,70.58898162841797,1381,9983.0
2100,0.33394816517829895,5.05999231338501,98,6638.0,91.49555206298828,1382,9983.0
2110,0.33218225836753845,14.41751766204834,321,6638.0,100.02440643310547,1629,9983.0
2120,0.3321671783924103,25.598337173461914,481,6638.0,93.2745132446289,1436,9983.0
2130,0.3318740725517273,40.743953704833984,792,6638.0,69.76416015625,1016,9983.0
2140,0.33277058601379395,42.0311393737793,552,6638.0,29.318946838378906,67,9983.0
2150,0.33274155855178833,32.77926254272461,541,6638.0,-13.162798881530762,-260,9983.0
2160,0.3315429389476776,22.713214874267578,241,6638.0,-49.94156265258789,-1094,9983.0
2170,0.3321658670902252,8.667156219482422,45,6638.0,-74.38542938232422,-1283,9983.0
2180,0.3321681320667267,-12.248360633850098,-404,6638.0,-89.00270080566406,-1449,9983.0
2190,0.33239394426345825,-25.77237319946289,-425,6638.0,-98.2417221069336,-1660,9983.0
2200,0.3293834626674652,-31.195697784423828,-442,6638.0,-103.57028198242188,-1651,9983.0
2210,0.32904478907585144,-37.14348220825195,-607,6638.0,-91.09341430664062,-1240,9983.0
2220,0.32909178733825684,-32.47437286376953,-501,6638.0,-49.06097412109375,-484,9983.0
2230,0.3310011029243469,-12.859312057495117,-165,6638.0,-5.190982341766357,214,9983.0
2240,0.33257827162742615,9.436534881591797,207,6638.0,42.2956657409668,963,9983.0
2250,0.33387240767478943,18.674468994140625,389,6638.0,86.47808837890625,1573,9983.0
2260,0.33496037125587463,24.849702835083008,496,6638.0,116.19791412353516,1867,9983.0
2270,0.33548444509506226,21.914365768432617,389,6638.0,127.09929656982422,2039,9983.0
2280,0.3358116149902344,19.272390365600586,181,6638.0,120.83419036865234,2040,9983.0
2290,0.33204516768455505,5.0137224197387695,118,6638.0,102.54764556884766,1431,9983.0
2300,0.3323921263217926,-1.1937050819396973,-67,6638.0,59.05197525024414,785,9983.0
2310,0.33339157700538635,-8.786972999572754,-166,6638.0,3.128833055496216,-275,9983.0
2320,0.3339281380176544,-13.7214937210083,-248,6638.0,-52.66413497924805,-1026,9983.0
2330,0.330657958984375,-9.61750602722168,-145,6638.0,-92.2232666015625,-1668,9983.0
2340,0.33079060912132263,-1.0236353874206543,136,6638.0,-111.0461196899414,-1915,9983.0
2350,0.3310278654098511,5.159284591674805,43,6638.0,-116.8506088256836,-1850,9983.0
2360,0.33109137415885925,3.3921194076538086,-50,6638.0,-116.2392349243164,-1824,9983.0
2370,0.3294534385204315,-1.476723551750183,-21,6638.0,-116.41856384277344,-1877,9983.0
2380,0.3295973241329193,-7.048829555511475,-142,6638.0,-108.92950439453125,-1777,9983.0
2390,0.33155468106269836,-20.631267547607422,-331,6638.0,-81.60920715332031,-1230,9983.0
2400,0.3311557173728943,-27.945844650268555,-378,6638.0,-38.43567657470703,-457,9983.0
2410,0.33311009407043457,-26.001163482666016,-300,6638.0,4.935685634613037,254,9983.0
2420,0.33622774481773376,-16.059432983398438,-176,6638.0,52.68906784057617,1036,9983.0
2430,0.337551087141037,-8.03076171875,-10,6638.0,99.36354064941406,1795,9983.0
2440,0.3389161229133606,2.097870349884033,195,6638.0,140.18650817871094,2439,9983.0
2450,0.3399204909801483,19.917932510375977,360,6638.0,163.55392456054688,2877,9983.0
2460,0.3380835950374603,29.427183151245117,467,6638.0,173.7503204345703,2698,9983.0
2470,0.3395555317401886,34.202796936035156,538,6638.0,157.57884216308594,2414,9983.0
2480,0.3390401601791382,28.15080451965332,389,6638.0,122.51629638671875,1933,9983.0
2490,0.33796897530555725,16.86093521118164,310,6638.0,75.29059600830078,827,9983.0
2500,0.33783507347106934,12.230911254882812,139,6638.0,17.17783546447754,114,9983.0
2510,0.33436134457588196,7.030153274536133,193,6638.0,-41.60248947143555,-1007,9983.0
2520,0.3349810540676117,-1.3746684789657593,-204,6638.0,-93.89404296875,-1638,9983.0
2530,0.3357919752597809,-12.98478889465332,-223,6638.0,-127.48697662353516,-2271,9983.0
2540,0.33657094836235046,-21.451873779296875,-298,6638.0,-150.9586639404297,-2563,9983.0
2550,0.3320508599281311,-25.555702209472656,-510,6638.0,-162.5971221923828,-2588,9983.0
2560,0.33227935433387756,-33.54974365234375,-677,6638.0,-151.99571228027344,-2293,9983.0
2570,0.3322187066078186,-39.78844451904297,-601,6638.0,-122.35972595214844,-1751,9983.0
2580,0.3324463367462158,-17.630983352661133,-180,6638.0,-81.00127410888672,-1200,9983.0
2590,0.3341161608695984,-7.620508193969727,-29,6638.0,-38.88433074951172,-514,9983.0
2600,0.335121750831604,0.47940728068351746,106,6638.0,19.733911514282227,508,9983.0
2610,0.33653727173805237,7.450277328491211,234,6638.0,84.6690902709961,1597,9983.0
2620,0.3385865390300751,16.469139099121094,416,6638.0,135.8990478515625,2313,9983.0
2630,0.3399891257286072,25.48643684387207,335,6638.0,156.0999755859375,2680,9983.0
2640,0.3394412398338318,25.727481842041016,356,6638.0,158.4658660888672,2516,9983.0
2650,0.3394611179828644,22.323423385620117,507,6638.0,142.05616760253906,2184,9983.0
2660,0.33960384130477905,19.64463233947754,215,6638.0,100.48094177246094,1381,9983.0
2670,0.33944132924079895,14.633580207824707,240,6638.0,44.76522445678711,516,9983.0
2680,0.3354332149028778,10.166861534118652,133,6638.0,-6.999539375305176,-263,9983.0
2690,0.3361414968967438,-0.8356344699859619,-91,6638.0,-48.376338958740234,-1075,9983.0
2700,0.3368935286998749,-13.472797393798828,-233,6638.0,-80.5370864868164,-1321,9983.0
2710,0.3376278579235077,-21.317838668823242,-421,6638.0,-109.8207015991211,-1990,9983.0
2720,0.33103978633880615,-21.85732078552246,-358,6638.0,-132.9799346923828,-2232,9983.0
2730,0.33158424496650696,-25.320825576782227,-398,6638.0,-127.29610443115234,-2048,9983.0
2740,0.33179500699043274,-32.391326904296875,-552,6638.0,-108.86670684814453,-1661,9983.0
2750,0.3329732120037079,-37.047428131103516,-644,6638.0,-83.57125091552734,-1191,9983.0
2760,0.3358403146266937,-26.817880630493164,-375,6638.0,-49.776458740234375,-534,9983.0
2770,0.333730548620224,-1.7230165004730225,43,6638.0,-11.250041007995605,281,9983.0
2780,0.3345368504524231,24.7528018951416,544,6638.0,39.558624267578125,818,9983.0
2790,0.3360280394554138,36.34528350830078,612,6638.0,74.37301635742188,1312,9983.0
2800,0.33671480417251587,28.873653411865234,435,6638.0,105.480224609375,1738,9983.0
2810,0.3338381052017212,19.289731979370117,247,6638.0,126.46473693847656,2069,9983.0
2820,0.3340635597705841,4.685055255889893,40,6638.0,128.10562133789062,2166,9983.0
2830,0.33381637930870056,-7.965489387512207,-182,6638.0,109.90132904052734,1601,9983.0
2840,0.33568617701530457,-9.535598754882812,-136,6638.0,76.17801666259766,952,9983.0
2850,0.336688369512558,-7.37157678604126,-81,6638.0,28.62347412109375,145,9983.0
2860,0.3294278383255005,-1.544424295425415,0,6638.0,-23.169986724853516,-653,9983.0
2870,0.33002451062202454,6.787973880767822,191,6638.0,-59.27510070800781,-1048,9983.0
2880,0.330333948135376,17.473949432373047,322,6638.0,-82.63103485107422,-1626,9983.0
2890,0.3309842348098755,19.314125061035156,321,6638.0,-104.02552795410156,-1684,9983.0
2900,0.3278663456439972,10.539080619812012,83,6638.0,-108.49724578857422,-1651,9983.0
2910,0.32851630449295044,-10.915590286254883,-363,6638.0,-88.78165435791016,-1279,9983.0
2920,0.33000391721725464,-21.925065994262695,-414,6638.0,-59.081241607666016,-685,9983.0
2930,0.3308371603488922,-14.283387184143066,-137,6638.0,-19.248027801513672,-63,9983.0
2940,0.3308866024017334,3.5886571407318115,215,6638.0,25.594913482666016,555,9983.0
2950,0.3319511413574219,21.72721290588379,462,6638.0,60.80440139770508,947,9983.0
2960,0.33265480399131775,30.891141891479492,519,6638.0,79.5716781616211,1258,9983.0
2970,0.3330811858177185,25.61090850830078,365,6638.0,88.69425201416016,1538,9983.0
2980,0.33301010727882385,12.651333808898926,123,6638.0,88.8388442993164,1522,9983.0
2990,0.33122843503952026,-7.375893592834473,-202,6638.0,70.10392761230469,878,9983.0
3000,0.3316178321838379,-23.331464767456055,-404,6638.0,40.828433990478516,500,9983.0
3010,0.330949991941452,-26.10968780517578,-398,6638.0,8.36438274383545,107,9983.0
3020,0.33180350065231323,-18.532276153564453,-242,6638.0,-16.027368545532227,-543,9983.0
3030,0.32760196924209595,-3.391584634780884,49,6638.0,-41.3863639831543,-656,9983.0
3040,0.32719171047210693,14.495138168334961,294,6638.0,-62.7445182800293,-1117,9983.0
3050,0.32673537731170654,23.748985290527344,374,6638.0,-75.4980239868164,-1380,9983.0
3060,0.32639873027801514,14.290389060974121,197,6638.0,-80.69661712646484,-1320,9983.0
3070,0.3266029357910156,1.8819817304611206,-26,6638.0,-80.4850845336914,-1257,9983.0
3080,0.32384970784187317,-11.437867164611816,-291,6638.0,-76.73138427734375,-1058,9983.0
3090,0.3249993622303009,-24.784364700317383,-441,6638.0,-50.05125427246094,-580,9983.0
3100,0.3250846862792969,-22.31489372253418,-301,6638.0,-9.546982765197754,82,9983.0
3110,0.32613202929496765,-4.858565330505371,-8,6638.0,26.322948455810547,626,9983.0
3120,0.32862308621406555,12.174956321716309,259,6638.0,60.812965393066406,1040,9983.0
3130,0.3294842839241028,28.337886810302734,515,6638.0,84.1955337524414,1388,9983.0
3140,0.3299574553966522,22.305757522583008,351,6638.0,95.5790023803711,1543,9983.0
3150,0.33005380630493164,2.620929002761841,-40,6638.0,95.51771545410156,1570,9983.0
3160,0.3273766040802002,-28.784162521362305,-595,6638.0,78.0140609741211,1200,9983.0
3170,0.3277933895587921,-52.884525299072266,-921,6638.0,57.06227111816406,697,9983.0
3180,0.32756587862968445,-54.07012939453125,-796,6638.0,32.31012725830078,576,9983.0
3190,0.3266512155532837,-27.26581573486328,-307,6638.0,4.215432643890381,-288,9983.0
3200,0.32666924595832825,6.576991081237793,234,6638.0,-33.296104431152344,-730,9983.0
3210,0.325342059135437,30.330114364624023,580,6638.0,-66.92735290527344,-1333,9983.0
3220,0.32523372769355774,44.3675537109375,756,6638.0,-84.72101593017578,-1393,9983.0
3230,0.3248293697834015,48.646636962890625,711,6638.0,-83.00581359863281,-1230,9983.0
3240,0.3245587646961212,35.91530990600586,528,6638.0,-73.28849029541016,-1162,9983.0
3250,0.3247094750404358,11.795469284057617,145,6638.0,-58.202049255371094,-927,9983.0
3260,0.32497698068618774,-21.099468231201172,-455,6638.0,-38.70903015136719,-474,9983.0
3270,0.32564884424209595,-54.2337760925293,-999,6638.0,-13.106858253479004,19,9983.0
3280,0.32607120275497437,-66.78764343261719,-1113,6638.0,22.10628890991211,536,9983.0
3290,0.3281301259994507,-58.92498779296875,-928,6638.0,45.92538833618164,747,9983.0
3300,0.329106867313385,-30.15133285522461,-356,6638.0,56.11495590209961,881,9983.0
3310,0.32990318536758423,2.0263173580169678,190,6638.0,68.43219757080078,1270,9983.0
3320,0.3301820158958435,24.17339324951172,452,6638.0,78.22468566894531,1087,9983.0
3330,0.33080217242240906,47.049476623535156,901,6638.0,66.8482894897461,1052,9983.0
3340,0.3283608853816986,61.954437255859375,1019,6638.0,50.73124313354492,773,9983.0
3350,0.32775068283081055,64.30017852783203,1074,6638.0,27.416996002197266,197,9983.0
3360,0.3269760310649872,57.13795852661133,809,6638.0,-5.685449600219727,-55,9983.0
3370,0.32794541120529175,41.88195037841797,578,6638.0,-33.133121490478516,-674,9983.0
3380,0.32728761434555054,20.62553596496582,306,6638.0,-53.34983444213867,-1017,9983.0
3390,0.3263658583164215,3.195390462875366,-49,6638.0,-63.779354095458984,-1080,9983.0
3400,0.32524457573890686,-10.781025886535645,-344,6638.0,-62.851688385009766,-880,9983.0
3410,0.3242793381214142,-27.996858596801758,-635,6638.0,-54.49165344238281,-869,9983.0
3420,0.32350075244903564,-47.87054443359375,-815,6638.0,-47.89783477783203,-778,9983.0
3430,0.3240000605583191,-65.00027465820312,-1109,6638.0,-40.2878303527832,-566,9983.0
3440,0.3235466778278351,-75.08234405517578,-1162,6638.0,-19.16915512084961,-132,9983.0
3450,0.32356008887290955,-61.63371658325195,-758,6638.0,12.511350631713867,405,9983.0
3460,0.3260107934474945,-24.79060935974121,-198,6638.0,32.0912971496582,552,9983.0
3470,0.32694011926651,17.929664611816406,465,6638.0,49.16564178466797,892,9983.0
3480,0.32736948132514954,39.23562240600586,721,6638.0,67.87321472167969,1389,9983.0
3490,0.3276497721672058,47.06398391723633,767,6638.0,80.15625762939453,1279,9983.0
3500,0.3282791078090668,43.436004638671875,733,6638.0,70.77657318115234,1031,9983.0
3510,0.32643628120422363,35.60394287109375,394,6638.0,51.688819885253906,796,9983.0
3520,0.3263697922229767,23.878969192504883,335,6638.0,29.849090576171875,301,9983.0
3530,0.3259274661540985,13.753240585327148,209,6638.0,0.9274411201477051,-82,9983.0
3540,0.3265734910964966,4.178090572357178,-146,6638.0,-28.259462356567383,-652,9983.0
3550,0.32644644379615784,-11.287152290344238,-232,6638.0,-56.81372833251953,-1126,9983.0
3560,0.32475021481513977,-25.44813346862793,-399,6638.0,-80.70088958740234,-1505,9983.0
3570,0.32444578409194946,-34.86179733276367,-588,6638.0,-82.19900512695312,-1319,9983.0
3580,0.32411473989486694,-31.248369216918945,-541,6638.0,-77.81163024902344,-1085,9983.0
3590,0.32361483573913574,-29.296491622924805,-470,6638.0,-71.3970947265625,-1108,9983.0
3600,0.32450082898139954,-21.04300308227539,-241,6638.0,-62.79341125488281,-1140,9983.0
3610,0.3248731195926666,-20.25356101989746,-287,6638.0,-48.85462188720703,-760,9983.0
3620,0.32586556673049927,-28.44790267944336,-440,6638.0,-24.718618392944336,-184,9983.0
3630,0.3261184096336365,-26.173925399780273,-374,6638.0,7.784955024719238,286,9983.0
3640,0.3266907334327698,-1.1567965745925903,43,6638.0,36.4719352722168,690,9983.0
3650,0.32845255732536316,24.438997268676758,390,6638.0,63.26118087768555,1151,9983.0
3660,0.3293278217315674,25.90325355529785,399,6638.0,80.6884765625,1303,9983.0
3670,0.3302099406719208,12.637673377990723,291,6638.0,87.75381469726562,1405,9983.0
3680,0.3305848240852356,4.795036792755127,127,6638.0,86.92066192626953,1348,9983.0
3690,0.3306412398815155,5.160210132598877,-30,6638.0,72.70307159423828,1119,9983.0
3700,0.331061989068985,7.985080242156982,203,6638.0,47.365966796875,626,9983.0
3710,0.33112531900405884,10.874833106994629,173,6638.0,17.577333450317383,217,9983.0
3720,0.33094802498817444,8.864324569702148,134,6638.0,-9.678119659423828,-288,9983.0
3730,0.3282853364944458,9.834311485290527,226,6638.0,-36.45759963989258,-786,9983.0
3740,0.3282136619091034,7.871623516082764,69,6638.0,-53.37419891357422,-803,9983.0
3750,0.3282778263092041,6.813936233520508,75,6638.0,-60.00873947143555,-989,9983.0
3760,0.32829323410987854,7.038766860961914,226,6638.0,-62.646236419677734,-1220,9983.0
3770,0.3283551335334778,9.07826042175293,173,6638.0,-68.83328247070312,-1120,9983.0
3780,0.32702136039733887,8.873889923095703,112,6638.0,-58.690467834472656,-795,9983.0
3790,0.32728859782218933,5.933815956115723,69,6638.0,-31.39510726928711,-285,9983.0
3800,0.3274412155151367,6.783380031585693,93,6638.0,-7.189630031585693,184,9983.0
3810,0.3279295265674591,9.516477584838867,134,6638.0,28.81255531311035,689,9983.0
3820,0.32787832617759705,9.502957344055176,101,6638.0,61.04965591430664,1148,9983.0
3830,0.32836106419563293,0.11433542519807816,-119,6638.0,85.52155303955078,1457,9983.0
3840,0.32880890369415283,-8.589362144470215,-150,6638.0,97.63219451904297,1555,9983.0
3850,0.32879695296287537,-8.081107139587402,5,6638.0,96.49239349365234,1466,9983.0
3860,0.3282954692840576,-6.846945762634277,-164,6638.0,82.35320281982422,1238,9983.0
3870,0.3277287483215332,-6.1344194412231445,-114,6638.0,48.28322982788086,589,9983.0
3880,0.32750198245048523,-8.43271255493164,-102,6638.0,-1.6183058023452759,-259,9983.0
3890,0.3273684084415436,-7.93142557144165,-190,6638.0,-47.40676498413086,-970,9983.0
3900,0.32824280858039856,-6.7583231925964355,-4,6638.0,-82.86568450927734,-1447,9983.0
3910,0.3269294500350952,2.3661975860595703,-38,6638.0,-104.94358825683594,-1792,9983.0
3920,0.32701778411865234,4.845195293426514,101,6638.0,-113.76860046386719,-1881,9983.0
3930,0.32694706320762634,6.490190029144287,181,6638.0,-99.28651428222656,-1466,9983.0
3940,0.3270640969276428,6.455883026123047,104,6638.0,-75.88615417480469,-1082,9983.0
3950,0.3274977207183838,4.828390598297119,2,6638.0,-52.41924285888672,-723,9983.0
3960,0.32824647426605225,-1.8220597505569458,-67,6638.0,-28.431331634521484,-346,9983.0
3970,0.3288514018058777,-11.39974594116211,-269,6638.0,2.0536699295043945,205,9983.0
3980,0.33018040657043457,-20.974369049072266,-408,6638.0,41.34553527832031,695,9983.0
3990,0.3312862813472748,-21.945539474487305,-286,6638.0,63.02682113647461,957,9983.0
4000,0.33279427886009216,-5.392040252685547,66,6638.0,72.73928833007812,1251,9983.0
4010,0.33339235186576843,12.469499588012695,316,6638.0,85.278564453125,1590,9983.0
4020,0.3335133492946625,22.843935012817383,405,6638.0,92.19695281982422,1571,9983.0
4030,0.33400073647499084,32.20779037475586,434,6638.0,85.38663482666016,1210,9983.0
4040,0.32924938201904297,25.793899536132812,385,6638.0,64.60818481445312,828,9983.0
4050,0.32942548394203186,3.6311752796173096,-50,6638.0,22.334747314453125,134,9983.0
4060,0.3291461765766144,-19.836164474487305,-505,6638.0,-19.80624771118164,-602,9983.0
4070,0.3297676146030426,-34.0036506652832,-484,6638.0,-54.806575775146484,-1108,9983.0
4080,0.3298466205596924,-29.957704544067383,-471,6638.0,-79.54646301269531,-1338,9983.0
4090,0.3267868757247925,-19.401397705078125,-297,6638.0,-87.24333190917969,-1426,9983.0
4100,0.32676005363464355,-3.967359781265259,155,6638.0,-79.17262268066406,-1248,9983.0
4110,0.32759225368499756,11.230399131774902,379,6638.0,-64.80072784423828,-1005,9983.0
4120,0.3280999958515167,25.520082473754883,445,6638.0,-59.33034896850586,-994,9983.0
4130,0.32700666785240173,32.21562576293945,373,6638.0,-59.25154495239258,-851,9983.0
4140,0.32794567942619324,18.11992645263672,148,6638.0,-38.48439407348633,-389,9983.0
4150,0.3291580379009247,7.592183589935303,40,6638.0,-13.841160774230957,47,9983.0
4160,0.3301219642162323,6.570705890655518,24,6638.0,16.970752716064453,547,9983.0
4170,0.33178460597991943,1.6965078115463257,-49,6638.0,46.977325439453125,1139,9983.0
4180,0.33314958214759827,-6.359503746032715,-138,6638.0,81.88829803466797,1574,9983.0
4190,0.3340804874897003,-10.449735641479492,-139,6638.0,113.62825775146484,1989,9983.0
4200,0.3346598744392395,-11.709202766418457,-132,6638.0,126.90257263183594,2051,9983.0
4210,0.33490437269210815,-8.184412002563477,-116,6638.0,123.40900421142578,1913,9983.0
4220,0.3307873606681824,-1.3973699808120728,-4,6638.0,104.24243927001953,1527,9983.0
4230,0.3305455446243286,8.75571060180664,46,6638.0,71.02511596679688,990,9983.0
4240,0.33122509717941284,13.330609321594238,328,6638.0,29.50051498413086,367,9983.0
4250,0.3324434161186218,14.015359878540039,115,6638.0,-11.72664737701416,-415,9983.0
4260,0.3278455138206482,3.2800703048706055,108,6638.0,-57.16120529174805,-1134,9983.0
4270,0.32854875922203064,-6.3887176513671875,-240,6638.0,-92.88954162597656,-1572,9983.0
4280,0.32845818996429443,-18.461362838745117,-304,6638.0,-114.07598114013672,-2010,9983.0
4290,0.32869473099708557,-23.2434024810791,-327,6638.0,-131.24044799804688,-2176,9983.0
4300,0.3289046585559845,-23.506235122680664,-411,6638.0,-145.27932739257812,-2365,9983.0
4310,0.3259083926677704,-19.035259246826172,-338,6638.0,-143.87652587890625,-2295,9983.0
4320,0.3277405798435211,-8.833828926086426,-74,6638.0,-125.48831939697266,-1995,9983.0
4330,0.32734328508377075,7.852292060852051,226,6638.0,-91.48168182373047,-1353,9983.0
4340,0.329501211643219,14.136293411254883,275,6638.0,-35.26502227783203,-331,9983.0
4350,0.3333083987236023,13.563519477844238,295,6638.0,34.07619094848633,753,9983.0
4360,0.3355065584182739,11.827136993408203,182,6638.0,92.41801452636719,1657,9983.0
4370,0.3376430571079254,2.998371124267578,82,6638.0,140.3199920654297,2469,9983.0
4380,0.3396190404891968,-5.481851100921631,-43,6638.0,173.62982177734375,3107,9983.0
4390,0.33751043677330017,-4.35637903213501,-94,6638.0,193.00308227539062,3215,9983.0
4400,0.33934158086776733,3.733952045440674,26,6638.0,183.06932067871094,2868,9983.0
4410,0.3399715721607208,15.081642150878906,384,6638.0,151.0633087158203,2253,9983.0
4420,0.33963704109191895,21.69858741760254,302,6638.0,99.21822357177734,1402,9983.0
4430,0.3390029966831207,18.839139938354492,375,6638.0,37.5207405090332,312,9983.0
4440,0.3333438038825989,14.621216773986816,145,6638.0,-18.145296096801758,-488,9983.0
4450,0.33410966396331787,3.150624990463257,26,6638.0,-66.49003601074219,-1320,9983.0
4460,0.33499693870544434,-6.4573655128479,-71,6638.0,-108.49888610839844,-1991,9983.0
4470,0.3357856273651123,-13.645108222961426,-308,6638.0,-148.14125061035156,-2478,9983.0
4480,0.33053064346313477,-18.270597457885742,-286,6638.0,-175.86956787109375,-2853,9983.0
4490,0.33076271414756775,-14.218249320983887,-211,6638.0,-168.12249755859375,-2819,9983.0
4500,0.3305715024471283,-9.4780855178833,-64,6638.0,-143.2700958251953,-2285,9983.0
4510,0.3296354115009308,-1.9998747110366821,20,6638.0,-103.7996826171875,-1567,9983.0
4520,0.3340100646018982,3.4472761154174805,96,6638.0,-58.66439437866211,-762,9983.0
4530,0.33157429099082947,3.4576759338378906,25,6638.0,-6.657367706298828,100,9983.0
4540,0.3324055075645447,-0.7639122009277344,-102,6638.0,50.26231002807617,1068,9983.0
4550,0.333793580532074,-11.065422058105469,-209,6638.0,107.21266174316406,1957,9983.0
4560,0.334983229637146,-11.153192520141602,-203,6638.0,145.21176147460938,2597,9983.0
4570,0.334245502948761,-8.351512908935547,-227,6638.0,165.79006958007812,2841,9983.0
4580,0.33438077569007874,-1.7875381708145142,9,6638.0,165.9245147705078,2542,9983.0
4590,0.33389803767204285,10.012528419494629,230,6638.0,141.93406677246094,2163,9983.0
4600,0.33263707160949707,22.685495376586914,279,6638.0,99.04975128173828,1284,9983.0
4610,0.3307107985019684,22.20888328552246,432,6638.0,37.675132751464844,419,9983.0
4620,0.3304744362831116,17.193933486938477,134,6638.0,-18.994657516479492,-703,9983.0
4630,0.330505907535553,3.2968127727508545,77,6638.0,-71.17414093017578,-1254,9983.0
4640,0.3319995105266571,-11.015743255615234,-319,6638.0,-111.69636535644531,-2079,9983.0
4650,0.3321194648742676,-23.17206573486328,-411,6638.0,-148.93218994140625,-2584,9983.0
4660,0.3288874626159668,-31.044055938720703,-469,6638.0,-169.93649291992188,-2717,9983.0
4670,0.328966349363327,-34.44270324707031,-611,6638.0,-158.3190460205078,-2370,9983.0
4680,0.3290209472179413,-18.731359481811523,-268,6638.0,-125.37251281738281,-1881,9983.0
4690,0.33182787895202637,2.7289376258850098,81,6638.0,-90.05110931396484,-1196,9983.0
4700,0.3310339152812958,13.32720947265625,329,6638.0,-28.30357551574707,-329,9983.0
4710,0.3325100243091583,17.196273803710938,318,6638.0,21.25745964050293,568,9983.0
4720,0.33408603072166443,6.825676441192627,162,6638.0,79.11219787597656,1522,9983.0
4730,0.334773987531662,2.8839988708496094,-29,6638.0,128.03407287597656,2344,9983.0
4740,0.3368939459323883,1.2586959600448608,32,6638.0,155.56387329101562,2680,9983.0
4750,0.3371899425983429,4.951292037963867,106,6638.0,149.26170349121094,2386,9983.0
4760,0.337060809135437,10.72437572479248,222,6638.0,123.99785614013672,1687,9983.0
4770,0.3391808867454529,16.35496711730957,235,6638.0,82.80708312988281,1312,9983.0
4780,0.3391557037830353,16.545576095581055,357,6638.0,47.593421936035156,405,9983.0
4790,0.3321845531463623,13.218633651733398,71,6638.0,7.046811103820801,-32,9983.0
4800,0.3316443860530853,4.718945503234863,89,6638.0,-37.8763313293457,-1004,9983.0
4810,0.3322780132293701,-6.696234703063965,-252,6638.0,-85.31549072265625,-1665,9983.0
4820,0.33270326256752014,-17.006418228149414,-340,6638.0,-128.59780883789062,-2189,9983.0
4830,0.3289407789707184,-18.054576873779297,-274,6638.0,-153.4640655517578,-2666,9983.0
4840,0.328919917345047,-15.211008071899414,-133,6638.0,-143.39285278320312,-2302,9983.0
4850,0.33063074946403503,-1.0648342370986938,43,6638.0,-116.9012680053711,-1798,9983.0
4860,0.3301716446876526,6.259995937347412,218,6638.0,-77.24246215820312,-1082,9983.0
4870,0.33103498816490173,8.558416366577148,110,6638.0,-18.433189392089844,-41,9983.0
4880,0.33155447244644165,4.048434734344482,86,6638.0,42.074676513671875,927,9983.0
4890,0.331866979598999,0.9312607049942017,-81,6638.0,89.25521850585938,1686,9983.0
4900,0.3329367935657501,-6.627675533294678,-176,6638.0,122.72068786621094,2069,9983.0
4910,0.3333125710487366,-10.024715423583984,-246,6638.0,139.29930114746094,2364,9983.0
4920,0.33157187700271606,-12.193675994873047,-258,6638.0,135.47491455078125,2120,9983.0
4930,0.3309086859226227,-10.123364448547363,-67,6638.0,105.48197937011719,1588,9983.0
4940,0.3319569528102875,-2.6840667724609375,-126,6638.0,58.937713623046875,634,9983.0
4950,0.3316526710987091,6.9569621086120605,277,6638.0,8.573545455932617,28,9983.0
4960,0.32863304018974304,18.22777557373047,241,6638.0,-30.829082489013672,-740,9983.0
4970,0.3287229537963867,22.251205444335938,433,6638.0,-62.672584533691406,-1080,9983.0
4980,0.32894307374954224,22.05168914794922,355,6638.0,-84.64585876464844,-1400,9983.0
4990,0.32923558354377747,11.288351058959961,121,6638.0,-102.99198913574219,-1908,9983.0
5000,0.32941776514053345,3.3262689113616943,110,6638.0,-111.119140625,-1946,9983.0
5010,0.3278678357601166,1.9484764337539673,61,6638.0,-88.39990997314453,-1225,9983.0
5020,0.32874158024787903,0.4070191979408264,-3,6638.0,-52.37675857543945,-721,9983.0
5030,0.3288610875606537,-1.5987409353256226,-42,6638.0,-18.284543991088867,-71,9983.0
5040,0.3287619948387146,-8.98473072052002,-257,6638.0,17.796749114990234,488,9983.0
5050,0.3295990824699402,-22.56004524230957,-501,6638.0,50.42607498168945,1037,9983.0
5060,0.3296043574810028,-31.758960723876953,-649,6638.0,84.77403259277344,1609,9983.0
5070,0.3292602598667145,-32.743431091308594,-469,6638.0,105.07234954833984,1728,9983.0
5080,0.3286440670490265,-22.143447875976562,-199,6638.0,111.28134155273438,1866,9983.0
5090,0.32664239406585693,-6.66652250289917,-174,6638.0,103.44740295410156,1614,9983.0
5100,0.3268808424472809,5.070054531097412,216,6638.0,76.11219787597656,1059,9983.0
5110,0.32576122879981995,13.622401237487793,199,6638.0,32.29684066772461,313,9983.0
5120,0.3245682716369629,14.961217880249023,248,6638.0,-13.003581047058105,-389,9983.0
5130,0.3244045078754425,12.873787879943848,176,6638.0,-53.8675651550293,-1021,9983.0
5140,0.32211795449256897,10.14073657989502,246,6638.0,-84.10160064697266,-1542,9983.0
5150,0.3215577304363251,8.453964233398438,-25,6638.0,-104.09716796875,-1685,9983.0
5160,0.3208737373352051,-6.925447940826416,-235,6638.0,-112.45426940917969,-1804,9983.0
5170,0.3200593590736389,-16.847131729125977,-194,6638.0,-110.19499969482422,-1779,9983.0
5180,0.3206813931465149,-18.745525360107422,-259,6638.0,-91.99395751953125,-1387,9983.0
5190,0.32101884484291077,-21.470169067382812,-381,6638.0,-51.40774917602539,-543,9983.0
5200,0.32108059525489807,-14.046324729919434,-110,6638.0,-5.569784641265869,123,9983.0
5210,0.3216858208179474,16.421688079833984,391,6638.0,42.88453674316406,900,9983.0
5220,0.3230176866054535,37.93220138549805,791,6638.0,89.65349578857422,1511,9983.0
5230,0.3286772668361664,46.47137451171875,854,6638.0,116.02389526367188,1890,9983.0
5240,0.3297998607158661,45.933135986328125,684,6638.0,122.27230072021484,1998,9983.0
5250,0.3301287293434143,26.146575927734375,274,6638.0,124.5359115600586,2128,9983.0
5260,0.33379775285720825,2.230344533920288,-35,6638.0,116.14948272705078,1774,9983.0
5270,0.33223089575767517,-8.055383682250977,-91,6638.0,81.65021514892578,1084,9983.0
5280,0.3325556516647339,-8.295028686523438,-211,6638.0,27.97078514099121,210,9983.0
5290,0.333748459815979,-8.068817138671875,-67,6638.0,-29.862369537353516,-819,9983.0
5300,0.3355434536933899,-12.251456260681152,-288,6638.0,-81.1595687866211,-1406,9983.0
5310,0.33778876066207886,-11.670036315917969,-141,6638.0,-112.78406524658203,-2033,9983.0
5320,0.33715903759002686,-10.631000518798828,-123,6638.0,-124.1595458984375,-2050,9983.0
5330,0.3383861780166626,-12.783256530761719,-273,6638.0,-123.45555114746094,-1896,9983.0
5340,0.339545339345932,-18.08315086364746,-345,6638.0,-115.30083465576172,-1704,9983.0
5350,0.3421532213687897,-18.26070213317871,-326,6638.0,-105.3184585571289,-1579,9983.0
5360,0.3443751633167267,-15.088515281677246,-194,6638.0,-79.2540283203125,-1096,9983.0
5370,0.3466336727142334,-2.7878408432006836,-139,6638.0,-42.99470138549805,-401,9983.0
5380,0.3481128513813019,0.5786649584770203,2,6638.0,-9.124482154846191,160,9983.0
5390,0.3508988916873932,12.175028800964355,253,6638.0,18.97211265563965,577,9983.0
5400,0.35597899556159973,25.15660285949707,500,6638.0,46.304115295410156,1055,9983.0
5410,0.3576257824897766,32.322120666503906,470,6638.0,75.9927749633789,1406,9983.0
5420,0.35925817489624023,19.325281143188477,123,6638.0,97.01331329345703,1720,9983.0
5430,0.36032888293266296,-4.157537937164307,-254,6638.0,112.63838958740234,2031,9983.0
5440,0.3613220751285553,-21.491336822509766,-369,6638.0,119.63709259033203,1982,9983.0
5450,0.3593805134296417,-18.840559005737305,-324,6638.0,106.85047149658203,1686,9983.0
5460,0.3596694767475128,-7.808645725250244,-25,6638.0,83.99989318847656,1073,9983.0
5470,0.3600333333015442,6.381389617919922,229,6638.0,49.63730239868164,689,9983.0
5480,0.36058610677719116,23.600032806396484,374,6638.0,11.876914024353027,-48,9983.0
5490,0.35513588786125183,21.16774559020996,264,6638.0,-26.72648048400879,-671,9983.0
5500,0.3552100658416748,17.109813690185547,250,6638.0,-57.740318298339844,-1135,9983.0
5510,0.3549286425113678,7.697400093078613,83,6638.0,-77.02224731445312,-1123,9983.0
5520,0.35477176308631897,-8.412063598632812,-236,6638.0,-89.61551666259766,-1430,9983.0
5530,0.3499873876571655,-20.798126220703125,-402,6638.0,-102.06365966796875,-1625,9983.0
5540,0.3491901159286499,-26.73284149169922,-417,6638.0,-103.944091796875,-1628,9983.0
5550,0.34889376163482666,-23.685312271118164,-374,6638.0,-80.70193481445312,-1330,9983.0
5560,0.34812304377555847,-17.437944412231445,-213,6638.0,-48.11178970336914,-779,9983.0
5570,0.34747931361198425,-8.05327320098877,-109,6638.0,-15.50484848022461,-212,9983.0
5580,0.3466396629810333,-1.5569370985031128,12,6638.0,24.160663604736328,482,9983.0
5590,0.34651196002960205,-3.3165042400360107,-4,6638.0,64.96407318115234,1149,9983.0
5600,0.3463233709335327,-7.000973701477051,-99,6638.0,85.90260314941406,1572,9983.0
5610,0.3466320335865021,-6.472133636474609,-57,6638.0,104.87199401855469,1729,9983.0
5620,0.3446436822414398,4.881568908691406,42,6638.0,105.40789031982422,1580,9983.0
5630,0.3440982699394226,13.328225135803223,375,6638.0,87.00955963134766,1380,9983.0
5640,0.344889372587204,19.446807861328125,306,6638.0,60.975040435791016,800,9983.0
5650,0.34430259466171265,21.672679901123047,314,6638.0,20.403406143188477,118,9983.0
5660,0.3444255292415619,21.875938415527344,393,6638.0,-24.214820861816406,-523,9983.0
5670,0.3391740322113037,14.00767707824707,94,6638.0,-59.137569427490234,-1161,9983.0
5680,0.33941635489463806,4.369645118713379,70,6638.0,-77.68277740478516,-1304,9983.0
5690,0.3400225341320038,-7.928802967071533,-118,6638.0,-87.47101593017578,-1461,9983.0
5700,0.3408015966415405,-19.01651382446289,-408,6638.0,-95.26454162597656,-1540,9983.0
5710,0.33627161383628845,-23.943784713745117,-459,6638.0,-98.79625701904297,-1618,9983.0
5720,0.33774635195732117,-16.689340591430664,-221,6638.0,-95.36468505859375,-1469,9983.0
5730,0.3386635184288025,-0.42530959844589233,68,6638.0,-77.2903823852539,-1112,9983.0
5740,0.3400171399116516,5.564781188964844,142,6638.0,-46.410430908203125,-568,9983.0
5750,0.3427594304084778,4.037732124328613,53,6638.0,-6.586939334869385,137,9983.0
5760,0.34533214569091797,-3.4502272605895996,-91,6638.0,36.570796966552734,922,9983.0
5770,0.3474610447883606,-12.642634391784668,-205,6638.0,88.78579711914062,1801,9983.0
5780,0.34905025362968445,-12.002692222595215,-181,6638.0,130.7439422607422,2317,9983.0
5790,0.3515240550041199,-3.2001781463623047,-83,6638.0,155.542724609375,2649,9983.0
5800,0.3504317104816437,7.475317478179932,126,6638.0,167.61582946777344,2737,9983.0
5810,0.3508620262145996,18.67858123779297,408,6638.0,162.91346740722656,2545,9983.0
5820,0.3503526747226715,20.46450424194336,307,6638.0,138.79408264160156,2214,9983.0
5830,0.3492388129234314,15.765639305114746,260,6638.0,94.1834487915039,1189,9983.0
5840,0.3444744944572449,11.968679428100586,170,6638.0,29.435914993286133,200,9983.0
5850,0.3438040316104889,6.529077529907227,54,6638.0,-33.40599822998047,-858,9983.0
5860,0.3446487784385681,-6.649063587188721,-227,6638.0,-83.30236053466797,-1586,9983.0
5870,0.3448508381843567,-25.772897720336914,-407,6638.0,-115.86913299560547,-1950,9983.0
5880,0.34422802925109863,-30.518041610717773,-583,6638.0,-139.156005859375,-2281,9983.0
5890,0.33862772583961487,-28.057666778564453,-397,6638.0,-147.8559112548828,-2473,9983.0
5900,0.33798763155937195,-17.560903549194336,-175,6638.0,-139.58543395996094,-2404,9983.0
5910,0.3373354375362396,-3.9049761295318604,28,6638.0,-112.74131774902344,-1709,9983.0
5920,0.3389154076576233,17.32951545715332,387,6638.0,-69.05322265625,-928,9983.0
5930,0.3359341621398926,31.27532196044922,565,6638.0,-21.01494598388672,-83,9983.0
5940,0.33620086312294006,29.597412109375,372,6638.0,35.407135009765625,927,9983.0
5950,0.33690834045410156,5.22759485244751,3,6638.0,88.39595031738281,1610,9983.0
5960,0.3370858430862427,-8.305505752563477,-163,6638.0,124.36918640136719,2190,9983.0
5970,0.3363834321498871,-11.278717041015625,-230,6638.0,137.0201416015625,2203,9983.0
5980,0.335956335067749,-6.626265048980713,-140,6638.0,128.6852264404297,1869,9983.0
5990,0.33528462052345276,-3.524548053741455,53,6638.0,94.98712158203125,1581,9983.0
6000,0.334261029958725,-1.292736530303955,-28,6638.0,54.387481689453125,470,9983.0
6010,0.33642083406448364,-0.674650251865387,59,6638.0,-0.5075591802597046,-170,9983.0
6020,0.33194997906684875,2.930941581726074,28,6638.0,-48.97125244140625,-1199,9983.0
6030,0.3322475552558899,5.153429985046387,123,6638.0,-86.23596954345703,-1562,9983.0
6040,0.3330044150352478,7.938309669494629,151,6638.0,-119.54151916503906,-2055,9983.0
6050,0.33288314938545227,9.587961196899414,135,6638.0,-134.44100952148438,-2407,9983.0
6060,0.3298458456993103,3.91219162940979,72,6638.0,-138.57435607910156,-2286,9983.0
6070,0.3293862044811249,0.5482755303382874,14,6638.0,-134.98550415039062,-2070,9983.0
6080,0.3282989263534546,8.503966331481934,184,6638.0,-120.801025390625,-1702,9983.0
6090,0.33026325702667236,24.427600860595703,368,6638.0,-88.94498443603516,-1133,9983.0
6100,0.33233651518821716,27.585567474365234,348,6638.0,-56.03067398071289,-571,9983.0
6110,0.33284345269203186,19.26701545715332,209,6638.0,-13.35694694519043,133,9983.0
6120,0.33413809537887573,3.7821614742279053,-124,6638.0,25.231237411499023,694,9983.0
6130,0.3350156247615814,-11.63693618774414,-267,6638.0,59.31986999511719,1246,9983.0
6140,0.33576756715774536,-20.61069679260254,-382,6638.0,98.65034484863281,1895,9983.0
6150,0.3381625711917877,-25.333070755004883,-472,6638.0,126.11134338378906,2165,9983.0
6160,0.33818119764328003,-22.255006790161133,-392,6638.0,133.02064514160156,2215,9983.0
6170,0.3380126357078552,-10.611096382141113,-51,6638.0,130.6317901611328,2073,9983.0
6180,0.3376317024230957,3.3973748683929443,220,6638.0,114.00283813476562,1767,9983.0
6190,0.32939308881759644,22.96979331970215,476,6638.0,81.89696502685547,1218,9983.0
6200,0.3280939757823944,36.7741584777832,647,6638.0,46.08079528808594,496,9983.0
6210,0.328286349773407,34.20857620239258,408,6638.0,-0.3590601086616516,-133,9983.0
6220,0.32780224084854126,18.55190086364746,131,6638.0,-49.50434875488281,-1118,9983.0
6230,0.32775989174842834,-8.612394332885742,-122,6638.0,-88.1695556640625,-1603,9983.0
6240,0.32123807072639465,-23.30237579345703,-394,6638.0,-112.14676666259766,-1812,9983.0
6250,0.32005080580711365,-32.4570198059082,-635,6638.0,-122.73095703125,-1902,9983.0
6260,0.31853413581848145,-42.516273498535156,-744,6638.0,-121.2009506225586,-1899,9983.0
6270,0.3164151608943939,-53.46078109741211,-810,6638.0,-104.4532699584961,-1624,9983.0
6280,0.31379687786102295,-56.01227569580078,-849,6638.0,-78.71302032470703,-1192,9983.0
6290,0.3137627840042114,-41.87996292114258,-561,6638.0,-38.5544319152832,-532,9983.0
6300,0.3132566213607788,-26.17450714111328,-332,6638.0,-1.3447195291519165,237,9983.0
6310,0.31273218989372253,-12.659890174865723,-185,6638.0,40.949546813964844,957,9983.0
6320,0.31297892332077026,0.2722163498401642,-29,6638.0,78.90242004394531,1471,9983.0
6330,0.31218504905700684,5.680011749267578,212,6638.0,113.18363189697266,1983,9983.0
6340,0.311766117811203,16.550294876098633,310,6638.0,137.54248046875,2378,9983.0
6350,0.31235358119010925,29.852741241455078,593,6638.0,132.95697021484375,2041,9983.0
6360,0.31200331449508667,38.76311492919922,750,6638.0,112.61068725585938,1825,9983.0
6370,0.30734118819236755,51.55487060546875,894,6638.0,89.09825897216797,1216,9983.0
6380,0.30680668354034424,51.11396789550781,856,6638.0,55.479862213134766,807,9983.0
6390,0.3061782121658325,42.47433090209961,587,6638.0,19.7396240234375,225,9983.0
6400,0.30550479888916016,31.391841888427734,556,6638.0,-8.477392196655273,-330,9983.0
6410,0.30256369709968567,22.456859588623047,293,6638.0,-33.6904411315918,-711,9983.0
6420,0.3035045564174652,12.711512565612793,32,6638.0,-59.86419677734375,-1014,9983.0
6430,0.30297136306762695,0.44041624665260315,-19,6638.0,-68.17756652832031,-1189,9983.0
6440,0.30223172903060913,-13.3427734375,-185,6638.0,-71.7907485961914,-1186,9983.0
6450,0.30141279101371765,-27.286216735839844,-559,6638.0,-63.03316879272461,-1027,9983.0
6460,0.3005412518978119,-41.87996292114258,-733,6638.0,-43.188865661621094,-574,9983.0
6470,0.2997158169746399,-53.97978591918945,-957,6638.0,-11.015335083007812,125,9983.0
6480,0.29881832003593445,-62.16489791870117,-1084,6638.0,28.313865661621094,795,9983.0
6490,0.2981259822845459,-65.39889526367188,-1102,6638.0,59.672142028808594,1115,9983.0
6500,0.29956716299057007,-49.73076629638672,-622,6638.0,77.72801208496094,1200,9983.0
6510,0.2985754609107971,-19.86965560913086,-98,6638.0,86.76272583007812,1457,9983.0
6520,0.29817330837249756,17.510894775390625,403,6638.0,85.23805236816406,1276,9983.0
6530,0.2972443699836731,35.269264221191406,654,6638.0,69.77945709228516,1114,9983.0
6540,0.29818058013916016,42.721309661865234,788,6638.0,40.255191802978516,508,9983.0
6550,0.2971952557563782,35.10691452026367,393,6638.0,12.6176118850708,79,9983.0
6560,0.29593566060066223,19.603668212890625,331,6638.0,-11.521946907043457,-224,9983.0
6570,0.2950659692287445,6.697033882141113,-38,6638.0,-26.288419723510742,-422,9983.0
6580,0.2936926782131195,-2.6156599521636963,29,6638.0,-36.775108337402344,-615,9983.0
6590,0.29266873002052307,-0.06017778441309929,10,6638.0,-42.75605392456055,-655,9983.0
6600,0.29135772585868835,6.7795257568359375,175,6638.0,-42.15025329589844,-732,9983.0
6610,0.2905005216598511,14.427038192749023,299,6638.0,-32.077796936035156,-475,9983.0
6620,0.2898760437965393,19.4709415435791,326,6638.0,-20.739124298095703,-407,9983.0
6630,0.2899918258190155,19.47886848449707,306,6638.0,-11.969558715820312,-222,9983.0
6640,0.289615273475647,14.544998168945312,228,6638.0,-7.42573356628418,-30,9983.0
6650,0.2896481156349182,7.673260688781738,91,6638.0,-2.438943862915039,-11,9983.0
6660,0.2895931303501129,2.077869176864624,-30,6638.0,1.567750334739685,-44,9983.0
6670,0.28970596194267273,-8.023643493652344,-134,6638.0,12.646491050720215,217,9983.0
6680,0.28928980231285095,-25.592390060424805,-534,6638.0,20.973773956298828,343,9983.0
6690,0.28924569487571716,-33.292022705078125,-603,6638.0,22.83108139038086,316,9983.0
6700,0.2891804575920105,-32.652408599853516,-478,6638.0,22.944129943847656,415,9983.0
6710,0.2889668345451355,-28.018821716308594,-444,6638.0,22.574237823486328,508,9983.0
6720,0.2887313663959503,-16.112730026245117,-71,6638.0,19.109020233154297,286,9983.0
6730,0.2886584401130676,3.730914354324341,175,6638.0,14.11103343963623,221,9983.0
6740,0.288373738527298,19.360872268676758,352,6638.0,-1.2857654094696045,-285,9983.0
6750,0.28785765171051025,27.927654266357422,534,6638.0,-14.8681640625,-226,9983.0
6760,0.28716933727264404,33.86361312866211,610,6638.0,-17.27710723876953,-296,9983.0
6770,0.286417156457901,31.338939666748047,445,6638.0,-18.884788513183594,-374,9983.0
6780,0.28567567467689514,19.12492561340332,303,6638.0,-25.331710815429688,-464,9983.0
6790,0.2850547432899475,5.763845920562744,-43,6638.0,-32.92386245727539,-515,9983.0
6800,0.28417733311653137,-6.447600841522217,-218,6638.0,-36.04646301269531,-607,9983.0
6810,0.28293362259864807,-16.48948097229004,-246,6638.0,-38.069393157958984,-629,9983.0
6820,0.2819927930831909,-20.406904220581055,-323,6638.0,-35.25872802734375,-456,9983.0
6830,0.2815195620059967,-22.890628814697266,-364,6638.0,-25.137510299682617,-248,9983.0
6840,0.28042393922805786,-29.609664916992188,-493,6638.0,-6.236317157745361,-52,9983.0
6850,0.2771534323692322,-32.57994079589844,-495,6638.0,11.601096153259277,230,9983.0
6860,0.2759270668029785,-28.938495635986328,-457,6638.0,27.554603576660156,549,9983.0
6870,0.27477461099624634,-27.49526596069336,-497,6638.0,49.929962158203125,780,9983.0
6880,0.27399975061416626,-17.127975463867188,-121,6638.0,67.60834503173828,1238,9983.0
6890,0.272633820772171,6.913665294647217,210,6638.0,77.67024993896484,1225,9983.0
6900,0.2707887887954712,29.431846618652344,628,6638.0,63.7662467956543,839,9983.0
6910,0.27001234889030457,50.13144302368164,851,6638.0,37.88739776611328,408,9983.0
6920,0.2684989273548126,58.19355773925781,965,6638.0,7.462945461273193,158,9983.0
6930,0.26703110337257385,46.902565002441406,672,6638.0,-15.911001205444336,-545,9983.0
6940,0.2651706635951996,27.178768157958984,380,6638.0,-41.059181213378906,-721,9983.0
6950,0.2645696699619293,13.768892288208008,139,6638.0,-52.915069580078125,-1029,9983.0
6960,0.26332029700279236,4.008131504058838,48,6638.0,-57.06310272216797,-867,9983.0
6970,0.26207607984542847,-4.8097028732299805,-128,6638.0,-53.9349365234375,-812,9983.0
6980,0.25915470719337463,-12.333761215209961,-196,6638.0,-45.64112091064453,-765,9983.0
6990,0.25852417945861816,-12.189962387084961,-223,6638.0,-33.51541519165039,-353,9983.0
7000,0.25738775730133057,-10.625907897949219,-194,6638.0,-19.897550582885742,-310,9983.0
7010,0.25633206963539124,-12.213883399963379,-144,6638.0,-5.6684980392456055,-112,9983.0
7020,0.2556592524051666,-12.549139022827148,-214,6638.0,5.716930389404297,217,9983.0
7030,0.25314921140670776,-15.507404327392578,-263,6638.0,15.904139518737793,207,9983.0
7040,0.25302010774612427,-13.77988052368164,-203,6638.0,21.817636489868164,437,9983.0
7050,0.2525811791419983,-10.780704498291016,-181,6638.0,24.758506774902344,266,9983.0
7060,0.25275927782058716,-3.60284423828125,19,6638.0,26.496103286743164,522,9983.0
7070,0.2497270256280899,8.331023216247559,154,6638.0,28.666820526123047,324,9983.0
7080,0.249899223446846,15.796049118041992,330,6638.0,26.50186538696289,435,9983.0
7090,0.2501024007797241,21.356746673583984,344,6638.0,23.711605072021484,181,9983.0
7100,0.2502308785915375,24.34735679626465,442,6638.0,11.843342781066895,232,9983.0
7110,0.2503645122051239,19.400798797607422,199,6638.0,6.186880111694336,84,9983.0
7120,0.24823616445064545,10.216108322143555,200,6638.0,0.1698623150587082,-70,9983.0
7130,0.24821323156356812,0.05785422772169113,-78,6638.0,-1.801472783088684,0,9983.0
7140,0.24817433953285217,-8.028550148010254,-211,6638.0,-5.0095391273498535,-157,9983.0
7150,0.24795326590538025,-12.02690601348877,-128,6638.0,-4.30854606628418,-54,9983.0
7160,0.2454420030117035,-11.743697166442871,-201,6638.0,-3.9783060550689697,41,9983.0
7170,0.24517682194709778,-8.597868919372559,-124,6638.0,-3.8760011196136475,-72,9983.0
7180,0.2445250302553177,-5.9983229637146,-53,6638.0,-4.418713569641113,0,9983.0
7190,0.24375319480895996,-8.087686538696289,-171,6638.0,-1.5803401470184326,7,9983.0
7200,0.24292941391468048,-12.244987487792969,-180,6638.0,2.0444633960723877,-22,9983.0
7210,0.2424907237291336,-18.258197784423828,-312,6638.0,10.144303321838379,325,9983.0
7220,0.24133431911468506,-18.418806076049805,-399,6638.0,14.864328384399414,288,9983.0
7230,0.24082893133163452,-20.49550437927246,-223,6638.0,10.576220512390137,89,9983.0
7240,0.23901358246803284,-17.506988525390625,-260,6638.0,2.347271203994751,116,9983.0
7250,0.23916377127170563,-13.05708122253418,-130,6638.0,5.172547817230225,92,9983.0
7260,0.23796090483665466,-4.575779914855957,-52,6638.0,5.8347883224487305,206,9983.0
7270,0.23755496740341187,2.0220046043395996,121,6638.0,13.6961669921875,207,9983.0
7280,0.2362443059682846,7.1284613609313965,179,6638.0,27.334728240966797,580,9983.0
7290,0.23640704154968262,15.369756698608398,287,6638.0,34.922367095947266,502,9983.0
7300,0.23601092398166656,17.647327423095703,295,6638.0,34.545936584472656,636,9983.0
7310,0.235629603266716,19.331985473632812,306,6638.0,29.76296043395996,327,9983.0
7320,0.23529820144176483,17.830041885375977,329,6638.0,26.061071395874023,487,9983.0
7330,0.23563367128372192,19.074308395385742,267,6638.0,27.09090232849121,370,9983.0
7340,0.23604734241962433,17.004846572875977,370,6638.0,23.44029998779297,417,9983.0
7350,0.23636898398399353,24.73265838623047,382,6638.0,15.63566780090332,126,9983.0
7360,0.23681212961673737,23.702606201171875,378,6638.0,9.765772819519043,107,9983.0
7370,0.23698972165584564,13.423093795776367,67,6638.0,1.895776391029358,70,9983.0
7380,0.23573236167430878,2.0815393924713135,33,6638.0,-3.4465465545654297,-243,9983.0
7390,0.23588834702968597,-5.454367637634277,-71,6638.0,-8.185047149658203,-124,9983.0
7400,0.23615457117557526,-11.504617691040039,-293,6638.0,-9.132156372070312,-175,9983.0
7410,0.2363213449716568,-18.294403076171875,-300,6638.0,-5.909590244293213,-140,9983.0
7420,0.2365226447582245,-24.30842399597168,-373,6638.0,-4.197465896606445,-74,9983.0
7430,0.236693874001503,-25.17234992980957,-463,6638.0,-3.647481918334961,-7,9983.0
7440,0.23680931329727173,-23.74135971069336,-332,6638.0,-8.581549644470215,-129,9983.0
7450,0.23693056404590607,-21.296344757080078,-369,6638.0,-15.634546279907227,-155,9983.0
7460,0.23704533278942108,-18.494300842285156,-311,6638.0,-23.83171272277832,-513,9983.0
7470,0.23789529502391815,-16.301969528198242,-198,6638.0,-33.02527618408203,-520,9983.0
7480,0.2379510998725891,-11.632047653198242,-223,6638.0,-36.511680603027344,-570,9983.0
7490,0.2384093999862671,-5.10029411315918,-20,6638.0,-30.183876037597656,-507,9983.0
7500,0.23839470744132996,4.363219261169434,85,6638.0,-17.6148624420166,-170,9983.0
7510,0.23930764198303223,15.817305564880371,245,6638.0,1.8933405876159668,-24,9983.0
7520,0.23950040340423584,17.980661392211914,353,6638.0,16.105010986328125,310,9983.0
7530,0.23913361132144928,16.186960220336914,169,6638.0,20.634899139404297,387,9983.0
7540,0.23889821767807007,3.23595929145813,45,6638.0,19.78542709350586,163,9983.0
7550,0.23900341987609863,-3.2155063152313232,-12,6638.0,20.922922134399414,350,9983.0
7560,0.23844487965106964,-4.640263080596924,-177,6638.0,22.438011169433594,395,9983.0
7570,0.2377997487783432,-6.077706813812256,-69,6638.0,20.045270919799805,217,9983.0
7580,0.23704224824905396,-3.7948946952819824,-59,6638.0,12.747740745544434,193,9983.0
7590,0.23621995747089386,3.3507721424102783,78,6638.0,2.000725269317627,-24,9983.0
7600,0.23524627089500427,10.02802562713623,156,6638.0,-9.91057300567627,-24,9983.0
7610,0.23432978987693787,13.873619079589844,208,6638.0,-20.3872127532959,-412,9983.0
7620,0.23315364122390747,14.901203155517578,332,6638.0,-27.405601501464844,-520,9983.0
7630,0.2320009469985962,12.550968170166016,152,6638.0,-30.388948440551758,-432,9983.0
7640,0.23237836360931396,7.350528240203857,121,6638.0,-27.633060455322266,-488,9983.0
7650,0.23119612038135529,1.7878332138061523,48,6638.0,-24.246505737304688,-301,9983.0
7660,0.22999714314937592,-1.8211534023284912,-129,6638.0,-16.78818130493164,-149,9983.0
7670,0.2289179265499115,-8.758550643920898,-164,6638.0,-3.4277637004852295,-77,9983.0
7680,0.22889584302902222,-14.153178215026855,-250,6638.0,8.442290306091309,252,9983.0
7690,0.2274637073278427,-16.162248611450195,-347,6638.0,22.477937698364258,467,9983.0
7700,0.22687844932079315,-13.080599784851074,-121,6638.0,30.28829574584961,497,9983.0
7710,0.22621694207191467,-2.076260566711426,-48,6638.0,36.31404113769531,674,9983.0
7720,0.22617539763450623,4.860223293304443,145,6638.0,39.80404281616211,452,9983.0
7730,0.2297123521566391,8.618749618530273,104,6638.0,31.617177963256836,505,9983.0
7740,0.2302258312702179,7.099416255950928,197,6638.0,22.425474166870117,303,9983.0
7750,0.22999125719070435,3.155482053756714,-21,6638.0,15.419453620910645,271,9983.0
7760,0.22924795746803284,2.9382591247558594,138,6638.0,10.073956489562988,62,9983.0
7770,0.2274254858493805,4.522221565246582,47,6638.0,8.912590980529785,183,9983.0
7780,0.226648211479187,10.04387092590332,249,6638.0,10.387292861938477,233,9983.0
7790,0.2267424315214157,15.923316955566406,189,6638.0,8.15434455871582,101,9983.0
7800,0.22673997282981873,19.550907135009766,354,6638.0,2.728688955307007,98,9983.0
7810,0.22457793354988098,18.872100830078125,224,6638.0,1.0306239128112793,-145,9983.0
7820,0.2245939075946808,12.104880332946777,229,6638.0,-2.8863015174865723,10,9983.0
7830,0.22453969717025757,5.330153465270996,38,6638.0,-6.632884502410889,-242,9983.0
7840,0.22433996200561523,-0.4400866627693176,10,6638.0,-13.211291313171387,-134,9983.0
7850,0.2243862897157669,-4.967933177947998,-171,6638.0,-17.442882537841797,-358,9983.0
7860,0.22265246510505676,-8.010675430297852,-74,6638.0,-15.784476280212402,-252,9983.0
7870,0.22290723025798798,-5.779855251312256,-158,6638.0,-6.615494251251221,-89,9983.0
7880,0.22337329387664795,-3.3365912437438965,15,6638.0,11.935544967651367,265,9983.0
7890,0.22404249012470245,4.122021675109863,109,6638.0,27.3168888092041,621,9983.0
7900,0.22496168315410614,14.301527976989746,335,6638.0,39.86869430541992,648,9983.0
7910,0.225434347987175,14.389196395874023,174,6638.0,41.63395309448242,774,9983.0
7920,0.22637557983398438,5.497653961181641,21,6638.0,36.46453094482422,479,9983.0
7930,0.22638455033302307,-4.920016288757324,-133,6638.0,23.36806297302246,395,9983.0
7940,0.22736553847789764,-16.790586471557617,-262,6638.0,-0.36000049114227295,-133,9983.0
7950,0.2265813946723938,-23.55214500427246,-499,6638.0,-20.79707908630371,-316,9983.0
7960,0.2265002578496933,-28.487796783447266,-458,6638.0,-29.113224029541016,-629,9983.0
7970,0.22613291442394257,-30.156475067138672,-533,6638.0,-31.54056739807129,-486,9983.0
7980,0.2258404642343521,-22.9353084564209,-296,6638.0,-27.56670570373535,-489,9983.0
7990,0.22469577193260193,-11.307353973388672,-170,6638.0,-23.264612197875977,-272,9983.0
8000,0.2246176153421402,-1.4693603515625,109,6638.0,-16.382848739624023,-225,9983.0
8010,0.22451196610927582,7.84344482421875,71,6638.0,-14.073688507080078,-136,9983.0
8020,0.22450731694698334,11.45702075958252,258,6638.0,-9.594330787658691,-66,9983.0
8030,0.22456097602844238,13.100741386413574,171,6638.0,-7.070374965667725,-175,9983.0
8040,0.22347497940063477,10.988401412963867,211,6638.0,-8.343544006347656,-117,9983.0
8050,0.22337189316749573,9.0591459274292,112,6638.0,-9.063482284545898,-243,9983.0
8060,0.22301959991455078,7.307814121246338,190,6638.0,-9.018865585327148,-56,9983.0
8070,0.22332234680652618,6.733029842376709,-12,6638.0,0.0776541456580162,64,9983.0
8080,0.22177985310554504,0.016223248094320297,18,6638.0,17.695528030395508,435,9983.0
8090,0.22185492515563965,-2.8595571517944336,-100,6638.0,32.27610397338867,455,9983.0
8100,0.22189414501190186,-13.871270179748535,-186,6638.0,40.16305923461914,595,9983.0
8110,0.22176814079284668,-16.11787223815918,-319,6638.0,45.90291976928711,642,9983.0
8120,0.22064784169197083,-9.757721900939941,-88,6638.0,43.005897521972656,795,9983.0
8130,0.2201239913702011,0.3363128900527954,137,6638.0,33.96835708618164,533,9983.0
8140,0.22013431787490845,12.129039764404297,212,6638.0,17.593765258789062,182,9983.0
8150,0.21998952329158783,20.843414306640625,379,6638.0,6.569208145141602,47,9983.0
8160,0.21933510899543762,24.890962600708008,379,6638.0,-5.851668834686279,-165,9983.0
8170,0.22070929408073425,19.8247127532959,262,6638.0,-19.136119842529297,-470,9983.0
8180,0.21979519724845886,10.580798149108887,91,6638.0,-25.54022789001465,-269,9983.0
8190,0.21895389258861542,-0.21851861476898193,31,6638.0,-26.62449836730957,-457,9983.0
8200,0.2180594950914383,-1.390007495880127,-117,6638.0,-32.02433776855469,-666,9983.0
8210,0.2182362824678421,-3.671766519546509,-76,6638.0,-37.626258850097656,-582,9983.0
8220,0.21739648282527924,-5.040526390075684,-20,6638.0,-37.12474822998047,-650,9983.0
8230,0.21636033058166504,-4.593008995056152,-73,6638.0,-34.429039001464844,-413,9983.0
8240,0.215491384267807,-1.6610318422317505,106,6638.0,-21.15683937072754,-299,9983.0
8250,0.21457353234291077,6.758490562438965,108,6638.0,1.875701665878296,102,9983.0
8260,0.21418531239032745,13.305108070373535,330,6638.0,22.60228157043457,527,9983.0
8270,0.2135041356086731,28.197097778320312,393,6638.0,36.086368560791016,486,9983.0
8280,0.2129293978214264,29.884693145751953,505,6638.0,37.04299545288086,704,9983.0
8290,0.21178589761257172,16.885425567626953,237,6638.0,33.62732696533203,511,9983.0
8300,0.2116963118314743,-2.9858927726745605,-237,6638.0,25.326589584350586,329,9983.0
8310,0.2134358435869217,-26.138046264648438,-487,6638.0,12.439493179321289,331,9983.0
8320,0.21319599449634552,-39.55072021484375,-641,6638.0,4.691033840179443,-76,9983.0
8330,0.2130827158689499,-42.16667938232422,-728,6638.0,-8.114659309387207,-270,9983.0
8340,0.21384984254837036,-40.622188568115234,-596,6638.0,-17.864418029785156,-247,9983.0
8350,0.21415144205093384,-35.038570404052734,-491,6638.0,-30.336990356445312,-506,9983.0
8360,0.2146444022655487,-30.077396392822266,-422,6638.0,-42.03125,-832,9983.0
8370,0.21437208354473114,-15.787965774536133,-212,6638.0,-41.1196174621582,-729,9983.0
8380,0.2140188068151474,-0.058611586689949036,67,6638.0,-34.7947883605957,-429,9983.0
8390,0.21085818111896515,11.776573181152344,287,6638.0,-21.943944931030273,-272,9983.0
8400,0.21084927022457123,19.4251708984375,337,6638.0,-9.234582901000977,-157,9983.0
8410,0.211343452334404,21.146650314331055,410,6638.0,1.10429847240448,183,9983.0
8420,0.21226254105567932,23.136648178100586,489,6638.0,11.32333755493164,230,9983.0
8430,0.209747314453125,28.251665115356445,405,6638.0,24.415973663330078,473,9983.0
8440,0.21019604802131653,29.25562286376953,522,6638.0,42.88095474243164,836,9983.0
8450,0.2106764316558838,20.344764709472656,207,6638.0,57.73530197143555,813,9983.0
8460,0.21087989211082458,7.6365647315979,22,6638.0,60.468994140625,1079,9983.0
8470,0.20972494781017303,-6.226373672485352,-77,6638.0,57.96080780029297,993,9983.0
8480,0.21016725897789001,-17.304485321044922,-368,6638.0,45.23366928100586,603,9983.0
8490,0.21082943677902222,-18.812742233276367,-384,6638.0,23.18905258178711,219,9983.0
8500,0.21112538874149323,-17.549219131469727,-282,6638.0,-7.078154563903809,-127,9983.0
8510,0.2116132378578186,-10.007801055908203,-32,6638.0,-34.48345184326172,-629,9983.0
8520,0.21349193155765533,-0.5707547664642334,-16,6638.0,-53.525550842285156,-1082,9983.0
8530,0.21343088150024414,2.5729594230651855,-6,6638.0,-60.999420166015625,-986,9983.0
8540,0.21303708851337433,1.834800124168396,70,6638.0,-53.406349182128906,-860,9983.0
8550,0.21488423645496368,-0.40740668773651123,-95,6638.0,-35.70714569091797,-555,9983.0
8560,0.21564699709415436,-5.891490936279297,-73,6638.0,-17.404226303100586,-127,9983.0
8570,0.21611550450325012,-6.421410083770752,-145,6638.0,1.2567427158355713,33,9983.0
8580,0.21707525849342346,-6.16549015045166,-50,6638.0,11.3313627243042,366,9983.0
8590,0.2163466513156891,1.3712050914764404,57,6638.0,22.932537078857422,346,9983.0
8600,0.2173633575439453,11.078573226928711,183,6638.0,30.587072372436523,540,9983.0
8610,0.21829535067081451,17.426916122436523,361,6638.0,41.06537628173828,787,9983.0
8620,0.21878241002559662,23.307329177856445,374,6638.0,49.66957092285156,726,9983.0
8630,0.21940948069095612,31.60283851623535,599,6638.0,49.75735092163086,817,9983.0
8640,0.22044390439987183,32.92839431762695,512,6638.0,39.198272705078125,557,9983.0
8650,0.21904084086418152,24.125450134277344,235,6638.0,24.844970703125,328,9983.0
8660,0.21957768499851227,12.89860725402832,210,6638.0,10.251070976257324,179,9983.0
8670,0.2197825312614441,5.347900867462158,12,6638.0,-1.127331018447876,-167,9983.0
8680,0.2200881987810135,2.321502923965454,72,6638.0,-6.886153221130371,-76,9983.0
8690,0.22031700611114502,-1.2654709815979004,-29,6638.0,-6.198337554931641,-183,9983.0
8700,0.2205105572938919,-5.214232444763184,-111,6638.0,-7.323494911193848,-37,9983.0
8710,0.22037941217422485,-7.423497676849365,-85,6638.0,-8.909811973571777,-266,9983.0
8720,0.22014467418193817,-10.563240051269531,-335,6638.0,-16.377853393554688,-325,9983.0
8730,0.21996018290519714,-18.082555770874023,-300,6638.0,-16.224014282226562,-156,9983.0
8740,0.22105713188648224,-24.843461990356445,-413,6638.0,-11.351899147033691,-158,9983.0
8750,0.22066549956798553,-24.348535537719727,-347,6638.0,-9.891468048095703,-147,9983.0
8760,0.22013087570667267,-18.769975662231445,-304,6638.0,-6.383615493774414,-238,9983.0
8770,0.21956712007522583,-11.143144607543945,-100,6638.0,-5.923083782196045,7,9983.0
8780,0.21908283233642578,5.088630199432373,149,6638.0,0.9654608368873596,-50,9983.0
8790,0.21909132599830627,25.058212280273438,408,6638.0,5.977763652801514,109,9983.0
8800,0.21965530514717102,35.38507080078125,610,6638.0,12.402688026428223,322,9983.0
8810,0.21973323822021484,31.08526611328125,460,6638.0,21.128156661987305,235,9983.0
8820,0.21996410191059113,20.994842529296875,166,6638.0,30.899682998657227,542,9983.0
8830,0.2231995314359665,4.6667280197143555,-42,6638.0,37.85962677001953,600,9983.0
8840,0.2237824648618698,-10.941061019897461,-262,6638.0,33.915775299072266,601,9983.0
8850,0.22414351999759674,-20.296533584594727,-289,6638.0,28.589719772338867,398,9983.0
8860,0.22427088022232056,-23.924291610717773,-431,6638.0,16.26070213317871,72,9983.0
8870,0.22660277783870697,-26.353609085083008,-474,6638.0,-0.37514784932136536,-29,9983.0
8880,0.22689315676689148,-25.445514678955078,-342,6638.0,-15.818258285522461,-340,9983.0
8890,0.22717028856277466,-21.71529769897461,-440,6638.0,-25.87397003173828,-513,9983.0
8900,0.22715404629707336,-27.57994270324707,-471,6638.0,-26.907026290893555,-405,9983.0
8910,0.2257022261619568,-24.776927947998047,-302,6638.0,-25.19840431213379,-361,9983.0
8920,0.2274729311466217,-13.480594635009766,-204,6638.0,-21.908090591430664,-435,9983.0
8930,0.22782132029533386,-2.9853148460388184,-76,6638.0,-16.209362030029297,-254,9983.0
8940,0.22822074592113495,4.932100772857666,137,6638.0,-13.802345275878906,-117,9983.0
8950,0.22857168316841125,9.740100860595703,110,6638.0,-12.6866455078125,-221,9983.0
8960,0.232155904173851,11.648216247558594,154,6638.0,-11.708934783935547,-95,9983.0
8970,0.23295681178569794,11.07093334197998,290,6638.0,-7.276912689208984,-61,9983.0
8980,0.23389936983585358,7.729277610778809,36,6638.0,6.310109615325928,137,9983.0
8990,0.23517103493213654,-1.4115827083587646,14,6638.0,22.821548461914062,493,9983.0
9000,0.23311562836170197,-5.346196174621582,-185,6638.0,36.93832778930664,551,9983.0
9010,0.2341892123222351,-4.498574256896973,-132,6638.0,37.62275314331055,647,9983.0
9020,0.2352009266614914,1.084694266319275,100,6638.0,37.89748001098633,631,9983.0
9030,0.2359798401594162,-0.432603120803833,-90,6638.0,30.1784725189209,331,9983.0
9040,0.2367047369480133,-8.165132522583008,-261,6638.0,18.072917938232422,178,9983.0
9050,0.24065536260604858,-17.335357666015625,-265,6638.0,1.3115297555923462,-16,9983.0
9060,0.241354838013649,-20.20067024230957,-312,6638.0,-10.39769458770752,-377,9983.0
9070,0.24209937453269958,-6.087432384490967,-11,6638.0,-31.007158279418945,-538,9983.0
9080,0.2426653653383255,15.627164840698242,365,6638.0,-51.010982513427734,-924,9983.0
9090,0.2418983429670334,28.740922927856445,443,6638.0,-59.75922393798828,-1116,9983.0
9100,0.24209806323051453,31.200956344604492,558,6638.0,-57.518089294433594,-803,9983.0
9110,0.24206720292568207,24.674158096313477,303,6638.0,-42.80759811401367,-644,9983.0
9120,0.24269254505634308,13.399269104003906,203,6638.0,-26.9888973236084,-294,9983.0
9130,0.24245575070381165,3.569431781768799,-42,6638.0,-4.42828369140625,-8,9983.0
9140,0.24262508749961853,-2.7851078510284424,8,6638.0,15.065465927124023,257,9983.0
9150,0.24300457537174225,-7.86757230758667,-276,6638.0,33.393463134765625,672,9983.0
9160,0.24333453178405762,-12.952038764953613,-118,6638.0,46.13954162597656,819,9983.0
9170,0.24403955042362213,-1.0716592073440552,127,6638.0,51.64435577392578,793,9983.0
9180,0.2431427389383316,22.03851890563965,468,6638.0,37.23652648925781,603,9983.0
9190,0.24316608905792236,30.868892669677734,480,6638.0,20.306976318359375,260,9983.0
9200,0.24320834875106812,17.703763961791992,122,6638.0,14.983144760131836,213,9983.0
9210,0.24509656429290771,-5.7685322761535645,-164,6638.0,2.2509281635284424,-1,9983.0
9220,0.24563363194465637,-28.928194046020508,-582,6638.0,-12.168888092041016,-375,9983.0
9230,0.2459503710269928,-42.950340270996094,-745,6638.0,-31.938844680786133,-603,9983.0
9240,0.24611736834049225,-45.21319580078125,-676,6638.0,-44.767818450927734,-717,9983.0
9250,0.24641533195972443,-40.44061279296875,-627,6638.0,-41.947147369384766,-665,9983.0
9260,0.2460147738456726,-25.294816970825195,-266,6638.0,-29.773698806762695,-336,9983.0
9270,0.24608899652957916,-5.821676731109619,82,6638.0,-20.408750534057617,-435,9983.0
9280,0.24604853987693787,14.548768043518066,292,6638.0,-17.23251724243164,-341,9983.0
9290,0.24607126414775848,27.0505428314209,528,6638.0,-18.817459106445312,-186,9983.0
9300,0.2460615336894989,28.545812606811523,493,6638.0,-16.8385066986084,-348,9983.0
9310,0.24568448960781097,26.83542823791504,328,6638.0,-12.931333541870117,-115,9983.0
9320,0.24596722424030304,23.48480987548828,479,6638.0,4.789241313934326,170,9983.0
9330,0.2463771253824234,19.463106155395508,151,6638.0,23.00069808959961,481,9983.0
9340,0.24666842818260193,7.978730201721191,144,6638.0,31.634580612182617,598,9983.0
9350,0.247558131814003,-0.06153706833720207,-24,6638.0,31.162620544433594,338,9983.0
9360,0.2481268346309662,-5.659063339233398,-142,6638.0,28.241437911987305,486,9983.0
9370,0.24886897206306458,-12.295927047729492,-155,6638.0,19.874202728271484,270,9983.0
9380,0.2497352510690689,-16.162870407104492,-317,6638.0,12.184889793395996,189,9983.0
9390,0.250241756439209,-21.3994140625,-317,6638.0,1.4905389547348022,34,9983.0
9400,0.2497386485338211,-21.91706085205078,-362,6638.0,-7.872664928436279,-263,9983.0
9410,0.25037187337875366,-16.51373291015625,-292,6638.0,-19.25421905517578,-341,9983.0
9420,0.2507004141807556,-9.55903434753418,-87,6638.0,-18.022960662841797,-172,9983.0
9430,0.250895619392395,0.3169645071029663,26,6638.0,-12.225923538208008,-297,9983.0
9440,0.2510432004928589,8.593249320983887,116,6638.0,-9.67848014831543,-140,9983.0
9450,0.2514382004737854,12.727865219116211,265,6638.0,-7.360541343688965,-117,9983.0
9460,0.25178787112236023,13.898923873901367,156,6638.0,-5.666722774505615,-98,9983.0
9470,0.25217971205711365,10.784417152404785,214,6638.0,-4.546125888824463,75,9983.0
9480,0.2523721158504486,6.233642101287842,75,6638.0,-3.4080448150634766,-193,9983.0
9490,0.2528821527957916,1.2135722637176514,-14,6638.0,-4.720401763916016,52,9983.0
9500,0.25347208976745605,-4.1966233253479,-66,6638.0,4.239297389984131,60,9983.0
9510,0.2542155385017395,0.14503683149814606,52,6638.0,14.483399391174316,332,9983.0
9520,0.25503137707710266,11.173542022705078,318,6638.0,29.960176467895508,682,9983.0
9530,0.2559390664100647,19.893760681152344,233,6638.0,42.030521392822266,725,9983.0
9540,0.2566951811313629,20.12291717529297,387,6638.0,40.15608596801758,695,9983.0
9550,0.25772735476493835,15.01380729675293,175,6638.0,37.89745330810547,483,9983.0
9560,0.258354514837265,6.32571268081665,76,6638.0,25.39586639404297,428,9983.0
9570,0.26034626364707947,0.7663301825523376,66,6638.0,4.674952030181885,-117,9983.0
9580,0.26132932305336,10.743195533752441,203,6638.0,-19.78648567199707,-466,9983.0
9590,0.2617740333080292,22.78902244567871,435,6638.0,-37.097354888916016,-607,9983.0
9600,0.2620409429073334,22.39098358154297,314,6638.0,-36.83307647705078,-554,9983.0
9610,0.2641808092594147,14.490340232849121,245,6638.0,-23.20273780822754,-390,9983.0
9620,0.2649899125099182,4.173671722412109,-2,6638.0,-16.93043327331543,-157,9983.0
9630,0.26551416516304016,-13.610267639160156,-342,6638.0,-12.193087577819824,-258,9983.0
9640,0.2663184702396393,-29.518701553344727,-439,6638.0,-3.369171619415283,24,9983.0
9650,0.2670920193195343,-36.909515380859375,-674,6638.0,10.894146919250488,158,9983.0
9660,0.2675773501396179,-41.649600982666016,-635,6638.0,14.525106430053711,258,9983.0
9670,0.2684832513332367,-39.97823715209961,-678,6638.0,10.19243335723877,189,9983.0
9680,0.2694558799266815,-33.16517639160156,-444,6638.0,3.4282684326171875,-21,9983.0
9690,0.27075374126434326,-24.253509521484375,-510,6638.0,-5.670797348022461,-58,9983.0
9700,0.27069154381752014,-24.928606033325195,-315,6638.0,-3.136648654937744,-86,9983.0
9710,0.272059828042984,-15.959769248962402,-226,6638.0,6.654229640960693,182,9983.0
9720,0.27332618832588196,-5.84865140914917,-24,6638.0,27.918642044067383,537,9983.0
9730,0.274629682302475,-2.170351505279541,-102,6638.0,44.87544250488281,735,9983.0
9740,0.27559351921081543,3.485717296600342,139,6638.0,45.83934020996094,801,9983.0
9750,0.27870941162109375,11.62625503540039,147,6638.0,25.790538787841797,164,9983.0
9760,0.27988287806510925,20.167320251464844,347,6638.0,-4.5831804275512695,-80,9983.0
9770,0.2816604673862457,23.416715621948242,414,6638.0,-22.109464645385742,-473,9983.0
9780,0.28278395533561707,22.480518341064453,320,6638.0,-30.739952087402344,-488,9983.0
9790,0.28497543931007385,16.137826919555664,299,6638.0,-32.6430778503418,-576,9983.0
9800,0.2859343886375427,5.082513332366943,-22,6638.0,-24.672250747680664,-282,9983.0
9810,0.28678184747695923,-7.961668968200684,-96,6638.0,-16.3323974609375,-324,9983.0
9820,0.2874579429626465,-13.183422088623047,-261,6638.0,-11.128595352172852,-118,9983.0
9830,0.28760090470314026,-21.289243698120117,-353,6638.0,-10.798446655273438,-255,9983.0
9840,0.2884274125099182,-18.49520492553711,-244,6638.0,-18.621328353881836,-207,9983.0
9850,0.2890838384628296,-9.566963195800781,-102,6638.0,-23.174942016601562,-572,9983.0
9860,0.2897947132587433,-5.501424312591553,-108,6638.0,-24.41518783569336,-262,9983.0
9870,0.290560781955719,-10.039529800415039,-203,6638.0,-15.978896141052246,-212,9983.0
9880,0.289544016122818,-16.70168113708496,-238,6638.0,1.972961187362671,232,9983.0
9890,0.2904462218284607,-15.814764976501465,-170,6638.0,21.658355712890625,367,9983.0
9900,0.2910912334918976,-2.13950514793396,45,6638.0,38.62052917480469,783,9983.0
9910,0.2920127213001251,11.826234817504883,227,6638.0,45.347564697265625,712,9983.0
9920,0.2918328642845154,23.310216903686523,340,6638.0,44.34077072143555,694,9983.0
9930,0.2921350300312042,28.614933013916016,527,6638.0,35.53269577026367,560,9983.0
9940,0.29214978218078613,28.6182861328125,401,6638.0,13.695565223693848,31,9983.0
9950,0.29338544607162476,17.79843521118164,122,6638.0,-4.876801013946533,-207,9983.0
9960,0.2936460077762604,1.4158077239990234,-39,6638.0,-18.38307762145996,-281,9983.0
9970,0.2941280007362366,-18.512699127197266,-370,6638.0,-36.389705657958984,-766,9983.0
9980,0.2944165766239166,-33.07878112792969,-637,6638.0,-48.284549713134766,-684,9983.0
9990,0.29435062408447266,-38.135520935058594,-594,6638.0,-42.81888198852539,-608,9983.0
10000,0.2944546043872833,-34.7727165222168,-546,6638.0,-47.192508697509766,-846,9983.0
10010,0.2922225296497345,-27.453561782836914,-403,6638.0,-53.251197814941406,-891,9983.0
10020,0.29266396164894104,-17.36379623413086,-161,6638.0,-46.26070785522461,-578,9983.0
10030,0.29294106364250183,10.48929214477539,239,6638.0,-31.213703155517578,-449,9983.0
10040,0.29312247037887573,29.338237762451172,528,6638.0,-1.162919282913208,279,9983.0
10050,0.29300498962402344,42.46571731567383,749,6638.0,37.295841217041016,671,9983.0
10060,0.2935097813606262,43.526153564453125,584,6638.0,65.1894760131836,1129,9983.0
10070,0.29405131936073303,44.89378356933594,837,6638.0,76.08451080322266,1371,9983.0
10080,0.2944183349609375,46.62753677368164,820,6638.0,68.50886535644531,923,9983.0
10090,0.2947457432746887,42.11957931518555,652,6638.0,40.642452239990234,448,9983.0
10100,0.29501107335090637,37.86320877075195,587,6638.0,6.812102794647217,196,9983.0
10110,0.2962869107723236,22.176713943481445,273,6638.0,-17.49500846862793,-427,9983.0
10120,0.29723209142684937,-1.2802345752716064,-151,6638.0,-36.58130645751953,-676,9983.0
10130,0.2978150546550751,-25.332632064819336,-488,6638.0,-49.62643051147461,-738,9983.0
10140,0.29834046959877014,-49.22910690307617,-872,6638.0,-53.13399124145508,-1001,9983.0
10150,0.29877978563308716,-56.54674530029297,-913,6638.0,-51.98236846923828,-776,9983.0
10160,0.2991883456707001,-51.72449493408203,-746,6638.0,-46.907161712646484,-762,9983.0
10170,0.29985514283180237,-34.710811614990234,-541,6638.0,-43.55173110961914,-782,9983.0
10180,0.3003159165382385,-14.880430221557617,-157,6638.0,-44.11323547363281,-589,9983.0
10190,0.2995254099369049,-2.5448131561279297,108,6638.0,-29.888938903808594,-453,9983.0
10200,0.3017014265060425,18.443584442138672,403,6638.0,-6.692026615142822,11,9983.0
10210,0.30270180106163025,47.429012298583984,892,6638.0,13.742863655090332,330,9983.0
10220,0.30378565192222595,52.85517120361328,762,6638.0,34.37538146972656,553,9983.0
10230,0.3037298321723938,43.38054656982422,760,6638.0,54.30851364135742,1044,9983.0
10240,0.30504313111305237,34.43013000488281,426,6638.0,62.33539962768555,894,9983.0
10250,0.30596962571144104,20.330263137817383,295,6638.0,55.573509216308594,993,9983.0
10260,0.3071429431438446,4.968593597412109,-44,6638.0,43.90208435058594,618,9983.0
10270,0.3080086410045624,-8.197138786315918,-293,6638.0,25.52366828918457,331,9983.0
10280,0.30950576066970825,-20.964590072631836,-349,6638.0,4.588204383850098,-6,9983.0
10290,0.31067338585853577,-29.246200561523438,-501,6638.0,-19.72176170349121,-580,9983.0
10300,0.3117559254169464,-32.12051010131836,-543,6638.0,-42.519508361816406,-792,9983.0
10310,0.3126779794692993,-32.40058898925781,-468,6638.0,-56.446746826171875,-883,9983.0
10320,0.311312735080719,-32.44012451171875,-444,6638.0,-60.99232482910156,-1064,9983.0
10330,0.31191226840019226,-21.876405715942383,-352,6638.0,-63.65801239013672,-1016,9983.0
10340,0.3125933110713959,-5.2928466796875,19,6638.0,-58.79733657836914,-874,9983.0
10350,0.3138847053050995,16.681644439697266,296,6638.0,-34.68302536010742,-515,9983.0
10360,0.31430360674858093,33.047489166259766,605,6638.0,-1.7558306455612183,296,9983.0
10370,0.31543269753456116,35.49021530151367,570,6638.0,39.248023986816406,638,9983.0
10380,0.31704410910606384,39.013160705566406,610,6638.0,63.30950927734375,1258,9983.0
10390,0.3186103105545044,39.56916427612305,629,6638.0,77.27101135253906,1223,9983.0
10400,0.31983113288879395,44.02803421020508,703,6638.0,73.4088134765625,1240,9983.0
10410,0.3218274712562561,36.789676666259766,519,6638.0,61.92060852050781,891,9983.0
10420,0.32276651263237,12.885475158691406,32,6638.0,44.53665542602539,630,9983.0
10430,0.3239060640335083,-14.73550033569336,-252,6638.0,20.479114532470703,283,9983.0
10440,0.3250246047973633,-41.23886489868164,-832,6638.0,-3.6983673572540283,-222,9983.0
10450,0.3258982002735138,-62.24314498901367,-1048,6638.0,-28.214431762695312,-492,9983.0
10460,0.32684579491615295,-66.14190673828125,-953,6638.0,-49.11494827270508,-836,9983.0
10470,0.32738083600997925,-55.0435905456543,-920,6638.0,-63.27149963378906,-1128,9983.0
10480,0.32878634333610535,-45.26383590698242,-673,6638.0,-54.934085845947266,-700,9983.0
10490,0.32833051681518555,-32.963871002197266,-404,6638.0,-42.61222839355469,-664,9983.0
10500,0.32908427715301514,-17.443742752075195,-255,6638.0,-33.9542121887207,-491,9983.0
10510,0.3300763666629791,0.7301136255264282,134,6638.0,-14.96162223815918,-71,9983.0
10520,0.3311255872249603,12.356021881103516,180,6638.0,6.662205219268799,143,9983.0
10530,0.3324113190174103,11.831111907958984,136,6638.0,23.50043487548828,505,9983.0
10540,0.33182454109191895,12.788591384887695,283,6638.0,34.238037109375,716,9983.0
10550,0.332989364862442,17.18504524230957,251,6638.0,45.12672424316406,706,9983.0
10560,0.33414992690086365,23.371339797973633,371,6638.0,54.70223617553711,1025,9983.0
10570,0.3352867364883423,31.786985397338867,616,6638.0,60.63550567626953,1001,9983.0
10580,0.3358389437198639,32.815391540527344,520,6638.0,56.16780471801758,692,9983.0
10590,0.3368195593357086,39.026241302490234,585,6638.0,38.994930267333984,579,9983.0
10600,0.33772942423820496,30.84571075439453,530,6638.0,20.257923126220703,224,9983.0
10610,0.33889681100845337,20.774660110473633,241,6638.0,-6.309514045715332,-335,9983.0
10620,0.33958700299263,9.254249572753906,86,6638.0,-30.066646575927734,-528,9983.0
10630,0.34156060218811035,7.843211650848389,212,6638.0,-42.83120346069336,-747,9983.0
10640,0.34220749139785767,3.4746601581573486,-57,6638.0,-55.77764129638672,-872,9983.0
10650,0.3427639305591583,-0.7069824934005737,-19,6638.0,-54.738487243652344,-960,9983.0
10660,0.3433416187763214,-2.9945738315582275,-69,6638.0,-42.287071228027344,-539,9983.0
10670,0.3436659276485443,-2.7344095706939697,-12,6638.0,-31.536602020263672,-592,9983.0
10680,0.3441978096961975,-5.215338706970215,-104,6638.0,-25.69196128845215,-281,9983.0
10690,0.3448265492916107,-9.542015075683594,-176,6638.0,-8.969820022583008,-152,9983.0
10700,0.3453376591205597,-15.4644136428833,-254,6638.0,8.383532524108887,339,9983.0
10710,0.3458901643753052,-25.883014678955078,-461,6638.0,27.173696517944336,451,9983.0
10720,0.3464399576187134,-28.746822357177734,-509,6638.0,36.76236343383789,651,9983.0
10730,0.3470146656036377,-26.08586883544922,-403,6638.0,40.79695510864258,805,9983.0
10740,0.3474612832069397,-30.16486930847168,-489,6638.0,49.32725524902344,796,9983.0
10750,0.34769392013549805,-17.263521194458008,-237,6638.0,59.32046127319336,911,9983.0
10760,0.3454694449901581,11.653739929199219,377,6638.0,46.35260772705078,665,9983.0
10770,0.34584543108940125,45.88654708862305,865,6638.0,10.554110527038574,149,9983.0
10780,0.3463113009929657,55.47296905517578,936,6638.0,-15.336783409118652,-361,9983.0
10790,0.3465331494808197,50.84264373779297,736,6638.0,-34.74434280395508,-654,9983.0
10800,0.3487568795681,31.21758460998535,303,6638.0,-45.41792297363281,-739,9983.0
10810,0.34874534606933594,6.887112140655518,45,6638.0,-41.5612678527832,-504,9983.0
10820,0.3489035665988922,-6.180126667022705,-189,6638.0,-31.193973541259766,-534,9983.0
10830,0.3490034341812134,-7.278751850128174,-117,6638.0,-27.028579711914062,-331,9983.0
10840,0.34915611147880554,-6.622377872467041,-17,6638.0,-18.965757369995117,-268,9983.0
10850,0.34968674182891846,1.858417272567749,-34,6638.0,-12.926376342773438,-209,9983.0
10860,0.35001859068870544,-0.3110969662666321,-19,6638.0,1.0375059843063354,197,9983.0
10870,0.3504960834980011,-9.727972030639648,-164,6638.0,13.111652374267578,237,9983.0
10880,0.35099488496780396,-12.478944778442383,-228,6638.0,23.014114379882812,378,9983.0
10890,0.3517324924468994,-7.219762802124023,-20,6638.0,24.125600814819336,476,9983.0
10900,0.35222986340522766,4.320006847381592,138,6638.0,24.75347900390625,478,9983.0
10910,0.35262781381607056,12.404916763305664,171,6638.0,27.65993309020996,334,9983.0
10920,0.3529552221298218,11.382634162902832,129,6638.0,19.835689544677734,222,9983.0
10930,0.35354819893836975,7.53394079208374,136,6638.0,9.051860809326172,244,9983.0
10940,0.35368260741233826,6.973392963409424,179,6638.0,-1.5282217264175415,-132,9983.0
10950,0.353788286447525,8.583462715148926,92,6638.0,-18.88376808166504,-534,9983.0
10960,0.3539029657840729,6.468763828277588,-8,6638.0,-33.08716583251953,-560,9983.0
10970,0.3539974093437195,-0.6953761577606201,-6,6638.0,-30.543725967407227,-478,9983.0
10980,0.353164941072464,-12.94484806060791,-278,6638.0,-23.915285110473633,-513,9983.0
10990,0.35317960381507874,-22.00225830078125,-374,6638.0,-23.873750686645508,-328,9983.0
11000,0.3533777594566345,-24.96765899658203,-316,6638.0,-24.58176612854004,-425,9983.0
11010,0.3535163998603821,-21.08485221862793,-410,6638.0,-23.437868118286133,-446,9983.0
11020,0.3536189794540405,-20.454601287841797,-333,6638.0,-28.7200927734375,-343,9983.0
11030,0.3540940284729004,-19.557830810546875,-229,6638.0,-22.567604064941406,-360,9983.0
11040,0.3546896278858185,-6.644784927368164,-91,6638.0,-10.769011497497559,-207,9983.0
11050,0.3554392457008362,16.533370971679688,428,6638.0,-18.050535202026367,-185,9983.0
11060,0.3564158082008362,43.41071319580078,768,6638.0,-11.695080757141113,-255,9983.0
11070,0.355775386095047,49.16330337524414,733,6638.0,-2.929940700531006,85,9983.0
11080,0.3565419316291809,27.821863174438477,372,6638.0,8.269487380981445,126,9983.0
11090,0.35723426938056946,3.135589122772217,-69,6638.0,26.08162498474121,635,9983.0
11100,0.3580791652202606,-14.629899024963379,-255,6638.0,48.29484939575195,841,9983.0
11110,0.3574173152446747,-12.249597549438477,-163,6638.0,59.86955261230469,992,9983.0
11120,0.357560396194458,-3.212063789367676,-19,6638.0,54.37467956542969,850,9983.0
11130,0.3577679693698883,-3.8082406520843506,-57,6638.0,31.48075294494629,285,9983.0
11140,0.3584800660610199,-10.058810234069824,-279,6638.0,7.092068195343018,97,9983.0
11150,0.3589535653591156,-23.183555603027344,-355,6638.0,-0.032386016100645065,76,9983.0
11160,0.35925307869911194,-17.723249435424805,-298,6638.0,-10.542231559753418,-209,9983.0
11170,0.359677791595459,-13.081189155578613,-190,6638.0,-17.213157653808594,-394,9983.0
11180,0.36007046699523926,-5.839503288269043,-118,6638.0,-27.724849700927734,-396,9983.0
11190,0.3604826331138611,-9.686193466186523,-179,6638.0,-40.607662200927734,-832,9983.0
11200,0.3587997853755951,-19.730539321899414,-484,6638.0,-49.859596252441406,-756,9983.0
11210,0.35929298400878906,-24.72392463684082,-275,6638.0,-28.74420738220215,-253,9983.0
11220,0.35990458726882935,-10.153831481933594,-97,6638.0,-8.836823463439941,-175,9983.0
11230,0.3603895306587219,14.413640975952148,396,6638.0,7.560495853424072,362,9983.0
11240,0.359328955411911,27.77752685546875,537,6638.0,24.727991104125977,410,9983.0
11250,0.3596920371055603,28.051136016845703,302,6638.0,44.20015335083008,912,9983.0
11260,0.3599306643009186,11.211010932922363,149,6638.0,60.826133728027344,1035,9983.0
11270,0.36025470495224,-3.139878988265991,-133,6638.0,59.4390983581543,875,9983.0
11280,0.3605163097381592,-12.512920379638672,-199,6638.0,45.77212905883789,733,9983.0
11290,0.3608945310115814,-14.807315826416016,-171,6638.0,22.370450973510742,187,9983.0
11300,0.36123231053352356,-15.13397216796875,-300,6638.0,-3.4085607528686523,-285,9983.0
11310,0.36128169298171997,-15.989212989807129,-236,6638.0,-29.479787826538086,-567,9983.0
11320,0.36165016889572144,-15.687154769897461,-228,6638.0,-38.001625061035156,-619,9983.0
11330,0.36034584045410156,-14.705608367919922,-281,6638.0,-30.97862434387207,-528,9983.0
11340,0.36051082611083984,-13.51417350769043,-76,6638.0,-32.761165618896484,-440,9983.0
11350,0.3608340919017792,-4.497182846069336,-86,6638.0,-35.983558654785156,-639,9983.0
11360,0.3610493838787079,-6.387691974639893,-190,6638.0,-39.545127868652344,-504,9983.0
11370,0.3604123294353485,-14.95405101776123,-233,6638.0,-31.624927520751953,-482,9983.0
11380,0.3607082962989807,-25.393869400024414,-431,6638.0,-8.09718132019043,-12,9983.0
11390,0.36129966378211975,-14.271291732788086,-98,6638.0,8.71650505065918,208,9983.0
11400,0.36179304122924805,6.347472667694092,112,6638.0,20.85536003112793,376,9983.0
11410,0.3623694181442261,21.13118553161621,445,6638.0,28.408832550048828,589,9983.0
11420,0.36268100142478943,34.627540588378906,624,6638.0,41.271751403808594,689,9983.0
11430,0.363082617521286,31.590356826782227,400,6638.0,52.305755615234375,865,9983.0
11440,0.3633318841457367,14.240825653076172,227,6638.0,56.267765045166016,1016,9983.0
11450,0.36385974287986755,-7.268516540527344,-261,6638.0,44.27460479736328,544,9983.0
11460,0.36349618434906006,-18.900775909423828,-405,6638.0,18.499996185302734,125,9983.0
11470,0.3641147315502167,-27.689130783081055,-398,6638.0,-16.178688049316406,-234,9983.0
11480,0.36430829763412476,-23.426612854003906,-282,6638.0,-41.47340774536133,-834,9983.0
11490,0.36450597643852234,-8.499387741088867,-144,6638.0,-61.92564392089844,-1155,9983.0
11500,0.36473241448402405,-3.5497019290924072,1,6638.0,-52.303951263427734,-705,9983.0
11510,0.3649526834487915,-2.3294925689697266,-42,6638.0,-37.711177825927734,-682,9983.0
11520,0.36551332473754883,-4.111326217651367,-109,6638.0,-26.093746185302734,-284,9983.0
11530,0.36608412861824036,-2.3890247344970703,95,6638.0,-12.541955947875977,-194,9983.0
11540,0.3666263520717621,8.612505912780762,73,6638.0,5.285459995269775,203,9983.0
11550,0.3649105131626129,7.202092170715332,194,6638.0,22.452560424804688,483,9983.0
11560,0.3655751645565033,9.841072082519531,149,6638.0,34.20757293701172,471,9983.0
11570,0.36616775393486023,11.46528148651123,198,6638.0,34.79436111450195,602,9983.0
11580,0.36666905879974365,8.902179718017578,203,6638.0,29.926860809326172,374,9983.0
11590,0.36858266592025757,5.410867691040039,3,6638.0,23.03056526184082,384,9983.0
11600,0.3688655495643616,-2.0359737873077393,-1,6638.0,14.709786415100098,288,9983.0
11610,0.36915159225463867,-11.980292320251465,-264,6638.0,11.68073844909668,61,9983.0
11620,0.3693999648094177,-15.623872756958008,-253,6638.0,-1.4703902006149292,-25,9983.0
11630,0.36967533826828003,-13.225611686706543,-59,6638.0,-21.56769371032715,-453,9983.0
11640,0.3721943497657776,-4.880077838897705,-145,6638.0,-34.7078971862793,-626,9983.0
11650,0.37248846888542175,-0.7200320959091187,50,6638.0,-31.904315948486328,-422,9983.0
11660,0.3727060854434967,5.32671594619751,40,6638.0,-21.601625442504883,-380,9983.0
11670,0.37311944365501404,4.517351150512695,61,6638.0,-8.48660659790039,-20,9983.0
11680,0.37363773584365845,-2.3717002868652344,-59,6638.0,1.8947316408157349,5,9983.0
11690,0.37402427196502686,-9.782829284667969,-235,6638.0,5.933447360992432,195,9983.0
11700,0.37449586391448975,-11.508275985717773,-130,6638.0,3.7475600242614746,-25,9983.0
11710,0.375021755695343,-8.635375022888184,-148,6638.0,-0.3091250956058502,16,9983.0
11720,0.3756924867630005,-1.4952203035354614,89,6638.0,-5.271266460418701,-178,9983.0
11730,0.37811487913131714,14.946578979492188,250,6638.0,-4.55111837387085,73,9983.0
11740,0.37893959879875183,26.093887329101562,484,6638.0,8.228840827941895,175,9983.0
11750,0.37970367074012756,18.4890193939209,238,6638.0,20.13559913635254,373,9983.0
11760,0.38053515553474426,9.785590171813965,147,6638.0,30.81301498413086,570,9983.0
11770,0.3806910216808319,1.5785269737243652,-55,6638.0,35.37332534790039,521,9983.0
11780,0.3811466097831726,-2.4987099170684814,-3,6638.0,29.849367141723633,544,9983.0
11790,0.38150548934936523,-5.951268672943115,-124,6638.0,15.158583641052246,106,9983.0
11800,0.3818169832229614,-5.062095642089844,-96,6638.0,1.6438146829605103,3,9983.0
11810,0.38388046622276306,-2.3557496070861816,-4,6638.0,-13.319252967834473,-59,9983.0
11820,0.38408371806144714,-2.8886733055114746,-27,6638.0,-21.3088436126709,-507,9983.0
11830,0.3842284679412842,-1.6030479669570923,-44,6638.0,-39.49205017089844,-690,9983.0
11840,0.38423994183540344,2.6135590076446533,78,6638.0,-48.93254852294922,-706,9983.0
11850,0.3842170238494873,0.9756283760070801,-41,6638.0,-45.80754852294922,-777,9983.0
11860,0.3844468593597412,2.176427125930786,60,6638.0,-37.4620246887207,-517,9983.0
11870,0.3844909071922302,6.692647457122803,149,6638.0,-28.611894607543945,-399,9983.0
11880,0.3845495879650116,6.782446384429932,75,6638.0,-19.00352668762207,-261,9983.0
11890,0.38453441858291626,2.8167102336883545,11,6638.0,-10.362601280212402,-105,9983.0
11900,0.38340938091278076,-11.100747108459473,-213,6638.0,-4.345956802368164,5,9983.0
11910,0.3833535611629486,-14.785228729248047,-209,6638.0,3.2822763919830322,86,9983.0
11920,0.3833022713661194,-12.293164253234863,-275,6638.0,9.914129257202148,180,9983.0
11930,0.38336509466171265,-5.686704635620117,40,6638.0,20.4747314453125,447,9983.0
11940,0.38348788022994995,15.507668495178223,480,6638.0,27.44367218017578,503,9983.0
11950,0.38463670015335083,42.77620315551758,805,6638.0,36.67660903930664,579,9983.0
11960,0.38477492332458496,51.961181640625,833,6638.0,42.48337936401367,716,9983.0
11970,0.38477903604507446,40.291568756103516,529,6638.0,52.51242446899414,881,9983.0
11980,0.3847745954990387,20.02545928955078,277,6638.0,56.212642669677734,1001,9983.0
11990,0.38621196150779724,4.835068225860596,40,6638.0,38.59999084472656,518,9983.0
12000,0.3866417706012726,-8.699678421020508,-195,6638.0,8.436644554138184,-170,9983.0
12010,0.38672009110450745,-20.35230827331543,-439,6638.0,-33.371334075927734,-600,9983.0
12020,0.3869979679584503,-31.703784942626953,-567,6638.0,-59.59357452392578,-932,9983.0
12030,0.39024361968040466,-41.4488639831543,-672,6638.0,-52.96284866333008,-949,9983.0
12040,0.3905825912952423,-39.970680236816406,-689,6638.0,-40.030765533447266,-504,9983.0
12050,0.3909716308116913,-30.751310348510742,-395,6638.0,-30.461471557617188,-400,9983.0
12060,0.3914957642555237,-12.172754287719727,-151,6638.0,-32.668087005615234,-585,9983.0
12070,0.39207422733306885,3.245882987976074,59,6638.0,-37.671905517578125,-690,9983.0
12080,0.390842467546463,13.719277381896973,244,6638.0,-31.240558624267578,-351,9983.0
12090,0.3916437327861786,8.240649223327637,68,6638.0,-13.104598045349121,-237,9983.0
12100,0.39258113503456116,2.252816677093506,1,6638.0,0.25101786851882935,137,9983.0
12110,0.3933737576007843,5.704831600189209,244,6638.0,16.921419143676758,368,9983.0
12120,0.39129015803337097,16.200788497924805,274,6638.0,34.09846878051758,552,9983.0
12130,0.39185404777526855,23.46021270751953,440,6638.0,42.413429260253906,790,9983.0
12140,0.39227697253227234,24.357236862182617,464,6638.0,50.740936279296875,888,9983.0
12150,0.3926089107990265,24.172212600708008,296,6638.0,56.613548278808594,850,9983.0
12160,0.39266887307167053,14.950361251831055,220,6638.0,53.66184616088867,867,9983.0
12170,0.39302825927734375,8.012130737304688,175,6638.0,33.827354431152344,452,9983.0
12180,0.39309513568878174,6.06290864944458,104,6638.0,-3.0410561561584473,-288,9983.0
12190,0.39346960186958313,7.108637809753418,72,6638.0,-37.82672882080078,-877,9983.0
12200,0.3935040235519409,-0.6182560920715332,-51,6638.0,-52.8557243347168,-797,9983.0
12210,0.3955429792404175,-18.336246490478516,-390,6638.0,-45.90434646606445,-685,9983.0
12220,0.3957679867744446,-37.92909240722656,-740,6638.0,-39.64996337890625,-715,9983.0
12230,0.3960326910018921,-44.17744445800781,-707,6638.0,-32.82628631591797,-453,9983.0
12240,0.3961225748062134,-31.956527709960938,-404,6638.0,-26.933576583862305,-381,9983.0
12250,0.39591288566589355,-15.552594184875488,-237,6638.0,-17.314542770385742,-395,9983.0
12260,0.3962845206260681,-1.5324691534042358,64,6638.0,-9.185667037963867,-101,9983.0
12270,0.3970223367214203,16.81238555908203,427,6638.0,-0.8020476698875427,198,9983.0
12280,0.3977428674697876,31.087642669677734,449,6638.0,11.65282154083252,145,9983.0
12290,0.39857351779937744,20.45508575439453,233,6638.0,18.804677963256836,415,9983.0
12300,0.3993922472000122,7.291390895843506,126,6638.0,38.48236083984375,683,9983.0
12310,0.4001111090183258,-3.952949047088623,-63,6638.0,54.16303634643555,841,9983.0
12320,0.40068694949150085,-2.1043412685394287,-15,6638.0,54.9656982421875,987,9983.0
12330,0.40127068758010864,6.524949550628662,171,6638.0,45.20061111450195,750,9983.0
12340,0.4009847342967987,10.905314445495605,153,6638.0,25.274658203125,160,9983.0
12350,0.40120652318000793,12.449816703796387,106,6638.0,-4.889345645904541,-145,9983.0
12360,0.40136560797691345,4.808083534240723,118,6638.0,-23.947866439819336,-404,9983.0
12370,0.4015664756298065,-2.8266382217407227,-34,6638.0,-24.652822494506836,-424,9983.0
12380,0.40179941058158875,-13.476357460021973,-282,6638.0,-20.01252555847168,-340,9983.0
12390,0.4028833210468292,-17.987939834594727,-278,6638.0,-16.68804168701172,-126,9983.0
12400,0.4031718075275421,-20.901817321777344,-335,6638.0,-14.259562492370605,-367,9983.0
12410,0.4035598933696747,-13.233611106872559,-198,6638.0,-22.76144027709961,-416,9983.0
12420,0.4038396179676056,-2.4249582290649414,120,6638.0,-32.61018371582031,-511,9983.0
12430,0.4033201038837433,6.349570274353027,42,6638.0,-25.15581512451172,-460,9983.0
12440,0.40368548035621643,10.337641716003418,172,6638.0,-14.008099555969238,-28,9983.0
12450,0.40406835079193115,12.787339210510254,260,6638.0,8.329106330871582,162,9983.0
12460,0.40441563725471497,21.39499855041504,408,6638.0,24.948749542236328,566,9983.0
12470,0.40400785207748413,30.653579711914062,543,6638.0,31.73171615600586,517,9983.0
12480,0.40409743785858154,30.523475646972656,442,6638.0,34.92158508300781,706,9983.0
12490,0.4040583670139313,20.341594696044922,237,6638.0,41.933685302734375,719,9983.0
12500,0.4042142331600189,5.203027725219727,-63,6638.0,38.19687271118164,633,9983.0
12510,0.40395867824554443,-8.069263458251953,-242,6638.0,29.178579330444336,441,9983.0
12520,0.40289533138275146,-20.109569549560547,-308,6638.0,10.377325057983398,35,9983.0
12530,0.40247899293899536,-26.161014556884766,-475,6638.0,-16.918333053588867,-484,9983.0
12540,0.40218669176101685,-20.72429084777832,-347,6638.0,-37.757972717285156,-701,9983.0
12550,0.4017414152622223,-16.336782455444336,-194,6638.0,-35.14090347290039,-383,9983.0
12560,0.4015597999095917,-12.710229873657227,-129,6638.0,-19.40121841430664,-239,9983.0
12570,0.4012231230735779,-8.854571342468262,-161,6638.0,-6.242434501647949,-118,9983.0
12580,0.40097537636756897,-6.515180587768555,-100,6638.0,-1.5037734508514404,-25,9983.0
12590,0.4007284939289093,-9.314776420593262,-33,6638.0,-8.813639640808105,-181,9983.0
12600,0.4004848003387451,-6.318132400512695,-158,6638.0,-19.36138153076172,-356,9983.0
12610,0.3997027575969696,0.8703302145004272,97,6638.0,-20.0037784576416,-161,9983.0
12620,0.3995780348777771,9.017915725708008,207,6638.0,-8.68004035949707,-96,9983.0
12630,0.39947739243507385,5.376902103424072,53,6638.0,2.699558973312378,-72,9983.0
12640,0.3994840383529663,5.165043830871582,92,6638.0,11.694443702697754,333,9983.0
12650,0.4007423222064972,7.009151935577393,136,6638.0,24.635318756103516,542,9983.0
12660,0.4006367027759552,2.1279256343841553,62,6638.0,33.52793884277344,495,9983.0
12670,0.4004742205142975,-0.6000722646713257,-57,6638.0,47.27081298828125,771,9983.0
12680,0.4001677632331848,-5.539127349853516,-62,6638.0,52.653419494628906,837,9983.0
12690,0.4010370969772339,3.6402342319488525,139,6638.0,36.04375076293945,506,9983.0
12700,0.40085840225219727,11.861903190612793,250,6638.0,1.6310278177261353,-192,9983.0
12710,0.4007451832294464,18.435096740722656,313,6638.0,-37.92191696166992,-805,9983.0
12720,0.40074095129966736,19.53989028930664,315,6638.0,-52.3206672668457,-970,9983.0
12730,0.40055543184280396,16.606252670288086,232,6638.0,-44.3676872253418,-646,9983.0
12740,0.40188971161842346,10.47832202911377,108,6638.0,-34.40156936645508,-505,9983.0
12750,0.40190282464027405,0.5248220562934875,-49,6638.0,-17.359315872192383,-311,9983.0
12760,0.40194278955459595,-13.505343437194824,-345,6638.0,-4.416810035705566,45,9983.0
12770,0.40208086371421814,-18.305238723754883,-272,6638.0,1.2742735147476196,10,9983.0
12780,0.40217339992523193,-19.196725845336914,-340,6638.0,3.1985530853271484,18,9983.0
12790,0.40238168835639954,-16.778282165527344,-187,6638.0,5.730310440063477,213,9983.0
12800,0.40266093611717224,-7.474339962005615,-53,6638.0,11.058645248413086,99,9983.0
12810,0.40295979380607605,1.2730146646499634,-17,6638.0,12.60066032409668,211,9983.0
12820,0.4033445417881012,2.6185290813446045,-27,6638.0,16.59791374206543,306,9983.0
12830,0.4034556746482849,-3.5041861534118652,-15,6638.0,13.447279930114746,224,9983.0
12840,0.40360185503959656,-1.253684639930725,90,6638.0,10.11833381652832,20,9983.0
12850,0.40368935465812683,6.955166339874268,53,6638.0,4.167905807495117,125,9983.0
12860,0.40379104018211365,9.329609870910645,182,6638.0,2.473177194595337,30,9983.0
12870,0.4049343168735504,11.027261734008789,142,6638.0,-12.387803077697754,-353,9983.0
12880,0.4048534035682678,13.469794273376465,194,6638.0,-32.430519104003906,-581,9983.0
12890,0.4047200083732605,16.37116050720215,354,6638.0,-40.266082763671875,-540,9983.0
12900,0.4045175611972809,24.126548767089844,432,6638.0,-21.42776107788086,-346,9983.0
12910,0.4039055407047272,23.93540382385254,422,6638.0,7.043004989624023,332,9983.0
12920,0.4038155972957611,9.387932777404785,70,6638.0,33.07204818725586,457,9983.0
12930,0.4038379490375519,-4.775749683380127,-145,6638.0,40.545623779296875,735,9983.0
12940,0.4039808213710785,-21.375606536865234,-348,6638.0,28.942588806152344,303,9983.0
12950,0.4044138193130493,-34.16322326660156,-583,6638.0,6.111248016357422,-28,9983.0
12960,0.4047969877719879,-36.57383346557617,-580,6638.0,-17.91306495666504,-301,9983.0
12970,0.40503227710723877,-33.80501174926758,-484,6638.0,-29.67722511291504,-498,9983.0
12980,0.4052351117134094,-26.75514030456543,-402,6638.0,-35.09626007080078,-654,9983.0
12990,0.4056154489517212,-15.024320602416992,-282,6638.0,-34.8303108215332,-499,9983.0
13000,0.40500345826148987,-13.056098937988281,-112,6638.0,-27.379920959472656,-304,9983.0
13010,0.40515267848968506,2.665877103805542,126,6638.0,-9.447896003723145,-156,9983.0
13020,0.40558022260665894,17.10171890258789,239,6638.0,9.427750587463379,275,9983.0
13030,0.40574079751968384,24.560152053833008,503,6638.0,32.790225982666016,802,9983.0
13040,0.40588024258613586,33.11713790893555,596,6638.0,44.78339767456055,672,9983.0
13050,0.4042081832885742,40.513916015625,592,6638.0,35.58988571166992,475,9983.0
13060,0.40411221981048584,42.54621124267578,740,6638.0,8.119295120239258,140,9983.0
13070,0.4039033055305481,42.80506134033203,726,6638.0,-17.146398544311523,-355,9983.0
13080,0.4038005471229553,38.509918212890625,475,6638.0,-26.86488914489746,-456,9983.0
13090,0.404011070728302,20.952518463134766,240,6638.0,-25.52140235900879,-321,9983.0
13100,0.40391427278518677,-4.744744777679443,-297,6638.0,-14.502327919006348,-208,9983.0
13110,0.4041931927204132,-25.911256790161133,-528,6638.0,-3.399456739425659,60,9983.0
13120,0.4041357636451721,-40.96759796142578,-787,6638.0,-4.527698993682861,-160,9983.0
13130,0.40414148569107056,-52.802833557128906,-994,6638.0,-8.064410209655762,-127,9983.0
13140,0.40427276492118835,-52.647796630859375,-711,6638.0,-11.768219947814941,-116,9983.0
13150,0.4046330451965332,-35.93380355834961,-484,6638.0,-10.190711975097656,-221,9983.0
13160,0.4050480127334595,-18.35904312133789,-272,6638.0,0.46232202649116516,105,9983.0
13170,0.40547308325767517,4.003525257110596,255,6638.0,8.175887107849121,264,9983.0
13180,0.4050070643424988,27.922571182250977,540,6638.0,10.926864624023438,237,9983.0
13190,0.4053046405315399,38.25926208496094,606,6638.0,19.8389949798584,339,9983.0
13200,0.40558749437332153,39.49290466308594,611,6638.0,29.204174041748047,641,9983.0
13210,0.40573227405548096,33.10847854614258,449,6638.0,34.45586013793945,472,9983.0
13220,0.4054518938064575,22.81131935119629,349,6638.0,22.206871032714844,176,9983.0
13230,0.40555012226104736,20.274192810058594,362,6638.0,-10.667261123657227,-248,9983.0
13240,0.4056486487388611,16.295330047607422,144,6638.0,-32.974769592285156,-648,9983.0
13250,0.40542057156562805,6.124640941619873,59,6638.0,-42.675079345703125,-514,9983.0
13260,0.4054473042488098,-15.025721549987793,-302,6638.0,-17.67038345336914,-200,9983.0
13270,0.4056231379508972,-40.70817947387695,-787,6638.0,10.93043041229248,310,9983.0
13280,0.4057351052761078,-56.22642135620117,-917,6638.0,22.757673263549805,380,9983.0
13290,0.40593814849853516,-58.396324157714844,-957,6638.0,11.702338218688965,-8,9983.0
13300,0.40615037083625793,-47.08448028564453,-684,6638.0,-10.717375755310059,-227,9983.0
13310,0.4059446156024933,-30.051692962646484,-415,6638.0,-22.640287399291992,-308,9983.0
13320,0.40649494528770447,-18.338356018066406,-308,6638.0,-19.938297271728516,-378,9983.0
13330,0.40674659609794617,-13.944241523742676,-207,6638.0,-12.456530570983887,-244,9983.0
13340,0.4069378972053528,5.129020690917969,203,6638.0,-5.306601524353027,-49,9983.0
13350,0.40671512484550476,27.78643798828125,576,6638.0,3.140430212020874,147,9983.0
13360,0.4071868360042572,47.35526657104492,818,6638.0,19.42405891418457,298,9983.0
13370,0.4075163006782532,53.169708251953125,778,6638.0,30.789823532104492,503,9983.0
13380,0.40752047300338745,40.90998077392578,580,6638.0,48.81751251220703,1008,9983.0
13390,0.40739864110946655,16.09699249267578,229,6638.0,52.728302001953125,787,9983.0
13400,0.407329261302948,3.357863187789917,-1,6638.0,33.48463821411133,384,9983.0
13410,0.40692999958992004,9.903634071350098,306,6638.0,6.96661901473999,39,9983.0
13420,0.40659797191619873,23.488407135009766,530,6638.0,-7.1241583824157715,-65,9983.0
13430,0.4060838520526886,21.477659225463867,290,6638.0,-10.303902626037598,-350,9983.0
13440,0.40686914324760437,11.383743286132812,35,6638.0,-20.491979598999023,-260,9983.0
13450,0.40662580728530884,-17.23705291748047,-345,6638.0,-23.124841690063477,-332,9983.0
13460,0.4064548909664154,-44.875099182128906,-821,6638.0,-15.857131958007812,-349,9983.0
13470,0.4061315059661865,-59.15480041503906,-1033,6638.0,-11.10275650024414,-108,9983.0
13480,0.40582937002182007,-59.36137771606445,-878,6638.0,-12.09518814086914,-259,9983.0
13490,0.4052222967147827,-46.892127990722656,-710,6638.0,-18.635828018188477,-468,9983.0
13500,0.40480324625968933,-33.580501556396484,-503,6638.0,-20.242137908935547,-238,9983.0
13510,0.40472620725631714,-16.403789520263672,-155,6638.0,-6.218906879425049,38,9983.0
13520,0.4048570692539215,1.8176254034042358,107,6638.0,12.717127799987793,250,9983.0
13530,0.40358880162239075,18.81249237060547,361,6638.0,25.62543487548828,374,9983.0
13540,0.40360334515571594,32.22678756713867,534,6638.0,29.466978073120117,531,9983.0
13550,0.40342193841934204,39.78656005859375,691,6638.0,28.16639518737793,592,9983.0
13560,0.40320929884910583,33.6856803894043,546,6638.0,27.673810958862305,318,9983.0
13570,0.40297749638557434,27.57710075378418,373,6638.0,16.73357582092285,4,9983.0
13580,0.4027309715747833,12.648831367492676,124,6638.0,-12.115412712097168,-314,9983.0
13590,0.40255028009414673,3.356768846511841,82,6638.0,-30.22536277770996,-452,9983.0
13600,0.40236032009124756,0.05798594281077385,9,6638.0,-32.20142364501953,-550,9983.0
13610,0.4021551012992859,0.6613295674324036,-24,6638.0,-20.03250503540039,-235,9983.0
13620,0.40275800228118896,1.5169957876205444,130,6638.0,-10.732547760009766,-147,9983.0
13630,0.40272092819213867,3.3166420459747314,1,6638.0,-9.310051918029785,-219,9983.0
13640,0.40281257033348083,-1.0707495212554932,-35,6638.0,-7.337052822113037,-61,9983.0
13650,0.4029778242111206,-8.86439323425293,-121,6638.0,-9.514450073242188,-123,9983.0
13660,0.40239113569259644,-15.248176574707031,-375,6638.0,-6.271698951721191,-173,9983.0
13670,0.40269091725349426,-18.33535385131836,-282,6638.0,3.6551291942596436,286,9983.0
13680,0.40298715233802795,-14.679757118225098,-179,6638.0,20.99932861328125,324,9983.0
13690,0.40327468514442444,-13.424362182617188,-222,6638.0,24.39995765686035,330,9983.0
13700,0.4036582112312317,-4.959542274475098,-9,6638.0,20.245664596557617,397,9983.0
13710,0.40376490354537964,5.443045616149902,126,6638.0,16.791414260864258,205,9983.0
13720,0.40381965041160583,8.952370643615723,148,6638.0,20.30504035949707,256,9983.0
13730,0.40377113223075867,15.490042686462402,264,6638.0,20.342477798461914,339,9983.0
13740,0.4036440849304199,20.04548454284668,438,6638.0,14.288004875183105,273,9983.0
13750,0.40390732884407043,22.736032485961914,394,6638.0,1.3666832447052002,-190,9983.0
13760,0.4035792052745819,19.59871482849121,266,6638.0,-10.810102462768555,-266,9983.0
13770,0.40327945351600647,16.004135131835938,225,6638.0,-10.143052101135254,-78,9983.0
13780,0.40296289324760437,-3.597688674926758,-129,6638.0,-2.0969414710998535,12,9983.0
13790,0.40267178416252136,-18.957914352416992,-383,6638.0,12.942852973937988,220,9983.0
13800,0.40241941809654236,-20.528148651123047,-278,6638.0,18.085792541503906,411,9983.0
13810,0.4021563231945038,-12.790692329406738,-182,6638.0,8.075536727905273,-40,9983.0
13820,0.40206173062324524,-5.428206920623779,-67,6638.0,-9.87968921661377,-281,9983.0
13830,0.40197741985321045,2.6598498821258545,122,6638.0,-22.42823600769043,-306,9983.0
13840,0.40239056944847107,12.093960762023926,292,6638.0,-27.212120056152344,-449,9983.0
13850,0.4024525284767151,20.906614303588867,356,6638.0,-15.038985252380371,-169,9983.0
13860,0.40251052379608154,28.150903701782227,489,6638.0,3.169914484024048,-58,9983.0
13870,0.4026438891887665,20.00507354736328,193,6638.0,10.199398040771484,284,9983.0
13880,0.4018227159976959,0.016117552295327187,-56,6638.0,15.13270092010498,203,9983.0
13890,0.4015308916568756,-13.084243774414062,-355,6638.0,24.210721969604492,432,9983.0
13900,0.4011382460594177,-22.50455665588379,-360,6638.0,27.41094207763672,531,9983.0
13910,0.4006854295730591,-21.246780395507812,-270,6638.0,27.360973358154297,364,9983.0
13920,0.40042784810066223,-8.355979919433594,-125,6638.0,19.986112594604492,219,9983.0
13930,0.3999941349029541,7.227768421173096,255,6638.0,3.398433208465576,-28,9983.0
13940,0.3994884788990021,22.536161422729492,408,6638.0,-20.753490447998047,-305,9983.0
13950,0.3990093171596527,17.899127960205078,185,6638.0,-33.45641326904297,-736,9983.0
13960,0.39842501282691956,4.346152305603027,0,6638.0,-41.39746856689453,-590,9983.0
13970,0.3968898355960846,-13.857544898986816,-307,6638.0,-33.51948547363281,-523,9983.0
13980,0.39644747972488403,-30.89542579650879,-599,6638.0,-26.573484420776367,-359,9983.0
13990,0.39609211683273315,-38.48200225830078,-557,6638.0,-14.284821510314941,-139,9983.0
14000,0.39574500918388367,-34.24631118774414,-573,6638.0,0.8847708106040955,23,9983.0
14010,0.39506423473358154,-19.112445831298828,-263,6638.0,12.824586868286133,213,9983.0
14020,0.3949461579322815,-3.907071828842163,39,6638.0,15.879260063171387,401,9983.0
