timestamp,kalman.stateZ,gyro.x,gyro.xRaw,gyro.xVariance,gyro.y,gyro.yRaw,gyro.yVariance
0,0.3193693161010742,0.244543194770813,18,6638.0,-40.18213653564453,-688,9983.0
10,0.31954461336135864,2.1116347312927246,51,6638.0,-47.465484619140625,-798,9983.0
20,0.3190869390964508,4.3067708015441895,69,6638.0,-51.31144332885742,-860,9983.0
30,0.3193199336528778,3.6453053951263428,57,6638.0,-54.58829116821289,-912,9983.0
40,0.3190406560897827,3.3236584663391113,46,6638.0,-56.7650032043457,-932,9983.0
50,0.3190854787826538,1.761513590812683,16,6638.0,-57.624691009521484,-941,9983.0
60,0.3188123404979706,-0.4801139831542969,-20,6638.0,-55.948787689208984,-901,9983.0
70,0.3182149827480316,-2.0897011756896973,-41,6638.0,-51.30809783935547,-784,9983.0
80,0.3201025724411011,-2.785168409347534,-36,6638.0,-40.877723693847656,-590,9983.0
90,0.32072505354881287,-1.8762675523757935,-33,6638.0,-27.15447425842285,-361,9983.0
100,0.3207029700279236,-1.9544003009796143,-31,6638.0,-9.776398658752441,-87,9983.0
110,0.3207305371761322,-1.2431371212005615,-12,6638.0,4.254870891571045,173,9983.0
120,0.32257527112960815,1.0151901245117188,29,6638.0,19.38925552368164,401,9983.0
130,0.3228866457939148,1.919974446296692,27,6638.0,32.34602355957031,588,9983.0
140,0.3230089843273163,0.2915107309818268,2,6638.0,41.80923080444336,731,9983.0
150,0.3230302035808563,-0.516363799571991,-18,6638.0,49.842613220214844,845,9983.0
160,0.32288551330566406,-1.382619857788086,-25,6638.0,54.71533966064453,914,9983.0
170,0.32285603880882263,-1.4886263608932495,-35,6638.0,56.876041412353516,931,9983.0
180,0.3227207064628601,-2.725529193878174,-40,6638.0,54.91398239135742,880,9983.0
190,0.3226219713687897,0.5453121662139893,30,6638.0,44.88349151611328,631,9983.0
200,0.3234618306159973,2.754493474960327,46,6638.0,24.442665100097656,296,9983.0
210,0.32198622822761536,4.169984817504883,76,6638.0,-4.516218185424805,-234,9983.0
220,0.3226841390132904,10.470575332641602,150,6638.0,-39.93690490722656,-865,9983.0
230,0.3237064778804779,8.144316673278809,79,6638.0,-81.12969970703125,-1553,9983.0
240,0.3249419033527374,5.3047194480896,122,6638.0,-113.69854736328125,-2029,9983.0
250,0.3252318203449249,3.352510929107666,111,6638.0,-127.6511459350586,-2111,9983.0
260,0.32622915506362915,5.808208465576172,45,6638.0,-124.76468658447266,-1936,9983.0
270,0.3265669345855713,2.846803903579712,60,6638.0,-100.22594451904297,-1571,9983.0
280,0.32635125517845154,5.127067565917969,101,6638.0,-68.45388793945312,-969,9983.0
290,0.32756438851356506,4.44427490234375,55,6638.0,-34.40498733520508,-252,9983.0
300,0.3300396502017975,2.9994752407073975,0,6638.0,9.74758243560791,316,9983.0
310,0.3305104374885559,-1.7516201734542847,-23,6638.0,38.42744445800781,787,9983.0
320,0.3313427269458771,-0.5287240147590637,9,6638.0,54.769752502441406,881,9983.0
330,0.33179837465286255,1.8700367212295532,54,6638.0,59.16864013671875,856,9983.0
340,0.3325045704841614,4.046045303344727,116,6638.0,49.96553421020508,744,9983.0
350,0.3335675299167633,4.797274589538574,90,6638.0,30.454547882080078,434,9983.0
360,0.3335622251033783,1.949940800666809,45,6638.0,0.36132335662841797,-81,9983.0
370,0.33493953943252563,-2.310385227203369,4,6638.0,-29.579286575317383,-557,9983.0
380,0.33483511209487915,-4.096960067749023,-37,6638.0,-56.442527770996094,-917,9983.0
390,0.33362165093421936,-7.012496471405029,-103,6638.0,-75.83222961425781,-1183,9983.0
400,0.3332064747810364,-2.9222612380981445,-52,6638.0,-85.47135925292969,-1363,9983.0
410,0.3328476548194885,8.319929122924805,221,6638.0,-86.59745025634766,-1468,9983.0
420,0.33665385842323303,24.335750579833984,453,6638.0,-72.5401382446289,-1083,9983.0
430,0.33804428577423096,23.617835998535156,287,6638.0,-40.565670013427734,-412,9983.0
440,0.33957386016845703,10.205900192260742,134,6638.0,-2.166414737701416,172,9983.0
450,0.3419940769672394,-4.127353191375732,-117,6638.0,36.60784912109375,600,9983.0
460,0.34317466616630554,-17.446144104003906,-354,6638.0,71.74687957763672,1400,9983.0
470,0.34648433327674866,-24.593116760253906,-356,6638.0,110.0779037475586,1947,9983.0
480,0.3495400547981262,-16.439449310302734,-247,6638.0,141.03440856933594,2521,9983.0
490,0.34961870312690735,-6.3425750732421875,-95,6638.0,155.99710083007812,2537,9983.0
500,0.35088542103767395,-0.7063723802566528,-11,6638.0,147.2825164794922,2328,9983.0
510,0.35282251238822937,1.290789246559143,6,6638.0,113.69898223876953,1715,9983.0
520,0.3437359631061554,4.171501159667969,-11,6638.0,72.21133422851562,996,9983.0
530,0.343659907579422,3.8384249210357666,60,6638.0,19.097421646118164,-48,9983.0
540,0.34390896558761597,5.2641191482543945,130,6638.0,-33.87007141113281,-766,9983.0
550,0.34480735659599304,6.9384541511535645,102,6638.0,-78.03935241699219,-1340,9983.0
560,0.3395440876483917,5.717160701751709,-14,6638.0,-105.18946838378906,-1835,9983.0
570,0.339772492647171,1.5429960489273071,60,6638.0,-120.5225601196289,-2073,9983.0
580,0.3397698402404785,0.7370962500572205,65,6638.0,-128.75010681152344,-2142,9983.0
590,0.340927392244339,-0.06664472818374634,3,6638.0,-124.57678985595703,-2116,9983.0
600,0.340753436088562,-6.318508625030518,-138,6638.0,-106.86874389648438,-1673,9983.0
610,0.3386473059654236,-7.051318645477295,-101,6638.0,-71.66979217529297,-1068,9983.0
620,0.3392254114151001,-7.020726680755615,-35,6638.0,-31.209871292114258,-393,9983.0
630,0.341749370098114,3.7985799312591553,91,6638.0,18.98611068725586,572,9983.0
640,0.34297457337379456,15.394255638122559,215,6638.0,66.70906066894531,1359,9983.0
650,0.34524670243263245,18.615259170532227,296,6638.0,101.028564453125,1865,9983.0
660,0.34579595923423767,16.165790557861328,203,6638.0,124.72576141357422,2164,9983.0
670,0.34621721506118774,5.29960823059082,-75,6638.0,131.8835906982422,2166,9983.0
680,0.34556105732917786,-7.090722560882568,-94,6638.0,120.30433654785156,1696,9983.0
690,0.34265652298927307,-14.088146209716797,-248,6638.0,89.85985565185547,1277,9983.0
700,0.3422013521194458,-14.853322982788086,-189,6638.0,46.00749588012695,426,9983.0
710,0.34289732575416565,-8.675621032714844,-114,6638.0,-11.839512825012207,-554,9983.0
720,0.3432207405567169,-1.4766734838485718,17,6638.0,-70.55357360839844,-1349,9983.0
730,0.3438797891139984,2.035644292831421,3,6638.0,-107.66576385498047,-1914,9983.0
740,0.33738356828689575,-3.505610466003418,-174,6638.0,-134.9852294921875,-2475,9983.0
750,0.33692488074302673,-15.500114440917969,-220,6638.0,-152.27975463867188,-2541,9983.0
760,0.33651620149612427,-21.52143096923828,-362,6638.0,-154.13821411132812,-2452,9983.0
770,0.3357815444469452,-33.10361099243164,-498,6638.0,-136.064208984375,-2032,9983.0
780,0.3384125530719757,-28.642797470092773,-450,6638.0,-102.70979309082031,-1174,9983.0
790,0.34059831500053406,-20.646610260009766,-312,6638.0,-52.23893356323242,-436,9983.0
800,0.34121623635292053,-4.555675983428955,0,6638.0,2.0476062297821045,383,9983.0
810,0.34240350127220154,19.26032066345215,356,6638.0,52.65861892700195,1060,9983.0
820,0.3488782048225403,35.25626754760742,549,6638.0,98.95304107666016,1875,9983.0
830,0.34911680221557617,23.100801467895508,260,6638.0,121.06793212890625,2036,9983.0
840,0.34995824098587036,-0.1691301316022873,-135,6638.0,119.85343170166016,1897,9983.0
850,0.3505961000919342,-14.626338958740234,-352,6638.0,103.7927017211914,1581,9983.0
860,0.3507332503795624,-19.73048973083496,-253,6638.0,79.7851333618164,1051,9983.0
870,0.3506137728691101,-13.016636848449707,-157,6638.0,51.876007080078125,808,9983.0
880,0.3506906032562256,1.563493013381958,94,6638.0,19.34721565246582,78,9983.0
890,0.35133710503578186,19.763893127441406,394,6638.0,-17.64594268798828,-480,9983.0
900,0.35178878903388977,28.086902618408203,508,6638.0,-42.59648132324219,-777,9983.0
910,0.34764811396598816,27.44061851501465,331,6638.0,-56.8799934387207,-873,9983.0
920,0.3477061688899994,15.097673416137695,235,6638.0,-62.05854034423828,-980,9983.0
930,0.34775084257125854,5.876952171325684,66,6638.0,-63.04586410522461,-1155,9983.0
940,0.3480592668056488,-2.6230599880218506,-102,6638.0,-60.19812774658203,-984,9983.0
950,0.3487100601196289,-12.428574562072754,-188,6638.0,-41.317527770996094,-511,9983.0
960,0.3476526737213135,-13.770735740661621,-163,6638.0,-18.848600387573242,-203,9983.0
970,0.3483140468597412,-1.75899338722229,19,6638.0,12.070337295532227,288,9983.0
980,0.3494499921798706,10.151945114135742,158,6638.0,45.296058654785156,856,9983.0
990,0.35075080394744873,10.498169898986816,143,6638.0,70.10770416259766,1328,9983.0
1000,0.3507956266403198,1.0031508207321167,-5,6638.0,97.81786346435547,1727,9983.0
1010,0.35119718313217163,-5.351166725158691,-166,6638.0,114.11688995361328,1868,9983.0
1020,0.351220041513443,-7.118823528289795,-15,6638.0,114.9520034790039,1750,9983.0
1030,0.35069718956947327,-5.541090488433838,-72,6638.0,96.11651611328125,1395,9983.0
1040,0.34860122203826904,1.1214574575424194,3,6638.0,56.69219207763672,917,9983.0
1050,0.3480212688446045,4.790393829345703,24,6638.0,19.578418731689453,111,9983.0
1060,0.3476557433605194,4.027658939361572,167,6638.0,-4.047029495239258,-168,9983.0
1070,0.3472890555858612,5.212063789367676,-38,6638.0,-26.21432113647461,-431,9983.0
1080,0.3471596837043762,2.1793782711029053,78,6638.0,-49.94283676147461,-911,9983.0
1090,0.341948539018631,5.567254066467285,78,6638.0,-67.29528045654297,-1169,9983.0
1100,0.3414081931114197,3.284365177154541,20,6638.0,-90.55032348632812,-1481,9983.0
1110,0.3409830629825592,-2.024357795715332,-64,6638.0,-114.5069808959961,-1940,9983.0
1120,0.3410244584083557,-3.3253753185272217,-93,6638.0,-116.91344451904297,-1934,9983.0
1130,0.3388550281524658,-2.7029120922088623,-3,6638.0,-92.94682312011719,-1435,9983.0
1140,0.3388364017009735,4.214887619018555,131,6638.0,-53.86501693725586,-814,9983.0
1150,0.3388603925704956,9.3121919631958,207,6638.0,-20.141090393066406,-200,9983.0
1160,0.33992981910705566,1.7194303274154663,128,6638.0,18.53748893737793,514,9983.0
1170,0.3398591876029968,-4.939648628234863,-28,6638.0,58.25926971435547,1075,9983.0
1180,0.34405696392059326,-7.334832668304443,-222,6638.0,89.32766723632812,1610,9983.0
1190,0.34370437264442444,-6.907321453094482,-229,6638.0,102.18548583984375,1762,9983.0
1200,0.3438350558280945,-12.726194381713867,-246,6638.0,98.10287475585938,1385,9983.0
1210,0.34324830770492554,-12.117879867553711,-74,6638.0,68.31675720214844,964,9983.0
1220,0.34120938181877136,-7.692101001739502,-200,6638.0,25.863990783691406,212,9983.0
1230,0.34178003668785095,0.4163265526294708,138,6638.0,-19.843761444091797,-553,9983.0
1240,0.3421718180179596,10.638825416564941,235,6638.0,-59.17781066894531,-1038,9983.0
1250,0.3426455855369568,18.466472625732422,298,6638.0,-77.29486083984375,-1409,9983.0
1260,0.3409094214439392,21.221086502075195,412,6638.0,-83.30891418457031,-1301,9983.0
1270,0.3412281572818756,9.56065559387207,57,6638.0,-75.33467864990234,-1135,9983.0
1280,0.34271109104156494,-6.154666900634766,-251,6638.0,-73.53556823730469,-1307,9983.0
1290,0.3434726595878601,-22.347347259521484,-510,6638.0,-74.76861572265625,-1259,9983.0
1300,0.343687504529953,-32.34970474243164,-521,6638.0,-56.18968963623047,-887,9983.0
1310,0.3468799591064453,-28.123823165893555,-316,6638.0,-31.98505210876465,-326,9983.0
1320,0.34838366508483887,-14.340797424316406,-72,6638.0,0.22676284611225128,202,9983.0
1330,0.35039323568344116,1.5586071014404297,219,6638.0,32.37055969238281,779,9983.0
1340,0.3521365225315094,13.585794448852539,369,6638.0,64.49223327636719,1327,9983.0
1350,0.35494521260261536,17.784656524658203,285,6638.0,88.05021667480469,1589,9983.0
1360,0.35618558526039124,18.137081146240234,190,6638.0,107.90058135986328,1927,9983.0
1370,0.3572682738304138,11.714534759521484,114,6638.0,117.42359924316406,2027,9983.0
1380,0.35816603899002075,8.85521411895752,26,6638.0,115.0107650756836,1700,9983.0
1390,0.35843440890312195,-1.5362263917922974,-125,6638.0,91.02274322509766,1201,9983.0
1400,0.3529273271560669,-16.20233726501465,-253,6638.0,45.065269470214844,547,9983.0
1410,0.3535895347595215,-22.203235626220703,-441,6638.0,-4.015649318695068,-425,9983.0
1420,0.353779137134552,-21.88346290588379,-310,6638.0,-37.33625793457031,-732,9983.0
1430,0.35414907336235046,-15.479121208190918,-202,6638.0,-54.03080749511719,-900,9983.0
1440,0.34727829694747925,-3.7334706783294678,-6,6638.0,-59.83875274658203,-947,9983.0
1450,0.34711042046546936,6.2023444175720215,102,6638.0,-61.1926155090332,-1187,9983.0
1460,0.34700456261634827,17.583127975463867,378,6638.0,-63.93098831176758,-1122,9983.0
1470,0.3471866846084595,25.445085525512695,488,6638.0,-60.33269119262695,-800,9983.0
1480,0.34354397654533386,26.173696517944336,414,6638.0,-42.462135314941406,-358,9983.0
1490,0.34443461894989014,25.73343276977539,355,6638.0,-7.053919792175293,-12,9983.0
1500,0.34517180919647217,25.5786190032959,351,6638.0,23.42099952697754,537,9983.0
1510,0.34589067101478577,9.607165336608887,93,6638.0,51.75281524658203,1023,9983.0
1520,0.3466084599494934,-3.861649751663208,-98,6638.0,79.80252075195312,1509,9983.0
1530,0.34612417221069336,-19.157804489135742,-403,6638.0,99.63218688964844,1687,9983.0
1540,0.3460596203804016,-20.85317039489746,-410,6638.0,106.44705200195312,1715,9983.0
1550,0.34561318159103394,-11.693212509155273,-188,6638.0,89.48088073730469,1375,9983.0
1560,0.3447520434856415,0.06116325780749321,77,6638.0,59.64385223388672,881,9983.0
1570,0.3437056243419647,4.387298107147217,46,6638.0,21.95339584350586,101,9983.0
1580,0.34305816888809204,11.367735862731934,303,6638.0,-22.394161224365234,-498,9983.0
1590,0.3429041802883148,21.97893714904785,319,6638.0,-55.65054702758789,-1037,9983.0
1600,0.3427245616912842,23.18031883239746,375,6638.0,-83.72161865234375,-1519,9983.0
1610,0.3416481912136078,11.53923511505127,172,6638.0,-100.17588806152344,-1720,9983.0
1620,0.338308721780777,-10.01353645324707,-301,6638.0,-109.23855590820312,-1774,9983.0
1630,0.33752933144569397,-21.951391220092773,-484,6638.0,-116.0690689086914,-1993,9983.0
1640,0.33617162704467773,-29.83033561706543,-535,6638.0,-117.04376220703125,-1894,9983.0
1650,0.33787399530410767,-32.118011474609375,-487,6638.0,-104.93560028076172,-1627,9983.0
1660,0.3403325378894806,-27.388519287109375,-423,6638.0,-69.58724212646484,-1039,9983.0
1670,0.340496689081192,-17.084972381591797,-155,6638.0,-26.188404083251953,-227,9983.0
1680,0.3410125970840454,3.1110105514526367,186,6638.0,15.935168266296387,400,9983.0
1690,0.341828316450119,12.164454460144043,227,6638.0,66.51677703857422,1330,9983.0
1700,0.34639108180999756,10.616905212402344,279,6638.0,116.36493682861328,2040,9983.0
1710,0.34683045744895935,15.049585342407227,226,6638.0,137.51388549804688,2347,9983.0
1720,0.34702131152153015,16.74526596069336,172,6638.0,131.42816162109375,2064,9983.0
1730,0.3470004200935364,12.065074920654297,205,6638.0,111.1871566772461,1688,9983.0
1740,0.34865790605545044,6.320154666900635,100,6638.0,74.1122817993164,1052,9983.0
1750,0.3460214138031006,0.2064577043056488,-100,6638.0,28.109840393066406,144,9983.0
1760,0.34647858142852783,-3.5011067390441895,69,6638.0,-22.076553344726562,-523,9983.0
1770,0.34737613797187805,1.9865971803665161,1,6638.0,-66.18257904052734,-1257,9983.0
1780,0.3474944829940796,14.319334030151367,308,6638.0,-98.17414093017578,-1755,9983.0
1790,0.34365758299827576,21.48847007751465,375,6638.0,-112.28846740722656,-1717,9983.0
1800,0.34331631660461426,9.421895027160645,24,6638.0,-105.35623931884766,-1638,9983.0
1810,0.3434234857559204,-9.776583671569824,-351,6638.0,-93.81124114990234,-1479,9983.0
1820,0.34500235319137573,-28.455093383789062,-554,6638.0,-74.7901382446289,-1175,9983.0
1830,0.34515348076820374,-35.695167541503906,-563,6638.0,-45.218624114990234,-671,9983.0
1840,0.3472825288772583,-30.241313934326172,-417,6638.0,-11.490418434143066,-177,9983.0
1850,0.3484762907028198,-19.980588912963867,-189,6638.0,8.908867835998535,191,9983.0
1860,0.3492492735385895,-3.7723677158355713,129,6638.0,28.985498428344727,645,9983.0
1870,0.3507094085216522,14.809435844421387,471,6638.0,64.29625701904297,1123,9983.0
1880,0.35224053263664246,29.23470687866211,528,6638.0,89.35010528564453,1602,9983.0
1890,0.35272955894470215,26.652809143066406,316,6638.0,103.59486389160156,1867,9983.0
1900,0.3529982268810272,15.473328590393066,170,6638.0,115.11708068847656,1782,9983.0
1910,0.35260191559791565,7.327734470367432,14,6638.0,112.43913269042969,1813,9983.0
1920,0.3485947251319885,-4.918051719665527,-1,6638.0,96.66429138183594,1448,9983.0
1930,0.3474653363227844,-12.128292083740234,-310,6638.0,64.17904663085938,910,9983.0
1940,0.348846971988678,-24.19251251220703,-486,6638.0,15.887014389038086,34,9983.0
1950,0.3481657803058624,-30.24969482421875,-450,6638.0,-22.866920471191406,-592,9983.0
1960,0.34796416759490967,-21.70564079284668,-297,6638.0,-50.660518646240234,-942,9983.0
1970,0.3433574438095093,1.8482767343521118,271,6638.0,-71.69109344482422,-1282,9983.0
1980,0.34302398562431335,26.125764846801758,434,6638.0,-83.11298370361328,-1509,9983.0
1990,0.34303709864616394,36.113304138183594,646,6638.0,-90.69922637939453,-1542,9983.0
2000,0.34316158294677734,33.238250732421875,434,6638.0,-92.21183776855469,-1513,9983.0
2010,0.34195131063461304,21.636198043823242,291,6638.0,-72.8961181640625,-1172,9983.0
2020,0.34366875886917114,5.942885398864746,60,6638.0,-43.27814865112305,-574,9983.0
2030,0.3442038297653198,-0.07218241691589355,-28,6638.0,-9.49272632598877,-23,9983.0
2040,0.34527483582496643,-12.173023223876953,-158,6638.0,24.311565399169922,584,9983.0
2050,0.34631049633026123,-13.68264102935791,-175,6638.0,60.13077163696289,1014,9983.0
2060,0.3487040102481842,-9.691349029541016,-60,6638.0,84.61051940917969,1663,9983.0
2070,0.34912773966789246,-7.702868938446045,-121,6638.0,104.531982421875,1880,9983.0
2080,0.3489932715892792,-9.623116493225098,-248,6638.0,104.94490814208984,1531,9983.0
2090,0.3482981026172638,-16.277618408203125,-307,6638.0,89.38721466064453,1349,9983.0
2100,0.3464275896549225,-18.359804153442383,-193,6638.0,59.784637451171875,720,9983.0
2110,0.3454396724700928,-5.40737771987915,-98,6638.0,2.7557308673858643,-271,9983.0
2120,0.34507352113723755,7.623952865600586,315,6638.0,-45.33715057373047,-957,9983.0
2130,0.3459930717945099,29.49186897277832,488,6638.0,-81.33879089355469,-1393,9983.0
2140,0.34230291843414307,45.38127136230469,787,6638.0,-103.74219512939453,-1800,9983.0
2150,0.3418058156967163,36.94565200805664,588,6638.0,-112.73114013671875,-1910,9983.0
2160,0.341133177280426,14.770586967468262,86,6638.0,-117.70161437988281,-1911,9983.0
2170,0.3404007852077484,-10.585399627685547,-327,6638.0,-120.9206771850586,-1959,9983.0
2180,0.3408086895942688,-29.03955078125,-551,6638.0,-110.92755889892578,-1671,9983.0
2190,0.3427462875843048,-37.0964241027832,-649,6638.0,-73.28031921386719,-827,9983.0
2200,0.34301942586898804,-29.66160011291504,-484,6638.0,-23.638757705688477,-78,9983.0
2210,0.34365880489349365,-25.253257751464844,-466,6638.0,13.929469108581543,503,9983.0
2220,0.3448449671268463,-24.07645034790039,-396,6638.0,57.32780456542969,1147,9983.0
2230,0.3497485816478729,-11.891401290893555,-192,6638.0,92.20160675048828,1654,9983.0
2240,0.3504839539527893,2.813520908355713,148,6638.0,122.91114807128906,2157,9983.0
2250,0.35124650597572327,15.388261795043945,438,6638.0,139.0906219482422,2431,9983.0
2260,0.35138460993766785,23.136037826538086,423,6638.0,130.5606689453125,1994,9983.0
2270,0.3537435233592987,22.134286880493164,267,6638.0,103.76270294189453,1429,9983.0
2280,0.3501408100128174,12.891196250915527,164,6638.0,65.89192962646484,728,9983.0
2290,0.3503780961036682,1.5084818601608276,31,6638.0,22.7794132232666,156,9983.0
2300,0.3508308231830597,1.4571292400360107,20,6638.0,-22.020092010498047,-574,9983.0
2310,0.35183003544807434,6.419586181640625,83,6638.0,-57.67119216918945,-1159,9983.0
2320,0.345045804977417,3.0822110176086426,71,6638.0,-79.2098159790039,-1394,9983.0
2330,0.34523698687553406,-3.97611403465271,-163,6638.0,-89.0819320678711,-1496,9983.0
2340,0.3452422022819519,-16.912391662597656,-372,6638.0,-88.72179412841797,-1361,9983.0
2350,0.3462292551994324,-16.744165420532227,-209,6638.0,-80.91242980957031,-1246,9983.0
2360,0.3459606170654297,-4.280324459075928,53,6638.0,-60.60209655761719,-956,9983.0
2370,0.3467562198638916,15.5011568069458,360,6638.0,-28.660707473754883,-374,9983.0
2380,0.34770917892456055,29.20857048034668,525,6638.0,-2.109456777572632,-3,9983.0
2390,0.34847700595855713,29.818498611450195,473,6638.0,21.651046752929688,524,9983.0
2400,0.34957149624824524,21.295604705810547,349,6638.0,52.3904914855957,979,9983.0
2410,0.3513459265232086,2.6698596477508545,43,6638.0,76.42784881591797,1361,9983.0
2420,0.3518674075603485,-10.350797653198242,-152,6638.0,94.51118469238281,1430,9983.0
2430,0.3521789610385895,-22.433500289916992,-439,6638.0,101.83198547363281,1685,9983.0
2440,0.35185056924819946,-26.194820404052734,-418,6638.0,99.75765228271484,1751,9983.0
2450,0.34752410650253296,-24.305984497070312,-455,6638.0,90.76875305175781,1348,9983.0
2460,0.34655970335006714,-15.007423400878906,-86,6638.0,57.67654037475586,727,9983.0
2470,0.3474390208721161,3.918299436569214,79,6638.0,13.620121002197266,-136,9983.0
2480,0.34713366627693176,14.589592933654785,339,6638.0,-43.68608474731445,-939,9983.0
2490,0.347329318523407,18.165681838989258,310,6638.0,-80.91696166992188,-1523,9983.0
2500,0.34146612882614136,12.947365760803223,131,6638.0,-106.45993041992188,-1640,9983.0
2510,0.3406810462474823,-2.229907751083374,-148,6638.0,-113.91643524169922,-1885,9983.0
2520,0.3398180902004242,-20.607057571411133,-445,6638.0,-117.1378173828125,-2005,9983.0
2530,0.3391053080558777,-35.79475784301758,-688,6638.0,-112.78980255126953,-1838,9983.0
2540,0.33812057971954346,-47.63927459716797,-768,6638.0,-89.65467071533203,-1297,9983.0
2550,0.3382647931575775,-46.662593841552734,-590,6638.0,-59.03361129760742,-701,9983.0
2560,0.34101173281669617,-21.887357711791992,-117,6638.0,-14.408124923706055,-124,9983.0
2570,0.3412238359451294,10.64784049987793,407,6638.0,21.989286422729492,560,9983.0
2580,0.34625983238220215,35.576087951660156,655,6638.0,70.08447265625,1300,9983.0
2590,0.34701329469680786,43.99531936645508,653,6638.0,98.91609191894531,1787,9983.0
2600,0.3475492298603058,37.4487419128418,460,6638.0,116.19802856445312,2026,9983.0
2610,0.3476947844028473,20.319080352783203,310,6638.0,120.4455337524414,1844,9983.0
2620,0.34708455204963684,2.2715353965759277,-72,6638.0,102.67833709716797,1398,9983.0
2630,0.3457638621330261,-18.864696502685547,-341,6638.0,75.26310729980469,1088,9983.0
2640,0.34673038125038147,-22.732440948486328,-388,6638.0,28.640718460083008,165,9983.0
2650,0.34674209356307983,-14.335816383361816,-119,6638.0,-19.22515869140625,-615,9983.0
2660,0.34757450222969055,1.6908282041549683,94,6638.0,-66.23362731933594,-1309,9983.0
2670,0.34477806091308594,12.091376304626465,177,6638.0,-95.94783020019531,-1708,9983.0
2680,0.34475404024124146,13.841426849365234,219,6638.0,-111.93875122070312,-2008,9983.0
2690,0.344743549823761,13.91594123840332,223,6638.0,-126.59427642822266,-2188,9983.0
2700,0.3440081775188446,8.629510879516602,91,6638.0,-130.27886962890625,-2017,9983.0
2710,0.3445950448513031,-6.602608680725098,-114,6638.0,-108.79016876220703,-1564,9983.0
2720,0.3475826382637024,-28.809715270996094,-480,6638.0,-70.2836685180664,-893,9983.0
2730,0.34816989302635193,-33.66300582885742,-454,6638.0,-39.06502151489258,-421,9983.0
2740,0.34899094700813293,-22.84971046447754,-241,6638.0,-4.964640140533447,268,9983.0
2750,0.3499610424041748,0.8229857683181763,210,6638.0,44.83283615112305,790,9983.0
2760,0.3520662188529968,25.609317779541016,507,6638.0,87.78467559814453,1632,9983.0
2770,0.35287463665008545,30.428361892700195,481,6638.0,126.48917388916016,2146,9983.0
2780,0.3533526062965393,19.290390014648438,251,6638.0,148.39956665039062,2392,9983.0
2790,0.3534587323665619,-1.5242297649383545,-2,6638.0,154.4743194580078,2542,9983.0
2800,0.351687490940094,-15.580305099487305,-310,6638.0,140.3540496826172,2215,9983.0
2810,0.35122379660606384,-25.241239547729492,-502,6638.0,113.07176208496094,1726,9983.0
2820,0.35046228766441345,-25.98469352722168,-305,6638.0,66.05718231201172,690,9983.0
2830,0.3518922030925751,-10.452584266662598,-82,6638.0,5.271160125732422,-34,9983.0
2840,0.3535814583301544,14.561201095581055,314,6638.0,-50.33073806762695,-1168,9983.0
2850,0.34590020775794983,26.57725715637207,477,6638.0,-92.23117065429688,-1637,9983.0
2860,0.346465140581131,23.221084594726562,293,6638.0,-122.53092193603516,-2103,9983.0
2870,0.34713515639305115,8.317167282104492,9,6638.0,-141.80369567871094,-2388,9983.0
2880,0.3487716317176819,-12.72646427154541,-261,6638.0,-136.34117126464844,-2190,9983.0
2890,0.3460976183414459,-25.30389976501465,-341,6638.0,-110.59305572509766,-1733,9983.0
2900,0.34703153371810913,-20.012332916259766,-197,6638.0,-74.86890411376953,-1183,9983.0
2910,0.34824836254119873,-0.21841339766979218,114,6638.0,-35.438995361328125,-478,9983.0
2920,0.3505810797214508,14.456371307373047,241,6638.0,9.46334171295166,243,9983.0
2930,0.3518649637699127,15.73039722442627,247,6638.0,53.37456512451172,954,9983.0
2940,0.355136901140213,9.814860343933105,117,6638.0,84.97056579589844,1515,9983.0
2950,0.35614916682243347,-4.747337341308594,-52,6638.0,108.03729248046875,1728,9983.0
2960,0.35651811957359314,-20.666345596313477,-384,6638.0,113.34485626220703,1806,9983.0
2970,0.3572748005390167,-24.973966598510742,-447,6638.0,99.42142486572266,1663,9983.0
2980,0.3531108796596527,-20.726028442382812,-351,6638.0,73.25782012939453,962,9983.0
2990,0.35297030210494995,-6.044907569885254,51,6638.0,35.44608688354492,431,9983.0
3000,0.3526531457901001,18.582197189331055,417,6638.0,-0.3607414662837982,-118,9983.0
3010,0.35261088609695435,41.51133346557617,701,6638.0,-30.988109588623047,-586,9983.0
3020,0.3463488519191742,46.06940841674805,765,6638.0,-63.09047317504883,-1316,9983.0
3030,0.3459665775299072,32.08403396606445,423,6638.0,-85.80828857421875,-1500,9983.0
3040,0.345156729221344,4.8311238288879395,3,6638.0,-110.59085083007812,-1843,9983.0
3050,0.3446614444255829,-25.13687515258789,-503,6638.0,-123.82716369628906,-1992,9983.0
3060,0.34450578689575195,-35.92096710205078,-607,6638.0,-113.59335327148438,-1716,9983.0
3070,0.34330183267593384,-25.699321746826172,-366,6638.0,-91.24940490722656,-1382,9983.0
3080,0.3442080020904541,-6.414599418640137,-58,6638.0,-54.795406341552734,-697,9983.0
3090,0.3474947214126587,3.1985995769500732,153,6638.0,-5.693985462188721,144,9983.0
3100,0.34827524423599243,9.720100402832031,263,6638.0,50.04859924316406,1032,9983.0
3110,0.3529045879840851,5.57219123840332,120,6638.0,105.56302642822266,1890,9983.0
3120,0.3541095554828644,-3.089071273803711,-10,6638.0,146.1542205810547,2370,9983.0
3130,0.3551827073097229,-10.125370025634766,-189,6638.0,162.64093017578125,2567,9983.0
3140,0.35566726326942444,-22.459915161132812,-401,6638.0,164.37893676757812,2742,9983.0
3150,0.3551735579967499,-23.923826217651367,-410,6638.0,144.96142578125,2253,9983.0
3160,0.3496992290019989,-14.786445617675781,-281,6638.0,94.75959014892578,1239,9983.0
3170,0.3531580865383148,4.285524368286133,252,6638.0,26.816036224365234,110,9983.0
3180,0.35440167784690857,29.068384170532227,526,6638.0,-31.950010299682617,-763,9983.0
3190,0.3562361001968384,36.69193649291992,654,6638.0,-76.04388427734375,-1467,9983.0
3200,0.3493390381336212,35.38867950439453,527,6638.0,-117.80436706542969,-1979,9983.0
3210,0.3493818938732147,23.544998168945312,269,6638.0,-148.21868896484375,-2612,9983.0
3220,0.3497347831726074,12.76303482055664,142,6638.0,-165.4672088623047,-2766,9983.0
3230,0.3491113781929016,10.288504600524902,182,6638.0,-161.91372680664062,-2600,9983.0
3240,0.3467571437358856,11.683489799499512,215,6638.0,-141.23825073242188,-2188,9983.0
3250,0.3489726185798645,9.36407470703125,92,6638.0,-109.47510528564453,-1521,9983.0
3260,0.3493957817554474,-3.7850921154022217,-83,6638.0,-58.77549362182617,-526,9983.0
3270,0.3498854339122772,-8.357097625732422,-196,6638.0,6.376706123352051,503,9983.0
3280,0.3507280945777893,-17.3283748626709,-369,6638.0,65.51148986816406,1440,9983.0
3290,0.35547101497650146,-34.196781158447266,-561,6638.0,128.50607299804688,2290,9983.0
3300,0.3568200170993805,-43.44736099243164,-636,6638.0,172.4972686767578,2815,9983.0
3310,0.35729023814201355,-36.582366943359375,-494,6638.0,190.5563201904297,3063,9983.0
3320,0.3573639988899231,-22.29866600036621,-318,6638.0,190.11001586914062,3206,9983.0
3330,0.351642906665802,-0.1509426236152649,66,6638.0,170.5366973876953,2521,9983.0
3340,0.35331106185913086,13.448100090026855,288,6638.0,128.2877960205078,1760,9983.0
3350,0.3524642586708069,21.563106536865234,335,6638.0,70.27042388916016,768,9983.0
3360,0.35235705971717834,22.387001037597656,394,6638.0,10.55276870727539,-225,9983.0
3370,0.3534623086452484,17.79314613342285,252,6638.0,-50.17742919921875,-1119,9983.0
3380,0.3446473181247711,5.035647392272949,5,6638.0,-108.42544555664062,-2091,9983.0
3390,0.3455410301685333,-11.47043514251709,-237,6638.0,-156.15086364746094,-2945,9983.0
3400,0.3473258316516876,-17.20376968383789,-207,6638.0,-201.43023681640625,-3291,9983.0
3410,0.34777146577835083,-17.96432113647461,-305,6638.0,-217.2173309326172,-3559,9983.0
3420,0.34581103920936584,-13.445892333984375,-101,6638.0,-205.44358825683594,-3123,9983.0
3430,0.3463320732116699,7.207787036895752,167,6638.0,-172.57167053222656,-2562,9983.0
3440,0.34675323963165283,22.35655403137207,350,6638.0,-127.1379623413086,-1874,9983.0
3450,0.3476562798023224,23.624998092651367,329,6638.0,-69.43020629882812,-594,9983.0
3460,0.3582332134246826,7.879029750823975,30,6638.0,5.604705333709717,418,9983.0
3470,0.35934656858444214,-6.508240222930908,-188,6638.0,74.89771270751953,1428,9983.0
3480,0.36124667525291443,-11.233497619628906,-203,6638.0,130.89332580566406,2238,9983.0
3490,0.36286666989326477,-7.530336380004883,-67,6638.0,160.47801208496094,2684,9983.0
3500,0.36271363496780396,4.780445098876953,216,6638.0,167.11322021484375,2837,9983.0
3510,0.36329057812690735,15.945152282714844,266,6638.0,162.90020751953125,2620,9983.0
3520,0.3633798658847809,25.88384437561035,504,6638.0,147.0237579345703,2418,9983.0
3530,0.3631131052970886,25.919055938720703,254,6638.0,109.22418212890625,1472,9983.0
3540,0.3649581968784332,1.050784707069397,-7,6638.0,54.800785064697266,535,9983.0
3550,0.353826105594635,-26.4597110748291,-567,6638.0,-10.09505558013916,-406,9983.0
3560,0.3541334271430969,-45.874847412109375,-775,6638.0,-74.76625061035156,-1500,9983.0
3570,0.3550788164138794,-52.3812255859375,-921,6638.0,-129.420654296875,-2237,9983.0
3580,0.35497382283210754,-46.86225128173828,-651,6638.0,-156.5972137451172,-2761,9983.0
3590,0.3553193211555481,-19.71328353881836,-85,6638.0,-157.2017822265625,-2509,9983.0
3600,0.34926438331604004,24.76097297668457,648,6638.0,-126.9853744506836,-1969,9983.0
3610,0.349369078874588,54.614627838134766,953,6638.0,-82.73649597167969,-1216,9983.0
3620,0.35204485058784485,56.114662170410156,818,6638.0,-32.09159851074219,-356,9983.0
3630,0.3524220585823059,29.802837371826172,336,6638.0,15.790226936340332,539,9983.0
3640,0.35423195362091064,-0.9965778589248657,-74,6638.0,63.264339447021484,1342,9983.0
3650,0.3555757999420166,-21.447328567504883,-353,6638.0,104.63484191894531,1922,9983.0
3660,0.3557552695274353,-26.728796005249023,-450,6638.0,128.09323120117188,2200,9983.0
3670,0.3561971187591553,-19.693086624145508,-360,6638.0,134.42942810058594,2342,9983.0
3680,0.3546014428138733,-10.681661605834961,-114,6638.0,131.61495971679688,2175,9983.0
3690,0.35429370403289795,5.483271598815918,94,6638.0,115.03762817382812,1678,9983.0
3700,0.3554289937019348,23.620027542114258,545,6638.0,86.05853271484375,1199,9983.0
3710,0.35517579317092896,34.68894577026367,555,6638.0,47.82380294799805,619,9983.0
3720,0.3552062213420868,30.5578556060791,403,6638.0,0.054582223296165466,-197,9983.0
3730,0.3471001386642456,10.567560195922852,4,6638.0,-39.985774993896484,-898,9983.0
3740,0.34770336747169495,-19.028961181640625,-378,6638.0,-89.9217758178711,-1772,9983.0
3750,0.34859418869018555,-47.72890853881836,-902,6638.0,-124.37353515625,-2155,9983.0
3760,0.3495155870914459,-62.39126968383789,-920,6638.0,-123.11674499511719,-2045,9983.0
3770,0.34426894783973694,-51.93632888793945,-747,6638.0,-103.42967987060547,-1609,9983.0
3780,0.34435632824897766,-15.72590160369873,35,6638.0,-72.85102844238281,-1128,9983.0
3790,0.3455887734889984,24.34271240234375,636,6638.0,-35.167049407958984,-432,9983.0
3800,0.3457924723625183,47.989070892333984,776,6638.0,21.991352081298828,568,9983.0
3810,0.3459373414516449,48.82260513305664,760,6638.0,59.012393951416016,1031,9983.0
3820,0.3478228747844696,33.93974304199219,536,6638.0,85.01952362060547,1425,9983.0
3830,0.3476982116699219,10.120125770568848,126,6638.0,93.27347564697266,1332,9983.0
3840,0.3473355174064636,-12.796154975891113,-371,6638.0,95.49994659423828,1470,9983.0
3850,0.34694644808769226,-32.63203048706055,-517,6638.0,79.31193542480469,1251,9983.0
3860,0.3432784974575043,-34.64242172241211,-606,6638.0,49.917903900146484,521,9983.0
3870,0.3433759808540344,-26.108163833618164,-326,6638.0,13.542798042297363,5,9983.0
3880,0.34313198924064636,-6.930787086486816,-38,6638.0,-19.444427490234375,-512,9983.0
3890,0.3435520827770233,4.972803115844727,203,6638.0,-41.54071807861328,-807,9983.0
3900,0.33957403898239136,13.00917911529541,182,6638.0,-58.37095260620117,-1003,9983.0
3910,0.33960363268852234,18.733928680419922,326,6638.0,-74.78099060058594,-1334,9983.0
3920,0.3400367498397827,23.317882537841797,343,6638.0,-94.01700592041016,-1782,9983.0
3930,0.34042540192604065,27.57236671447754,423,6638.0,-107.78423309326172,-1694,9983.0
3940,0.3405549228191376,28.31739616394043,478,6638.0,-100.79743957519531,-1435,9983.0
3950,0.34306788444519043,23.759431838989258,321,6638.0,-76.19329833984375,-968,9983.0
3960,0.3432651460170746,16.164342880249023,158,6638.0,-42.027442932128906,-471,9983.0
3970,0.34437182545661926,-3.9182887077331543,-260,6638.0,0.47422173619270325,337,9983.0
3980,0.34568163752555847,-27.62576675415039,-497,6638.0,63.14552688598633,1193,9983.0
3990,0.3505159914493561,-39.697391510009766,-623,6638.0,100.42906188964844,1764,9983.0
4000,0.3513852059841156,-37.14231872558594,-602,6638.0,117.71878814697266,2006,9983.0
4010,0.3515859544277191,-23.482576370239258,-360,6638.0,125.53357696533203,1896,9983.0
4020,0.3515547513961792,-4.204471588134766,28,6638.0,120.12191009521484,1850,9983.0
4030,0.35205012559890747,7.716001033782959,179,6638.0,93.6061019897461,1296,9983.0
4040,0.34877482056617737,9.717567443847656,229,6638.0,65.01504516601562,1052,9983.0
4050,0.34850865602493286,9.101243019104004,46,6638.0,35.94184494018555,316,9983.0
4060,0.34800586104393005,-2.043997287750244,-68,6638.0,12.219853401184082,-32,9983.0
4070,0.34781792759895325,-9.488811492919922,-128,6638.0,-16.396217346191406,-299,9983.0
4080,0.34111008048057556,-7.570703983306885,-40,6638.0,-36.3502197265625,-753,9983.0
4090,0.34079307317733765,4.231299877166748,79,6638.0,-56.33767318725586,-982,9983.0
4100,0.3412986099720001,15.822796821594238,301,6638.0,-76.65533447265625,-1488,9983.0
4110,0.34159740805625916,20.876237869262695,352,6638.0,-90.58911895751953,-1482,9983.0
4120,0.3380439281463623,21.565683364868164,452,6638.0,-78.80056762695312,-1285,9983.0
4130,0.3386313319206238,19.392070770263672,265,6638.0,-59.62171173095703,-941,9983.0
4140,0.3391735553741455,6.347122669219971,80,6638.0,-37.0313835144043,-511,9983.0
4150,0.3404949903488159,-9.989331245422363,-178,6638.0,-11.747936248779297,-5,9983.0
4160,0.34102877974510193,-24.52833366394043,-464,6638.0,25.954097747802734,494,9983.0
4170,0.342682421207428,-32.97645568847656,-539,6638.0,62.513755798339844,1128,9983.0
4180,0.34308600425720215,-21.95685577392578,-209,6638.0,90.1024169921875,1548,9983.0
4190,0.343335896730423,-3.0284905433654785,50,6638.0,106.97339630126953,1745,9983.0
4200,0.34310561418533325,15.955406188964844,395,6638.0,100.31034851074219,1589,9983.0
4210,0.3414108157157898,29.815462112426758,487,6638.0,73.47504425048828,1096,9983.0
4220,0.3406994342803955,32.64155960083008,502,6638.0,33.45220184326172,376,9983.0
4230,0.3407405912876129,20.804927825927734,264,6638.0,-5.021222114562988,-316,9983.0
4240,0.34128350019454956,4.205188751220703,51,6638.0,-42.555423736572266,-951,9983.0
4250,0.34159091114997864,-12.859381675720215,-293,6638.0,-70.50631713867188,-1075,9983.0
4260,0.33735525608062744,-21.77180290222168,-371,6638.0,-91.52669525146484,-1600,9983.0
4270,0.33688047528266907,-19.982454299926758,-355,6638.0,-109.05696105957031,-1772,9983.0
4280,0.33663657307624817,-11.534411430358887,-156,6638.0,-118.19701385498047,-1946,9983.0
4290,0.33652186393737793,-4.203312397003174,-83,6638.0,-104.50157165527344,-1490,9983.0
4300,0.3371882140636444,4.701610088348389,150,6638.0,-80.17427062988281,-1046,9983.0
4310,0.33807647228240967,14.310937881469727,288,6638.0,-51.634971618652344,-633,9983.0
4320,0.3394424617290497,15.139474868774414,254,6638.0,-12.739879608154297,15,9983.0
4330,0.33967873454093933,12.607217788696289,115,6638.0,27.93841552734375,617,9983.0
4340,0.3442857265472412,4.687609672546387,39,6638.0,67.49236297607422,1196,9983.0
4350,0.3446982800960541,-5.456883430480957,-62,6638.0,100.11167907714844,1630,9983.0
4360,0.34468546509742737,-15.3154296875,-316,6638.0,115.64057922363281,1792,9983.0
4370,0.3447663187980652,-23.483070373535156,-291,6638.0,116.3100357055664,1828,9983.0
4380,0.3447117209434509,-16.92975425720215,-229,6638.0,100.68656921386719,1666,9983.0
4390,0.3426966965198517,-6.712835311889648,-32,6638.0,71.95520782470703,1170,9983.0
4400,0.34487801790237427,2.294536590576172,2,6638.0,34.378807067871094,332,9983.0
4410,0.3452703058719635,10.198953628540039,221,6638.0,-10.445805549621582,-394,9983.0
4420,0.3458715081214905,10.740920066833496,211,6638.0,-55.08243942260742,-1015,9983.0
4430,0.3410243093967438,9.486204147338867,104,6638.0,-92.98523712158203,-1694,9983.0
4440,0.34162354469299316,8.364962577819824,108,6638.0,-120.7650375366211,-1921,9983.0
4450,0.34251075983047485,3.0034728050231934,4,6638.0,-136.38601684570312,-2232,9983.0
4460,0.3436354100704193,-4.098049163818359,-175,6638.0,-124.70292663574219,-1888,9983.0
4470,0.34458109736442566,-8.267165184020996,-131,6638.0,-101.80028533935547,-1450,9983.0
4480,0.34692126512527466,-12.312238693237305,-187,6638.0,-68.63872528076172,-980,9983.0
4490,0.34809234738349915,-13.738994598388672,-299,6638.0,-21.43703842163086,-66,9983.0
4500,0.3497200906276703,-21.048221588134766,-375,6638.0,33.303802490234375,772,9983.0
4510,0.3520137667655945,-15.488263130187988,-104,6638.0,77.65797424316406,1517,9983.0
4520,0.3532187342643738,1.548264980316162,78,6638.0,114.40451049804688,2088,9983.0
4530,0.3547990620136261,16.763643264770508,338,6638.0,142.66848754882812,2573,9983.0
4540,0.35549473762512207,23.55586051940918,328,6638.0,154.05661010742188,2603,9983.0
4550,0.35578301548957825,20.820940017700195,313,6638.0,146.61131286621094,2490,9983.0
4560,0.34982308745384216,19.2969913482666,195,6638.0,119.27252197265625,1891,9983.0
4570,0.3492119312286377,12.159584045410156,126,6638.0,78.60881042480469,949,9983.0
4580,0.34883207082748413,2.3366146087646484,21,6638.0,36.67389678955078,274,9983.0
4590,0.34852105379104614,-3.3961877822875977,-31,6638.0,-16.418359756469727,-388,9983.0
4600,0.3494577407836914,-11.670886039733887,-272,6638.0,-49.547698974609375,-1277,9983.0
4610,0.34165632724761963,-20.663244247436523,-236,6638.0,-88.5037841796875,-1782,9983.0
4620,0.3419569432735443,-17.728429794311523,-250,6638.0,-123.4245376586914,-2139,9983.0
4630,0.3426942527294159,-16.742958068847656,-317,6638.0,-143.2432861328125,-2468,9983.0
4640,0.3434443473815918,-17.95088005065918,-208,6638.0,-139.7057647705078,-2212,9983.0
4650,0.34049728512763977,-12.244250297546387,-168,6638.0,-117.24092102050781,-1828,9983.0
4660,0.34098002314567566,-0.7008718848228455,58,6638.0,-92.02196502685547,-1294,9983.0
4670,0.3413579761981964,8.394429206848145,111,6638.0,-42.5698356628418,-444,9983.0
4680,0.34296950697898865,12.209370613098145,191,6638.0,4.61404275894165,446,9983.0
4690,0.34444135427474976,12.85416030883789,268,6638.0,55.30080032348633,1219,9983.0
4700,0.34851446747779846,13.673996925354004,218,6638.0,100.48163604736328,1717,9983.0
4710,0.3488583564758301,16.55289077758789,257,6638.0,127.89034271240234,2113,9983.0
4720,0.34874555468559265,12.712437629699707,134,6638.0,142.92453002929688,2275,9983.0
4730,0.3489435315132141,2.9143214225769043,41,6638.0,133.3001708984375,2083,9983.0
4740,0.34507450461387634,-2.6290273666381836,-38,6638.0,98.92520141601562,1240,9983.0
4750,0.3442300260066986,-0.40671098232269287,127,6638.0,49.18717956542969,551,9983.0
4760,0.34483230113983154,3.3892815113067627,53,6638.0,0.32647213339805603,-90,9983.0
4770,0.34540048241615295,-3.852123975753784,-173,6638.0,-51.41447067260742,-989,9983.0
4780,0.3391365110874176,-10.939598083496094,-176,6638.0,-99.58897399902344,-1868,9983.0
4790,0.3394462764263153,-16.382843017578125,-328,6638.0,-132.63180541992188,-2324,9983.0
4800,0.339546263217926,-25.28516960144043,-463,6638.0,-165.82968139648438,-2789,9983.0
4810,0.33990418910980225,-22.290035247802734,-330,6638.0,-168.9376983642578,-2557,9983.0
4820,0.3396468758583069,-13.900871276855469,-187,6638.0,-153.68922424316406,-2364,9983.0
4830,0.3422236144542694,-0.6949699521064758,46,6638.0,-126.95819091796875,-1910,9983.0
4840,0.3423059582710266,9.78325366973877,253,6638.0,-100.1512680053711,-1508,9983.0
4850,0.3450809419155121,15.535333633422852,277,6638.0,-54.72047805786133,-778,9983.0
4860,0.3446638882160187,9.435209274291992,104,6638.0,0.17648173868656158,319,9983.0
4870,0.35430535674095154,7.713065147399902,148,6638.0,58.182472229003906,1276,9983.0
4880,0.3563023805618286,8.508267402648926,146,6638.0,119.47218322753906,2213,9983.0
4890,0.3562435507774353,7.283318996429443,105,6638.0,158.24363708496094,2655,9983.0
4900,0.3570883274078369,1.4417438507080078,43,6638.0,177.41368103027344,2904,9983.0
4910,0.3575883209705353,-3.110279083251953,-140,6638.0,178.42898559570312,3030,9983.0
4920,0.35493525862693787,-3.1832356452941895,-34,6638.0,158.5353240966797,2565,9983.0
4930,0.3566534221172333,2.454913377761841,54,6638.0,125.41474151611328,1954,9983.0
4940,0.3564033508300781,10.704593658447266,127,6638.0,85.89372253417969,1164,9983.0
4950,0.3563620448112488,11.023500442504883,203,6638.0,42.42822265625,380,9983.0
4960,0.3463815152645111,1.9270892143249512,-8,6638.0,-4.782956600189209,-270,9983.0
4970,0.3486756980419159,-10.99318790435791,-192,6638.0,-52.7546501159668,-1180,9983.0
4980,0.34964844584465027,-17.209184646606445,-107,6638.0,-99.05388641357422,-2047,9983.0
4990,0.3510410487651825,-9.389124870300293,-169,6638.0,-131.41395568847656,-2232,9983.0
5000,0.3444006145000458,-7.453597545623779,-67,6638.0,-139.7484588623047,-2425,9983.0
5010,0.3449249565601349,-5.784417152404785,-148,6638.0,-135.26657104492188,-2167,9983.0
5020,0.3448512554168701,-4.460021495819092,-48,6638.0,-116.69644927978516,-1690,9983.0
5030,0.3445560932159424,-5.300853729248047,-124,6638.0,-78.2462387084961,-1083,9983.0
5040,0.3443956673145294,-13.657155990600586,-313,6638.0,-18.184959411621094,-70,9983.0
5050,0.3483474552631378,-19.089033126831055,-333,6638.0,33.81845474243164,817,9983.0
5060,0.3488154113292694,-14.505045890808105,-199,6638.0,89.67827606201172,1743,9983.0
5070,0.34896236658096313,-5.576732635498047,-96,6638.0,138.3852081298828,2484,9983.0
5080,0.348476767539978,6.77789306640625,191,6638.0,159.11094665527344,2724,9983.0
5090,0.34777209162712097,16.351877212524414,231,6638.0,156.15237426757812,2590,9983.0
5100,0.3488527834415436,18.191349029541016,327,6638.0,139.43948364257812,2262,9983.0
5110,0.3474861979484558,19.357398986816406,181,6638.0,103.8985366821289,1681,9983.0
5120,0.3465766906738281,16.73493766784668,159,6638.0,61.76103973388672,653,9983.0
5130,0.34669390320777893,5.01615047454834,163,6638.0,2.8695874214172363,-397,9983.0
5140,0.34135833382606506,3.4667680263519287,96,6638.0,-74.7245864868164,-1502,9983.0
5150,0.34271857142448425,-0.06474647670984268,-69,6638.0,-144.433349609375,-2478,9983.0
5160,0.34399935603141785,-2.2615089416503906,-26,6638.0,-189.68783569335938,-3304,9983.0
5170,0.34460678696632385,-4.945805549621582,-170,6638.0,-208.9600830078125,-3360,9983.0
5180,0.34267640113830566,-0.9207934737205505,72,6638.0,-200.53875732421875,-3058,9983.0
5190,0.34291762113571167,7.468755722045898,121,6638.0,-169.5668487548828,-2466,9983.0
5200,0.34302088618278503,9.753888130187988,153,6638.0,-117.66177368164062,-1466,9983.0
5210,0.3436799645423889,5.531586647033691,109,6638.0,-54.28705596923828,-694,9983.0
5220,0.3516252040863037,-0.7464659214019775,-63,6638.0,4.845433235168457,343,9983.0
5230,0.35216307640075684,-7.4534807205200195,-173,6638.0,48.50267791748047,1179,9983.0
5240,0.3532533049583435,-9.115455627441406,-147,6638.0,95.6642074584961,1889,9983.0
5250,0.3546866476535797,-9.465703010559082,-132,6638.0,124.56776428222656,2075,9983.0
5260,0.3547082841396332,-8.919946670532227,-78,6638.0,135.21401977539062,2177,9983.0
5270,0.35565435886383057,-4.825018882751465,-46,6638.0,126.5801773071289,1853,9983.0
5280,0.3558192253112793,5.7042555809021,230,6638.0,97.94200897216797,1485,9983.0
5290,0.3558800518512726,10.516018867492676,188,6638.0,66.02684020996094,887,9983.0
5300,0.35840079188346863,7.904720783233643,107,6638.0,23.428730010986328,123,9983.0
5310,0.35103029012680054,3.358205795288086,95,6638.0,-24.071189880371094,-398,9983.0
5320,0.3517085313796997,-2.1033573150634766,-44,6638.0,-45.48264694213867,-742,9983.0
5330,0.35261327028274536,5.455345630645752,114,6638.0,-59.871524810791016,-932,9983.0
5340,0.3532508909702301,13.36458969116211,341,6638.0,-67.32117462158203,-984,9983.0
5350,0.35377147793769836,12.014331817626953,125,6638.0,-52.16304016113281,-876,9983.0
5360,0.34819844365119934,2.757826805114746,46,6638.0,-19.27528953552246,-37,9983.0
5370,0.3486637473106384,-8.031826972961426,-180,6638.0,20.60143280029297,535,9983.0
5380,0.34890511631965637,-13.675436019897461,-194,6638.0,44.39502716064453,888,9983.0
5390,0.3489515483379364,-11.493467330932617,-195,6638.0,64.29704284667969,1023,9983.0
5400,0.3465769290924072,-14.198746681213379,-198,6638.0,72.48471069335938,1152,9983.0
5410,0.34630852937698364,-16.309608459472656,-303,6638.0,78.32322692871094,1218,9983.0
5420,0.34612342715263367,-17.65492820739746,-189,6638.0,78.4802474975586,1146,9983.0
5430,0.3462619185447693,-11.0996732711792,-84,6638.0,71.29866027832031,1069,9983.0
5440,0.3406938910484314,4.481787204742432,136,6638.0,54.90325164794922,700,9983.0
5450,0.34005117416381836,18.600881576538086,443,6638.0,25.797679901123047,110,9983.0
5460,0.34000295400619507,28.508148193359375,551,6638.0,-13.18918228149414,-349,9983.0
5470,0.3402136564254761,31.853656768798828,455,6638.0,-45.822914123535156,-719,9983.0
5480,0.34025830030441284,26.013290405273438,363,6638.0,-71.80120849609375,-1272,9983.0
5490,0.33695468306541443,18.702686309814453,301,6638.0,-89.44658660888672,-1424,9983.0
5500,0.33711493015289307,10.024364471435547,96,6638.0,-86.83584594726562,-1398,9983.0
5510,0.3376705050468445,-12.532855033874512,-272,6638.0,-77.9686508178711,-1261,9983.0
5520,0.33765900135040283,-22.941259384155273,-385,6638.0,-53.36447525024414,-865,9983.0
5530,0.3397725522518158,-23.486011505126953,-396,6638.0,-19.8812198638916,-67,9983.0
5540,0.3394951820373535,-16.452077865600586,-179,6638.0,12.443938255310059,451,9983.0
5550,0.3395618498325348,-4.70585298538208,-41,6638.0,49.682762145996094,1009,9983.0
5560,0.3391605317592621,-1.7403565645217896,-29,6638.0,72.48733520507812,1301,9983.0
5570,0.3383396565914154,-15.791377067565918,-342,6638.0,83.33716583251953,1282,9983.0
5580,0.3402239680290222,-27.56545066833496,-368,6638.0,72.53580474853516,1095,9983.0
5590,0.3408060669898987,-18.7578182220459,-288,6638.0,46.234275817871094,682,9983.0
5600,0.34021642804145813,1.4704902172088623,84,6638.0,13.467255592346191,61,9983.0
5610,0.34074729681015015,23.016300201416016,482,6638.0,-16.445396423339844,-270,9983.0
5620,0.3382314443588257,44.09286117553711,665,6638.0,-44.25638198852539,-708,9983.0
5630,0.3385319411754608,38.99718475341797,563,6638.0,-65.47260284423828,-1166,9983.0
5640,0.339089035987854,22.002910614013672,236,6638.0,-85.60569763183594,-1315,9983.0
5650,0.339575856924057,-1.1471675634384155,-73,6638.0,-100.62596130371094,-1651,9983.0
5660,0.33921539783477783,-21.05641746520996,-439,6638.0,-109.3892822265625,-1708,9983.0
5670,0.34106823801994324,-32.94940185546875,-515,6638.0,-100.96222686767578,-1594,9983.0
5680,0.3420232832431793,-34.46791458129883,-563,6638.0,-75.04048919677734,-1175,9983.0
5690,0.34325817227363586,-15.755427360534668,-149,6638.0,-41.40949630737305,-412,9983.0
5700,0.3451937139034271,9.12052059173584,301,6638.0,-1.3041093349456787,283,9983.0
5710,0.34903234243392944,32.07944107055664,564,6638.0,34.77635955810547,609,9983.0
5720,0.35128381848335266,40.988182067871094,675,6638.0,75.30711364746094,1289,9983.0
5730,0.35255831480026245,35.83613967895508,503,6638.0,105.24752807617188,1958,9983.0
5740,0.3536740243434906,9.018763542175293,-27,6638.0,133.38661193847656,2268,9983.0
5750,0.3539309501647949,-18.170928955078125,-354,6638.0,146.89892578125,2432,9983.0
5760,0.354776531457901,-34.90647506713867,-625,6638.0,145.67892456054688,2282,9983.0
5770,0.3544827699661255,-35.23969650268555,-471,6638.0,125.50294494628906,1890,9983.0
5780,0.3553437888622284,-19.970605850219727,-330,6638.0,93.2711181640625,1462,9983.0
5790,0.3573606014251709,0.9812406301498413,115,6638.0,57.7165641784668,690,9983.0
5800,0.3465135395526886,21.265539169311523,454,6638.0,13.40034008026123,-105,9983.0
5810,0.34683316946029663,27.94671630859375,533,6638.0,-29.759418487548828,-792,9983.0
5820,0.34777891635894775,20.037063598632812,212,6638.0,-71.54449462890625,-1423,9983.0
5830,0.3476627767086029,2.4029488563537598,-103,6638.0,-104.25182342529297,-1923,9983.0
5840,0.342098206281662,-19.443498611450195,-437,6638.0,-127.75253295898438,-2301,9983.0
5850,0.3419804275035858,-36.77967834472656,-743,6638.0,-140.9769744873047,-2376,9983.0
5860,0.3412627577781677,-49.726627349853516,-782,6638.0,-129.91445922851562,-1801,9983.0
5870,0.34051910042762756,-37.04138946533203,-503,6638.0,-100.19364166259766,-1467,9983.0
5880,0.3421955108642578,-18.581745147705078,-223,6638.0,-65.91051483154297,-820,9983.0
5890,0.34137219190597534,-8.634590148925781,-63,6638.0,-27.774093627929688,-273,9983.0
5900,0.3403509557247162,1.8965396881103516,67,6638.0,11.981206893920898,475,9983.0
5910,0.3406045138835907,8.846624374389648,118,6638.0,54.04209518432617,1244,9983.0
5920,0.3390677869319916,13.760579109191895,295,6638.0,95.04956817626953,1894,9983.0
5930,0.3379952311515808,20.782400131225586,337,6638.0,125.05512237548828,2102,9983.0
5940,0.33633142709732056,19.602008819580078,311,6638.0,130.53799438476562,2220,9983.0
5950,0.33394312858581543,16.777788162231445,224,6638.0,118.9615478515625,1830,9983.0
5960,0.33347299695014954,19.778478622436523,376,6638.0,87.22254943847656,1297,9983.0
5970,0.32529348134994507,19.542343139648438,213,6638.0,44.47148132324219,247,9983.0
5980,0.32346656918525696,9.46367359161377,75,6638.0,-6.776654243469238,-446,9983.0
5990,0.32313740253448486,-1.4870328903198242,-70,6638.0,-50.121150970458984,-1096,9983.0
6000,0.3235369026660919,-10.946520805358887,-142,6638.0,-84.48123931884766,-1620,9983.0
6010,0.324301540851593,-19.117464065551758,-343,6638.0,-113.447509765625,-1961,9983.0
6020,0.319436639547348,-24.89190101623535,-350,6638.0,-131.8953399658203,-2385,9983.0
6030,0.319244921207428,-31.056617736816406,-561,6638.0,-141.45016479492188,-2360,9983.0
6040,0.321279376745224,-28.027908325195312,-356,6638.0,-136.05702209472656,-2183,9983.0
6050,0.32070451974868774,-20.97066307067871,-365,6638.0,-117.89297485351562,-1805,9983.0
6060,0.32091182470321655,-13.815712928771973,-212,6638.0,-91.23519134521484,-1202,9983.0
6070,0.3208349645137787,-4.971139430999756,13,6638.0,-51.5327033996582,-594,9983.0
6080,0.32407471537590027,4.022473335266113,129,6638.0,2.8271284103393555,204,9983.0
6090,0.3245100975036621,14.95120620727539,262,6638.0,58.22134780883789,1200,9983.0
6100,0.3276136517524719,23.484275817871094,391,6638.0,108.39878845214844,2097,9983.0
6110,0.3279656767845154,27.536705017089844,471,6638.0,148.0342254638672,2683,9983.0
6120,0.327442467212677,25.695199966430664,408,6638.0,172.05245971679688,2859,9983.0
6130,0.3275606334209442,24.656383514404297,344,6638.0,172.7698974609375,2813,9983.0
6140,0.32651621103286743,14.743502616882324,298,6638.0,154.54766845703125,2464,9983.0
6150,0.320253849029541,3.660910129547119,-58,6638.0,123.26681518554688,1907,9983.0
6160,0.32115766406059265,-11.252939224243164,-261,6638.0,79.65135192871094,1101,9983.0
6170,0.32067182660102844,-20.73763084411621,-430,6638.0,23.197769165039062,28,9983.0
6180,0.321136474609375,-23.783761978149414,-287,6638.0,-39.53602600097656,-1102,9983.0
6190,0.3151102066040039,-15.374037742614746,-168,6638.0,-100.52452850341797,-1787,9983.0
6200,0.315753310918808,-6.539692401885986,-151,6638.0,-143.01123046875,-2425,9983.0
6210,0.3164916932582855,5.6843342781066895,174,6638.0,-163.79302978515625,-2646,9983.0
6220,0.31672272086143494,14.323047637939453,207,6638.0,-162.30052185058594,-2597,9983.0
6230,0.3163028955459595,18.43067169189453,316,6638.0,-149.84791564941406,-2259,9983.0
6240,0.31417492032051086,16.903135299682617,264,6638.0,-122.29964447021484,-1956,9983.0
6250,0.31477633118629456,4.796760082244873,-55,6638.0,-81.29877471923828,-1174,9983.0
6260,0.31501442193984985,-20.013790130615234,-487,6638.0,-19.002952575683594,9,9983.0
6270,0.31687846779823303,-42.57441711425781,-689,6638.0,41.60670852661133,1009,9983.0
6280,0.3197641968727112,-46.45857238769531,-777,6638.0,98.47148132324219,1757,9983.0
6290,0.31990712881088257,-42.27001190185547,-639,6638.0,133.42703247070312,2177,9983.0
6300,0.3208692967891693,-18.630413055419922,-110,6638.0,145.11524963378906,2331,9983.0
6310,0.32088300585746765,9.624067306518555,239,6638.0,140.1627960205078,2258,9983.0
6320,0.3183337152004242,34.23938751220703,758,6638.0,125.7780532836914,2030,9983.0
6330,0.3188484013080597,55.74135208129883,880,6638.0,98.5091552734375,1587,9983.0
6340,0.3182678520679474,60.66228103637695,981,6638.0,64.16456604003906,757,9983.0
6350,0.31743672490119934,52.063255310058594,809,6638.0,24.05447769165039,106,9983.0
6360,0.31815624237060547,32.80435562133789,432,6638.0,-16.735164642333984,-621,9983.0
6370,0.31133732199668884,14.79788875579834,250,6638.0,-55.31154251098633,-1064,9983.0
6380,0.3111448287963867,3.970590829849243,-10,6638.0,-86.52178192138672,-1548,9983.0
6390,0.311574250459671,-1.5863237380981445,35,6638.0,-105.65544128417969,-1842,9983.0
6400,0.31099894642829895,-10.858869552612305,-201,6638.0,-108.66542053222656,-1923,9983.0
6410,0.3077940344810486,-17.56950569152832,-391,6638.0,-95.3934326171875,-1419,9983.0
6420,0.3076041638851166,-27.77835464477539,-462,6638.0,-64.41400909423828,-839,9983.0
6430,0.3071827292442322,-39.63636016845703,-687,6638.0,-26.07379150390625,-219,9983.0
6440,0.3075382113456726,-48.436981201171875,-920,6638.0,24.777339935302734,612,9983.0
6450,0.3060150742530823,-58.427303314208984,-896,6638.0,69.88417053222656,1172,9983.0
6460,0.3060136139392853,-59.116249084472656,-938,6638.0,98.07227325439453,1565,9983.0
6470,0.30501362681388855,-48.30413055419922,-586,6638.0,110.83983612060547,1763,9983.0
6480,0.3039092421531677,-23.929706573486328,-243,6638.0,102.4823226928711,1617,9983.0
6490,0.3044086992740631,8.042296409606934,346,6638.0,74.37584686279297,972,9983.0
6500,0.30085182189941406,39.784751892089844,779,6638.0,40.6260986328125,464,9983.0
6510,0.3004377782344818,62.55308532714844,1131,6638.0,-1.5603889226913452,-146,9983.0
6520,0.2997305393218994,71.74556732177734,1135,6638.0,-34.23208999633789,-707,9983.0
6530,0.2986419200897217,71.90448760986328,1196,6638.0,-63.44489669799805,-1341,9983.0
6540,0.2947402894496918,63.10224151611328,960,6638.0,-85.8326644897461,-1535,9983.0
6550,0.2933814525604248,48.75591278076172,705,6638.0,-100.29011535644531,-1693,9983.0
6560,0.2913525104522705,32.14397430419922,467,6638.0,-105.50453186035156,-1763,9983.0
6570,0.29026687145233154,12.283626556396484,167,6638.0,-97.84822845458984,-1540,9983.0
6580,0.2882014513015747,-7.02448034286499,-259,6638.0,-75.39321899414062,-1092,9983.0
6590,0.2877233028411865,-31.933475494384766,-682,6638.0,-43.252628326416016,-517,9983.0
6600,0.2869681119918823,-53.067100524902344,-989,6638.0,-8.528587341308594,112,9983.0
6610,0.28557002544403076,-65.33668518066406,-1145,6638.0,36.991477966308594,942,9983.0
6620,0.28563129901885986,-73.95851135253906,-1215,6638.0,82.42760467529297,1651,9983.0
6630,0.28546518087387085,-73.79369354248047,-1166,6638.0,121.73588562011719,2235,9983.0
6640,0.2843412160873413,-64.13310241699219,-975,6638.0,146.6147003173828,2520,9983.0
6650,0.2840012311935425,-35.103843688964844,-445,6638.0,156.5472869873047,2503,9983.0
6660,0.2835189402103424,4.019193649291992,333,6638.0,151.4296875,2401,9983.0
6670,0.2818978726863861,39.704505920410156,696,6638.0,122.8431625366211,1604,9983.0
6680,0.2786499857902527,62.35326385498047,1186,6638.0,74.69723510742188,960,9983.0
6690,0.2775392532348633,75.88675689697266,1156,6638.0,16.099876403808594,-54,9983.0
6700,0.28103652596473694,72.6661605834961,1247,6638.0,-42.04929733276367,-890,9983.0
6710,0.28059786558151245,56.105743408203125,829,6638.0,-83.49082946777344,-1504,9983.0
6720,0.27671411633491516,28.780668258666992,232,6638.0,-107.06775665283203,-1830,9983.0
6730,0.2758260667324066,-5.9549760818481445,-191,6638.0,-121.13842010498047,-2060,9983.0
6740,0.2759414315223694,-28.029951095581055,-488,6638.0,-126.71045684814453,-2182,9983.0
6750,0.27471259236335754,-39.54670333862305,-579,6638.0,-126.78837585449219,-2031,9983.0
6760,0.2713417112827301,-41.8509521484375,-607,6638.0,-118.83331298828125,-2041,9983.0
6770,0.26962530612945557,-36.64596939086914,-537,6638.0,-102.56548309326172,-1713,9983.0
6780,0.2713819742202759,-30.055068969726562,-499,6638.0,-66.95390319824219,-1020,9983.0
6790,0.2703942358493805,-24.304636001586914,-365,6638.0,-13.896036148071289,-27,9983.0
6800,0.2716423273086548,-9.203857421875,-91,6638.0,46.70896530151367,1066,9983.0
6810,0.27032727003097534,4.880182266235352,99,6638.0,111.86621856689453,2202,9983.0
6820,0.27039775252342224,12.943907737731934,171,6638.0,157.4462432861328,2819,9983.0
6830,0.2709830105304718,9.82064151763916,182,6638.0,179.64248657226562,2983,9983.0
6840,0.2705633342266083,-0.615830659866333,27,6638.0,184.05856323242188,2937,9983.0
6850,0.2669505774974823,-12.358461380004883,-240,6638.0,173.47817993164062,2762,9983.0
6860,0.2690850496292114,-18.456506729125977,-258,6638.0,143.890869140625,2100,9983.0
6870,0.2684990465641022,-18.981264114379883,-311,6638.0,91.1556625366211,1263,9983.0
6880,0.26798343658447266,-11.446351051330566,-139,6638.0,35.54248046875,334,9983.0
6890,0.26594433188438416,-2.34155535697937,-1,6638.0,-24.297422409057617,-650,9983.0
6900,0.26551294326782227,12.470730781555176,326,6638.0,-77.61686706542969,-1559,9983.0
6910,0.2661448121070862,26.62834930419922,414,6638.0,-119.30110168457031,-2045,9983.0
6920,0.2655511498451233,34.15289306640625,595,6638.0,-141.35891723632812,-2441,9983.0
6930,0.2643139958381653,34.849769592285156,593,6638.0,-157.0647430419922,-2517,9983.0
6940,0.26233604550361633,30.186420440673828,439,6638.0,-161.47207641601562,-2597,9983.0
6950,0.2608778476715088,24.402467727661133,355,6638.0,-158.22103881835938,-2526,9983.0
6960,0.25834769010543823,18.892030715942383,281,6638.0,-134.3354034423828,-2047,9983.0
6970,0.25835728645324707,16.26563262939453,243,6638.0,-95.73748016357422,-1379,9983.0
6980,0.2555560767650604,8.788397789001465,98,6638.0,-45.219757080078125,-423,9983.0
6990,0.25401854515075684,-0.5281789898872375,-86,6638.0,14.782073020935059,601,9983.0
7000,0.2558223605155945,-12.95595932006836,-287,6638.0,70.21663665771484,1534,9983.0
7010,0.2552594244480133,-27.35361099243164,-569,6638.0,116.11146545410156,2267,9983.0
7020,0.25454971194267273,-44.64210891723633,-796,6638.0,145.49234008789062,2610,9983.0
7030,0.25078222155570984,-49.412445068359375,-721,6638.0,154.9897003173828,2532,9983.0
7040,0.2507023215293884,-43.509063720703125,-596,6638.0,150.8231658935547,2372,9983.0
7050,0.2490839958190918,-32.531349182128906,-548,6638.0,131.33889770507812,2035,9983.0
7060,0.25176259875297546,-27.220422744750977,-339,6638.0,94.02021026611328,1326,9983.0
7070,0.24538184702396393,-18.562271118164062,-282,6638.0,49.46356964111328,548,9983.0
7080,0.2443152517080307,-5.318386554718018,-13,6638.0,3.7211854457855225,11,9983.0
7090,0.24331796169281006,6.256766319274902,216,6638.0,-32.746299743652344,-787,9983.0
7100,0.24304792284965515,21.986846923828125,434,6638.0,-61.2158317565918,-1109,9983.0
7110,0.2392713725566864,34.88258361816406,576,6638.0,-81.42327880859375,-1388,9983.0
7120,0.23907385766506195,40.58709716796875,744,6638.0,-90.64714813232422,-1638,9983.0
7130,0.23842723667621613,39.20829391479492,656,6638.0,-87.98783874511719,-1368,9983.0
7140,0.23806701600551605,40.729976654052734,608,6638.0,-67.56588745117188,-924,9983.0
7150,0.23993399739265442,41.92110061645508,596,6638.0,-34.58776092529297,-328,9983.0
7160,0.2385571151971817,33.66145706176758,444,6638.0,6.12040376663208,385,9983.0
7170,0.23874154686927795,21.590089797973633,193,6638.0,42.683570861816406,924,9983.0
7180,0.23890700936317444,3.874354124069214,-74,6638.0,75.10408020019531,1477,9983.0
7190,0.2386961281299591,-8.631338119506836,-274,6638.0,101.1863784790039,1717,9983.0
7200,0.23797191679477692,-18.231143951416016,-276,6638.0,105.65184783935547,1693,9983.0
7210,0.23717251420021057,-22.766721725463867,-302,6638.0,97.64364624023438,1565,9983.0
7220,0.2363545298576355,-23.40493392944336,-440,6638.0,73.27240753173828,979,9983.0
7230,0.23794345557689667,-20.43442726135254,-280,6638.0,41.8091926574707,416,9983.0
7240,0.23424814641475677,-13.883158683776855,-181,6638.0,3.9371652603149414,-74,9983.0
7250,0.23296970129013062,-9.07405948638916,-190,6638.0,-27.4975643157959,-648,9983.0
7260,0.232223242521286,-4.278596878051758,13,6638.0,-52.46619415283203,-815,9983.0
7270,0.23113979399204254,1.9841821193695068,9,6638.0,-68.07044982910156,-1228,9983.0
7280,0.23018322885036469,6.976877212524414,157,6638.0,-76.90943145751953,-1178,9983.0
7290,0.23092502355575562,10.907578468322754,190,6638.0,-72.2586669921875,-1053,9983.0
7300,0.23008881509304047,10.700846672058105,157,6638.0,-58.329811096191406,-911,9983.0
7310,0.23056305944919586,12.44500732421875,274,6638.0,-41.16874313354492,-547,9983.0
7320,0.2301308661699295,13.740211486816406,311,6638.0,-14.862497329711914,-62,9983.0
7330,0.22490482032299042,10.482926368713379,207,6638.0,12.351421356201172,273,9983.0
7340,0.22512656450271606,4.592964172363281,96,6638.0,38.162513732910156,708,9983.0
7350,0.22512003779411316,-0.7288738489151001,-124,6638.0,61.845420837402344,1140,9983.0
7360,0.22504206001758575,-10.216631889343262,-300,6638.0,73.39569854736328,1262,9983.0
7370,0.22455425560474396,-18.51597785949707,-367,6638.0,71.92594146728516,1158,9983.0
7380,0.22445334494113922,-22.043386459350586,-276,6638.0,56.26277160644531,782,9983.0
7390,0.22587575018405914,-22.13743019104004,-441,6638.0,29.19236183166504,366,9983.0
7400,0.22564592957496643,-18.251375198364258,-266,6638.0,-2.9582204818725586,-195,9983.0
7410,0.22606512904167175,-13.739187240600586,-182,6638.0,-33.65970993041992,-562,9983.0
7420,0.22063304483890533,-8.498533248901367,-178,6638.0,-52.94141387939453,-1019,9983.0
7430,0.22012536227703094,-3.5392279624938965,62,6638.0,-63.94089889526367,-1009,9983.0
7440,0.2197030484676361,2.7550160884857178,52,6638.0,-66.97418975830078,-1102,9983.0
7450,0.21912366151809692,7.236790657043457,115,6638.0,-62.58369827270508,-1148,9983.0
7460,0.21799513697624207,9.434652328491211,202,6638.0,-55.73406982421875,-874,9983.0
7470,0.21703249216079712,10.903118133544922,175,6638.0,-46.09837341308594,-558,9983.0
7480,0.21765224635601044,7.217043399810791,94,6638.0,-32.97722625732422,-349,9983.0
7490,0.2171323001384735,3.9020566940307617,48,6638.0,-18.45344352722168,-232,9983.0
7500,0.2168465256690979,-0.671817421913147,2,6638.0,-1.0952131748199463,-87,9983.0
7510,0.2150370329618454,-0.9025876522064209,49,6638.0,11.849790573120117,178,9983.0
7520,0.21458761394023895,-1.1908506155014038,-44,6638.0,25.64630699157715,488,9983.0
7530,0.2142866998910904,4.027519226074219,-10,6638.0,38.29796600341797,780,9983.0
7540,0.2139449268579483,6.865262508392334,46,6638.0,48.2401237487793,827,9983.0
7550,0.21284563839435577,-0.25573909282684326,22,6638.0,48.29509353637695,712,9983.0
7560,0.21255485713481903,-8.807580947875977,-136,6638.0,37.07228469848633,504,9983.0
7570,0.2118542343378067,-8.497771263122559,-269,6638.0,23.23284912109375,343,9983.0
7580,0.21106086671352386,-16.229389190673828,-241,6638.0,6.416820526123047,30,9983.0
7590,0.2102717012166977,-19.402990341186523,-277,6638.0,-10.022905349731445,-189,9983.0
7600,0.20757527649402618,-17.45574951171875,-322,6638.0,-20.979360580444336,-357,9983.0
7610,0.20655710995197296,-11.833653450012207,-100,6638.0,-23.405113220214844,-349,9983.0
7620,0.20545624196529388,-6.943687438964844,-12,6638.0,-19.112699508666992,-250,9983.0
7630,0.2045997977256775,0.9524564743041992,3,6638.0,-15.41493034362793,-310,9983.0
7640,0.2028380036354065,11.86348819732666,272,6638.0,-16.594770431518555,-280,9983.0
7650,0.2021883875131607,18.590295791625977,354,6638.0,-14.581490516662598,-135,9983.0
7660,0.2016584873199463,19.719205856323242,320,6638.0,-12.15650749206543,-193,9983.0
7670,0.201128289103508,18.36050796508789,326,6638.0,-5.87074613571167,-254,9983.0
7680,0.1988975703716278,14.676226615905762,223,6638.0,-1.0878273248672485,27,9983.0
7690,0.1984826773405075,9.741299629211426,63,6638.0,4.2260589599609375,170,9983.0
7700,0.198166623711586,3.276975154876709,-48,6638.0,11.560192108154297,270,9983.0
7710,0.19794918596744537,-9.395907402038574,-111,6638.0,24.215980529785156,465,9983.0
7720,0.1979704052209854,-16.94983673095703,-251,6638.0,28.678449630737305,618,9983.0
7730,0.19623766839504242,-14.37939739227295,-338,6638.0,23.96271514892578,355,9983.0
7740,0.19554968178272247,-10.138445854187012,-103,6638.0,13.844117164611816,173,9983.0
7750,0.19495119154453278,-2.6333658695220947,37,6638.0,6.330280780792236,274,9983.0
7760,0.19416828453540802,14.370028495788574,331,6638.0,6.127260684967041,38,9983.0
7770,0.1932709515094757,28.29461097717285,578,6638.0,9.707563400268555,159,9983.0
7780,0.19236139953136444,35.51634216308594,487,6638.0,10.192384719848633,199,9983.0
7790,0.191414937376976,32.07978057861328,528,6638.0,6.057397842407227,16,9983.0
7800,0.1902860850095749,22.87785530090332,344,6638.0,0.9167436361312866,-16,9983.0
7810,0.1900385171175003,12.953880310058594,94,6638.0,-2.9913058280944824,-136,9983.0
7820,0.18941910564899445,0.5739956498146057,60,6638.0,-10.288581848144531,-235,9983.0
7830,0.18834416568279266,-6.462726593017578,-172,6638.0,-15.215123176574707,-111,9983.0
7840,0.1869962513446808,-11.02950668334961,-203,6638.0,-17.064815521240234,-298,9983.0
7850,0.1855560839176178,-12.308349609375,-190,6638.0,-17.881473541259766,-256,9983.0
7860,0.18577714264392853,-13.226824760437012,-270,6638.0,-16.95924949645996,-149,9983.0
7870,0.18481697142124176,-12.840015411376953,-200,6638.0,-7.90716028213501,-103,9983.0
7880,0.18355758488178253,-8.182435989379883,-110,6638.0,2.2129340171813965,177,9983.0
7890,0.18237140774726868,-5.534514904022217,-203,6638.0,16.28826332092285,324,9983.0
7900,0.18272121250629425,-6.079127311706543,-122,6638.0,29.999618530273438,574,9983.0
7910,0.18187320232391357,-7.030428409576416,-143,6638.0,35.36763000488281,642,9983.0
7920,0.18081997334957123,-5.616998195648193,-147,6638.0,38.1612663269043,572,9983.0
7930,0.18000470101833344,-3.99837327003479,-38,6638.0,34.19870376586914,624,9983.0
7940,0.17967702448368073,-0.46666035056114197,-79,6638.0,34.544403076171875,480,9983.0
7950,0.1803808957338333,0.4742553234100342,79,6638.0,29.887939453125,500,9983.0
7960,0.18033717572689056,4.308555603027344,64,6638.0,23.74703598022461,390,9983.0
7970,0.18111923336982727,3.465230941772461,87,6638.0,16.389698028564453,281,9983.0
7980,0.18138113617897034,5.965153694152832,51,6638.0,5.065451145172119,23,9983.0
7990,0.18351483345031738,10.271383285522461,248,6638.0,-0.7146558165550232,-67,9983.0
8000,0.18285652995109558,15.890646934509277,259,6638.0,-5.897728443145752,-205,9983.0
8010,0.1823318600654602,22.304290771484375,449,6638.0,-12.22165584564209,-174,9983.0
8020,0.18235072493553162,22.9261474609375,336,6638.0,-9.487666130065918,-263,9983.0
8030,0.182331845164299,22.912479400634766,415,6638.0,-8.288918495178223,-117,9983.0
8040,0.18173296749591827,21.354610443115234,296,6638.0,-5.923340320587158,-32,9983.0
8050,0.1815871149301529,14.151719093322754,117,6638.0,-1.386114239692688,-60,9983.0
8060,0.1818816363811493,5.075016021728516,93,6638.0,0.8236768841743469,22,9983.0
8070,0.1822500079870224,-2.9000864028930664,-145,6638.0,10.242148399353027,282,9983.0
8080,0.18360984325408936,-7.736366271972656,-184,6638.0,20.190183639526367,280,9983.0
8090,0.18392062187194824,-10.152446746826172,-134,6638.0,22.960554122924805,478,9983.0
8100,0.18429416418075562,-12.721658706665039,-299,6638.0,24.878637313842773,401,9983.0
8110,0.1850942075252533,-18.998193740844727,-346,6638.0,23.01881217956543,350,9983.0
8120,0.1842736005783081,-24.749433517456055,-524,6638.0,19.703678131103516,363,9983.0
8130,0.18441584706306458,-27.663795471191406,-413,6638.0,14.3974609375,179,9983.0
8140,0.18470433354377747,-25.05350112915039,-420,6638.0,8.22391414642334,207,9983.0
8150,0.18461067974567413,-18.685949325561523,-215,6638.0,2.5398802757263184,14,9983.0
8160,0.1855160892009735,-5.729776859283447,-64,6638.0,-3.4749932289123535,-67,9983.0
8170,0.1835593581199646,8.08599853515625,279,6638.0,-11.153705596923828,-196,9983.0
8180,0.1835617572069168,17.222200393676758,262,6638.0,-13.851934432983398,-223,9983.0
8190,0.18342764675617218,19.556880950927734,384,6638.0,-13.188189506530762,-220,9983.0
8200,0.18298077583312988,20.089338302612305,243,6638.0,-9.261951446533203,-88,9983.0
8210,0.1826769858598709,18.145282745361328,313,6638.0,-3.3824784755706787,-185,9983.0
8220,0.1822916865348816,18.593257904052734,322,6638.0,-1.2460877895355225,16,9983.0
8230,0.1819445639848709,16.69560432434082,244,6638.0,-0.14142465591430664,-80,9983.0
8240,0.18148589134216309,13.264921188354492,237,6638.0,-1.9918826818466187,-16,9983.0
8250,0.18125884234905243,8.235713005065918,27,6638.0,-3.4984889030456543,-4,9983.0
8260,0.1807018518447876,-1.0689947605133057,1,6638.0,-0.3155706524848938,-92,9983.0
8270,0.180398091673851,-10.68327522277832,-189,6638.0,5.2135138511657715,165,9983.0
8280,0.18246321380138397,-19.575843811035156,-404,6638.0,13.589240074157715,269,9983.0
8290,0.18263867497444153,-27.194427490234375,-377,6638.0,19.36560821533203,313,9983.0
8300,0.18093042075634003,-24.782711029052734,-386,6638.0,16.603269577026367,286,9983.0
8310,0.18108119070529938,-17.394947052001953,-182,6638.0,7.809962749481201,64,9983.0
8320,0.18108908832073212,-13.293279647827148,-275,6638.0,-1.592977523803711,22,9983.0
8330,0.18119663000106812,-5.823879718780518,-49,6638.0,-13.524456024169922,-294,9983.0
8340,0.18078836798667908,-2.139846086502075,-87,6638.0,-26.71547508239746,-514,9983.0
8350,0.18072816729545593,0.4741891324520111,64,6638.0,-36.12153625488281,-585,9983.0
8360,0.18052896857261658,0.047686513513326645,-68,6638.0,-37.289772033691406,-581,9983.0
8370,0.18031799793243408,-0.372997522354126,68,6638.0,-33.19900894165039,-456,9983.0
8380,0.17985254526138306,1.7590460777282715,-39,6638.0,-25.526485443115234,-471,9983.0
8390,0.1778145730495453,5.508082389831543,130,6638.0,-16.603168487548828,-277,9983.0
8400,0.17721563577651978,7.530491352081299,134,6638.0,-11.590307235717773,-110,9983.0
8410,0.1772782951593399,12.296940803527832,282,6638.0,-4.174233436584473,5,9983.0
8420,0.17675521969795227,13.215377807617188,265,6638.0,0.7838909029960632,102,9983.0
8430,0.1759517937898636,12.578690528869629,180,6638.0,6.331758499145508,12,9983.0
8440,0.17563427984714508,8.553753852844238,133,6638.0,8.543617248535156,245,9983.0
8450,0.17526628077030182,4.25543737411499,-1,6638.0,11.402188301086426,161,9983.0
8460,0.17506322264671326,0.017581677064299583,45,6638.0,15.465836524963379,343,9983.0
8470,0.17515511810779572,2.2173876762390137,32,6638.0,17.542604446411133,232,9983.0
8480,0.1751122772693634,7.823798179626465,198,6638.0,12.368340492248535,214,9983.0
8490,0.1746210902929306,11.368339538574219,207,6638.0,8.89011287689209,10,9983.0
8500,0.1746956706047058,14.443840026855469,275,6638.0,1.9016839265823364,74,9983.0
8510,0.17428182065486908,10.113363265991211,101,6638.0,2.148747444152832,-56,9983.0
8520,0.17483165860176086,3.46077561378479,70,6638.0,0.10191545635461807,74,9983.0
8530,0.17439419031143188,-2.84382963180542,-124,6638.0,-2.6317288875579834,-151,9983.0
8540,0.17353007197380066,-9.355324745178223,-79,6638.0,-3.653557062149048,-51,9983.0
8550,0.17341402173042297,-11.212408065795898,-275,6638.0,-4.3973517417907715,-175,9983.0
8560,0.17227740585803986,-11.926985740661621,-146,6638.0,-5.013881206512451,-14,9983.0
8570,0.1718788892030716,-9.108393669128418,-218,6638.0,-5.350979804992676,-197,9983.0
8580,0.17170046269893646,-6.713356018066406,-19,6638.0,-7.11385440826416,-34,9983.0
8590,0.17143438756465912,-2.177380323410034,-106,6638.0,-7.492301940917969,-187,9983.0
8600,0.17100445926189423,0.5997822284698486,114,6638.0,-5.178926944732666,20,9983.0
8610,0.17107988893985748,3.2952215671539307,59,6638.0,2.1585209369659424,-38,9983.0
8620,0.17049288749694824,5.746319770812988,136,6638.0,6.382559776306152,151,9983.0
8630,0.17003142833709717,4.580011367797852,55,6638.0,12.441246032714844,148,9983.0
8640,0.170350581407547,1.4735596179962158,40,6638.0,19.94108772277832,439,9983.0
8650,0.17344599962234497,-0.9178438186645508,-56,6638.0,24.067485809326172,374,9983.0
8660,0.1734364926815033,-0.9157389402389526,9,6638.0,21.494626998901367,468,9983.0
8670,0.17251229286193848,-1.8014411926269531,-75,6638.0,20.671459197998047,274,9983.0
8680,0.17290140688419342,-1.3601219654083252,-8,6638.0,18.99349594116211,265,9983.0
8690,0.17386727035045624,-2.409780502319336,-3,6638.0,18.129480361938477,246,9983.0
8700,0.178823322057724,-0.4087368845939636,-67,6638.0,10.024179458618164,101,9983.0
8710,0.17898984253406525,-1.0189969539642334,31,6638.0,6.000317096710205,129,9983.0
8720,0.1804482489824295,-0.3482031524181366,-74,6638.0,3.2835826873779297,23,9983.0
8730,0.1813526749610901,1.886411428451538,56,6638.0,2.23149037361145,133,9983.0
8740,0.18229392170906067,1.5843312740325928,-3,6638.0,3.0739777088165283,25,9983.0
8750,0.18235956132411957,3.1592838764190674,88,6638.0,-1.0312775373458862,26,9983.0
8760,0.18409618735313416,5.960540771484375,159,6638.0,-1.5127763748168945,15,9983.0
8770,0.18532155454158783,7.830050468444824,169,6638.0,-1.0651336908340454,61,9983.0
8780,0.18610727787017822,8.819466590881348,193,6638.0,1.0917044878005981,32,9983.0
8790,0.18688035011291504,7.79481315612793,143,6638.0,5.5075178146362305,256,9983.0
8800,0.18775059282779694,6.236126899719238,115,6638.0,15.816445350646973,389,9983.0
8810,0.1894492655992508,1.0830440521240234,-24,6638.0,27.512788772583008,609,9983.0
8820,0.19040313363075256,-3.1434133052825928,-48,6638.0,37.693634033203125,702,9983.0
8830,0.1883104294538498,-7.1285529136657715,-112,6638.0,37.256343841552734,628,9983.0
8840,0.18894676864147186,-5.362386226654053,-3,6638.0,26.44582748413086,438,9983.0
8850,0.1892632246017456,-1.672197699546814,-37,6638.0,12.785073280334473,189,9983.0
8860,0.1900896430015564,1.156934380531311,50,6638.0,-1.5338853597640991,-4,9983.0
8870,0.18820104002952576,3.163220167160034,-1,6638.0,-14.701854705810547,-384,9983.0
8880,0.18810822069644928,2.6117451190948486,88,6638.0,-23.370956420898438,-326,9983.0
8890,0.18819543719291687,0.030171513557434082,-15,6638.0,-25.55840492248535,-550,9983.0
8900,0.1886497586965561,-1.5355664491653442,-21,6638.0,-21.911420822143555,-266,9983.0
8910,0.18847572803497314,-2.088216543197632,-49,6638.0,-12.758252143859863,-211,9983.0
8920,0.1830960512161255,-0.7544945478439331,-30,6638.0,-5.586197376251221,63,9983.0
8930,0.18306364119052887,0.7012286186218262,12,6638.0,2.600768804550171,19,9983.0
8940,0.18302588164806366,3.4064111709594727,42,6638.0,6.832263946533203,202,9983.0
8950,0.18292959034442902,6.7209906578063965,125,6638.0,10.559885025024414,155,9983.0
8960,0.18174690008163452,6.938140392303467,92,6638.0,13.525237083435059,234,9983.0
8970,0.1816660463809967,5.625455379486084,115,6638.0,17.04307746887207,291,9983.0
8980,0.1816980540752411,3.1947743892669678,-6,6638.0,16.530536651611328,170,9983.0
8990,0.18177028000354767,3.0114290714263916,115,6638.0,14.065903663635254,219,9983.0
9000,0.18097224831581116,6.386252403259277,162,6638.0,5.30819845199585,-8,9983.0
9010,0.18109259009361267,9.097700119018555,111,6638.0,-6.351846218109131,-141,9983.0
9020,0.18113812804222107,7.725457668304443,112,6638.0,-14.130949974060059,-171,9983.0
9030,0.18110522627830505,1.3907760381698608,9,6638.0,-22.976476669311523,-456,9983.0
9040,0.1809072494506836,-0.2642098665237427,-6,6638.0,-23.693151473999023,-322,9983.0
9050,0.17836272716522217,-1.6013672351837158,-24,6638.0,-21.990530014038086,-358,9983.0
9060,0.17794835567474365,-4.061132431030273,-127,6638.0,-15.463472366333008,-142,9983.0
9070,0.17755980789661407,-6.459668159484863,-60,6638.0,-5.503701686859131,-14,9983.0
9080,0.17725160717964172,-8.070040702819824,-191,6638.0,2.4555087089538574,48,9983.0
9090,0.1765744984149933,-7.719632625579834,-62,6638.0,7.870290756225586,204,9983.0
9100,0.17616932094097137,-5.383145809173584,-119,6638.0,11.820954322814941,56,9983.0
9110,0.17571187019348145,-6.634089469909668,-97,6638.0,9.316729545593262,255,9983.0
9120,0.1751183122396469,-3.420773506164551,-30,6638.0,7.8768815994262695,141,9983.0
9130,0.17569082975387573,-2.0175673961639404,-95,6638.0,3.7433831691741943,-4,9983.0
9140,0.17664209008216858,-1.826614499092102,31,6638.0,-1.1840496063232422,84,9983.0
9150,0.1769220381975174,0.771485447883606,102,6638.0,-2.288461685180664,-52,9983.0
9160,0.1772119253873825,5.125607967376709,39,6638.0,2.5648465156555176,73,9983.0
9170,0.1775132417678833,7.973212242126465,132,6638.0,8.863314628601074,234,9983.0
9180,0.17827998101711273,10.075240135192871,95,6638.0,19.210725784301758,294,9983.0
9190,0.17876729369163513,6.547387599945068,93,6638.0,25.537696838378906,577,9983.0
9200,0.17918993532657623,-2.688002824783325,-121,6638.0,26.829742431640625,415,9983.0
9210,0.17968644201755524,-4.369087219238281,-63,6638.0,23.416839599609375,393,9983.0
9220,0.1828273981809616,-9.587593078613281,-167,6638.0,19.51593017578125,318,9983.0
9230,0.18362313508987427,-13.473844528198242,-325,6638.0,11.579277038574219,112,9983.0
9240,0.1840323954820633,-16.481849670410156,-188,6638.0,0.5102947950363159,-3,9983.0
9250,0.1844499707221985,-11.925366401672363,-215,6638.0,-12.25936222076416,-329,9983.0
9260,0.18488191068172455,-4.825461387634277,-55,6638.0,-22.148332595825195,-418,9983.0
9270,0.18659548461437225,0.6407009363174438,77,6638.0,-27.93647003173828,-472,9983.0
9280,0.18683408200740814,3.412544012069702,42,6638.0,-27.796518325805664,-487,9983.0
9290,0.18705683946609497,3.927211284637451,72,6638.0,-26.268653869628906,-324,9983.0
9300,0.18733736872673035,5.00943660736084,52,6638.0,-20.282119750976562,-373,9983.0
9310,0.18895933032035828,6.945545196533203,168,6638.0,-9.63824462890625,-56,9983.0
9320,0.18968476355075836,5.93698787689209,66,6638.0,5.9357099533081055,84,9983.0
9330,0.1904820054769516,2.3671438694000244,-15,6638.0,21.80766487121582,564,9983.0
9340,0.19130489230155945,-11.178110122680664,-240,6638.0,33.557273864746094,532,9983.0
9350,0.19193100929260254,-23.907365798950195,-448,6638.0,38.758453369140625,703,9983.0
9360,0.1936320960521698,-28.921249389648438,-434,6638.0,37.95967102050781,512,9983.0
9370,0.19528736174106598,-30.5747127532959,-559,6638.0,27.661203384399414,374,9983.0
9380,0.19665905833244324,-31.852415084838867,-495,6638.0,15.762640953063965,102,9983.0
9390,0.19788536429405212,-27.84575080871582,-423,6638.0,10.442168235778809,190,9983.0
9400,0.20024177432060242,-16.616405487060547,-243,6638.0,-0.15493839979171753,-176,9983.0
9410,0.2015991061925888,-5.941688060760498,-12,6638.0,-14.664078712463379,-440,9983.0
9420,0.20249809324741364,1.2380328178405762,54,6638.0,-27.279659271240234,-456,9983.0
9430,0.2032838761806488,7.544815540313721,194,6638.0,-35.82306671142578,-567,9983.0
9440,0.20533862709999084,16.85122299194336,306,6638.0,-38.87497329711914,-669,9983.0
9450,0.20653136074543,24.174217224121094,373,6638.0,-30.2056884765625,-441,9983.0
9460,0.20758220553398132,24.130762100219727,487,6638.0,-17.17464256286621,-155,9983.0
9470,0.20875078439712524,20.30747413635254,236,6638.0,-5.021353721618652,-161,9983.0
9480,0.20979821681976318,12.005087852478027,139,6638.0,-2.80143666267395,40,9983.0
9490,0.21157120168209076,2.723235607147217,20,6638.0,-1.0273853540420532,-98,9983.0
9500,0.21291351318359375,-0.9315841794013977,-72,6638.0,-0.026571406051516533,113,9983.0
9510,0.214277446269989,6.67553186416626,186,6638.0,7.255998134613037,170,9983.0
9520,0.21560785174369812,27.783599853515625,464,6638.0,20.707923889160156,456,9983.0
9530,0.21638143062591553,30.955753326416016,578,6638.0,32.470314025878906,465,9983.0
9540,0.21777591109275818,20.278018951416016,197,6638.0,43.81755447387695,767,9983.0
9550,0.2188340127468109,2.061211585998535,23,6638.0,55.155635833740234,857,9983.0
9560,0.22009894251823425,-9.368391036987305,-236,6638.0,46.205047607421875,769,9983.0
9570,0.22105970978736877,-18.729084014892578,-267,6638.0,22.60460090637207,323,9983.0
9580,0.2218664437532425,-19.784547805786133,-373,6638.0,-1.788262963294983,-99,9983.0
9590,0.22233262658119202,-21.300514221191406,-276,6638.0,-20.717456817626953,-441,9983.0
9600,0.22294628620147705,-23.805810928344727,-466,6638.0,-31.149986267089844,-552,9983.0
9610,0.2231825590133667,-32.2526741027832,-502,6638.0,-25.303003311157227,-387,9983.0
9620,0.22160185873508453,-41.258094787597656,-757,6638.0,-17.261259078979492,-265,9983.0
9630,0.22177797555923462,-35.78684997558594,-466,6638.0,-16.375720977783203,-226,9983.0
9640,0.22161030769348145,-22.11358642578125,-352,6638.0,-12.191119194030762,-185,9983.0
9650,0.22161954641342163,-5.257676124572754,48,6638.0,2.1928532123565674,251,9983.0
9660,0.22372634708881378,17.815532684326172,353,6638.0,13.953396797180176,265,9983.0
9670,0.22419671714305878,36.29254150390625,652,6638.0,16.57662582397461,339,9983.0
9680,0.22481133043766022,46.625465393066406,814,6638.0,20.64617347717285,336,9983.0
9690,0.2249046117067337,48.476722717285156,738,6638.0,20.451120376586914,387,9983.0
9700,0.22488416731357574,39.376617431640625,613,6638.0,21.854951858520508,334,9983.0
9710,0.2222055196762085,30.532054901123047,363,6638.0,22.29834747314453,268,9983.0
9720,0.22234587371349335,17.7565860748291,244,6638.0,19.366867065429688,287,9983.0
9730,0.22378329932689667,2.8197548389434814,-95,6638.0,13.416259765625,223,9983.0
9740,0.22612842917442322,-15.053030014038086,-320,6638.0,6.257485866546631,2,9983.0
9750,0.22727836668491364,-32.63902282714844,-652,6638.0,-3.6227259635925293,-88,9983.0
9760,0.22754336893558502,-44.18315505981445,-665,6638.0,-10.843985557556152,-161,9983.0
9770,0.22771602869033813,-42.151878356933594,-663,6638.0,-21.514896392822266,-455,9983.0
9780,0.2285962998867035,-25.404129028320312,-253,6638.0,-37.70545196533203,-633,9983.0
9790,0.22598896920681,-8.39164924621582,-52,6638.0,-53.84541702270508,-976,9983.0
9800,0.22597293555736542,0.814132034778595,-7,6638.0,-61.44139862060547,-915,9983.0
9810,0.22578327357769012,-5.043234825134277,-187,6638.0,-46.82392120361328,-618,9983.0
9820,0.2272651344537735,-13.847567558288574,-219,6638.0,-30.217557907104492,-256,9983.0
9830,0.22759027779102325,-14.720170974731445,-332,6638.0,-6.84292459487915,-27,9983.0
9840,0.2298494279384613,-11.62632942199707,-79,6638.0,8.063508033752441,345,9983.0
9850,0.23094095289707184,-3.555148124694824,-41,6638.0,22.553199768066406,324,9983.0
9860,0.23172792792320251,9.053894996643066,231,6638.0,31.944499969482422,587,9983.0
9870,0.2328738421201706,17.915658950805664,247,6638.0,36.151790618896484,547,9983.0
9880,0.23162941634655,17.829593658447266,323,6638.0,33.37773513793945,587,9983.0
9890,0.23263432085514069,8.858414649963379,73,6638.0,29.478376388549805,413,9983.0
9900,0.23404012620449066,-3.2555453777313232,-68,6638.0,19.792985916137695,190,9983.0
9910,0.23516567051410675,-9.662932395935059,-203,6638.0,7.467694282531738,83,9983.0
9920,0.23620253801345825,-12.744800567626953,-215,6638.0,-3.228997230529785,-15,9983.0
9930,0.2386622130870819,-7.68942403793335,-33,6638.0,-10.772577285766602,-140,9983.0
9940,0.2396886944770813,0.5021693706512451,-4,6638.0,-12.586264610290527,-286,9983.0
9950,0.24063803255558014,7.990472316741943,202,6638.0,-20.83323860168457,-353,9983.0
9960,0.24147039651870728,9.318497657775879,126,6638.0,-20.14484214782715,-419,9983.0
9970,0.24102076888084412,14.181282043457031,277,6638.0,-14.193757057189941,-155,9983.0
9980,0.2420838177204132,15.467877388000488,216,6638.0,-8.466976165771484,-69,9983.0
9990,0.2431262731552124,12.864571571350098,225,6638.0,-1.1840293407440186,-105,9983.0
10000,0.24424241483211517,10.178861618041992,113,6638.0,4.240072250366211,239,9983.0
10010,0.243382528424263,1.5174318552017212,-36,6638.0,17.638723373413086,244,9983.0
10020,0.2442770153284073,-3.890465021133423,-45,6638.0,21.015527725219727,380,9983.0
10030,0.2454884648323059,-2.185321092605591,-76,6638.0,17.55770492553711,304,9983.0
10040,0.2467200756072998,-0.26724952459335327,23,6638.0,7.842151165008545,33,9983.0
10050,0.24816584587097168,-4.285816192626953,-127,6638.0,3.577252149581909,181,9983.0
10060,0.2489895075559616,-13.829022407531738,-322,6638.0,14.887234687805176,246,9983.0
10070,0.2504807412624359,-23.662904739379883,-372,6638.0,26.798553466796875,563,9983.0
10080,0.2518826425075531,-18.547775268554688,-226,6638.0,32.466758728027344,489,9983.0
10090,0.25309059023857117,-1.910929560661316,82,6638.0,26.18653678894043,399,9983.0
10100,0.2545052170753479,14.461240768432617,243,6638.0,11.91026782989502,106,9983.0
10110,0.255341500043869,24.778440475463867,476,6638.0,-1.8382093906402588,8,9983.0
10120,0.2559215724468231,28.306121826171875,470,6638.0,-6.384636878967285,-153,9983.0
10130,0.25645866990089417,28.739089965820312,524,6638.0,-6.997596263885498,-71,9983.0
10140,0.2580925226211548,23.3106689453125,254,6638.0,-9.21357250213623,-120,9983.0
10150,0.2588748633861542,11.560991287231445,175,6638.0,-9.218459129333496,-157,9983.0
10160,0.2591366469860077,-1.4950960874557495,-142,6638.0,-7.150514125823975,-12,9983.0
10170,0.2596631646156311,-10.778441429138184,-186,6638.0,-5.418519496917725,-119,9983.0
10180,0.2601816952228546,-17.007673263549805,-273,6638.0,-2.7147393226623535,-14,9983.0
10190,0.26107850670814514,-19.407470703125,-335,6638.0,-0.14944857358932495,-66,9983.0
10200,0.26149502396583557,-18.452510833740234,-275,6638.0,-3.032087802886963,-29,9983.0
10210,0.26195940375328064,-16.455442428588867,-276,6638.0,-11.104429244995117,-257,9983.0
10220,0.2625713348388672,-11.315184593200684,-94,6638.0,-19.716161727905273,-312,9983.0
10230,0.2614839971065521,-1.26735258102417,-22,6638.0,-20.745798110961914,-341,9983.0
10240,0.2620387077331543,13.804819107055664,374,6638.0,-10.338479995727539,-52,9983.0
10250,0.2624928951263428,32.69607925415039,510,6638.0,4.692853927612305,166,9983.0
10260,0.2628454864025116,36.954341888427734,644,6638.0,15.118865013122559,225,9983.0
10270,0.26362720131874084,19.87154769897461,239,6638.0,22.225177764892578,478,9983.0
10280,0.2633468806743622,2.3509883880615234,-48,6638.0,20.14774513244629,150,9983.0
10290,0.26402032375335693,-19.915861129760742,-423,6638.0,5.266634464263916,45,9983.0
10300,0.264696329832077,-49.62667465209961,-929,6638.0,-6.077951908111572,-118,9983.0
10310,0.26498380303382874,-67.09126281738281,-1110,6638.0,-12.54123592376709,-236,9983.0
10320,0.2658015489578247,-70.69684600830078,-1166,6638.0,-15.480428695678711,-385,9983.0
10330,0.2660370469093323,-59.15281295776367,-836,6638.0,-23.311161041259766,-382,9983.0
10340,0.2661832869052887,-39.95309829711914,-557,6638.0,-30.730968475341797,-605,9983.0
10350,0.26723513007164,-16.729154586791992,-161,6638.0,-34.3616828918457,-430,9983.0
10360,0.26682379841804504,6.299802303314209,221,6638.0,-32.0570182800293,-606,9983.0
10370,0.26752787828445435,24.817813873291016,461,6638.0,-31.080780029296875,-450,9983.0
10380,0.26808732748031616,39.11380386352539,685,6638.0,-26.703638076782227,-463,9983.0
10390,0.2693324089050293,40.81449890136719,698,6638.0,-17.298397064208984,-167,9983.0
10400,0.27041712403297424,45.547630310058594,710,6638.0,-1.6925015449523926,-3,9983.0
10410,0.2708563208580017,46.20249938964844,768,6638.0,13.026070594787598,413,9983.0
10420,0.2722012996673584,45.06669235229492,680,6638.0,28.899259567260742,630,9983.0
10430,0.2730678617954254,32.75679016113281,393,6638.0,47.252593994140625,794,9983.0
10440,0.27446669340133667,5.728137969970703,-42,6638.0,53.23361587524414,839,9983.0
10450,0.276212602853775,-27.795127868652344,-674,6638.0,46.29241943359375,679,9983.0
10460,0.2776130437850952,-51.14780807495117,-833,6638.0,33.856536865234375,433,9983.0
10470,0.2790392339229584,-51.60292053222656,-837,6638.0,12.770769119262695,126,9983.0
10480,0.27996355295181274,-37.936134338378906,-423,6638.0,-8.852442741394043,-319,9983.0
10490,0.280902236700058,-20.414457321166992,-273,6638.0,-20.237667083740234,-385,9983.0
10500,0.2817564308643341,-5.949406147003174,-62,6638.0,-24.0422420501709,-356,9983.0
10510,0.2823277413845062,4.144381999969482,107,6638.0,-24.664369583129883,-460,9983.0
10520,0.28310760855674744,12.056963920593262,255,6638.0,-28.23076629638672,-490,9983.0
10530,0.2837965190410614,20.863134384155273,423,6638.0,-27.795574188232422,-423,9983.0
10540,0.28520405292510986,26.24062728881836,354,6638.0,-29.05931282043457,-572,9983.0
10550,0.28613170981407166,27.343807220458984,469,6638.0,-29.646100997924805,-424,9983.0
10560,0.2872700095176697,26.46169662475586,430,6638.0,-23.87327003479004,-268,9983.0
10570,0.2883601784706116,23.776103973388672,318,6638.0,-6.506434440612793,15,9983.0
10580,0.2901019752025604,17.250497817993164,278,6638.0,8.42516040802002,102,9983.0
10590,0.2912789285182953,10.566134452819824,218,6638.0,19.144683837890625,306,9983.0
10600,0.2924567461013794,1.375949501991272,-15,6638.0,30.241046905517578,598,9983.0
10610,0.2936908006668091,-13.79167366027832,-439,6638.0,37.77583312988281,743,9983.0
10620,0.2948351204395294,-40.35926055908203,-763,6638.0,45.274688720703125,702,9983.0
10630,0.2954813241958618,-54.04928207397461,-847,6638.0,52.24647521972656,950,9983.0
10640,0.29685211181640625,-52.2787971496582,-845,6638.0,53.33662414550781,767,9983.0
10650,0.29756712913513184,-37.174259185791016,-497,6638.0,33.61956024169922,493,9983.0
10660,0.298209547996521,-17.070148468017578,-208,6638.0,5.750698566436768,-144,9983.0
10670,0.2995269298553467,7.306525230407715,278,6638.0,-29.560104370117188,-561,9983.0
10680,0.30043068528175354,26.543668746948242,473,6638.0,-55.863155364990234,-1105,9983.0
10690,0.3016165792942047,29.097326278686523,465,6638.0,-76.14652252197266,-1281,9983.0
10700,0.30228763818740845,23.702075958251953,341,6638.0,-90.37004089355469,-1519,9983.0
10710,0.3030701279640198,24.85436248779297,488,6638.0,-92.55248260498047,-1522,9983.0
10720,0.3046708405017853,32.9166259765625,625,6638.0,-75.04637908935547,-1073,9983.0
10730,0.305730402469635,36.127166748046875,589,6638.0,-41.37971496582031,-509,9983.0
10740,0.3067024052143097,37.20920944213867,540,6638.0,-0.8443225026130676,259,9983.0
10750,0.307620108127594,19.09454917907715,90,6638.0,49.07099151611328,1096,9983.0
10760,0.30677974224090576,-12.752847671508789,-470,6638.0,78.61289978027344,1414,9983.0
10770,0.30803772807121277,-52.477294921875,-1092,6638.0,76.81322479248047,1180,9983.0
10780,0.3092113137245178,-85.6855239868164,-1435,6638.0,60.34690856933594,832,9983.0
10790,0.3102225959300995,-97.32205963134766,-1544,6638.0,35.11174392700195,522,9983.0
10800,0.3096292316913605,-79.4393539428711,-1071,6638.0,8.785947799682617,-31,9983.0
10810,0.3103381395339966,-43.199092864990234,-549,6638.0,-21.090429306030273,-403,9983.0
10820,0.3116704821586609,-4.859302997589111,122,6638.0,-43.68735885620117,-735,9983.0
10830,0.3128453493118286,25.81861114501953,473,6638.0,-51.75217819213867,-948,9983.0
10840,0.3141467571258545,44.606300354003906,806,6638.0,-49.46971130371094,-690,9983.0
10850,0.3134305477142334,53.59125900268555,840,6638.0,-42.59217834472656,-636,9983.0
10860,0.314368337392807,49.9331169128418,840,6638.0,-33.6638298034668,-549,9983.0
10870,0.3154688775539398,38.96240234375,568,6638.0,-18.404430389404297,-90,9983.0
10880,0.31693488359451294,30.257966995239258,394,6638.0,8.628287315368652,299,9983.0
10890,0.31649306416511536,20.329076766967773,311,6638.0,35.026451110839844,607,9983.0
10900,0.3176562786102295,4.728183746337891,77,6638.0,61.276729583740234,1184,9983.0
10910,0.3187173008918762,4.621209621429443,13,6638.0,76.73749542236328,1343,9983.0
10920,0.3201354146003723,6.083511829376221,126,6638.0,68.40166473388672,954,9983.0
10930,0.32066449522972107,1.7334409952163696,-14,6638.0,51.71921157836914,840,9983.0
10940,0.32170620560646057,-6.476199150085449,-108,6638.0,29.75804328918457,335,9983.0
10950,0.3226867616176605,-6.886457443237305,-87,6638.0,10.491808891296387,193,9983.0
10960,0.32368507981300354,-3.523876667022705,-21,6638.0,-7.549635410308838,-270,9983.0
10970,0.3247135579586029,7.896045684814453,165,6638.0,-29.690196990966797,-558,9983.0
10980,0.32644012570381165,16.65806007385254,289,6638.0,-50.32410430908203,-963,9983.0
10990,0.3271838426589966,15.99878215789795,319,6638.0,-59.39944839477539,-910,9983.0
11000,0.32767853140830994,16.14491844177246,202,6638.0,-56.77521514892578,-898,9983.0
11010,0.32836997509002686,12.319777488708496,224,6638.0,-44.75867462158203,-684,9983.0
11020,0.32722288370132446,10.436802864074707,197,6638.0,-20.1750545501709,-161,9983.0
11030,0.32746967673301697,11.072105407714844,130,6638.0,2.91389799118042,175,9983.0
11040,0.3279244005680084,10.428610801696777,182,6638.0,15.719106674194336,192,9983.0
11050,0.32830360531806946,12.104464530944824,251,6638.0,22.469810485839844,376,9983.0
11060,0.3286101520061493,9.855098724365234,143,6638.0,30.247373580932617,615,9983.0
11070,0.32792532444000244,8.941007614135742,110,6638.0,41.047821044921875,617,9983.0
11080,0.32844436168670654,6.048840045928955,144,6638.0,34.59260177612305,589,9983.0
11090,0.32906949520111084,8.51435375213623,89,6638.0,21.272815704345703,236,9983.0
11100,0.32969096302986145,9.337250709533691,228,6638.0,3.4992003440856934,31,9983.0
11110,0.3311157822608948,10.193741798400879,88,6638.0,-9.59772777557373,-157,9983.0
11120,0.3317646086215973,4.158173561096191,55,6638.0,-16.097248077392578,-360,9983.0
11130,0.33223971724510193,-6.437326908111572,-130,6638.0,-22.145708084106445,-345,9983.0
11140,0.33291783928871155,-20.748994827270508,-443,6638.0,-28.809486389160156,-589,9983.0
11150,0.33487340807914734,-28.924720764160156,-488,6638.0,-33.983821868896484,-544,9983.0
11160,0.3353378176689148,-31.13672637939453,-496,6638.0,-42.81465148925781,-698,9983.0
11170,0.3359990417957306,-23.578054428100586,-357,6638.0,-38.34176254272461,-589,9983.0
11180,0.33647480607032776,-11.060139656066895,-51,6638.0,-25.970605850219727,-275,9983.0
11190,0.33708858489990234,-0.1800803542137146,-89,6638.0,-13.462695121765137,-170,9983.0
11200,0.3374025523662567,-1.8182624578475952,44,6638.0,-2.8443427085876465,77,9983.0
11210,0.33831244707107544,-2.1948421001434326,-29,6638.0,2.560335397720337,21,9983.0
11220,0.33941030502319336,-2.0995593070983887,-59,6638.0,7.7994794845581055,145,9983.0
11230,0.34049883484840393,-4.125617980957031,-66,6638.0,14.453542709350586,298,9983.0
11240,0.3417433798313141,-8.532609939575195,-217,6638.0,23.901439666748047,387,9983.0
11250,0.3429981768131256,-7.899209499359131,-24,6638.0,27.167848587036133,469,9983.0
11260,0.3440987169742584,5.983349800109863,149,6638.0,29.727933883666992,384,9983.0
11270,0.34531766176223755,23.7434024810791,500,6638.0,25.91307830810547,492,9983.0
11280,0.3462294042110443,38.92878723144531,606,6638.0,11.23774528503418,79,9983.0
11290,0.3462359309196472,42.45347213745117,702,6638.0,-4.870884895324707,-43,9983.0
11300,0.34716054797172546,34.591896057128906,528,6638.0,-14.794357299804688,-439,9983.0
11310,0.34819066524505615,24.248193740844727,353,6638.0,-33.054622650146484,-552,9983.0
11320,0.348984956741333,4.650859355926514,-77,6638.0,-42.477783203125,-638,9983.0
11330,0.3507711589336395,-11.967970848083496,-212,6638.0,-36.66716384887695,-673,9983.0
11340,0.35177573561668396,-17.030689239501953,-215,6638.0,-27.501312255859375,-306,9983.0
11350,0.35276639461517334,-13.342024803161621,-271,6638.0,-11.787788391113281,-56,9983.0
11360,0.3538070321083069,-4.778299331665039,10,6638.0,8.528759002685547,138,9983.0
11370,0.3533916473388672,7.243270397186279,168,6638.0,23.794036865234375,550,9983.0
11380,0.3543981909751892,4.43626070022583,-62,6638.0,33.29156494140625,657,9983.0
11390,0.35552671551704407,-12.403861999511719,-230,6638.0,35.283905029296875,495,9983.0
11400,0.3567473590373993,-27.709592819213867,-471,6638.0,28.0323486328125,515,9983.0
11410,0.35773205757141113,-34.0040283203125,-592,6638.0,11.524951934814453,35,9983.0
11420,0.35830163955688477,-33.0583610534668,-452,6638.0,-5.9735798835754395,-150,9983.0
11430,0.359506219625473,-23.69496726989746,-366,6638.0,-21.384267807006836,-465,9983.0
11440,0.36047157645225525,-8.398764610290527,3,6638.0,-21.57358741760254,-245,9983.0
11450,0.36155644059181213,12.200138092041016,208,6638.0,-13.5874605178833,-202,9983.0
11460,0.3590660095214844,22.94474220275879,501,6638.0,-5.78073787689209,-67,9983.0
11470,0.35968101024627686,26.054954528808594,376,6638.0,5.741130828857422,205,9983.0
11480,0.36020055413246155,19.286653518676758,278,6638.0,18.711139678955078,215,9983.0
11490,0.3606909215450287,6.251805305480957,20,6638.0,22.186613082885742,436,9983.0
11500,0.361042857170105,-10.387391090393066,-309,6638.0,24.740156173706055,401,9983.0
11510,0.3625623881816864,-22.390457153320312,-338,6638.0,19.270292282104492,298,9983.0
11520,0.362760454416275,-27.09077262878418,-509,6638.0,9.5769624710083,48,9983.0
11530,0.3631315231323242,-24.22641372680664,-350,6638.0,-10.573409080505371,-186,9983.0
11540,0.3634759187698364,-19.440065383911133,-389,6638.0,-27.758852005004883,-489,9983.0
11550,0.3646937906742096,-15.44679069519043,-175,6638.0,-31.58869171142578,-523,9983.0
11560,0.3648858368396759,-12.841401100158691,-245,6638.0,-25.39095115661621,-427,9983.0
11570,0.3651459515094757,-11.69534969329834,-163,6638.0,-23.91090202331543,-354,9983.0
11580,0.3654651939868927,-12.347262382507324,-219,6638.0,-19.59471321105957,-285,9983.0
11590,0.36655303835868835,-12.541253089904785,-173,6638.0,-11.924243927001953,-214,9983.0
11600,0.36688652634620667,-8.977704048156738,-135,6638.0,3.18558406829834,232,9983.0
11610,0.3673434257507324,-0.942171573638916,54,6638.0,19.943449020385742,295,9983.0
11620,0.3677719235420227,7.349509239196777,137,6638.0,26.980838775634766,577,9983.0
11630,0.36816540360450745,10.342514991760254,164,6638.0,36.51689147949219,644,9983.0
11640,0.3684541583061218,19.90717887878418,460,6638.0,41.44736099243164,697,9983.0
11650,0.3686826527118683,25.789669036865234,345,6638.0,36.030155181884766,350,9983.0
11660,0.36914825439453125,19.83806800842285,329,6638.0,13.138507843017578,178,9983.0
11670,0.36957016587257385,12.813109397888184,110,6638.0,-2.5137462615966797,-159,9983.0
11680,0.371218204498291,8.70997142791748,186,6638.0,-13.694406509399414,-299,9983.0
11690,0.3717121481895447,5.730884075164795,-10,6638.0,-22.956134796142578,-330,9983.0
11700,0.3721013069152832,0.622691810131073,-13,6638.0,-24.680761337280273,-442,9983.0
11710,0.3724978566169739,-3.1683995723724365,7,6638.0,-28.55988121032715,-513,9983.0
11720,0.3729293942451477,0.9541844725608826,67,6638.0,-33.5639762878418,-565,9983.0
11730,0.3736947774887085,12.643080711364746,239,6638.0,-36.016998291015625,-639,9983.0
11740,0.3740820288658142,18.935199737548828,354,6638.0,-30.821420669555664,-429,9983.0
11750,0.37462669610977173,11.285185813903809,150,6638.0,-16.018798828125,-49,9983.0
11760,0.3753099739551544,-10.172598838806152,-255,6638.0,2.777775526046753,195,9983.0
11770,0.37624692916870117,-31.10594940185547,-642,6638.0,19.78135871887207,390,9983.0
11780,0.37719520926475525,-43.648109436035156,-737,6638.0,29.47813606262207,441,9983.0
11790,0.37816381454467773,-44.106746673583984,-656,6638.0,35.049896240234375,545,9983.0
11800,0.37928810715675354,-32.29524230957031,-413,6638.0,34.48918914794922,624,9983.0
11810,0.3802144527435303,-14.63250732421875,-217,6638.0,35.851173400878906,492,9983.0
11820,0.38129615783691406,2.4300973415374756,150,6638.0,29.667753219604492,423,9983.0
11830,0.38245105743408203,15.636468887329102,301,6638.0,15.418623924255371,149,9983.0
11840,0.3836047947406769,24.261674880981445,349,6638.0,1.0138599872589111,-154,9983.0
11850,0.38470974564552307,24.900970458984375,406,6638.0,-7.00538444519043,-114,9983.0
11860,0.3840830624103546,16.522184371948242,217,6638.0,-8.3862943649292,2,9983.0
11870,0.38480493426322937,10.686641693115234,122,6638.0,-0.5956203937530518,43,9983.0
11880,0.38537320494651794,6.68526554107666,98,6638.0,5.899265766143799,2,9983.0
11890,0.3859124481678009,2.1365654468536377,53,6638.0,10.523215293884277,88,9983.0
11900,0.3862069845199585,-5.02843713760376,-78,6638.0,11.190205574035645,217,9983.0
11910,0.38659241795539856,-11.709060668945312,-228,6638.0,5.435362815856934,150,9983.0
11920,0.3868550956249237,-17.36577033996582,-372,6638.0,-6.463150501251221,-145,9983.0
11930,0.38705864548683167,-31.52579689025879,-496,6638.0,-15.085321426391602,-237,9983.0
11940,0.3871942460536957,-40.772953033447266,-619,6638.0,-10.447721481323242,-141,9983.0
11950,0.3867756128311157,-35.37751770019531,-547,6638.0,-5.93978214263916,-91,9983.0
11960,0.387160986661911,-17.450847625732422,-270,6638.0,-7.093156814575195,-188,9983.0
11970,0.3876306116580963,-1.1330797672271729,137,6638.0,-9.534101486206055,-187,9983.0
11980,0.3882442116737366,13.02876091003418,271,6638.0,-11.09738540649414,-93,9983.0
11990,0.390266478061676,21.747573852539062,337,6638.0,-9.61483097076416,-154,9983.0
12000,0.3908916115760803,28.565629959106445,586,6638.0,2.250307559967041,25,9983.0
12010,0.3914656639099121,43.57655715942383,806,6638.0,11.268447875976562,246,9983.0
12020,0.39192837476730347,47.201995849609375,669,6638.0,16.648513793945312,390,9983.0
12030,0.3926578164100647,32.3437614440918,468,6638.0,16.724647521972656,168,9983.0
12040,0.393250048160553,24.42460823059082,403,6638.0,7.482712268829346,26,9983.0
12050,0.3936474919319153,8.211810111999512,100,6638.0,9.501424789428711,263,9983.0
12060,0.39390286803245544,-8.292282104492188,-264,6638.0,16.35513687133789,426,9983.0
12070,0.39401358366012573,-23.79705047607422,-420,6638.0,20.444618225097656,272,9983.0
12080,0.3940249979496002,-29.549903869628906,-493,6638.0,12.726290702819824,205,9983.0
12090,0.39387255907058716,-28.548870086669922,-509,6638.0,-4.868340492248535,-207,9983.0
12100,0.3936976492404938,-21.568750381469727,-278,6638.0,-24.761436462402344,-473,9983.0
12110,0.3936100900173187,-16.94754981994629,-323,6638.0,-32.01786804199219,-489,9983.0
12120,0.39421963691711426,-10.25782585144043,-44,6638.0,-22.983922958374023,-340,9983.0
12130,0.3941788673400879,2.8635921478271484,91,6638.0,-10.253708839416504,-50,9983.0
12140,0.3941616117954254,21.780052185058594,456,6638.0,-4.278660297393799,-116,9983.0
12150,0.39427250623703003,37.661705017089844,643,6638.0,-0.2678646445274353,68,9983.0
12160,0.39448755979537964,43.52004623413086,758,6638.0,2.0628092288970947,-79,9983.0
12170,0.39653804898262024,41.482635498046875,667,6638.0,-0.7273920178413391,-15,9983.0
12180,0.3970145583152771,31.69765281677246,433,6638.0,-0.3640584349632263,45,9983.0
12190,0.39730483293533325,20.066190719604492,304,6638.0,0.8547154664993286,-21,9983.0
12200,0.39775264263153076,10.181008338928223,185,6638.0,4.677139759063721,120,9983.0
12210,0.39922547340393066,-9.64869499206543,-323,6638.0,6.052272796630859,199,9983.0
12220,0.39953383803367615,-32.03501510620117,-600,6638.0,10.683894157409668,140,9983.0
12230,0.3996846377849579,-39.83647918701172,-563,6638.0,9.282062530517578,202,9983.0
12240,0.3998388648033142,-31.90629005432129,-558,6638.0,6.833372116088867,121,9983.0
12250,0.39906513690948486,-21.56998634338379,-228,6638.0,4.024087905883789,43,9983.0
12260,0.39902463555336,-9.104286193847656,-120,6638.0,-8.622220039367676,-295,9983.0
12270,0.39883923530578613,2.148442268371582,127,6638.0,-32.6942024230957,-685,9983.0
12280,0.39861345291137695,1.1797616481781006,-97,6638.0,-46.35647964477539,-712,9983.0
12290,0.39848172664642334,-2.9722812175750732,29,6638.0,-39.05706787109375,-592,9983.0
12300,0.3997974395751953,5.7903547286987305,111,6638.0,-28.81748390197754,-391,9983.0
12310,0.3998171389102936,10.500262260437012,116,6638.0,-20.794605255126953,-374,9983.0
12320,0.40002691745758057,13.212709426879883,247,6638.0,-19.76323890686035,-279,9983.0
12330,0.40015146136283875,8.68665885925293,143,6638.0,-16.25251579284668,-153,9983.0
12340,0.4025838077068329,7.115523815155029,40,6638.0,-11.745471954345703,-112,9983.0
12350,0.4028453230857849,2.6440207958221436,2,6638.0,-5.929247856140137,-118,9983.0
12360,0.40327244997024536,-6.293949127197266,-129,6638.0,-0.6878430843353271,67,9983.0
12370,0.4036705195903778,-17.39607048034668,-355,6638.0,16.676605224609375,435,9983.0
12380,0.40426936745643616,-21.673730850219727,-377,6638.0,30.867521286010742,481,9983.0
12390,0.4055272936820984,-14.750648498535156,-90,6638.0,35.917091369628906,581,9983.0
12400,0.4062013030052185,-2.9130842685699463,-69,6638.0,35.827579498291016,612,9983.0
12410,0.4068547189235687,4.152751445770264,170,6638.0,32.46767807006836,433,9983.0
12420,0.4074307978153229,8.596419334411621,195,6638.0,25.409934997558594,437,9983.0
12430,0.41146132349967957,12.234720230102539,144,6638.0,13.304767608642578,32,9983.0
12440,0.4121047556400299,13.391934394836426,312,6638.0,-2.263288974761963,-65,9983.0
12450,0.4128170609474182,7.946113586425781,-13,6638.0,-18.56878662109375,-574,9983.0
12460,0.4136510193347931,-7.268121242523193,-153,6638.0,-34.570159912109375,-630,9983.0
12470,0.4150262475013733,-20.293479919433594,-342,6638.0,-40.62401580810547,-576,9983.0
12480,0.4157642722129822,-27.853008270263672,-569,6638.0,-26.413423538208008,-378,9983.0
12490,0.41682153940200806,-29.438613891601562,-405,6638.0,-4.86501932144165,37,9983.0
12500,0.41770702600479126,-15.149070739746094,-134,6638.0,2.551602363586426,101,9983.0
12510,0.4187473654747009,2.3374593257904053,50,6638.0,0.06280770152807236,0,9983.0
12520,0.42113763093948364,9.425265312194824,214,6638.0,-0.40115225315093994,-18,9983.0
12530,0.4223354160785675,10.203633308410645,173,6638.0,-2.9675662517547607,-11,9983.0
12540,0.4234599769115448,13.227418899536133,235,6638.0,-3.6774144172668457,-68,9983.0
12550,0.42457929253578186,22.56901741027832,497,6638.0,-3.7859511375427246,-115,9983.0
12560,0.42565053701400757,33.77217102050781,562,6638.0,-2.7091782093048096,75,9983.0
12570,0.42645376920700073,38.0048713684082,583,6638.0,12.50085163116455,325,9983.0
12580,0.42713820934295654,37.03706741333008,563,6638.0,31.82563591003418,564,9983.0
12590,0.42754217982292175,25.931203842163086,426,6638.0,41.77638626098633,622,9983.0
12600,0.42830079793930054,10.557926177978516,84,6638.0,32.29691696166992,500,9983.0
12610,0.4265381395816803,-3.265195608139038,-170,6638.0,15.075648307800293,245,9983.0
12620,0.4267416298389435,-13.11091136932373,-268,6638.0,-2.8715295791625977,-209,9983.0
12630,0.42683854699134827,-17.007822036743164,-251,6638.0,-16.62972068786621,-331,9983.0
12640,0.42687180638313293,-21.30630111694336,-400,6638.0,-12.161672592163086,-138,9983.0
12650,0.42682501673698425,-26.362316131591797,-463,6638.0,0.8705614805221558,17,9983.0
12660,0.42675939202308655,-26.507055282592773,-349,6638.0,6.887822151184082,75,9983.0
12670,0.4265992343425751,-18.791770935058594,-285,6638.0,4.7270989418029785,149,9983.0
12680,0.4264952540397644,-4.361327171325684,-5,6638.0,-4.3761444091796875,-280,9983.0
12690,0.4274442791938782,14.823221206665039,392,6638.0,-23.66208267211914,-461,9983.0
12700,0.42758774757385254,25.501155853271484,370,6638.0,-32.810089111328125,-478,9983.0
12710,0.4274449944496155,22.94898223876953,396,6638.0,-30.34326934814453,-530,9983.0
12720,0.4272984564304352,18.588247299194336,323,6638.0,-22.588275909423828,-290,9983.0
12730,0.4271804094314575,7.182860374450684,11,6638.0,-5.602710247039795,69,9983.0
12740,0.42659616470336914,-5.303767204284668,-170,6638.0,16.0313720703125,354,9983.0
12750,0.42647305130958557,-10.39249038696289,-121,6638.0,33.0196418762207,517,9983.0
12760,0.42616724967956543,-14.171399116516113,-201,6638.0,40.73234558105469,712,9983.0
12770,0.4256972670555115,-13.213312149047852,-259,6638.0,35.102630615234375,494,9983.0
12780,0.42680779099464417,-12.59645938873291,-194,6638.0,9.939830780029297,3,9983.0
12790,0.42622801661491394,-21.87986946105957,-489,6638.0,-12.984042167663574,-161,9983.0
12800,0.42575493454933167,-34.722599029541016,-601,6638.0,-25.19464683532715,-503,9983.0
12810,0.425341933965683,-32.514366149902344,-470,6638.0,-21.362804412841797,-157,9983.0
12820,0.42488154768943787,-10.269684791564941,-67,6638.0,-4.826128959655762,-117,9983.0
12830,0.4220544993877411,15.804261207580566,364,6638.0,-1.7605326175689697,61,9983.0
12840,0.42169904708862305,34.433021545410156,601,6638.0,-2.0728631019592285,-153,9983.0
12850,0.4213695824146271,35.063514709472656,544,6638.0,-15.1930513381958,-239,9983.0
12860,0.4211505651473999,29.007959365844727,341,6638.0,-26.571380615234375,-456,9983.0
12870,0.421286940574646,17.003116607666016,243,6638.0,-27.529563903808594,-462,9983.0
12880,0.42128056287765503,-1.090494990348816,-70,6638.0,-18.191547393798828,-165,9983.0
12890,0.42124173045158386,-12.254286766052246,-271,6638.0,1.8594597578048706,120,9983.0
12900,0.4212411344051361,-10.36406421661377,-82,6638.0,27.576745986938477,524,9983.0
12910,0.4203682243824005,-5.231075286865234,-135,6638.0,46.3245964050293,851,9983.0
12920,0.42026159167289734,-6.935495853424072,-158,6638.0,58.98393249511719,905,9983.0
12930,0.4199889302253723,-7.547616958618164,-126,6638.0,50.794898986816406,792,9983.0
12940,0.41982555389404297,-4.69382381439209,-38,6638.0,17.773815155029297,15,9983.0
12950,0.4197330176830292,-3.1550652980804443,-67,6638.0,-22.047664642333984,-515,9983.0
12960,0.4199811816215515,-3.7620081901550293,-46,6638.0,-41.54185104370117,-800,9983.0
12970,0.41978365182876587,-6.986854076385498,-143,6638.0,-43.19219970703125,-675,9983.0
12980,0.41965144872665405,-10.876572608947754,-159,6638.0,-24.139175415039062,-385,9983.0
12990,0.4195529520511627,-10.249993324279785,-96,6638.0,-2.1208882331848145,55,9983.0
13000,0.41973546147346497,-0.6905878782272339,-66,6638.0,9.04013729095459,169,9983.0
13010,0.41985344886779785,2.9324543476104736,56,6638.0,9.049715995788574,140,9983.0
13020,0.42001450061798096,2.0857186317443848,-22,6638.0,7.058401107788086,196,9983.0
13030,0.4201936721801758,6.028668403625488,234,6638.0,10.426482200622559,75,9983.0
13040,0.42038896679878235,19.78346824645996,459,6638.0,6.9588117599487305,115,9983.0
13050,0.42162206768989563,40.91510009765625,730,6638.0,1.616067886352539,-75,9983.0
13060,0.421752005815506,44.60676193237305,659,6638.0,-4.470417022705078,37,9983.0
13070,0.4218256175518036,30.601119995117188,320,6638.0,-4.477351665496826,27,9983.0
13080,0.4217900335788727,13.423445701599121,153,6638.0,5.24442720413208,113,9983.0
13090,0.4225722849369049,-3.9750940799713135,-68,6638.0,16.228635787963867,460,9983.0
13100,0.4223536550998688,-16.686201095581055,-344,6638.0,30.461767196655273,440,9983.0
13110,0.42208176851272583,-22.319156646728516,-361,6638.0,25.394939422607422,295,9983.0
13120,0.4216170907020569,-19.39588165283203,-315,6638.0,1.6882407665252686,-96,9983.0
13130,0.42119961977005005,-15.601700782775879,-264,6638.0,-20.753623962402344,-451,9983.0
13140,0.4243435859680176,-11.531208992004395,-219,6638.0,-34.882568359375,-528,9983.0
13150,0.4239219129085541,-17.20795440673828,-307,6638.0,-21.677513122558594,-239,9983.0
13160,0.42359378933906555,-17.559934616088867,-188,6638.0,-1.6216310262680054,95,9983.0
13170,0.42335987091064453,-13.267492294311523,-288,6638.0,16.561748504638672,428,9983.0
13180,0.4258567988872528,-10.567541122436523,-90,6638.0,28.971630096435547,459,9983.0
13190,0.42585060000419617,-5.0697221755981445,-148,6638.0,27.78743553161621,439,9983.0
13200,0.42592665553092957,1.5750848054885864,147,6638.0,12.163568496704102,97,9983.0
13210,0.42614614963531494,6.4344611167907715,55,6638.0,-8.475350379943848,-193,9983.0
13220,0.4287395775318146,2.4483680725097656,109,6638.0,-19.16741180419922,-352,9983.0
13230,0.4291563332080841,1.7985291481018066,-33,6638.0,-18.615365982055664,-170,9983.0
13240,0.4295760989189148,6.248215675354004,137,6638.0,-10.964906692504883,-183,9983.0
13250,0.4299774765968323,12.266568183898926,229,6638.0,-1.6288292407989502,53,9983.0
13260,0.43027159571647644,17.834074020385742,262,6638.0,20.684648513793945,412,9983.0
13270,0.434090256690979,16.739639282226562,305,6638.0,34.56385040283203,595,9983.0
13280,0.4343792498111725,16.607282638549805,235,6638.0,26.761510848999023,322,9983.0
13290,0.4345582127571106,14.081628799438477,173,6638.0,5.007396697998047,-138,9983.0
13300,0.4348660707473755,3.220339775085449,18,6638.0,-24.260923385620117,-431,9983.0
13310,0.4350641667842865,-8.268839836120605,-227,6638.0,-31.91303825378418,-484,9983.0
13320,0.4351121783256531,-10.19620418548584,-158,6638.0,-26.88252067565918,-486,9983.0
13330,0.4354616403579712,-4.933629035949707,45,6638.0,-14.557231903076172,-199,9983.0
13340,0.43551555275917053,7.02134895324707,163,6638.0,-4.091639995574951,60,9983.0
13350,0.4374774396419525,14.91392993927002,192,6638.0,7.8864336013793945,166,9983.0
13360,0.4374995231628418,13.559609413146973,205,6638.0,17.627395629882812,162,9983.0
13370,0.43839231133461,7.149290561676025,100,6638.0,11.248269081115723,111,9983.0
13380,0.43838030099868774,-8.391586303710938,-247,6638.0,-5.00338888168335,-66,9983.0
13390,0.4390868842601776,-17.826642990112305,-334,6638.0,-10.255431175231934,-154,9983.0
13400,0.4390440881252289,-16.846363067626953,-167,6638.0,-8.728352546691895,-188,9983.0
13410,0.43933969736099243,3.2968881130218506,114,6638.0,-10.047816276550293,-94,9983.0
13420,0.43958988785743713,14.565696716308594,248,6638.0,0.6405526995658875,98,9983.0
13430,0.43985021114349365,13.905926704406738,230,6638.0,16.775501251220703,256,9983.0
13440,0.44001150131225586,9.185935974121094,162,6638.0,27.314668655395508,487,9983.0
13450,0.44002053141593933,-1.6783711910247803,-96,6638.0,26.017009735107422,446,9983.0
13460,0.43982455134391785,-11.800543785095215,-271,6638.0,9.310970306396484,-33,9983.0
13470,0.43958041071891785,-17.0788631439209,-178,6638.0,-10.564845085144043,-277,9983.0
13480,0.4384908378124237,-8.893966674804688,-116,6638.0,-20.770471572875977,-276,9983.0
13490,0.4402787983417511,4.0932841300964355,42,6638.0,-18.33307647705078,-287,9983.0
13500,0.4391983449459076,2.23427414894104,78,6638.0,1.8086990118026733,204,9983.0
13510,0.43921902775764465,-0.202896386384964,-71,6638.0,27.341238021850586,591,9983.0
13520,0.4385005831718445,-6.68781042098999,-169,6638.0,32.674678802490234,419,9983.0
13530,0.438648521900177,-13.430632591247559,-144,6638.0,21.22003936767578,221,9983.0
13540,0.4382679760456085,-12.678827285766602,-220,6638.0,-4.463586330413818,-184,9983.0
13550,0.4384531080722809,-4.288475036621094,21,6638.0,-34.639617919921875,-768,9983.0
13560,0.4383772015571594,2.952813148498535,65,6638.0,-58.383941650390625,-895,9983.0
13570,0.4366857707500458,0.44140785932540894,-88,6638.0,-59.640445709228516,-910,9983.0
13580,0.4365283250808716,-9.666582107543945,-193,6638.0,-48.70671463012695,-746,9983.0
13590,0.4366556704044342,-16.613384246826172,-207,6638.0,-22.982624053955078,-263,9983.0
13600,0.4365493655204773,-14.419069290161133,-290,6638.0,5.326153755187988,323,9983.0
13610,0.4364680349826813,-15.985292434692383,-353,6638.0,29.252050399780273,491,9983.0
13620,0.4338066279888153,-20.27724266052246,-290,6638.0,49.999908447265625,802,9983.0
13630,0.433348685503006,-19.49449348449707,-264,6638.0,62.28434371948242,1087,9983.0
13640,0.4327893853187561,-8.763370513916016,-40,6638.0,49.342315673828125,604,9983.0
13650,0.4324951767921448,9.911881446838379,296,6638.0,26.934879302978516,361,9983.0
13660,0.4323177933692932,30.063203811645508,493,6638.0,11.352078437805176,42,9983.0
13670,0.4318714439868927,29.224611282348633,390,6638.0,-7.7790632247924805,-121,9983.0
13680,0.43142619729042053,8.453304290771484,-138,6638.0,-23.70628547668457,-591,9983.0
13690,0.43098950386047363,-30.57645606994629,-694,6638.0,-38.401153564453125,-679,9983.0
13700,0.4305447041988373,-62.819942474365234,-1153,6638.0,-39.24076461791992,-540,9983.0
13710,0.4299510717391968,-71.24069213867188,-1136,6638.0,-32.57453155517578,-557,9983.0
13720,0.42967626452445984,-57.82098388671875,-742,6638.0,-25.304574966430664,-303,9983.0
13730,0.42911189794540405,-30.228702545166016,-426,6638.0,-16.188701629638672,-252,9983.0
13740,0.4290822148323059,-0.09598296135663986,204,6638.0,-1.2060861587524414,117,9983.0
13750,0.4283164143562317,32.55215072631836,613,6638.0,14.011868476867676,359,9983.0
13760,0.4281724691390991,52.919795989990234,930,6638.0,27.1843204498291,493,9983.0
13770,0.4280053973197937,63.3824348449707,1075,6638.0,33.765621185302734,617,9983.0
13780,0.4277174770832062,57.34756851196289,858,6638.0,39.41178512573242,615,9983.0
13790,0.42611193656921387,39.02812957763672,599,6638.0,43.808834075927734,805,9983.0
13800,0.42587101459503174,18.09498405456543,147,6638.0,42.99895095825195,509,9983.0
13810,0.4254966378211975,3.1904749870300293,30,6638.0,26.948043823242188,366,9983.0
13820,0.42500653862953186,-0.7369451522827148,-60,6638.0,5.502305030822754,54,9983.0
13830,0.424478143453598,6.902532577514648,242,6638.0,-19.691375732421875,-396,9983.0
13840,0.4252468943595886,18.810848236083984,317,6638.0,-36.390926361083984,-625,9983.0
13850,0.42493540048599243,26.104782104492188,449,6638.0,-45.30287170410156,-737,9983.0
13860,0.42472752928733826,12.962421417236328,57,6638.0,-38.729976654052734,-523,9983.0
13870,0.4245742857456207,-16.273611068725586,-418,6638.0,-22.778406143188477,-443,9983.0
13880,0.4244259297847748,-45.565670013427734,-732,6638.0,-9.366991996765137,-49,9983.0
13890,0.4244295656681061,-51.70634078979492,-877,6638.0,9.26414680480957,241,9983.0
13900,0.42451784014701843,-44.911380767822266,-656,6638.0,18.57097625732422,267,9983.0
13910,0.42458561062812805,-30.056371688842773,-468,6638.0,19.3803653717041,373,9983.0
13920,0.42518556118011475,-8.46434497833252,24,6638.0,11.361008644104004,68,9983.0
13930,0.4273715317249298,10.311674118041992,178,6638.0,-1.6422690153121948,-140,9983.0
13940,0.4279603064060211,18.14116859436035,390,6638.0,-1.8738715648651123,152,9983.0
13950,0.42853519320487976,20.637155532836914,328,6638.0,10.56856632232666,183,9983.0
13960,0.4291359782218933,25.678787231445312,455,6638.0,14.903417587280273,231,9983.0
13970,0.4279578924179077,26.297931671142578,386,6638.0,10.655436515808105,289,9983.0
13980,0.4285126328468323,23.935657501220703,418,6638.0,8.517091751098633,19,9983.0
13990,0.42892175912857056,19.153976440429688,328,6638.0,2.6088550090789795,57,9983.0
14000,0.42941907048225403,19.480127334594727,343,6638.0,-7.801037788391113,-286,9983.0
14010,0.4305398464202881,25.102258682250977,482,6638.0,-23.989795684814453,-416,9983.0
14020,0.43078145384788513,22.259220123291016,208,6638.0,-32.736576080322266,-463,9983.0
14030,0.4310137629508972,4.5100908279418945,-49,6638.0,-33.995121002197266,-639,9983.0
