timestamp,kalman.stateZ,gyro.x,gyro.xRaw,gyro.xVariance,gyro.y,gyro.yRaw,gyro.yVariance
0,0.32782286405563354,-0.6338884234428406,-5,6343.0,-0.0029135087970644236,2,9953.0
10,0.3279603123664856,-0.2498818039894104,3,6343.0,0.15280033648014069,10,9953.0
20,0.3264429271221161,-0.7581972479820251,-6,6343.0,0.21762743592262268,15,9953.0
30,0.3265001177787781,-0.5726900696754456,-7,6343.0,0.11757834255695343,7,9953.0
40,0.32656335830688477,0.3508928716182709,10,6343.0,0.34074312448501587,7,9953.0
50,0.3266395330429077,0.3211832046508789,19,6343.0,0.4364255964756012,-1,9953.0
60,0.3267918825149536,0.9341015815734863,15,6343.0,-0.01954731158912182,3,9953.0
70,0.3268967270851135,1.0248186588287354,9,6343.0,-0.24940934777259827,5,9953.0
80,0.32701319456100464,0.08693418651819229,-6,6343.0,-0.09805262833833694,-1,9953.0
90,0.3271345794200897,-0.5768175721168518,-6,6343.0,0.2438792884349823,8,9953.0
100,0.32725614309310913,-0.5601992607116699,-1,6343.0,0.19607198238372803,6,9953.0
110,0.32641226053237915,-0.397893488407135,-6,6343.0,0.35376453399658203,10,9953.0
120,0.3264734148979187,0.22293666005134583,7,6343.0,0.11654417216777802,11,9953.0
130,0.32652541995048523,0.26309946179389954,10,6343.0,0.48942917585372925,18,9953.0
140,0.32656776905059814,0.9609919786453247,14,6343.0,0.8008532524108887,13,9953.0
150,0.3251638114452362,0.6561140418052673,10,6343.0,0.5360556244850159,11,9953.0
160,0.32511377334594727,0.39629384875297546,4,6343.0,0.8430172801017761,27,9953.0
170,0.32508692145347595,-0.03670905902981758,-3,6343.0,1.7613383531570435,30,9953.0
180,0.325044184923172,-0.6105936765670776,-13,6343.0,1.2856614589691162,22,9953.0
190,0.3250100910663605,-1.1291722059249878,-22,6343.0,0.563712477684021,-1,9953.0
200,0.324935644865036,-2.052032470703125,-19,6343.0,-1.256127953529358,-36,9953.0
210,0.3249449133872986,1.1223998069763184,7,6343.0,-3.7641217708587646,-80,9953.0
220,0.3249972462654114,3.9183754920959473,59,6343.0,-10.404586791992188,-192,9953.0
230,0.32508963346481323,2.226489782333374,66,6343.0,-15.803651809692383,-298,9953.0
240,0.32475546002388,3.8808560371398926,-1,6343.0,-26.15256118774414,-444,9953.0
250,0.3248588740825653,3.043792963027954,51,6343.0,-33.89178466796875,-615,9953.0
260,0.3252597749233246,-1.028515100479126,29,6343.0,-39.20414352416992,-725,9953.0
270,0.32550084590911865,0.07785232365131378,63,6343.0,-45.509700775146484,-818,9953.0
280,0.3272547125816345,2.091285228729248,66,6343.0,-49.113525390625,-831,9953.0
290,0.3272351920604706,3.387113571166992,11,6343.0,-50.598384857177734,-707,9953.0
300,0.3286387324333191,3.2279059886932373,-24,6343.0,-40.50837707519531,-626,9953.0
310,0.32874977588653564,2.248396396636963,37,6343.0,-33.62055587768555,-480,9953.0
320,0.32890644669532776,1.850704312324524,-24,6343.0,-21.899232864379883,-308,9953.0
330,0.3301243782043457,-0.6836050152778625,24,6343.0,-10.269742965698242,-84,9953.0
340,0.33067387342453003,-0.7077510356903076,30,6343.0,2.777639389038086,25,9953.0
350,0.3312128782272339,0.2849578559398651,-8,6343.0,12.022416114807129,224,9953.0
360,0.33184367418289185,1.4669206142425537,16,6343.0,19.689077377319336,428,9953.0
370,0.3329663872718811,2.3105263710021973,51,6343.0,23.99110984802246,468,9953.0
380,0.3333035707473755,2.518486261367798,82,6343.0,29.680198669433594,395,9953.0
390,0.3336753249168396,0.5067769885063171,11,6343.0,28.843334197998047,327,9953.0
400,0.33412593603134155,0.26203492283821106,-20,6343.0,24.982666015625,460,9953.0
410,0.3327183127403259,0.20154885947704315,-26,6343.0,20.75482177734375,386,9953.0
420,0.3329838514328003,0.8035954236984253,26,6343.0,13.381173133850098,282,9953.0
430,0.3332260847091675,0.6297394633293152,34,6343.0,8.519579887390137,51,9953.0
440,0.3334948420524597,-0.016446812078356743,42,6343.0,1.1020292043685913,-60,9953.0
450,0.333759069442749,0.6352994441986084,24,6343.0,-2.8267710208892822,-218,9953.0
460,0.33331871032714844,-0.15962491929531097,-2,6343.0,-9.133462905883789,-211,9953.0
470,0.3335995674133301,-0.7184523344039917,17,6343.0,-11.078547477722168,-349,9953.0
480,0.3339693248271942,0.26624971628189087,10,6343.0,-12.864654541015625,-213,9953.0
490,0.334275484085083,-0.02876710146665573,-12,6343.0,-13.083869934082031,-332,9953.0
500,0.33308860659599304,0.6297973990440369,15,6343.0,-9.54816722869873,-221,9953.0
510,0.33330777287483215,0.1039929986000061,-14,6343.0,-4.054065227508545,-177,9953.0
520,0.3335202932357788,-0.09806779772043228,48,6343.0,0.6285302639007568,-86,9953.0
530,0.33378925919532776,-0.15752212703227997,54,6343.0,0.5050041675567627,19,9953.0
540,0.3340677320957184,0.1765049546957016,33,6343.0,5.453526973724365,28,9953.0
550,0.3341871500015259,-0.13698990643024445,33,6343.0,7.216317176818848,204,9953.0
560,0.33433276414871216,1.1733070611953735,-18,6343.0,12.328351974487305,295,9953.0
570,0.3344454765319824,1.0337690114974976,-58,6343.0,13.241000175476074,370,9953.0
580,0.33463120460510254,-2.107393741607666,-42,6343.0,15.020023345947266,423,9953.0
590,0.33406609296798706,1.7121864557266235,-93,6343.0,11.940176963806152,207,9953.0
600,0.3340533375740051,-2.0057077407836914,58,6343.0,11.498790740966797,65,9953.0
610,0.3339003622531891,-1.0937800407409668,76,6343.0,5.573221206665039,-94,9953.0
620,0.3337266445159912,-0.08999873697757721,72,6343.0,-0.6471763849258423,-154,9953.0
630,0.3341592848300934,1.8225576877593994,93,6343.0,-5.090667247772217,-78,9953.0
640,0.33396556973457336,-1.3093047142028809,-33,6343.0,-7.41243314743042,4,9953.0
650,0.3336773216724396,0.28294429183006287,-55,6343.0,-10.83430290222168,-214,9953.0
660,0.33340635895729065,-1.3239169120788574,-39,6343.0,-15.294867515563965,-257,9953.0
670,0.33318406343460083,0.05113427713513374,3,6343.0,-17.59804916381836,-306,9953.0
680,0.33489570021629333,1.673967957496643,-22,6343.0,-16.39940071105957,-359,9953.0
690,0.33485502004623413,1.2615513801574707,4,6343.0,-14.783839225769043,-77,9953.0
700,0.3348727226257324,0.7566666603088379,-56,6343.0,-9.432661056518555,-40,9953.0
710,0.33503231406211853,-0.35219046473503113,-38,6343.0,-7.012909889221191,-13,9953.0
720,0.3351816236972809,-0.08520036935806274,-30,6343.0,-4.539254188537598,-41,9953.0
730,0.33540594577789307,-2.8937456607818604,71,6343.0,2.7830350399017334,-56,9953.0
740,0.3356597125530243,-1.5998057126998901,-7,6343.0,3.482203245162964,72,9953.0
750,0.3359035849571228,1.3219515085220337,-29,6343.0,3.575239896774292,192,9953.0
760,0.3362399935722351,2.464897871017456,-4,6343.0,5.966178894042969,113,9953.0
770,0.3377514183521271,2.029634714126587,20,6343.0,8.21293830871582,181,9953.0
780,0.3381727933883667,0.5464885234832764,98,6343.0,10.521973609924316,67,9953.0
790,0.3385719954967499,1.8278809785842896,38,6343.0,10.90576171875,97,9953.0
800,0.33897632360458374,0.13936659693717957,-58,6343.0,7.086472511291504,302,9953.0
810,0.33661073446273804,-1.3969711065292358,-64,6343.0,6.098968505859375,159,9953.0
820,0.3369758725166321,-1.9782345294952393,4,6343.0,6.031114101409912,-160,9953.0
830,0.33727192878723145,-1.532386064529419,82,6343.0,2.7979297637939453,-18,9953.0
840,0.3374897241592407,-1.6040160655975342,35,6343.0,-2.1860032081604004,27,9953.0
850,0.3377666175365448,0.6608071327209473,-53,6343.0,-1.6943014860153198,-48,9953.0
860,0.3378847539424896,0.08468721807003021,-41,6343.0,-4.1909284591674805,-48,9953.0
870,0.33806324005126953,0.6434351205825806,37,6343.0,-5.666905403137207,-72,9953.0
880,0.3382285237312317,-0.2294687181711197,39,6343.0,-5.105925559997559,-189,9953.0
890,0.33835840225219727,1.0530173778533936,-9,6343.0,-4.366687297821045,-52,9953.0
900,0.3367140293121338,-0.9888312816619873,-64,6343.0,-3.348496437072754,106,9953.0
910,0.33679696917533875,-0.1672566682100296,-23,6343.0,-1.1606849431991577,-73,9953.0
920,0.3369540870189667,-0.44709697365760803,-4,6343.0,-0.48531419038772583,-127,9953.0
930,0.33712345361709595,-1.982885718345642,-2,6343.0,-2.959988832473755,134,9953.0
940,0.336374431848526,1.677122712135315,-13,6343.0,1.873625636100769,65,9953.0
950,0.3363141119480133,1.0535004138946533,0,6343.0,3.951709747314453,-50,9953.0
960,0.33619454503059387,2.627074718475342,90,6343.0,4.338601589202881,57,9953.0
970,0.33604180812835693,2.503485679626465,81,6343.0,4.917749404907227,64,9953.0
980,0.33592259883880615,2.2316694259643555,-14,6343.0,7.543449878692627,113,9953.0
990,0.3362302780151367,-0.17018760740756989,-50,6343.0,7.112776756286621,226,9953.0
1000,0.3360424041748047,-1.7569657564163208,-11,6343.0,7.684245586395264,-2,9953.0
1010,0.3357735872268677,-2.1559019088745117,-34,6343.0,6.408233165740967,-7,9953.0
1020,0.3354060649871826,-2.3545820713043213,15,6343.0,2.80025577545166,131,9953.0
1030,0.3349382281303406,-0.5085786581039429,-39,6343.0,-2.419853687286377,118,9953.0
1040,0.33467477560043335,-0.40528547763824463,-6,6343.0,-0.6056387424468994,-191,9953.0
1050,0.3343176543712616,1.4449535608291626,71,6343.0,-2.9941744804382324,-155,9953.0
1060,0.33398959040641785,3.7056941986083984,58,6343.0,-8.068079948425293,-64,9953.0
1070,0.33530059456825256,1.2501660585403442,0,6343.0,-8.15424633026123,-135,9953.0
1080,0.33490604162216187,-1.6535141468048096,-91,6343.0,-8.877158164978027,-120,9953.0
1090,0.3345334231853485,-2.948040246963501,-34,6343.0,-10.351248741149902,-114,9953.0
1100,0.33417677879333496,-3.6613657474517822,-16,6343.0,-7.642768859863281,-236,9953.0
1110,0.3338194787502289,-0.8733052015304565,-23,6343.0,-5.328066825866699,-76,9953.0
1120,0.3342655599117279,1.1194090843200684,-20,6343.0,-4.02086877822876,103,9953.0
1130,0.3338356912136078,0.9336746335029602,45,6343.0,1.9572218656539917,-132,9953.0
1140,0.3334594666957855,1.7113045454025269,95,6343.0,5.425694465637207,33,9953.0
1150,0.3332129120826721,3.2178151607513428,117,6343.0,3.459404706954956,204,9953.0
1160,0.3346289396286011,0.10787339508533478,-74,6343.0,7.027398586273193,111,9953.0
1170,0.33471280336380005,-3.0644760131835938,-10,6343.0,10.250770568847656,3,9953.0
1180,0.3348371684551239,-1.3534411191940308,25,6343.0,7.277681350708008,165,9953.0
1190,0.3349318504333496,-0.792473554611206,16,6343.0,7.174129962921143,178,9953.0
1200,0.3350159227848053,0.3318203091621399,-53,6343.0,7.850128650665283,98,9953.0
1210,0.3343157470226288,0.8574225306510925,1,6343.0,4.047974586486816,82,9953.0
1220,0.33445021510124207,0.05811312422156334,54,6343.0,2.0479023456573486,-58,9953.0
1230,0.3346191644668579,-0.41577133536338806,47,6343.0,-0.1569807082414627,-92,9953.0
1240,0.3347533047199249,0.06558600813150406,-35,6343.0,-2.399102210998535,126,9953.0
1250,0.3341767191886902,1.575584888458252,-55,6343.0,-3.6560781002044678,79,9953.0
1260,0.3341255486011505,-1.381941795349121,-24,6343.0,0.6883247494697571,-165,9953.0
1270,0.33405858278274536,1.898081660270691,40,6343.0,-0.20924417674541473,-1,9953.0
1280,0.3340773582458496,-0.5894370675086975,-5,6343.0,-2.2996268272399902,83,9953.0
1290,0.3341408967971802,-0.7726075053215027,-52,6343.0,-3.3844499588012695,-148,9953.0
1300,0.3336631953716278,0.37639325857162476,-7,6343.0,-7.612063407897949,-215,9953.0
1310,0.33359187841415405,-0.02624025195837021,38,6343.0,-7.864802360534668,-29,9953.0
1320,0.33348193764686584,1.5586273670196533,-13,6343.0,-8.091629981994629,42,9953.0
1330,0.3334413468837738,2.3117947578430176,43,6343.0,-3.8934614658355713,-144,9953.0
1340,0.33412039279937744,1.0641518831253052,51,6343.0,-1.309958577156067,-40,9953.0
1350,0.3342856168746948,1.8053902387619019,-60,6343.0,0.3461287021636963,162,9953.0
1360,0.3345666825771332,-0.20189252495765686,0,6343.0,2.870133638381958,39,9953.0
1370,0.33496975898742676,0.11046631634235382,65,6343.0,6.071330547332764,98,9953.0
1380,0.33546292781829834,1.2486525774002075,-2,6343.0,7.424752712249756,7,9953.0
1390,0.33602374792099,1.2785269021987915,49,6343.0,6.847259044647217,34,9953.0
1400,0.33670127391815186,0.3714783489704132,47,6343.0,6.642404556274414,235,9953.0
1410,0.3373831808567047,0.9701828360557556,-31,6343.0,5.006404876708984,133,9953.0
1420,0.3381350636482239,-0.3096267879009247,39,6343.0,6.109071731567383,-32,9953.0
1430,0.3383464813232422,-1.158849835395813,6,6343.0,5.819300651550293,61,9953.0
1440,0.3389909565448761,-1.530728816986084,-86,6343.0,2.808722972869873,129,9953.0
1450,0.3395564556121826,-2.222896099090576,-2,6343.0,0.33436086773872375,38,9953.0
1460,0.3401464521884918,-1.0546224117279053,-27,6343.0,-2.0499391555786133,22,9953.0
1470,0.33852723240852356,-0.23406171798706055,-19,6343.0,-0.5172101855278015,-128,9953.0
1480,0.3387683629989624,0.15777654945850372,35,6343.0,-1.5930588245391846,-189,9953.0
1490,0.33888837695121765,1.58409583568573,1,6343.0,-2.6956496238708496,97,9953.0
1500,0.3388808071613312,2.2942721843719482,6,6343.0,-2.0697474479675293,-19,9953.0
1510,0.33887043595314026,-0.1827366203069687,43,6343.0,0.0194255281239748,-122,9953.0
1520,0.33776554465293884,-0.8809706568717957,-2,6343.0,0.3195180892944336,5,9953.0
1530,0.33779606223106384,-1.6758887767791748,-59,6343.0,0.3615017831325531,73,9953.0
1540,0.3375236988067627,-1.1423758268356323,34,6343.0,1.0673551559448242,91,9953.0
1550,0.337317556142807,-0.3582009971141815,-35,6343.0,2.4012129306793213,64,9953.0
1560,0.3357834219932556,-0.6719229221343994,-30,6343.0,4.200562953948975,-34,9953.0
1570,0.3355697989463806,0.5437668561935425,63,6343.0,3.2833335399627686,75,9953.0
1580,0.33543023467063904,-0.12087590992450714,-33,6343.0,3.6260716915130615,235,9953.0
1590,0.3353208303451538,0.09887711703777313,-18,6343.0,2.9924418926239014,20,9953.0
1600,0.33590397238731384,-0.23213821649551392,52,6343.0,2.0280439853668213,-151,9953.0
1610,0.3359658718109131,0.7279177308082581,-17,6343.0,0.38069742918014526,51,9953.0
1620,0.33594492077827454,1.1568955183029175,-12,6343.0,-2.6004695892333984,-23,9953.0
1630,0.33594727516174316,-0.16802635788917542,31,6343.0,-3.0460903644561768,-2,9953.0
1640,0.33583366870880127,-0.030329396948218346,-10,6343.0,-1.1358048915863037,-58,9953.0
1650,0.3365384340286255,-0.3631103038787842,-11,6343.0,-0.5413424968719482,-186,9953.0
1660,0.3362976014614105,0.09895678609609604,65,6343.0,-3.106055974960327,9,9953.0
1670,0.33600637316703796,0.6203790307044983,-38,6343.0,-4.378889560699463,62,9953.0
1680,0.33565399050712585,0.8965561389923096,28,6343.0,-5.032392501831055,-115,9953.0
1690,0.33506637811660767,-0.47935470938682556,76,6343.0,-5.64377498626709,-162,9953.0
1700,0.3347107172012329,-0.5075132846832275,-54,6343.0,-4.076399326324463,-81,9953.0
1710,0.33428898453712463,0.15574270486831665,28,6343.0,-4.204853534698486,-44,9953.0
1720,0.33386319875717163,0.6007418632507324,15,6343.0,-4.810962200164795,72,9953.0
1730,0.3339158892631531,1.9018332958221436,9,6343.0,-3.611677646636963,-66,9953.0
1740,0.3335877060890198,0.8093019127845764,69,6343.0,-2.594722032546997,-218,9953.0
1750,0.33329981565475464,-0.10353288799524307,-49,6343.0,-1.590713381767273,47,9953.0
1760,0.33312883973121643,-1.6746565103530884,-65,6343.0,-2.9028851985931396,1,9953.0
1770,0.33299729228019714,-2.748781681060791,-15,6343.0,-2.2927589416503906,57,9953.0
1780,0.333368182182312,-1.4622598886489868,-69,6343.0,-0.6959091424942017,-74,9953.0
1790,0.3334331214427948,-3.3112523555755615,9,6343.0,2.216776132583618,-180,9953.0
1800,0.3336002230644226,-0.9513838291168213,-4,6343.0,1.6249321699142456,81,9953.0
1810,0.3338443338871002,0.9354589581489563,-39,6343.0,1.844394564628601,121,9953.0
1820,0.3350336253643036,1.7386705875396729,102,6343.0,2.9799282550811768,33,9953.0
1830,0.3354601562023163,2.7251710891723633,22,6343.0,4.99606990814209,64,9953.0
1840,0.3359319269657135,0.9282554984092712,42,6343.0,6.60424280166626,33,9953.0
1850,0.33644288778305054,0.5173078775405884,28,6343.0,5.9815754890441895,208,9953.0
1860,0.33643168210983276,1.068504810333252,-31,6343.0,6.2822418212890625,268,9953.0
1870,0.3365863263607025,-0.885338544845581,17,6343.0,10.316910743713379,22,9953.0
1880,0.3371649384498596,-0.438846617937088,44,6343.0,8.966421127319336,124,9953.0
1890,0.3376923203468323,-2.299415349960327,-84,6343.0,9.052263259887695,293,9953.0
1900,0.3381815552711487,-0.5355272889137268,-22,6343.0,9.285399436950684,102,9953.0
1910,0.33758649230003357,-0.1648975908756256,74,6343.0,8.223039627075195,14,9953.0
1920,0.3378136157989502,2.168773651123047,18,6343.0,4.2712483406066895,3,9953.0
1930,0.3379305303096771,3.337486505508423,27,6343.0,0.08056944608688354,44,9953.0
1940,0.3379802703857422,3.077807903289795,93,6343.0,0.479836106300354,35,9953.0
1950,0.33648377656936646,1.7333204746246338,17,6343.0,-0.8520776033401489,-10,9953.0
1960,0.3364581763744354,0.4676162600517273,-54,6343.0,-2.3603296279907227,-72,9953.0
1970,0.3365202844142914,-1.7258726358413696,-24,6343.0,-5.7032670974731445,-102,9953.0
1980,0.3365699052810669,-3.835008382797241,-46,6343.0,-6.377152919769287,-30,9953.0
1990,0.33653539419174194,-3.5808284282684326,-81,6343.0,-7.8829345703125,-44,9953.0
2000,0.33667489886283875,-2.5628130435943604,-30,6343.0,-4.666893005371094,-247,9953.0
2010,0.3366011083126068,-0.45419326424598694,44,6343.0,-4.888011455535889,-118,9953.0
2020,0.33637571334838867,0.030302034690976143,23,6343.0,-5.446507930755615,34,9953.0
2030,0.33607062697410583,3.9665732383728027,9,6343.0,-4.509911060333252,-123,9953.0
2040,0.33622273802757263,2.53362774848938,80,6343.0,-2.7187180519104004,-166,9953.0
2050,0.3359929621219635,1.4697057008743286,48,6343.0,-3.3489060401916504,54,9953.0
2060,0.3358325958251953,0.6759036779403687,-48,6343.0,-2.389004707336426,52,9953.0
2070,0.33577588200569153,-2.3115804195404053,-37,6343.0,-0.9870867729187012,-134,9953.0
2080,0.3357529938220978,-3.039548873901367,4,6343.0,-1.813570499420166,-114,9953.0
2090,0.33587613701820374,-2.1380817890167236,-88,6343.0,-3.1172938346862793,80,9953.0
2100,0.3359621465206146,0.1939353346824646,12,6343.0,-2.80956768989563,-46,9953.0
2110,0.33606913685798645,1.2583281993865967,79,6343.0,0.18957699835300446,-145,9953.0
2120,0.3362251818180084,2.5036118030548096,18,6343.0,0.4874693751335144,41,9953.0
2130,0.3342958390712738,1.8212523460388184,0,6343.0,-1.487151861190796,22,9953.0
2140,0.33421340584754944,-0.26284992694854736,-6,6343.0,-1.927796721458435,52,9953.0
2150,0.33405765891075134,-0.3435206413269043,-1,6343.0,-0.6643044352531433,12,9953.0
2160,0.3338124752044678,-3.1803805828094482,-67,6343.0,-0.4273606240749359,-105,9953.0
2170,0.33550921082496643,-2.4907162189483643,15,6343.0,-1.8806191682815552,40,9953.0
2180,0.3351668417453766,-0.4804825186729431,-18,6343.0,-1.5199779272079468,101,9953.0
2190,0.3348035216331482,2.353938579559326,45,6343.0,1.8368316888809204,-75,9953.0
2200,0.33445438742637634,3.9154436588287354,127,6343.0,3.2724246978759766,-67,9953.0
2210,0.33416464924812317,4.062683582305908,5,6343.0,3.0262722969055176,167,9953.0
2220,0.3351169228553772,1.5088694095611572,27,6343.0,4.491219520568848,157,9953.0
2230,0.3350066542625427,-3.277869939804077,-43,6343.0,7.3288164138793945,81,9953.0
2240,0.3349091708660126,-4.82716703414917,-113,6343.0,8.443310737609863,118,9953.0
2250,0.33487778902053833,-5.775353908538818,-73,6343.0,10.574296951293945,109,9953.0
2260,0.33493971824645996,-2.2282748222351074,-4,6343.0,9.333701133728027,335,9953.0
2270,0.3350037932395935,1.8308542966842651,0,6343.0,10.12023639678955,259,9953.0
2280,0.3351207375526428,4.184566497802734,89,6343.0,9.794646263122559,9,9953.0
2290,0.3352106511592865,5.907634258270264,154,6343.0,10.40698528289795,57,9953.0
2300,0.3352046608924866,3.788398027420044,20,6343.0,9.446667671203613,162,9953.0
2310,0.33430835604667664,2.244269371032715,18,6343.0,6.026851177215576,105,9953.0
2320,0.33417391777038574,-1.0370277166366577,26,6343.0,2.4519057273864746,16,9953.0
2330,0.33399519324302673,-2.730292558670044,-84,6343.0,-1.7001701593399048,-62,9953.0
2340,0.33381202816963196,-4.127169609069824,-36,6343.0,-3.759510040283203,-228,9953.0
2350,0.3337789475917816,-2.5463125705718994,12,6343.0,-7.344902515411377,-115,9953.0
2360,0.33365386724472046,0.2869027554988861,-14,6343.0,-10.63943862915039,51,9953.0
2370,0.33361950516700745,3.318986177444458,28,6343.0,-9.330763816833496,-134,9953.0
2380,0.3336395025253296,1.5026012659072876,118,6343.0,-7.266005039215088,-201,9953.0
2390,0.33382219076156616,1.7487531900405884,23,6343.0,-6.716910362243652,-100,9953.0
2400,0.333916574716568,-1.0300793647766113,-56,6343.0,-5.637754440307617,-58,9953.0
2410,0.3340107500553131,-1.845523476600647,-7,6343.0,-6.203603267669678,-24,9953.0
2420,0.33416837453842163,-2.197298765182495,-91,6343.0,-3.771008253097534,-64,9953.0
2430,0.33438488841056824,-2.2203800678253174,-3,6343.0,1.4896708726882935,-124,9953.0
2440,0.3354533910751343,-0.9663582444190979,43,6343.0,2.95267391204834,85,9953.0
2450,0.33554795384407043,0.8565565347671509,-23,6343.0,2.8545804023742676,225,9953.0
2460,0.3355429768562317,3.524390697479248,60,6343.0,4.276841163635254,-6,9953.0
2470,0.33547547459602356,1.258665919303894,90,6343.0,3.888777017593384,-15,9953.0
2480,0.3352651298046112,1.1113978624343872,-31,6343.0,2.8795645236968994,168,9953.0
2490,0.3351757526397705,-1.020646333694458,-54,6343.0,1.3141628503799438,55,9953.0
2500,0.33517956733703613,-1.5859235525131226,-24,6343.0,-1.0228822231292725,11,9953.0
2510,0.33538132905960083,-2.9470458030700684,-73,6343.0,-1.3633387088775635,-104,9953.0
2520,0.335648775100708,-3.7626938819885254,-54,6343.0,-2.7482120990753174,-188,9953.0
2530,0.3363703191280365,-1.6721888780593872,23,6343.0,-6.4227681159973145,-67,9953.0
2540,0.3368302285671234,1.34421968460083,9,6343.0,-7.9618144035339355,-50,9953.0
2550,0.33736738562583923,4.0777587890625,57,6343.0,-7.513918876647949,-212,9953.0
2560,0.33791497349739075,5.112632751464844,107,6343.0,-6.586246490478516,-157,9953.0
2570,0.3367423713207245,4.190166473388672,37,6343.0,-4.4989705085754395,111,9953.0
2580,0.3371901512145996,1.448130488395691,-20,6343.0,-1.2336586713790894,48,9953.0
2590,0.3376386761665344,-2.1767122745513916,-13,6343.0,2.619373083114624,-112,9953.0
2600,0.3380255401134491,-4.259430408477783,-72,6343.0,3.841113567352295,167,9953.0
2610,0.3371114432811737,-4.255272388458252,-106,6343.0,3.7763020992279053,194,9953.0
2620,0.3373774588108063,-2.9651293754577637,-39,6343.0,7.955077171325684,-7,9953.0
2630,0.33769914507865906,-1.2457751035690308,24,6343.0,9.00331974029541,119,9953.0
2640,0.33806541562080383,0.8990770578384399,-1,6343.0,7.234940528869629,294,9953.0
2650,0.3384033441543579,4.306288242340088,44,6343.0,7.604753017425537,162,9953.0
2660,0.3376687467098236,4.252495765686035,124,6343.0,7.5289154052734375,-47,9953.0
2670,0.3379766047000885,2.097893476486206,54,6343.0,6.511787414550781,73,9953.0
2680,0.3382324278354645,-0.8115592002868652,-68,6343.0,3.350271224975586,190,9953.0
2690,0.3384212255477905,-2.080874443054199,-72,6343.0,3.880136489868164,65,9953.0
2700,0.3368304669857025,-2.4769976139068604,21,6343.0,1.279542326927185,-160,9953.0
2710,0.3369995653629303,-0.7427293062210083,9,6343.0,-0.014201037585735321,-44,9953.0
2720,0.3373368978500366,-1.5144681930541992,12,6343.0,-2.48401141166687,6,9953.0
2730,0.3377155363559723,0.9637314677238464,-20,6343.0,-0.875940203666687,-87,9953.0
2740,0.33814653754234314,2.58212947845459,-7,6343.0,-2.9157423973083496,-21,9953.0
2750,0.33632633090019226,2.8119664192199707,67,6343.0,-4.968360900878906,-28,9953.0
2760,0.33650174736976624,0.7648702263832092,42,6343.0,-6.287689208984375,-111,9953.0
2770,0.3366084694862366,-0.004070464055985212,-67,6343.0,-4.0986785888671875,-51,9953.0
2780,0.33673325181007385,-1.1554794311523438,-38,6343.0,-5.532217502593994,3,9953.0
2790,0.3361797630786896,-1.3989770412445068,22,6343.0,-2.268450975418091,-119,9953.0
2800,0.3363357484340668,-0.2202073633670807,24,6343.0,0.6558104157447815,45,9953.0
2810,0.3364974558353424,0.5134254097938538,-26,6343.0,2.339749336242676,181,9953.0
2820,0.336542546749115,1.1165889501571655,-6,6343.0,3.5001919269561768,75,9953.0
2830,0.33605480194091797,-0.3160838484764099,118,6343.0,3.1317718029022217,-67,9953.0
2840,0.3359600901603699,0.7230235934257507,15,6343.0,2.1501712799072266,21,9953.0
2850,0.3359246551990509,0.4139347970485687,-47,6343.0,1.763668417930603,110,9953.0
2860,0.3359087109565735,-0.09691447019577026,22,6343.0,-0.2901224195957184,-40,9953.0
2870,0.33603641390800476,0.04755064845085144,68,6343.0,-2.513317584991455,-140,9953.0
2880,0.3361007273197174,1.1587656736373901,-8,6343.0,-2.1467840671539307,43,9953.0
2890,0.336149662733078,0.006009463686496019,-36,6343.0,-5.0562262535095215,12,9953.0
2900,0.3361414074897766,-1.2438527345657349,28,6343.0,-5.681854724884033,-248,9953.0
2910,0.33608007431030273,0.3833087086677551,68,6343.0,-5.8009514808654785,-160,9953.0
2920,0.33639276027679443,0.14711102843284607,-17,6343.0,-6.437687873840332,38,9953.0
2930,0.3364250063896179,0.496097207069397,-20,6343.0,-5.783830165863037,-80,9953.0
2940,0.3365808129310608,-0.25554361939430237,58,6343.0,-4.550578594207764,-122,9953.0
2950,0.3368370234966278,0.8257938027381897,3,6343.0,-1.102493405342102,-13,9953.0
2960,0.33716946840286255,0.7392736077308655,-66,6343.0,-1.6960679292678833,77,9953.0
2970,0.3367147147655487,-1.2192883491516113,20,6343.0,0.7899506092071533,-38,9953.0
2980,0.3370369076728821,-1.401796579360962,3,6343.0,4.256722927093506,2,9953.0
2990,0.3373384475708008,-1.7258208990097046,-91,6343.0,4.761709690093994,209,9953.0
3000,0.337618887424469,-0.7693861722946167,-26,6343.0,5.084882736206055,165,9953.0
3010,0.3367510735988617,-0.05408758670091629,50,6343.0,7.714807033538818,6,9953.0
3020,0.33702751994132996,1.1089377403259277,38,6343.0,9.246962547302246,191,9953.0
3030,0.33737942576408386,0.22009016573429108,-19,6343.0,10.3657808303833,280,9953.0
3040,0.33780935406684875,0.10466359555721283,-35,6343.0,8.308049201965332,21,9953.0
3050,0.3373713791370392,-3.572488307952881,25,6343.0,7.948882102966309,53,9953.0
3060,0.3377106785774231,-0.765356719493866,-22,6343.0,3.5360634326934814,209,9953.0
3070,0.33788982033729553,0.10544820874929428,-19,6343.0,2.948141098022461,94,9953.0
3080,0.3379766047000885,1.3555529117584229,45,6343.0,2.030940532684326,-110,9953.0
3090,0.33797404170036316,4.554931640625,95,6343.0,1.0309964418411255,-35,9953.0
3100,0.33677440881729126,3.692793130874634,48,6343.0,-1.0424778461456299,125,9953.0
3110,0.33684253692626953,1.773954153060913,-23,6343.0,-0.44088172912597656,48,9953.0
3120,0.3368297815322876,-1.1600195169448853,-36,6343.0,0.47830939292907715,-114,9953.0
3130,0.33673229813575745,-2.788644790649414,-25,6343.0,0.5379399061203003,-17,9953.0
3140,0.3363490700721741,-3.614356279373169,-70,6343.0,-3.067533016204834,95,9953.0
3150,0.3362010419368744,0.17899996042251587,-45,6343.0,-4.9620585441589355,-33,9953.0
3160,0.3361278176307678,2.0147786140441895,-9,6343.0,-3.9505696296691895,-167,9953.0
3170,0.3361808955669403,4.5000319480896,109,6343.0,-3.1879994869232178,-5,9953.0
3180,0.33631983399391174,3.021153211593628,47,6343.0,-3.562168836593628,65,9953.0
3190,0.3367508053779602,3.587754964828491,5,6343.0,-2.5768425464630127,-87,9953.0
3200,0.33688098192214966,0.9727871417999268,38,6343.0,-2.319932460784912,-155,9953.0
3210,0.3369736671447754,-0.9764640927314758,-19,6343.0,-5.654107093811035,-50,9953.0
3220,0.3370896875858307,-2.5487148761749268,-64,6343.0,-6.602568626403809,-19,9953.0
3230,0.3367479741573334,-2.4098658561706543,-70,6343.0,-2.433377742767334,-38,9953.0
3240,0.3369295001029968,-1.0628888607025146,34,6343.0,-2.339472770690918,-50,9953.0
3250,0.3371337652206421,1.7311336994171143,67,6343.0,-0.7081745266914368,37,9953.0
3260,0.33729925751686096,1.458192229270935,21,6343.0,0.2971978485584259,-17,9953.0
3270,0.33529695868492126,2.7006425857543945,-32,6343.0,-3.695006847381592,-74,9953.0
3280,0.33515188097953796,-0.4225909411907196,4,6343.0,-2.052562713623047,16,9953.0
3290,0.33495670557022095,-1.4518574476242065,19,6343.0,-0.01974976435303688,-18,9953.0
3300,0.33476531505584717,-2.479107141494751,-78,6343.0,-0.995239794254303,-70,9953.0
3310,0.33471301198005676,-1.4786454439163208,-46,6343.0,-2.9682798385620117,5,9953.0
3320,0.33489784598350525,-0.7348992228507996,-11,6343.0,-1.5922152996063232,-35,9953.0
3330,0.33491232991218567,-0.7807832360267639,80,6343.0,-0.46877801418304443,2,9953.0
3340,0.33489567041397095,1.215240240097046,30,6343.0,-2.003739833831787,46,9953.0
3350,0.3348377048969269,1.5838509798049927,-27,6343.0,-1.3237006664276123,67,9953.0
3360,0.3337011933326721,3.172246217727661,6,6343.0,0.0769399106502533,-126,9953.0
3370,0.3336220681667328,1.3251781463623047,24,6343.0,2.8728301525115967,103,9953.0
3380,0.3335832953453064,0.5591184496879578,-44,6343.0,2.396239995956421,105,9953.0
3390,0.33367881178855896,-0.6949647068977356,-40,6343.0,5.613020420074463,58,9953.0
3400,0.33385327458381653,-0.11293140798807144,77,6343.0,8.06527328491211,-9,9953.0
3410,0.33412158489227295,1.6962759494781494,28,6343.0,7.696785926818848,202,9953.0
3420,0.33430400490760803,1.5813795328140259,-37,6343.0,9.977129936218262,287,9953.0
3430,0.33442065119743347,0.04863240197300911,18,6343.0,11.182316780090332,60,9953.0
3440,0.33453917503356934,-1.400320053100586,12,6343.0,10.016974449157715,61,9953.0
3450,0.33592453598976135,-2.2801856994628906,-80,6343.0,7.074693202972412,257,9953.0
3460,0.3361266255378723,-3.143442392349243,-73,6343.0,3.395073890686035,81,9953.0
3470,0.33644741773605347,-2.357837438583374,11,6343.0,0.026548143476247787,-264,9953.0
3480,0.3367728292942047,2.293668746948242,104,6343.0,-0.14430716633796692,-150,9953.0
3490,0.3363046944141388,3.727363348007202,54,6343.0,-4.564112186431885,51,9953.0
3500,0.336527019739151,2.2123377323150635,-13,6343.0,-5.192037582397461,-26,9953.0
3510,0.33662357926368713,-0.1870928853750229,17,6343.0,-6.735946178436279,-219,9953.0
3520,0.33662742376327515,-1.6208640336990356,21,6343.0,-7.586616516113281,-176,9953.0
3530,0.33665594458580017,-1.6426982879638672,-57,6343.0,-8.095562934875488,14,9953.0
3540,0.33524850010871887,-1.2633978128433228,-61,6343.0,-4.9349446296691895,-52,9953.0
3550,0.3352377116680145,-0.842340350151062,20,6343.0,0.12853123247623444,-199,9953.0
3560,0.3352237045764923,-0.782096803188324,51,6343.0,1.6341211795806885,105,9953.0
3570,0.33510279655456543,1.7573882341384888,62,6343.0,1.2889118194580078,247,9953.0
3580,0.33494070172309875,-0.6877000331878662,-44,6343.0,6.330326557159424,-21,9953.0
3590,0.33469951152801514,-1.002027153968811,20,6343.0,8.146796226501465,-9,9953.0
3600,0.33452901244163513,-0.5276719331741333,0,6343.0,3.7154273986816406,170,9953.0
3610,0.33444178104400635,0.2806013226509094,-44,6343.0,2.472849130630493,126,9953.0
3620,0.3344697654247284,1.2853060960769653,26,6343.0,2.4971437454223633,-71,9953.0
3630,0.334771990776062,2.0818660259246826,103,6343.0,-1.5075383186340332,-66,9953.0
3640,0.33484575152397156,2.6351478099823,41,6343.0,-1.8116250038146973,125,9953.0
3650,0.3349113166332245,2.1423683166503906,-24,6343.0,-0.3866608738899231,37,9953.0
3660,0.3349743187427521,-1.0204825401306152,-25,6343.0,-0.2721211612224579,-212,9953.0
3670,0.33461815118789673,-2.4990453720092773,12,6343.0,-4.793312072753906,-90,9953.0
3680,0.33483555912971497,-1.4288990497589111,8,6343.0,-12.181736946105957,-22,9953.0
3690,0.3350273072719574,-2.147162437438965,-124,6343.0,-12.609343528747559,-185,9953.0
3700,0.3353601098060608,-3.2859721183776855,-30,6343.0,-9.559976577758789,-304,9953.0
3710,0.336168110370636,-0.1191648319363594,38,6343.0,-8.460012435913086,-66,9953.0
3720,0.33646970987319946,2.470470428466797,21,6343.0,-6.85762882232666,24,9953.0
3730,0.33676186203956604,3.1666882038116455,39,6343.0,-1.3908746242523193,-80,9953.0
3740,0.3370271623134613,2.4769606590270996,56,6343.0,0.6486004590988159,3,9953.0
3750,0.33729735016822815,0.7166622877120972,17,6343.0,0.697932243347168,128,9953.0
3760,0.33658507466316223,-0.8184956908226013,-62,6343.0,3.0342705249786377,38,9953.0
3770,0.33692020177841187,-2.8497278690338135,-44,6343.0,5.827438831329346,1,9953.0
3780,0.33735424280166626,-3.363382577896118,-73,6343.0,6.487265586853027,205,9953.0
3790,0.33787354826927185,-0.7649469375610352,31,6343.0,7.321258068084717,197,9953.0
3800,0.3362615704536438,0.3493953049182892,-43,6343.0,9.611425399780273,112,9953.0
3810,0.336504191160202,2.4477765560150146,58,6343.0,9.12906551361084,136,9953.0
3820,0.33667415380477905,2.036893606185913,83,6343.0,7.784503936767578,104,9953.0
3830,0.33682435750961304,1.6397998332977295,20,6343.0,7.559354782104492,82,9953.0
3840,0.3369676172733307,0.8599998950958252,-45,6343.0,5.094394683837891,214,9953.0
3850,0.3360002934932709,-1.2160180807113647,-12,6343.0,5.688811779022217,105,9953.0
3860,0.33620184659957886,-0.788992702960968,70,6343.0,5.916017532348633,-190,9953.0
3870,0.3363264203071594,-0.7120406031608582,145,6343.0,2.429757595062256,-83,9953.0
3880,0.33632466197013855,0.26760053634643555,-40,6343.0,-3.4785807132720947,116,9953.0
3890,0.3349495232105255,3.41511607170105,-51,6343.0,-4.409090995788574,35,9953.0
3900,0.3348360061645508,-0.9382641315460205,56,6343.0,-1.7267781496047974,-212,9953.0
3910,0.3348381817340851,0.44690439105033875,65,6343.0,-4.248424530029297,-110,9953.0
3920,0.3351275622844696,-1.7285780906677246,-45,6343.0,-6.752132892608643,10,9953.0
3930,0.33625131845474243,-1.5846266746520996,-59,6343.0,-5.896712303161621,-146,9953.0
3940,0.3362720310688019,-1.5524922609329224,8,6343.0,-5.625861167907715,-180,9953.0
3950,0.3362451493740082,-0.9297084212303162,67,6343.0,-4.562332630157471,-26,9953.0
3960,0.3362431824207306,1.1085193157196045,38,6343.0,-4.292943954467773,77,9953.0
3970,0.3363358676433563,1.7863599061965942,11,6343.0,-0.6534316539764404,-103,9953.0
3980,0.33509960770606995,3.315706253051758,65,6343.0,-1.1626073122024536,151,9953.0
3990,0.33523088693618774,-1.0827805995941162,66,6343.0,1.2215386629104614,-16,9953.0
4000,0.33530688285827637,0.44724389910697937,-47,6343.0,3.8668694496154785,4,9953.0
4010,0.33527982234954834,-0.3815605938434601,-41,6343.0,4.986826419830322,140,9953.0
4020,0.3358789384365082,-0.0023224090691655874,-27,6343.0,4.353228569030762,134,9953.0
4030,0.3358021676540375,-1.2142424583435059,26,6343.0,5.4528913497924805,-78,9953.0
4040,0.335784912109375,-0.8888687491416931,13,6343.0,3.3077967166900635,36,9953.0
4050,0.3357728123664856,-2.567627429962158,-84,6343.0,0.28427740931510925,186,9953.0
4060,0.335737943649292,-1.0899468660354614,-41,6343.0,0.03566862270236015,-32,9953.0
4070,0.33534368872642517,-0.28537923097610474,75,6343.0,-1.8459619283676147,-256,9953.0
4080,0.3351615369319916,1.8227903842926025,52,6343.0,-3.4038805961608887,44,9953.0
4090,0.3349483013153076,2.6839168071746826,-19,6343.0,-6.296656131744385,117,9953.0
4100,0.33480632305145264,-0.09459012001752853,-36,6343.0,-4.035185813903809,-163,9953.0
4110,0.3344728946685791,-2.2270095348358154,-5,6343.0,-4.651772975921631,-177,9953.0
4120,0.33451777696609497,-1.828229308128357,-45,6343.0,-8.669429779052734,-38,9953.0
4130,0.3346583843231201,-1.694469690322876,-76,6343.0,-7.5745086669921875,-43,9953.0
4140,0.3347679376602173,-0.5130760669708252,24,6343.0,-2.4725282192230225,-172,9953.0
4150,0.3341422975063324,1.7813578844070435,74,6343.0,-1.426253318786621,-30,9953.0
4160,0.3342408537864685,2.326321601867676,22,6343.0,-0.2690371572971344,170,9953.0
4170,0.33437469601631165,2.034902334213257,-3,6343.0,4.078760623931885,15,9953.0
4180,0.3345927894115448,-0.18758320808410645,12,6343.0,6.041274070739746,-39,9953.0
4190,0.33487066626548767,-1.5826433897018433,-24,6343.0,7.197287082672119,254,9953.0
4200,0.33525219559669495,-1.6433879137039185,-80,6343.0,10.52461051940918,258,9953.0
4210,0.33555489778518677,-1.061995506286621,-63,6343.0,13.102380752563477,103,9953.0
4220,0.3357046842575073,0.18035483360290527,43,6343.0,9.577208518981934,140,9953.0
4230,0.33578434586524963,0.14210467040538788,20,6343.0,5.153914451599121,154,9953.0
4240,0.3362258970737457,1.8737342357635498,1,6343.0,5.2373857498168945,84,9953.0
4250,0.3361930847167969,0.7346045970916748,-32,6343.0,4.644794940948486,65,9953.0
4260,0.3361643850803375,1.0348745584487915,31,6343.0,1.8989108800888062,55,9953.0
4270,0.33616453409194946,0.7065747380256653,52,6343.0,-0.30321645736694336,-39,9953.0
4280,0.33608511090278625,0.7849273681640625,12,6343.0,-1.4666532278060913,-58,9953.0
4290,0.3350978195667267,-2.60235595703125,-94,6343.0,-3.8724896907806396,-76,9953.0
4300,0.3348570168018341,-1.4103506803512573,-69,6343.0,-5.9854326248168945,-108,9953.0
4310,0.3346925377845764,-2.637687921524048,2,6343.0,-8.137042999267578,-171,9953.0
4320,0.3346516489982605,1.9009290933609009,-19,6343.0,-6.5132293701171875,-126,9953.0
4330,0.3352271318435669,0.5495587587356567,-35,6343.0,-6.472712516784668,-36,9953.0
4340,0.33538106083869934,2.5292153358459473,66,6343.0,-5.9168477058410645,-99,9953.0
4350,0.33548295497894287,2.2331228256225586,75,6343.0,-3.05935001373291,-153,9953.0
4360,0.3356078267097473,0.86295086145401,-9,6343.0,-0.09363234788179398,94,9953.0
4370,0.3365907669067383,0.08856423944234848,-34,6343.0,2.262383460998535,207,9953.0
4380,0.33681201934814453,-2.17693829536438,-10,6343.0,7.130724906921387,-52,9953.0
4390,0.3371101915836334,-1.820613145828247,26,6343.0,8.083086967468262,41,9953.0
4400,0.3374694585800171,-2.454254150390625,-57,6343.0,6.402585029602051,292,9953.0
4410,0.3378314971923828,0.3769074082374573,-40,6343.0,6.702086448669434,142,9953.0
4420,0.33612582087516785,0.8648654222488403,75,6343.0,5.46519660949707,-30,9953.0
4430,0.33612120151519775,2.7884340286254883,99,6343.0,4.16052770614624,52,9953.0
4440,0.336071640253067,0.7656315565109253,-11,6343.0,-0.007292506750673056,104,9953.0
4450,0.3360375165939331,0.8895413279533386,-54,6343.0,-2.3732025623321533,-51,9953.0
4460,0.3344111144542694,-1.1875278949737549,-13,6343.0,-5.096752166748047,-212,9953.0
4470,0.3342515528202057,-2.195488452911377,-5,6343.0,-8.722102165222168,-126,9953.0
4480,0.3340822458267212,-2.4715683460235596,-38,6343.0,-12.594128608703613,-113,9953.0
4490,0.33383849263191223,0.1449325829744339,-22,6343.0,-12.526701927185059,-250,9953.0
4500,0.33357828855514526,-0.14407621324062347,26,6343.0,-13.376830101013184,-327,9953.0
4510,0.33406975865364075,2.1494686603546143,-20,6343.0,-12.723004341125488,-57,9953.0
4520,0.33408448100090027,0.9695793390274048,76,6343.0,-6.656335830688477,-8,9953.0
4530,0.33424296975135803,0.31056469678878784,-57,6343.0,0.7128191590309143,-7,9953.0
4540,0.33456823229789734,-0.6926361918449402,-15,6343.0,4.615468978881836,115,9953.0
4550,0.33326807618141174,-3.0908138751983643,-1,6343.0,8.057007789611816,100,9953.0
4560,0.3334501385688782,-3.4070117473602295,-104,6343.0,9.312926292419434,170,9953.0
4570,0.33360210061073303,-2.190722703933716,-41,6343.0,10.609063148498535,259,9953.0
4580,0.33375459909439087,0.09618455916643143,47,6343.0,12.76812744140625,164,9953.0
4590,0.33320653438568115,1.6694324016571045,70,6343.0,12.131291389465332,127,9953.0
4600,0.3334612250328064,4.4793195724487305,33,6343.0,10.246066093444824,269,9953.0
4610,0.33369550108909607,4.0773515701293945,15,6343.0,12.305891990661621,198,9953.0
4620,0.3338262140750885,0.22858010232448578,51,6343.0,10.573280334472656,12,9953.0
4630,0.3338484466075897,0.8565588593482971,75,6343.0,6.121257781982422,9,9953.0
4640,0.33418816328048706,-1.9559825658798218,-57,6343.0,0.7443132400512695,84,9953.0
4650,0.33414188027381897,-1.6775517463684082,-109,6343.0,-2.7771379947662354,72,9953.0
4660,0.33402252197265625,-2.9673595428466797,-77,6343.0,-3.1834511756896973,-176,9953.0
4670,0.3338932991027832,-0.6877949237823486,30,6343.0,-4.457590103149414,-102,9953.0
4680,0.3335340917110443,0.9991037845611572,54,6343.0,-6.02454137802124,-64,9953.0
4690,0.3333403170108795,1.1743109226226807,10,6343.0,-5.26808500289917,-53,9953.0
4700,0.33309102058410645,0.7986897230148315,-10,6343.0,-3.3618783950805664,-122,9953.0
4710,0.3328726589679718,1.0254848003387451,-18,6343.0,-5.63615083694458,-133,9953.0
4720,0.33367568254470825,-3.206699848175049,23,6343.0,-6.438429355621338,-67,9953.0
4730,0.33373185992240906,-1.5313966274261475,-23,6343.0,-1.969939947128296,-81,9953.0
4740,0.3338681161403656,-1.3937007188796997,-81,6343.0,-2.050879955291748,-73,9953.0
4750,0.33404454588890076,-0.7698452472686768,70,6343.0,-3.038958787918091,-118,9953.0
4760,0.33416464924812317,0.7659158110618591,79,6343.0,-3.0528080463409424,-97,9953.0
4770,0.3349558711051941,3.095212697982788,-2,6343.0,-2.200810432434082,-25,9953.0
4780,0.3350936770439148,1.7931641340255737,-11,6343.0,-2.34643816947937,67,9953.0
4790,0.3352924883365631,1.1979784965515137,33,6343.0,-1.8560351133346558,-61,9953.0
4800,0.3355373740196228,-1.626706600189209,100,6343.0,-0.4155689775943756,-114,9953.0
4810,0.3350570797920227,-1.3940231800079346,-39,6343.0,2.6954617500305176,94,9953.0
4820,0.33512410521507263,0.33812186121940613,-63,6343.0,0.33262526988983154,93,9953.0
4830,0.3350929617881775,-0.49291732907295227,48,6343.0,3.3198933601379395,-46,9953.0
4840,0.3349995017051697,1.2887648344039917,38,6343.0,4.331913948059082,52,9953.0
4850,0.3349347710609436,1.3092683553695679,-45,6343.0,0.8554595708847046,129,9953.0
4860,0.33492323756217957,-0.578947901725769,-17,6343.0,-0.49957728385925293,-30,9953.0
4870,0.33496788144111633,-0.03465250879526138,31,6343.0,-1.9356718063354492,-162,9953.0
4880,0.33505791425704956,-0.8901818990707397,9,6343.0,-3.4194135665893555,-30,9953.0
4890,0.3351000249385834,-0.7453479170799255,-48,6343.0,-5.607545852661133,61,9953.0
4900,0.33505022525787354,0.3642204701900482,-6,6343.0,-3.1415677070617676,-149,9953.0
4910,0.33504003286361694,-0.3352506756782532,-7,6343.0,0.05477776750922203,-126,9953.0
4920,0.3351249694824219,0.2907260060310364,-72,6343.0,-0.5831430554389954,186,9953.0
4930,0.3353118896484375,1.416600227355957,-6,6343.0,-1.391973614692688,79,9953.0
4940,0.3346334993839264,-3.3848912715911865,-40,6343.0,0.7750336527824402,-163,9953.0
4950,0.3349892199039459,-1.7060573101043701,75,6343.0,1.2136112451553345,2,9953.0
4960,0.33532583713531494,0.6102681159973145,21,6343.0,0.5315809845924377,94,9953.0
4970,0.33559179306030273,1.7593932151794434,-27,6343.0,3.315303325653076,23,9953.0
4980,0.3358176648616791,2.2259819507598877,41,6343.0,2.9888691902160645,63,9953.0
4990,0.33533143997192383,1.0577675104141235,49,6343.0,3.3955461978912354,83,9953.0
5000,0.3355591893196106,0.580081045627594,30,6343.0,4.371057987213135,33,9953.0
5010,0.33577027916908264,-0.17095495760440826,-49,6343.0,5.9319586753845215,114,9953.0
5020,0.3359219431877136,-0.09126925468444824,-30,6343.0,2.4154186248779297,72,9953.0
5030,0.33521297574043274,-1.434280514717102,9,6343.0,2.9202511310577393,-36,9953.0
5040,0.33512449264526367,2.0696113109588623,149,6343.0,2.0955450534820557,-4,9953.0
5050,0.3349788784980774,-1.6785271167755127,-59,6343.0,5.353995323181152,171,9953.0
5060,0.33485081791877747,2.1303536891937256,-63,6343.0,1.5366218090057373,112,9953.0
5070,0.33484572172164917,-2.03420352935791,6,6343.0,2.7213797569274902,-68,9953.0
5080,0.3353780508041382,-0.22667284309864044,51,6343.0,-0.28144001960754395,-34,9953.0
5090,0.3354842960834503,0.8500050902366638,0,6343.0,-5.591602325439453,55,9953.0
5100,0.3355182111263275,-0.7946316599845886,-51,6343.0,-4.795166969299316,-79,9953.0
5110,0.33554884791374207,-0.8071996569633484,70,6343.0,-2.909773826599121,-278,9953.0
5120,0.3354036808013916,1.1240676641464233,107,6343.0,-3.6529040336608887,-70,9953.0
5130,0.335580050945282,1.7119944095611572,47,6343.0,-9.211021423339844,44,9953.0
5140,0.33582571148872375,2.622636318206787,-29,6343.0,-0.7721397280693054,-96,9953.0
5150,0.33605092763900757,-0.37365373969078064,47,6343.0,-0.43469205498695374,-70,9953.0
5160,0.33690929412841797,0.8114060759544373,-37,6343.0,-0.6179344654083252,129,9953.0
5170,0.3370605409145355,0.07864349335432053,-3,6343.0,1.2491849660873413,69,9953.0
5180,0.33718767762184143,-0.8003708720207214,-79,6343.0,2.6189818382263184,67,9953.0
5190,0.33737456798553467,-0.08325760811567307,-2,6343.0,2.027836322784424,88,9953.0
5200,0.33761516213417053,-0.44958195090293884,57,6343.0,4.9685750007629395,-7,9953.0
5210,0.33597850799560547,0.6341872811317444,18,6343.0,2.9529778957366943,12,9953.0
5220,0.3360010087490082,1.7797962427139282,-51,6343.0,-0.8169161677360535,127,9953.0
5230,0.33597874641418457,2.1184775829315186,-52,6343.0,-2.9302780628204346,47,9953.0
5240,0.33599674701690674,0.7314713597297668,11,6343.0,0.5953000783920288,-194,9953.0
5250,0.3360803425312042,-1.6870042085647583,11,6343.0,2.2481131553649902,-1,9953.0
5260,0.33628296852111816,-1.926479697227478,-107,6343.0,-1.784796953201294,145,9953.0
5270,0.3364746868610382,-1.8625428676605225,-124,6343.0,-0.3732413649559021,-46,9953.0
5280,0.33660516142845154,-0.07465866208076477,-3,6343.0,-3.299757957458496,-164,9953.0
5290,0.3366774022579193,-0.12124171853065491,57,6343.0,-4.2463507652282715,-83,9953.0
5300,0.33489230275154114,0.9358961582183838,66,6343.0,-5.462863922119141,-26,9953.0
5310,0.3349272608757019,2.093613386154175,17,6343.0,-3.156346559524536,-30,9953.0
5320,0.33497512340545654,1.0234040021896362,-36,6343.0,-4.192155838012695,128,9953.0
5330,0.3350381851196289,-0.03948815166950226,-75,6343.0,-0.7075827717781067,-37,9953.0
5340,0.3326011002063751,-2.7037887573242188,-32,6343.0,2.098987102508545,-141,9953.0
5350,0.33236849308013916,-2.546670913696289,5,6343.0,1.161072850227356,168,9953.0
5360,0.3321819305419922,0.5217289328575134,-46,6343.0,0.029470358043909073,163,9953.0
5370,0.33210939168930054,0.5139867067337036,-10,6343.0,4.277712345123291,-18,9953.0
5380,0.3328724205493927,2.941359043121338,110,6343.0,5.177102565765381,27,9953.0
5390,0.33303186297416687,1.9771901369094849,62,6343.0,4.924242973327637,176,9953.0
5400,0.3331770896911621,2.608682870864868,-19,6343.0,8.265169143676758,168,9953.0
5410,0.33329448103904724,0.12176918983459473,-7,6343.0,8.9162015914917,138,9953.0
5420,0.3334822952747345,-0.9822260141372681,-4,6343.0,7.260297775268555,83,9953.0
5430,0.3334901034832001,-1.8649861812591553,29,6343.0,3.05773663520813,-1,9953.0
5440,0.3337550759315491,-1.3299641609191895,-25,6343.0,2.1319081783294678,15,9953.0
5450,0.33413413166999817,0.07489717751741409,-50,6343.0,-1.3992873430252075,29,9953.0
5460,0.3343273997306824,1.3147432804107666,30,6343.0,-2.880124092102051,-18,9953.0
5470,0.33423757553100586,2.9416444301605225,86,6343.0,-3.62591552734375,-106,9953.0
5480,0.3342002332210541,0.8496589660644531,-12,6343.0,-2.7638330459594727,-36,9953.0
5490,0.3341450095176697,1.498486876487732,-51,6343.0,-4.172828197479248,58,9953.0
5500,0.3341638743877411,0.6279178857803345,-3,6343.0,-4.973825454711914,-95,9953.0
5510,0.33422690629959106,-2.241504192352295,31,6343.0,-2.8492777347564697,-155,9953.0
5520,0.3348916172981262,-0.5090298652648926,-13,6343.0,-2.7708873748779297,70,9953.0
5530,0.33481377363204956,-1.9205056428909302,-82,6343.0,-2.8736746311187744,76,9953.0
5540,0.3347183167934418,-1.6580320596694946,-24,6343.0,1.0634392499923706,-140,9953.0
5550,0.3346477746963501,-0.7769181728363037,25,6343.0,-0.18424922227859497,-41,9953.0
5560,0.33556509017944336,-1.5750051736831665,69,6343.0,-4.540408134460449,83,9953.0
5570,0.33567553758621216,3.157101631164551,21,6343.0,0.486644983291626,-17,9953.0
5580,0.3358316123485565,2.2728617191314697,20,6343.0,2.5108768939971924,-39,9953.0
5590,0.3359455466270447,3.5249390602111816,111,6343.0,2.534015417098999,28,9953.0
5600,0.33637285232543945,2.259063959121704,81,6343.0,0.8929817080497742,16,9953.0
5610,0.3363659977912903,0.9840220808982849,-16,6343.0,0.6629493236541748,6,9953.0
5620,0.3363555669784546,3.465623378753662,47,6343.0,-1.3950881958007812,43,9953.0
5630,0.3363337814807892,2.66215443611145,80,6343.0,-0.8034822344779968,-95,9953.0
5640,0.3362048864364624,8.285213470458984,233,6343.0,-1.5773112773895264,-145,9953.0
5650,0.3353166878223419,16.016508102416992,216,6343.0,-4.433785438537598,47,9953.0
5660,0.3345877230167389,10.254240989685059,98,6343.0,-4.758061408996582,42,9953.0
5670,0.33372828364372253,8.234841346740723,166,6343.0,-2.964568614959717,-209,9953.0
5680,0.33252066373825073,8.682607650756836,116,6343.0,-4.41508150100708,-87,9953.0
5690,0.3311838209629059,-0.7154557108879089,-93,6343.0,-4.263538360595703,60,9953.0
5700,0.32996609807014465,-10.13796615600586,-188,6343.0,-3.026582717895508,-123,9953.0
5710,0.3285481333732605,-17.3083553314209,-290,6343.0,-2.608938455581665,-30,9953.0
5720,0.327266663312912,-19.16288185119629,-337,6343.0,-1.472455620765686,-9,9953.0
5730,0.3260347545146942,-18.926902770996094,-292,6343.0,-0.7210000157356262,47,9953.0
5740,0.3237193524837494,-16.45587730407715,-256,6343.0,0.1434846818447113,146,9953.0
5750,0.3228801190853119,-3.915903091430664,-17,6343.0,4.976512908935547,-12,9953.0
5760,0.32225826382637024,1.5540404319763184,124,6343.0,6.140595436096191,44,9953.0
5770,0.32188528776168823,8.617773056030273,135,6343.0,7.760585784912109,138,9953.0
5780,0.32022008299827576,10.206727027893066,142,6343.0,8.508861541748047,135,9953.0
5790,0.32027116417884827,5.6355671882629395,73,6343.0,8.371487617492676,364,9953.0
5800,0.3205859959125519,3.7328402996063232,2,6343.0,8.907352447509766,181,9953.0
5810,0.32110077142715454,1.6075190305709839,106,6343.0,10.751026153564453,36,9953.0
5820,0.3213474750518799,3.5089621543884277,75,6343.0,8.87466049194336,54,9953.0
5830,0.3218340277671814,4.14207649230957,48,6343.0,5.9015092849731445,-40,9953.0
5840,0.3223896324634552,8.260918617248535,201,6343.0,2.3144419193267822,56,9953.0
5850,0.32269856333732605,9.8948392868042,155,6343.0,0.7520468235015869,167,9953.0
5860,0.3229916989803314,12.716676712036133,180,6343.0,-0.25892290472984314,-16,9953.0
5870,0.32269287109375,12.141035079956055,259,6343.0,-0.7724571228027344,-121,9953.0
5880,0.3225231468677521,10.38824462890625,125,6343.0,-3.9727351665496826,-109,9953.0
5890,0.32214853167533875,2.7570834159851074,-21,6343.0,-5.125307083129883,-181,9953.0
5900,0.3216683268547058,-6.158624172210693,-147,6343.0,-6.595955848693848,67,9953.0
5910,0.32304805517196655,-12.310534477233887,-264,6343.0,-7.519733428955078,51,9953.0
5920,0.32275617122650146,-19.218931198120117,-305,6343.0,-3.722684144973755,-128,9953.0
5930,0.3225933611392975,-21.54835319519043,-320,6343.0,-3.2002944946289062,-57,9953.0
5940,0.32280802726745605,-16.138994216918945,-215,6343.0,-1.32978355884552,-198,9953.0
5950,0.3232535123825073,-6.8962931632995605,-22,6343.0,-0.68930584192276,-20,9953.0
5960,0.3234425485134125,-0.2730669677257538,-7,6343.0,-1.6106945276260376,117,9953.0
5970,0.3242623209953308,6.675071716308594,101,6343.0,-0.5486252903938293,-4,9953.0
5980,0.3253008723258972,7.085374355316162,182,6343.0,-0.5018556714057922,-213,9953.0
5990,0.32617098093032837,7.1085591316223145,83,6343.0,-3.366706371307373,51,9953.0
6000,0.32840463519096375,-2.953922986984253,-127,6343.0,-4.236654281616211,39,9953.0
6010,0.32968854904174805,-10.699996948242188,-153,6343.0,-4.885167598724365,-170,9953.0
6020,0.33074459433555603,-12.463059425354004,-237,6343.0,-4.060672760009766,-45,9953.0
6030,0.3314512372016907,-13.59276294708252,-213,6343.0,0.01915236935019493,-51,9953.0
6040,0.33064329624176025,-5.812313079833984,-84,6343.0,0.9405402541160583,94,9953.0
6050,0.3304716944694519,3.924931526184082,82,6343.0,3.5798819065093994,106,9953.0
6060,0.32990196347236633,12.306681632995605,245,6343.0,4.45823860168457,-76,9953.0
6070,0.3288467526435852,14.028325080871582,242,6343.0,2.5058772563934326,121,9953.0
6080,0.3274241089820862,12.833819389343262,153,6343.0,-0.03468447923660278,93,9953.0
6090,0.3242120146751404,8.886062622070312,191,6343.0,0.2076375037431717,-74,9953.0
6100,0.3218795955181122,4.068051815032959,-16,6343.0,0.4415702819824219,-101,9953.0
6110,0.3192465603351593,-1.366182565689087,-34,6343.0,-1.8546572923660278,-65,9953.0
6120,0.3162185847759247,-5.717687606811523,-156,6343.0,-4.627053737640381,56,9953.0
6130,0.30966031551361084,-9.805465698242188,-186,6343.0,-6.723592758178711,-111,9953.0
6140,0.3057977557182312,-13.695670127868652,-223,6343.0,-8.109087944030762,-125,9953.0
6150,0.30184173583984375,-13.645267486572266,-103,6343.0,-6.691578388214111,-219,9953.0
6160,0.2977653741836548,-6.720029830932617,-32,6343.0,-4.384644031524658,-223,9953.0
6170,0.29455599188804626,-1.3315696716308594,-32,6343.0,-5.666651725769043,-115,9953.0
6180,0.29128924012184143,-6.730005264282227,-63,6343.0,-2.210630178451538,-76,9953.0
6190,0.28799405694007874,-16.00238800048828,-256,6343.0,-0.4678507149219513,-46,9953.0
6200,0.2848975956439972,-21.796030044555664,-436,6343.0,2.4006407260894775,12,9953.0
6210,0.2816915810108185,-14.058363914489746,-288,6343.0,7.539242267608643,309,9953.0
6220,0.2756338119506836,-2.1681556701660156,37,6343.0,13.896973609924316,263,9953.0
6230,0.27354589104652405,0.04592923820018768,88,6343.0,21.071657180786133,282,9953.0
6240,0.2716391980648041,-2.6825613975524902,35,6343.0,21.272409439086914,351,9953.0
6250,0.27042868733406067,-6.200337886810303,-182,6343.0,19.37196922302246,396,9953.0
6260,0.2674405872821808,-4.151407718658447,-81,6343.0,16.64748191833496,46,9953.0
6270,0.2666870653629303,-1.6789432764053345,-1,6343.0,8.532033920288086,145,9953.0
6280,0.26589435338974,3.4794862270355225,-36,6343.0,3.61438250541687,148,9953.0
6290,0.26517972350120544,2.7678229808807373,10,6343.0,2.3955929279327393,22,9953.0
6300,0.26506373286247253,4.001458644866943,164,6343.0,3.0394043922424316,51,9953.0
6310,0.2635916471481323,1.2134287357330322,-37,6343.0,4.950924873352051,193,9953.0
6320,0.26320379972457886,-3.2862346172332764,-108,6343.0,8.515495300292969,224,9953.0
6330,0.26296529173851013,-9.545385360717773,-95,6343.0,15.442925453186035,154,9953.0
6340,0.2620799243450165,-12.04183578491211,-185,6343.0,19.542274475097656,428,9953.0
6350,0.2584477663040161,-14.180643081665039,-265,6343.0,20.422929763793945,430,9953.0
6360,0.2578258514404297,-15.006568908691406,-169,6343.0,21.7548770904541,213,9953.0
6370,0.25690221786499023,-15.063603401184082,-214,6343.0,22.740148544311523,480,9953.0
6380,0.25550973415374756,-13.752596855163574,-271,6343.0,20.959842681884766,426,9953.0
6390,0.2528965473175049,-14.748806953430176,-151,6343.0,21.449155807495117,306,9953.0
6400,0.2512689530849457,-11.469176292419434,-213,6343.0,21.85392951965332,444,9953.0
6410,0.2506415545940399,-7.153226375579834,-36,6343.0,24.290504455566406,338,9953.0
6420,0.24916787445545197,1.4205818176269531,107,6343.0,25.589859008789062,509,9953.0
6430,0.24630649387836456,10.255311965942383,164,6343.0,25.84555435180664,384,9953.0
6440,0.24783393740653992,15.674248695373535,370,6343.0,28.412649154663086,516,9953.0
6450,0.24717281758785248,18.484886169433594,315,6343.0,32.08955383300781,609,9953.0
6460,0.24628916382789612,22.311325073242188,385,6343.0,34.975772857666016,525,9953.0
6470,0.24366521835327148,19.95902442932129,309,6343.0,36.06990051269531,709,9953.0
6480,0.24390095472335815,14.059864044189453,115,6343.0,35.55826187133789,553,9953.0
6490,0.24235586822032928,7.465434551239014,169,6343.0,34.09389114379883,487,9953.0
6500,0.24184130132198334,1.5521165132522583,-38,6343.0,32.81292724609375,592,9953.0
6510,0.23889614641666412,-0.8009428381919861,-1,6343.0,33.08666229248047,428,9953.0
6520,0.23778170347213745,-4.999631404876709,-52,6343.0,32.94581985473633,566,9953.0
6530,0.24042552709579468,-6.208213806152344,-151,6343.0,32.3195915222168,500,9953.0
6540,0.24001601338386536,-4.50255012512207,-51,6343.0,34.34291458129883,646,9953.0
6550,0.23740935325622559,-1.196446418762207,-43,6343.0,31.49692153930664,471,9953.0
6560,0.23805129528045654,2.2215657234191895,81,6343.0,30.153270721435547,554,9953.0
6570,0.23986127972602844,6.539430141448975,102,6343.0,28.5227108001709,362,9953.0
6580,0.23960092663764954,8.570087432861328,182,6343.0,27.491107940673828,481,9953.0
6590,0.2383788526058197,5.196276664733887,19,6343.0,20.664052963256836,296,9953.0
6600,0.23892873525619507,-0.06126381456851959,4,6343.0,18.864892959594727,193,9953.0
6610,0.24520699679851532,-5.499002456665039,-136,6343.0,20.815074920654297,281,9953.0
6620,0.24606601893901825,-9.985929489135742,-208,6343.0,20.36234474182129,289,9953.0
6630,0.24653616547584534,-10.778779029846191,-171,6343.0,18.21599006652832,374,9953.0
6640,0.2480841875076294,-12.939135551452637,-223,6343.0,17.066570281982422,182,9953.0
6650,0.24969126284122467,-15.233660697937012,-260,6343.0,14.41588306427002,305,9953.0
6660,0.2559411823749542,-16.58592414855957,-320,6343.0,11.006379127502441,123,9953.0
6670,0.257530152797699,-15.002924919128418,-214,6343.0,4.958258152008057,137,9953.0
6680,0.25980642437934875,-16.024011611938477,-291,6343.0,-0.31134557723999023,-105,9953.0
6690,0.2615585923194885,-14.157547950744629,-144,6343.0,-4.515881061553955,-113,9953.0
6700,0.2652980089187622,-10.46885871887207,-226,6343.0,-9.780755043029785,-137,9953.0
6710,0.26718568801879883,-4.997497081756592,5,6343.0,-14.202059745788574,-260,9953.0
6720,0.26897042989730835,0.8915863037109375,26,6343.0,-15.183589935302734,-186,9953.0
6730,0.2706860601902008,6.7290215492248535,137,6343.0,-13.896519660949707,-244,9953.0
6740,0.2724093794822693,11.252349853515625,273,6343.0,-11.254223823547363,-185,9953.0
6750,0.27611446380615234,12.315848350524902,148,6343.0,-9.630769729614258,-49,9953.0
6760,0.2776026129722595,11.445701599121094,113,6343.0,-6.499764442443848,-28,9953.0
6770,0.2791667878627777,10.024579048156738,188,6343.0,-4.2595133781433105,-186,9953.0
6780,0.2805444896221161,8.000150680541992,195,6343.0,-1.8283346891403198,-122,9953.0
6790,0.2816028892993927,5.087993621826172,102,6343.0,-4.758906841278076,3,9953.0
6800,0.282845139503479,2.5578091144561768,8,6343.0,-8.121925354003906,-34,9953.0
6810,0.2840764820575714,1.0285756587982178,0,6343.0,-10.996169090270996,-253,9953.0
6820,0.28503718972206116,-2.6073765754699707,-6,6343.0,-12.065007209777832,-378,9953.0
6830,0.2839296758174896,-2.4310355186462402,39,6343.0,-16.039762496948242,-353,9953.0
6840,0.2843187749385834,-1.7988379001617432,-20,6343.0,-19.02091407775879,-284,9953.0
6850,0.28443488478660583,-2.5038084983825684,-123,6343.0,-19.631563186645508,-269,9953.0
6860,0.2844667136669159,-0.44322606921195984,-103,6343.0,-18.07908821105957,-206,9953.0
6870,0.285015732049942,1.853410005569458,-44,6343.0,-13.82288646697998,-199,9953.0
6880,0.2833379805088043,4.000252723693848,82,6343.0,-7.969257354736328,-170,9953.0
6890,0.2830732464790344,6.810967922210693,205,6343.0,-3.7113282680511475,-123,9953.0
6900,0.2825689911842346,8.728343963623047,246,6343.0,0.5116450190544128,-19,9953.0
6910,0.2820276618003845,12.429765701293945,218,6343.0,1.7073774337768555,94,9953.0
6920,0.2786717712879181,14.928618431091309,113,6343.0,4.747028350830078,340,9953.0
6930,0.2777233421802521,13.8938570022583,148,6343.0,2.3319144248962402,229,9953.0
6940,0.27653759717941284,9.76803207397461,109,6343.0,0.6446288228034973,-51,9953.0
6950,0.27549177408218384,5.407646656036377,119,6343.0,0.5973715782165527,-75,9953.0
6960,0.27407747507095337,0.6684140563011169,98,6343.0,-2.5116403102874756,-67,9953.0
6970,0.27325770258903503,-2.438231945037842,-2,6343.0,-5.117920398712158,-78,9953.0
6980,0.2718134820461273,-4.1066575050354,-146,6343.0,-6.047358989715576,71,9953.0
6990,0.2701750099658966,-4.313307762145996,-155,6343.0,-8.108871459960938,-156,9953.0
7000,0.26856929063796997,-7.635690212249756,-64,6343.0,-11.275861740112305,-246,9953.0
7010,0.26509523391723633,-5.620641708374023,-42,6343.0,-13.593883514404297,-182,9953.0
7020,0.2633485496044159,-4.178211688995361,-126,6343.0,-11.43659782409668,-107,9953.0
7030,0.26167961955070496,-0.7887969017028809,29,6343.0,-8.953829765319824,-271,9953.0
7040,0.2601088285446167,1.9170055389404297,53,6343.0,-7.243104457855225,-79,9953.0
7050,0.2590120732784271,2.8243415355682373,-10,6343.0,-5.568674087524414,-63,9953.0
7060,0.2577561140060425,3.682406187057495,124,6343.0,-6.351003170013428,-180,9953.0
7070,0.2562568485736847,6.73858642578125,93,6343.0,-5.950062274932861,18,9953.0
7080,0.2544848918914795,8.286019325256348,123,6343.0,-4.71764612197876,-161,9953.0
7090,0.2531200647354126,7.205163478851318,147,6343.0,-3.1009976863861084,46,9953.0
7100,0.2539534568786621,6.401943683624268,63,6343.0,1.707651972770691,49,9953.0
7110,0.25340691208839417,5.608329772949219,147,6343.0,4.9129767417907715,125,9953.0
7120,0.25286462903022766,6.238239765167236,58,6343.0,7.273689270019531,74,9953.0
7130,0.2521515190601349,5.309816360473633,113,6343.0,7.467465877532959,132,9953.0
7140,0.25310271978378296,4.925825119018555,6,6343.0,3.8054680824279785,38,9953.0
7150,0.25309839844703674,2.2788872718811035,43,6343.0,2.478579521179199,139,9953.0
7160,0.25310561060905457,1.3221882581710815,-50,6343.0,2.2249741554260254,-121,9953.0
7170,0.25343701243400574,-3.866584539413452,-32,6343.0,1.2756218910217285,165,9953.0
7180,0.25468072295188904,-1.695562481880188,-16,6343.0,1.9377012252807617,-92,9953.0
7190,0.2552509903907776,-1.1750919818878174,-4,6343.0,3.2531979084014893,114,9953.0
7200,0.25586867332458496,-1.5882161855697632,-5,6343.0,2.350576877593994,-27,9953.0
7210,0.2565307319164276,0.01828829199075699,-16,6343.0,3.2617380619049072,120,9953.0
7220,0.2575435936450958,1.925294280052185,53,6343.0,2.795487403869629,15,9953.0
7230,0.26119112968444824,2.9728851318359375,24,6343.0,1.4854381084442139,129,9953.0
7240,0.2628236413002014,3.9185194969177246,93,6343.0,2.614030599594116,-13,9953.0
7250,0.2643026113510132,2.82444429397583,47,6343.0,4.582845687866211,113,9953.0
7260,0.2658119797706604,3.6694962978363037,-14,6343.0,6.284113883972168,116,9953.0
7270,0.26890575885772705,2.1940133571624756,63,6343.0,6.72075891494751,75,9953.0
7280,0.2704448401927948,2.8991198539733887,45,6343.0,5.956506252288818,168,9953.0
7290,0.27171993255615234,4.8018975257873535,17,6343.0,4.812482833862305,40,9953.0
7300,0.27359530329704285,3.670912981033325,117,6343.0,4.584408283233643,31,9953.0
7310,0.2752719819545746,3.0940206050872803,-2,6343.0,3.2345995903015137,142,9953.0
7320,0.2777719497680664,1.6810706853866577,37,6343.0,2.456634044647217,-82,9953.0
7330,0.27912017703056335,0.7389542460441589,84,6343.0,-0.4928993582725525,-33,9953.0
7340,0.28049007058143616,1.495887041091919,10,6343.0,-3.6939315795898438,4,9953.0
7350,0.2819400131702423,3.5024471282958984,-25,6343.0,-4.162083625793457,-33,9953.0
7360,0.28560665249824524,3.5946757793426514,87,6343.0,-5.149326801300049,-192,9953.0
7370,0.2871781885623932,2.6823248863220215,115,6343.0,-6.255692005157471,-178,9953.0
7380,0.28839150071144104,2.454411029815674,99,6343.0,-4.6001739501953125,-35,9953.0
7390,0.2895875871181488,6.465809345245361,76,6343.0,-2.6229960918426514,15,9953.0
7400,0.2918441891670227,7.2516961097717285,8,6343.0,-0.3927587866783142,104,9953.0
7410,0.29266953468322754,7.214648723602295,69,6343.0,2.3129072189331055,135,9953.0
7420,0.29339882731437683,8.158020973205566,88,6343.0,4.123483657836914,106,9953.0
7430,0.29390522837638855,5.723387241363525,86,6343.0,5.725778102874756,176,9953.0
7440,0.29435768723487854,3.1788206100463867,59,6343.0,9.33088493347168,132,9953.0
7450,0.2971131205558777,1.0111795663833618,5,6343.0,8.769177436828613,114,9953.0
7460,0.2972780764102936,-1.4279249906539917,14,6343.0,7.5222392082214355,99,9953.0
7470,0.2972184419631958,-3.7521049976348877,-22,6343.0,7.462957382202148,8,9953.0
7480,0.2970099449157715,-3.613102436065674,-19,6343.0,4.30988883972168,-25,9953.0
7490,0.30093151330947876,-7.345120429992676,-62,6343.0,1.3912006616592407,-97,9953.0
7500,0.3005438446998596,-10.493563652038574,-74,6343.0,2.1207258701324463,-45,9953.0
7510,0.3003073036670685,-9.6646089553833,-40,6343.0,4.2067437171936035,-100,9953.0
7520,0.29982009530067444,-9.670136451721191,-102,6343.0,5.935336112976074,-89,9953.0
7530,0.2995246350765228,-11.29315185546875,-96,6343.0,6.5467095375061035,-67,9953.0
7540,0.30153730511665344,-9.605217933654785,-61,6343.0,5.889824390411377,15,9953.0
7550,0.30087903141975403,-7.112019062042236,-23,6343.0,6.294586181640625,95,9953.0
7560,0.30049383640289307,-4.391423225402832,-69,6343.0,6.116663932800293,117,9953.0
7570,0.2997741103172302,-2.228548526763916,-62,6343.0,5.036477565765381,147,9953.0
7580,0.3027622401714325,0.7378697991371155,-98,6343.0,3.56076979637146,159,9953.0
7590,0.30242204666137695,1.9315229654312134,-53,6343.0,3.5789883136749268,150,9953.0
7600,0.30187034606933594,4.090355396270752,-61,6343.0,1.6925679445266724,68,9953.0
7610,0.30133315920829773,0.9795598983764648,-65,6343.0,0.026000656187534332,108,9953.0
7620,0.30344003438949585,-2.5583925247192383,-128,6343.0,-2.395864963531494,23,9953.0
7630,0.30276405811309814,-2.3914005756378174,-86,6343.0,-0.6257501840591431,72,9953.0
7640,0.30203142762184143,-3.520392417907715,-113,6343.0,-1.1301926374435425,70,9953.0
7650,0.3013093173503876,-3.89802885055542,-77,6343.0,1.8661580085754395,80,9953.0
7660,0.30024901032447815,-6.3005218505859375,-113,6343.0,2.252448797225952,27,9953.0
7670,0.3025370240211487,-6.4117751121521,-51,6343.0,1.5736051797866821,23,9953.0
7680,0.3017686605453491,-7.517372131347656,-109,6343.0,3.3450417518615723,17,9953.0
7690,0.3009002208709717,-7.735690593719482,-7,6343.0,3.3661258220672607,73,9953.0
7700,0.2999706566333771,-7.777950286865234,-46,6343.0,6.074542999267578,32,9953.0
7710,0.3005563020706177,-6.153276443481445,-9,6343.0,3.791550397872925,51,9953.0
7720,0.29967445135116577,-4.470571994781494,-91,6343.0,1.0626386404037476,78,9953.0
7730,0.29884281754493713,-3.086184501647949,-111,6343.0,-0.07645304501056671,84,9953.0
7740,0.29815319180488586,-2.1717686653137207,-114,6343.0,-6.04486608505249,-13,9953.0
7750,0.2975214123725891,-1.3137344121932983,-13,6343.0,-6.9500412940979,-149,9953.0
7760,0.2982187271118164,-0.8530687093734741,54,6343.0,-0.3900917172431946,-84,9953.0
7770,0.2975381016731262,-0.4115162193775177,85,6343.0,-0.383687824010849,-81,9953.0
7780,0.2969564199447632,0.24720431864261627,108,6343.0,1.129640817642212,58,9953.0
7790,0.2963206470012665,3.296052932739258,19,6343.0,0.96248859167099,103,9953.0
7800,0.2966623604297638,5.184004783630371,37,6343.0,1.7226814031600952,171,9953.0
7810,0.29606664180755615,6.575699806213379,50,6343.0,2.458125352859497,45,9953.0
7820,0.2956104874610901,5.7377095222473145,149,6343.0,1.4918941259384155,-34,9953.0
7830,0.29508599638938904,4.336938381195068,132,6343.0,4.591156959533691,-25,9953.0
7840,0.2944459021091461,3.6735475063323975,87,6343.0,4.789909839630127,98,9953.0
7850,0.29651519656181335,1.9151018857955933,-24,6343.0,3.300062417984009,178,9953.0
7860,0.2961600422859192,1.597642183303833,7,6343.0,2.237581253051758,-7,9953.0
7870,0.2958281338214874,2.6482975482940674,42,6343.0,0.6158133745193481,-36,9953.0
7880,0.29544031620025635,1.3843175172805786,92,6343.0,0.36987367272377014,-91,9953.0
7890,0.29477357864379883,0.15722449123859406,-7,6343.0,-2.238544225692749,-12,9953.0
7900,0.2944323420524597,-0.6541805267333984,-75,6343.0,-4.3900933265686035,-30,9953.0
7910,0.2941415309906006,-1.1601500511169434,-53,6343.0,-6.545968055725098,-20,9953.0
7920,0.2939899265766144,-2.8647868633270264,-35,6343.0,-5.736410140991211,-198,9953.0
7930,0.29493454098701477,-2.251858949661255,40,6343.0,-9.458893775939941,-212,9953.0
7940,0.29469600319862366,0.0937684178352356,22,6343.0,-5.903495788574219,-16,9953.0
7950,0.2943649888038635,4.428107261657715,34,6343.0,-6.6337690353393555,-48,9953.0
7960,0.2937021851539612,7.9637451171875,116,6343.0,-6.3339738845825195,-120,9953.0
7970,0.29392725229263306,9.61655044555664,249,6343.0,-4.124475479125977,-166,9953.0
7980,0.2948310375213623,15.39069652557373,305,6343.0,-4.280029296875,28,9953.0
7990,0.2948187589645386,17.2917423248291,210,6343.0,-4.219447135925293,-5,9953.0
8000,0.2946692109107971,13.461833953857422,177,6343.0,-2.8291234970092773,-32,9953.0
8010,0.29436755180358887,11.361119270324707,218,6343.0,-2.502426862716675,-170,9953.0
8020,0.29615235328674316,12.093165397644043,267,6343.0,-2.8236405849456787,-94,9953.0
8030,0.29621270298957825,15.812094688415527,209,6343.0,-4.827491283416748,19,9953.0
8040,0.29653400182724,15.025671005249023,177,6343.0,-4.173017501831055,-10,9953.0
8050,0.2968723773956299,12.949993133544922,206,6343.0,-3.673722743988037,-78,9953.0
8060,0.2999107837677002,12.1455078125,257,6343.0,-2.1954293251037598,-61,9953.0
8070,0.30014941096305847,11.257863998413086,218,6343.0,-1.075874924659729,39,9953.0
8080,0.3008951246738434,13.67821979522705,184,6343.0,-1.517767310142517,17,9953.0
8090,0.30182814598083496,14.845209121704102,237,6343.0,-2.431445837020874,-79,9953.0
8100,0.3026016354560852,15.018620491027832,277,6343.0,-5.552433013916016,-204,9953.0
8110,0.3038248121738434,13.043414115905762,313,6343.0,-8.865267753601074,-200,9953.0
8120,0.30450886487960815,12.431190490722656,165,6343.0,-10.466782569885254,-74,9953.0
8130,0.3054213523864746,9.39730453491211,31,6343.0,-13.103458404541016,-87,9953.0
8140,0.30631911754608154,1.326007604598999,-49,6343.0,-11.883076667785645,-120,9953.0
8150,0.30752331018447876,-1.6392797231674194,-65,6343.0,-11.857217788696289,-235,9953.0
8160,0.3084340989589691,-2.56015682220459,-23,6343.0,-8.852134704589844,-221,9953.0
8170,0.30921900272369385,-1.837740182876587,73,6343.0,-9.815418243408203,-292,9953.0
8180,0.3100380599498749,-0.9403430819511414,89,6343.0,-8.035571098327637,-113,9953.0
8190,0.3107752501964569,1.7273563146591187,67,6343.0,-5.146193504333496,-17,9953.0
8200,0.3122252821922302,2.659680128097534,1,6343.0,-2.2126808166503906,43,9953.0
8210,0.31280043721199036,4.2922163009643555,-35,6343.0,1.047724723815918,137,9953.0
8220,0.313498318195343,1.1723638772964478,-63,6343.0,1.2916587591171265,95,9953.0
8230,0.3140716850757599,-1.5617213249206543,-93,6343.0,4.386959552764893,137,9953.0
8240,0.31512701511383057,-4.04585075378418,-165,6343.0,5.1894145011901855,81,9953.0
8250,0.3155422508716583,-3.294921398162842,-61,6343.0,3.20674467086792,64,9953.0
8260,0.3158847391605377,-5.273828029632568,-18,6343.0,0.7792477011680603,-86,9953.0
8270,0.31614843010902405,-6.607621669769287,-38,6343.0,0.3767756521701813,-36,9953.0
8280,0.31594377756118774,-6.680273532867432,-13,6343.0,2.179614305496216,-85,9953.0
8290,0.3161672353744507,-5.87680196762085,41,6343.0,-1.4497662782669067,-83,9953.0
8300,0.31631073355674744,-1.5097956657409668,71,6343.0,-2.4229953289031982,66,9953.0
8310,0.3165493607521057,0.7842475175857544,12,6343.0,-0.251168429851532,55,9953.0
8320,0.3168736696243286,-1.2496658563613892,-21,6343.0,-0.050728436559438705,48,9953.0
8330,0.316772997379303,0.45234283804893494,-72,6343.0,0.8060147762298584,67,9953.0
8340,0.3170149326324463,-2.5344319343566895,-96,6343.0,1.7349928617477417,162,9953.0
8350,0.3172198235988617,-4.441788673400879,-182,6343.0,1.6529518365859985,110,9953.0
8360,0.3173350691795349,-6.621721267700195,-261,6343.0,3.328880548477173,149,9953.0
8370,0.3179682195186615,-10.991676330566406,-276,6343.0,4.013549327850342,121,9953.0
8380,0.31780344247817993,-9.932816505432129,-257,6343.0,2.486618995666504,191,9953.0
8390,0.31798312067985535,-10.726093292236328,-229,6343.0,1.2687692642211914,131,9953.0
8400,0.31773966550827026,-11.180932998657227,-212,6343.0,1.7847845554351807,-5,9953.0
8410,0.3173878490924835,-10.237256050109863,-181,6343.0,1.1455470323562622,10,9953.0
8420,0.31614673137664795,-6.264325141906738,2,6343.0,-0.09315760433673859,-92,9953.0
8430,0.3155212700366974,-5.3535261154174805,-20,6343.0,1.1805696487426758,49,9953.0
8440,0.3149724006652832,-2.834611415863037,31,6343.0,4.122357368469238,-51,9953.0
8450,0.3145751655101776,-0.5240615010261536,74,6343.0,1.729758620262146,80,9953.0
8460,0.3140474855899811,3.1015477180480957,81,6343.0,3.058311700820923,39,9953.0
8470,0.3136556148529053,1.6586028337478638,-27,6343.0,3.5567800998687744,188,9953.0
8480,0.3133988082408905,-0.9399229884147644,-140,6343.0,5.863018989562988,248,9953.0
8490,0.31305813789367676,-3.880028486251831,-195,6343.0,6.015355587005615,235,9953.0
8500,0.31316521763801575,-5.0533127784729,-111,6343.0,7.507015228271484,105,9953.0
8510,0.3127657473087311,-7.814980506896973,-103,6343.0,5.4955949783325195,108,9953.0
8520,0.3122982382774353,-6.232009410858154,-68,6343.0,6.60292911529541,-30,9953.0
8530,0.3116975724697113,-2.676624298095703,63,6343.0,6.153263092041016,12,9953.0
8540,0.3111776113510132,-1.5948973894119263,7,6343.0,5.045191764831543,92,9953.0
8550,0.31075605750083923,0.3405189514160156,-127,6343.0,4.519736289978027,170,9953.0
8560,0.3103046119213104,-3.7170751094818115,-42,6343.0,5.5882954597473145,101,9953.0
8570,0.3098191022872925,-3.1213619709014893,-124,6343.0,4.046517372131348,152,9953.0
8580,0.3094342350959778,-5.0199055671691895,-173,6343.0,4.360493183135986,137,9953.0
8590,0.3088681697845459,-7.2103495597839355,-178,6343.0,3.4894628524780273,39,9953.0
8600,0.3081395626068115,-7.362593173980713,-97,6343.0,1.6634554862976074,-64,9953.0
8610,0.30747392773628235,-7.289578914642334,-14,6343.0,0.6865969896316528,-44,9953.0
8620,0.3069562017917633,-6.540210723876953,-38,6343.0,-0.8705737590789795,5,9953.0
8630,0.30649471282958984,-6.095454216003418,-123,6343.0,1.1357969045639038,121,9953.0
8640,0.3064090609550476,-0.9681988954544067,-53,6343.0,2.356602668762207,86,9953.0
8650,0.30593132972717285,-0.005229669623076916,-8,6343.0,3.6744420528411865,-33,9953.0
8660,0.3056524991989136,1.5314085483551025,62,6343.0,2.490600109100342,-39,9953.0
8670,0.3055034279823303,1.4797743558883667,75,6343.0,2.2212905883789062,79,9953.0
8680,0.30566731095314026,0.6647217869758606,-74,6343.0,1.830541968345642,123,9953.0
8690,0.3056023418903351,0.37356919050216675,-62,6343.0,2.93453049659729,30,9953.0
8700,0.30557116866111755,-0.22971364855766296,45,6343.0,1.6041576862335205,-87,9953.0
8710,0.30581188201904297,2.034261703491211,101,6343.0,0.2916261851787567,36,9953.0
8720,0.307923823595047,1.9445860385894775,27,6343.0,0.33516451716423035,49,9953.0
8730,0.30841970443725586,2.5438590049743652,-45,6343.0,2.7556469440460205,44,9953.0
8740,0.30884748697280884,-0.4601920247077942,-41,6343.0,2.102814197540283,-27,9953.0
8750,0.30925023555755615,-1.7964661121368408,16,6343.0,1.4285246133804321,-79,9953.0
8760,0.3097015619277954,-1.2490047216415405,62,6343.0,2.030550718307495,44,9953.0
8770,0.31054332852363586,-1.422354817390442,-85,6343.0,1.8217666149139404,164,9953.0
8780,0.3112873136997223,-1.446286916732788,-78,6343.0,0.03079509176313877,-15,9953.0
8790,0.3123209774494171,-0.7077032327651978,-12,6343.0,-0.18920013308525085,-68,9953.0
8800,0.31305932998657227,-0.03312429413199425,66,6343.0,-1.3903207778930664,-162,9953.0
8810,0.31531837582588196,0.6212460994720459,87,6343.0,-3.8641042709350586,-58,9953.0
8820,0.31622764468193054,2.6187033653259277,-13,6343.0,-3.835413932800293,-21,9953.0
8830,0.3171629011631012,2.6011910438537598,0,6343.0,-5.952061653137207,-27,9953.0
8840,0.31807318329811096,2.358447313308716,24,6343.0,-6.037105083465576,-63,9953.0
8850,0.31963396072387695,3.4558706283569336,87,6343.0,-2.4751267433166504,-194,9953.0
8860,0.32048070430755615,1.8296507596969604,152,6343.0,-1.295297622680664,-126,9953.0
8870,0.32140612602233887,0.4779999554157257,74,6343.0,-2.46879506111145,-135,9953.0
8880,0.32237303256988525,-0.21294420957565308,36,6343.0,-2.5904037952423096,105,9953.0
8890,0.32325294613838196,-3.7819881439208984,-50,6343.0,-2.038745164871216,-15,9953.0
8900,0.3240486681461334,-2.557772636413574,-146,6343.0,-3.1535613536834717,101,9953.0
8910,0.3248930871486664,-0.06646908819675446,-155,6343.0,-2.053513288497925,31,9953.0
8920,0.32562020421028137,-1.752642273902893,-51,6343.0,-2.9690799713134766,48,9953.0
8930,0.32631492614746094,0.7342170476913452,-20,6343.0,-3.6561405658721924,-22,9953.0
8940,0.32768774032592773,2.3378419876098633,45,6343.0,-2.6691722869873047,-38,9953.0
8950,0.3283010721206665,1.2019524574279785,21,6343.0,-2.636467218399048,-136,9953.0
8960,0.3287416100502014,0.07295611500740051,70,6343.0,-1.1165251731872559,-129,9953.0
8970,0.3293197453022003,0.5203508734703064,81,6343.0,-2.1035189628601074,-157,9953.0
8980,0.32965418696403503,1.3008850812911987,149,6343.0,-4.495881080627441,-180,9953.0
8990,0.3295460641384125,0.7111834287643433,165,6343.0,-2.135335922241211,-223,9953.0
9000,0.3298446834087372,0.9918928146362305,110,6343.0,-2.2224605083465576,-76,9953.0
9010,0.33000341057777405,0.471351683139801,86,6343.0,-1.4793630838394165,-131,9953.0
9020,0.329935222864151,-0.5206802487373352,20,6343.0,-2.5149736404418945,-78,9953.0
9030,0.33028092980384827,2.3119804859161377,14,6343.0,-3.5392019748687744,-34,9953.0
9040,0.330007940530777,1.4842956066131592,9,6343.0,-2.4272077083587646,19,9953.0
9050,0.32953810691833496,1.1180983781814575,-61,6343.0,0.8188102841377258,128,9953.0
9060,0.3290136754512787,0.715917706489563,-91,6343.0,0.7969798445701599,111,9953.0
9070,0.32839518785476685,-0.6025126576423645,-128,6343.0,2.43843150138855,155,9953.0
9080,0.32952916622161865,0.5645306706428528,-64,6343.0,1.8857154846191406,181,9953.0
9090,0.3288864195346832,0.1181807667016983,-71,6343.0,1.1186809539794922,92,9953.0
9100,0.3282783329486847,1.9017736911773682,-13,6343.0,-1.9198898077011108,-10,9953.0
9110,0.3274465799331665,4.709212303161621,109,6343.0,0.36493802070617676,-58,9953.0
9120,0.3284246623516083,6.293692588806152,133,6343.0,0.4760710299015045,-20,9953.0
9130,0.32775312662124634,4.552183628082275,151,6343.0,5.007617473602295,21,9953.0
9140,0.32705265283584595,4.034255504608154,121,6343.0,3.817192792892456,183,9953.0
9150,0.32640475034713745,1.5342978239059448,2,6343.0,5.655780792236328,129,9953.0
9160,0.3281199336051941,0.7629078030586243,-38,6343.0,3.0825538635253906,128,9953.0
9170,0.3275010287761688,0.4831029176712036,-73,6343.0,-0.8246994018554688,81,9953.0
9180,0.3269602358341217,0.2693789601325989,-30,6343.0,0.2678121328353882,-5,9953.0
9190,0.3263995051383972,-2.39286732673645,5,6343.0,2.446493625640869,-78,9953.0
9200,0.3258631229400635,-3.1769163608551025,53,6343.0,1.110393762588501,-72,9953.0
9210,0.32716426253318787,-3.0223920345306396,-34,6343.0,0.7529831528663635,34,9953.0
9220,0.32668426632881165,-1.9024605751037598,24,6343.0,-0.9429011940956116,-20,9953.0
9230,0.3262590169906616,-0.33526962995529175,-51,6343.0,0.9237701296806335,166,9953.0
9240,0.3258879482746124,-1.4339039325714111,-90,6343.0,4.321107387542725,94,9953.0
9250,0.3268456757068634,0.3703126609325409,-5,6343.0,4.031982898712158,42,9953.0
9260,0.32642361521720886,1.3687812089920044,33,6343.0,4.9915852546691895,-2,9953.0
9270,0.326077401638031,1.0892142057418823,139,6343.0,4.201745986938477,40,9953.0
9280,0.32585087418556213,1.4485180377960205,50,6343.0,3.6937530040740967,177,9953.0
9290,0.32549571990966797,1.5089036226272583,-68,6343.0,1.3147274255752563,107,9953.0
9300,0.32644766569137573,-0.491117924451828,-76,6343.0,2.1861116886138916,53,9953.0
9310,0.3262769281864166,-1.169306755065918,8,6343.0,0.11951777338981628,-72,9953.0
9320,0.32601839303970337,-1.0701642036437988,65,6343.0,-1.1875205039978027,-132,9953.0
9330,0.32599422335624695,-1.5611915588378906,42,6343.0,-1.887827754020691,-16,9953.0
9340,0.3282448947429657,-0.8461222648620605,-81,6343.0,-4.121967315673828,-5,9953.0
9350,0.328274667263031,-1.189886212348938,-75,6343.0,-4.168500900268555,-43,9953.0
9360,0.3282648026943207,-2.8664610385894775,-68,6343.0,-2.9826841354370117,-74,9953.0
9370,0.3282697796821594,-4.0641608238220215,-19,6343.0,-4.210800647735596,-169,9953.0
9380,0.3320843279361725,-2.710800886154175,13,6343.0,-5.1803154945373535,-124,9953.0
9390,0.3324209153652191,-3.6373536586761475,-52,6343.0,-7.144259452819824,-51,9953.0
9400,0.33274132013320923,-2.878077507019043,-143,6343.0,-7.687689781188965,-83,9953.0
9410,0.3332718312740326,-3.118931531906128,-107,6343.0,-6.47068977355957,-43,9953.0
9420,0.3338265120983124,-2.7162084579467773,-58,6343.0,-9.247383117675781,-192,9953.0
9430,0.33574432134628296,-1.7327290773391724,23,6343.0,-7.5960917472839355,-207,9953.0
9440,0.33625292778015137,0.7487704157829285,111,6343.0,-4.013766765594482,-154,9953.0
9450,0.33686718344688416,1.8489876985549927,137,6343.0,-4.005716800689697,-31,9953.0
9460,0.33755892515182495,1.870676875114441,96,6343.0,-2.0432686805725098,57,9953.0
9470,0.33952710032463074,1.807433009147644,-36,6343.0,-2.2305238246917725,-46,9953.0
9480,0.33999964594841003,-1.2883256673812866,-56,6343.0,0.24070988595485687,107,9953.0
9490,0.3404669761657715,-1.039616346359253,-86,6343.0,0.38309726119041443,146,9953.0
9500,0.34084105491638184,-1.040217638015747,-123,6343.0,-0.050193991512060165,110,9953.0
9510,0.34144511818885803,-2.896378993988037,-107,6343.0,1.8682241439819336,126,9953.0
9520,0.34171247482299805,-2.171522378921509,-73,6343.0,2.9277830123901367,150,9953.0
9530,0.34189632534980774,-2.173609733581543,-54,6343.0,3.2455859184265137,151,9953.0
9540,0.3420441150665283,-4.381703853607178,-111,6343.0,4.744576454162598,112,9953.0
9550,0.3422345519065857,-4.718511581420898,-80,6343.0,1.4401284456253052,75,9953.0
9560,0.3441915214061737,-2.0541083812713623,-4,6343.0,0.22618384659290314,28,9953.0
9570,0.34433621168136597,-1.9728020429611206,-24,6343.0,1.2646300792694092,45,9953.0
9580,0.3444351851940155,1.8480080366134644,44,6343.0,-0.0584246926009655,1,9953.0
9590,0.34443169832229614,0.35501617193222046,-9,6343.0,0.36030831933021545,18,9953.0
9600,0.3464924395084381,0.4139370918273926,7,6343.0,3.3140008449554443,9,9953.0
9610,0.3463713228702545,-2.0539145469665527,0,6343.0,2.275806188583374,35,9953.0
9620,0.34606146812438965,-0.1584688276052475,28,6343.0,4.015695095062256,64,9953.0
9630,0.34571465849876404,-0.426780641078949,-23,6343.0,4.558651924133301,29,9953.0
9640,0.34528130292892456,-0.4079676568508148,59,6343.0,6.524257659912109,68,9953.0
9650,0.34407058358192444,-0.7968637943267822,46,6343.0,6.5157551765441895,16,9953.0
9660,0.34351301193237305,0.5714311003684998,106,6343.0,5.832329750061035,-13,9953.0
9670,0.34282857179641724,1.5230590105056763,117,6343.0,5.193344593048096,-95,9953.0
9680,0.34204065799713135,0.4569718539714813,116,6343.0,2.0133466720581055,67,9953.0
9690,0.3410419523715973,1.6971815824508667,73,6343.0,2.5728256702423096,-18,9953.0
9700,0.3398832082748413,-0.05888490378856659,43,6343.0,3.0847952365875244,17,9953.0
9710,0.3386719524860382,0.8453481197357178,41,6343.0,4.001681327819824,50,9953.0
9720,0.3374040424823761,0.47108194231987,-59,6343.0,2.6502671241760254,126,9953.0
9730,0.3367927372455597,0.47955796122550964,-80,6343.0,2.9924464225769043,104,9953.0
9740,0.3354964554309845,1.9309300184249878,-119,6343.0,2.0054829120635986,235,9953.0
9750,0.3341708779335022,1.4384729862213135,-30,6343.0,3.937732696533203,161,9953.0
9760,0.3328622281551361,1.6245827674865723,13,6343.0,4.1443681716918945,-17,9953.0
9770,0.3316285312175751,1.8910127878189087,117,6343.0,5.238326549530029,26,9953.0
9780,0.33388346433639526,-0.39543041586875916,39,6343.0,4.442585468292236,32,9953.0
9790,0.33281078934669495,-0.5802321434020996,8,6343.0,3.782743453979492,177,9953.0
9800,0.3317253291606903,-2.44193172454834,-109,6343.0,4.783243656158447,119,9953.0
9810,0.33078184723854065,-0.07548028975725174,-32,6343.0,1.8433036804199219,-18,9953.0
9820,0.33267685770988464,-0.6983068585395813,50,6343.0,2.589399576187134,-18,9953.0
9830,0.33199021220207214,-0.11626075208187103,55,6343.0,2.7423324584960938,112,9953.0
9840,0.3312813639640808,0.7539283037185669,82,6343.0,1.9928241968154907,123,9953.0
9850,0.3306777775287628,1.957235336303711,-42,6343.0,2.996886968612671,103,9953.0
9860,0.3301876187324524,0.9932167530059814,-25,6343.0,3.8952178955078125,60,9953.0
9870,0.33210065960884094,0.7361325025558472,45,6343.0,4.458012580871582,-1,9953.0
9880,0.33186250925064087,0.742155134677887,101,6343.0,4.72864294052124,164,9953.0
9890,0.3316204845905304,0.4137401878833771,2,6343.0,1.6165015697479248,130,9953.0
9900,0.3313673138618469,-0.04446287825703621,-59,6343.0,2.6653575897216797,116,9953.0
9910,0.332664430141449,-2.0726921558380127,28,6343.0,2.8491756916046143,-69,9953.0
9920,0.33269092440605164,-0.8944295644760132,85,6343.0,0.4500674605369568,-53,9953.0
9930,0.33279332518577576,-0.4990953505039215,-37,6343.0,-4.214879989624023,28,9953.0
9940,0.3328743278980255,1.6245863437652588,-42,6343.0,-3.9180734157562256,-6,9953.0
9950,0.3340671956539154,0.765317440032959,-15,6343.0,-4.270225524902344,-120,9953.0
9960,0.33407658338546753,-0.1880662590265274,33,6343.0,-1.9682577848434448,-137,9953.0
9970,0.3341246545314789,0.5475485324859619,48,6343.0,-3.0453286170959473,-22,9953.0
9980,0.33423399925231934,0.8689551949501038,-40,6343.0,-1.7752703428268433,39,9953.0
9990,0.3343145549297333,-1.1964980363845825,-75,6343.0,0.7199122905731201,63,9953.0
10000,0.33457034826278687,-1.6118507385253906,-46,6343.0,3.3804545402526855,-13,9953.0
10010,0.33447515964508057,-2.1755104064941406,14,6343.0,2.3656744956970215,-28,9953.0
10020,0.33441948890686035,-1.670737624168396,75,6343.0,1.7422512769699097,-42,9953.0
10030,0.33442601561546326,-0.5451741814613342,-1,6343.0,-1.1191227436065674,64,9953.0
10040,0.3364928662776947,-1.1129143238067627,-92,6343.0,-1.0357016324996948,27,9953.0
10050,0.3364054262638092,0.8944698572158813,-13,6343.0,-3.0418426990509033,0,9953.0
10060,0.33626487851142883,1.489506483078003,11,6343.0,-1.6977828741073608,-71,9953.0
10070,0.33624663949012756,2.3211584091186523,98,6343.0,-1.3169841766357422,-184,9953.0
10080,0.3363032042980194,3.106499195098877,109,6343.0,-3.6988673210144043,-17,9953.0
10090,0.33771851658821106,3.4587292671203613,74,6343.0,-3.0121541023254395,23,9953.0
10100,0.3377223312854767,3.2377941608428955,-61,6343.0,-3.236051321029663,42,9953.0
10110,0.3377537727355957,1.4857654571533203,-25,6343.0,-3.370377779006958,44,9953.0
10120,0.3378402590751648,1.0177899599075317,-38,6343.0,-1.1429189443588257,-23,9953.0
10130,0.3395451605319977,0.5981501340866089,41,6343.0,-1.37832510471344,-83,9953.0
10140,0.3398081958293915,0.23050127923488617,77,6343.0,-0.428290456533432,-119,9953.0
10150,0.3400830626487732,1.1411411762237549,144,6343.0,-4.926270961761475,-128,9953.0
10160,0.340332567691803,-0.3241254389286041,45,6343.0,-2.5768089294433594,-133,9953.0
10170,0.34215760231018066,0.26433202624320984,78,6343.0,-3.6379354000091553,-50,9953.0
10180,0.34223100543022156,0.7884561419487,-22,6343.0,-5.327532768249512,23,9953.0
10190,0.34230905771255493,2.477945566177368,-93,6343.0,-2.9070661067962646,89,9953.0
10200,0.3422856032848358,0.9938392043113708,-137,6343.0,-3.7102630138397217,72,9953.0
10210,0.3421642482280731,0.599336564540863,-90,6343.0,-1.2794228792190552,41,9953.0
10220,0.34603556990623474,-0.48775097727775574,-69,6343.0,-2.1391773223876953,-16,9953.0
10230,0.34630292654037476,-0.5784616470336914,6,6343.0,-0.9468891024589539,-9,9953.0
10240,0.34653544425964355,-0.6648927330970764,22,6343.0,0.6179323196411133,-103,9953.0
10250,0.34669214487075806,-0.682041585445404,71,6343.0,1.0954960584640503,-80,9953.0
10260,0.3487740159034729,-0.3475887179374695,139,6343.0,0.40358778834342957,-66,9953.0
10270,0.3488854765892029,-2.763423204421997,32,6343.0,2.2286875247955322,-39,9953.0
10280,0.3488335907459259,-2.2784817218780518,30,6343.0,0.2959601581096649,-69,9953.0
10290,0.3486628532409668,-1.417846441268921,27,6343.0,-0.5806840062141418,70,9953.0
10300,0.3483344316482544,0.34094730019569397,-9,6343.0,-1.2003865242004395,17,9953.0
10310,0.34899547696113586,3.0196828842163086,-29,6343.0,-4.552119731903076,-72,9953.0
10320,0.34864452481269836,1.2353429794311523,-81,6343.0,-3.057777166366577,44,9953.0
10330,0.34821638464927673,1.1645530462265015,-18,6343.0,-6.62723445892334,13,9953.0
10340,0.3477749824523926,1.471874475479126,-74,6343.0,-6.217301368713379,8,9953.0
10350,0.349594384431839,-0.5530654191970825,-40,6343.0,-4.664219379425049,-17,9953.0
10360,0.34920239448547363,-0.5678622126579285,26,6343.0,-2.890275001525879,12,9953.0
10370,0.3487667143344879,0.8535573482513428,-20,6343.0,0.29595044255256653,-53,9953.0
10380,0.3482992351055145,-0.21342810988426208,87,6343.0,2.7433266639709473,10,9953.0
10390,0.34974199533462524,-1.6515017747879028,51,6343.0,4.654253005981445,-56,9953.0
10400,0.34913280606269836,-2.014286994934082,89,6343.0,2.0119054317474365,52,9953.0
10410,0.3485899865627289,0.19672691822052002,8,6343.0,0.3326945900917053,75,9953.0
10420,0.34804946184158325,1.562827229499817,8,6343.0,0.14447751641273499,87,9953.0
10430,0.3475005030632019,1.688814640045166,-100,6343.0,-0.7635212540626526,106,9953.0
10440,0.3482363224029541,0.717474102973938,-83,6343.0,-2.4894440174102783,80,9953.0
10450,0.34782227873802185,0.8874123692512512,-35,6343.0,-3.2271180152893066,3,9953.0
10460,0.3472713530063629,0.6158978343009949,-6,6343.0,-2.9928858280181885,-135,9953.0
10470,0.3466728627681732,-0.9832004308700562,82,6343.0,-3.4011940956115723,-116,9953.0
10480,0.34872856736183167,-1.0650185346603394,26,6343.0,-0.7917240858078003,-40,9953.0
10490,0.3481338620185852,-2.250833034515381,79,6343.0,-0.9574906229972839,-45,9953.0
10500,0.3474843502044678,-1.4855903387069702,-33,6343.0,1.4407390356063843,-83,9953.0
10510,0.3468928933143616,-2.3119828701019287,-40,6343.0,0.4208080768585205,-33,9953.0
10520,0.34631988406181335,-2.0663979053497314,-2,6343.0,0.010167908854782581,43,9953.0
10530,0.3463129997253418,-1.2055054903030396,-58,6343.0,-0.22817635536193848,76,9953.0
10540,0.3457232713699341,-0.7402042746543884,-118,6343.0,0.6062958836555481,123,9953.0
10550,0.3452361822128296,0.17410244047641754,-37,6343.0,0.567589521408081,6,9953.0
10560,0.3447554409503937,0.6881299614906311,18,6343.0,2.0452442169189453,1,9953.0
10570,0.34731990098953247,-1.585800290107727,20,6343.0,3.288501024246216,-86,9953.0
10580,0.3470120131969452,0.7162618041038513,125,6343.0,4.052421569824219,-75,9953.0
10590,0.3466416001319885,-0.5021007061004639,52,6343.0,1.413375735282898,8,9953.0
10600,0.3461442291736603,1.1693127155303955,6,6343.0,1.4595062732696533,86,9953.0
10610,0.3453686535358429,-1.3159760236740112,-87,6343.0,1.13700270652771,136,9953.0
10620,0.34493982791900635,-2.076486587524414,-215,6343.0,2.792823553085327,186,9953.0
10630,0.3446086049079895,-4.088657379150391,-131,6343.0,4.662458896636963,79,9953.0
10640,0.3442428410053253,-3.8228745460510254,-89,6343.0,3.96828293800354,51,9953.0
10650,0.3439323604106903,-3.774109125137329,-15,6343.0,4.008940696716309,-35,9953.0
10660,0.34383127093315125,-2.7040975093841553,47,6343.0,3.7706072330474854,18,9953.0
10670,0.34360453486442566,-1.7423006296157837,31,6343.0,0.873089611530304,3,9953.0
10680,0.3433893322944641,1.795452356338501,-58,6343.0,0.6651864051818848,52,9953.0
10690,0.3432844281196594,0.0020646252669394016,-33,6343.0,1.6503263711929321,90,9953.0
10700,0.3450366258621216,2.2577195167541504,3,6343.0,-0.4550539255142212,11,9953.0
10710,0.3450169861316681,0.9517253637313843,42,6343.0,1.0613689422607422,-20,9953.0
10720,0.344958633184433,1.6623945236206055,78,6343.0,-0.33688199520111084,-91,9953.0
10730,0.3448829650878906,-1.1210349798202515,83,6343.0,-1.2297309637069702,-55,9953.0
10740,0.34470245242118835,3.1566224098205566,36,6343.0,-0.6334385275840759,134,9953.0
10750,0.3452460765838623,2.6824285984039307,-25,6343.0,3.624056339263916,128,9953.0
10760,0.34487083554267883,-0.11355713754892349,-41,6343.0,4.059283256530762,150,9953.0
10770,0.3446003794670105,2.250941514968872,-65,6343.0,2.4554338455200195,76,9953.0
10780,0.3444135785102844,-1.1429040431976318,-45,6343.0,4.222137928009033,58,9953.0
10790,0.34566524624824524,-0.6424716711044312,21,6343.0,1.6234616041183472,-43,9953.0
10800,0.34554192423820496,-1.421614646911621,62,6343.0,0.5115557312965393,-156,9953.0
10810,0.3455135226249695,-1.7106900215148926,70,6343.0,-0.5070813298225403,-107,9953.0
10820,0.3454347848892212,0.33732038736343384,91,6343.0,-0.2977963387966156,-21,9953.0
10830,0.34707531332969666,1.733832597732544,-8,6343.0,0.022666288539767265,106,9953.0
10840,0.3470968008041382,3.117628574371338,-83,6343.0,0.9336077570915222,153,9953.0
10850,0.3471403121948242,0.6078416705131531,-88,6343.0,1.1181681156158447,121,9953.0
10860,0.3471084237098694,0.08242505043745041,-26,6343.0,1.490410566329956,20,9953.0
10870,0.3470553457736969,-2.194833517074585,-19,6343.0,3.670036792755127,-88,9953.0
10880,0.3458215296268463,-0.8926615715026855,88,6343.0,4.6539411544799805,-27,9953.0
10890,0.3456258177757263,-2.188086986541748,105,6343.0,3.7116715908050537,-74,9953.0
10900,0.3452538251876831,-1.8638886213302612,42,6343.0,-0.9206076860427856,16,9953.0
10910,0.34480637311935425,-0.010340772569179535,-68,6343.0,-1.3960347175598145,80,9953.0
10920,0.34504032135009766,0.507116973400116,-80,6343.0,-3.522834062576294,101,9953.0
10930,0.3448151648044586,1.2925348281860352,-68,6343.0,-2.770921230316162,50,9953.0
10940,0.3446192145347595,1.3465043306350708,-25,6343.0,-0.3457714319229126,-14,9953.0
10950,0.3445105254650116,3.0082404613494873,78,6343.0,2.3989052772521973,-48,9953.0
10960,0.3423410654067993,2.5586910247802734,97,6343.0,2.0920183658599854,-92,9953.0
10970,0.3420484960079193,0.8057695627212524,133,6343.0,2.9469029903411865,18,9953.0
10980,0.3417019546031952,1.013311505317688,22,6343.0,3.385363817214966,87,9953.0
10990,0.3414978086948395,-1.2497801780700684,-54,6343.0,4.746372222900391,162,9953.0
11000,0.3413611054420471,-2.5479793548583984,-144,6343.0,3.289357900619507,143,9953.0
11010,0.34216299653053284,-2.4187028408050537,-60,6343.0,1.5827635526657104,36,9953.0
11020,0.34194132685661316,-3.2830169200897217,-61,6343.0,4.157166481018066,28,9953.0
11030,0.3417680561542511,-2.977909564971924,7,6343.0,1.009924292564392,-93,9953.0
11040,0.3415042459964752,-4.239630222320557,43,6343.0,0.30822551250457764,-37,9953.0
11050,0.3414574861526489,-0.7569913268089294,-35,6343.0,-2.7094051837921143,29,9953.0
11060,0.34105318784713745,-0.8363317251205444,-20,6343.0,-3.0406010150909424,32,9953.0
11070,0.3407246470451355,2.189851999282837,-41,6343.0,-2.172976493835449,78,9953.0
11080,0.34044015407562256,3.0404341220855713,28,6343.0,-3.0326828956604004,-109,9953.0
11090,0.34010979533195496,2.413567304611206,105,6343.0,-0.5208066701889038,-110,9953.0
11100,0.3384896516799927,0.6573477983474731,120,6343.0,-0.4239795506000519,-23,9953.0
11110,0.33815306425094604,0.8676654696464539,103,6343.0,0.9179414510726929,22,9953.0
11120,0.3378029465675354,-0.6076472401618958,6,6343.0,1.839430570602417,111,9953.0
11130,0.3373948633670807,0.6906794905662537,-50,6343.0,3.8729918003082275,138,9953.0
11140,0.33745014667510986,2.6032395362854004,-46,6343.0,3.806328535079956,60,9953.0
11150,0.33733391761779785,0.5233702659606934,19,6343.0,1.7510693073272705,-69,9953.0
11160,0.3372845947742462,-1.3343734741210938,40,6343.0,3.9759631156921387,-41,9953.0
11170,0.3372127115726471,-1.9720420837402344,21,6343.0,0.44180524349212646,-20,9953.0
11180,0.33743882179260254,-2.261263132095337,4,6343.0,0.44665640592575073,-24,9953.0
11190,0.3374442458152771,-1.2889031171798706,-81,6343.0,-0.48368939757347107,68,9953.0
11200,0.33759114146232605,-0.6244465708732605,-41,6343.0,-0.5362856984138489,23,9953.0
11210,0.33775120973587036,-0.483532190322876,7,6343.0,-0.670325756072998,-126,9953.0
11220,0.33784201741218567,-0.08245830237865448,92,6343.0,-3.3224716186523438,-132,9953.0
11230,0.3380008339881897,0.44738245010375977,55,6343.0,-1.9596251249313354,-23,9953.0
11240,0.3382022976875305,2.5053138732910156,-34,6343.0,-2.0206518173217773,35,9953.0
11250,0.33848369121551514,2.565497398376465,-11,6343.0,-0.4180378317832947,28,9953.0
11260,0.33874207735061646,1.319469690322876,20,6343.0,-0.46552348136901855,-83,9953.0
11270,0.3393125534057617,1.2019610404968262,88,6343.0,0.6767346262931824,-103,9953.0
11280,0.3394562602043152,0.08204615116119385,56,6343.0,-0.3767702877521515,-4,9953.0
11290,0.33965280652046204,-1.7974324226379395,3,6343.0,-0.6109495162963867,69,9953.0
11300,0.33987492322921753,-0.7392515540122986,-111,6343.0,-2.2714977264404297,99,9953.0
11310,0.34004923701286316,-0.19648316502571106,-66,6343.0,-2.34242582321167,-65,9953.0
11320,0.3405528664588928,-0.35001179575920105,7,6343.0,-2.914534568786621,-125,9953.0
11330,0.3406749367713928,-1.7293840646743774,35,6343.0,-2.6251583099365234,-100,9953.0
11340,0.3407913148403168,-1.9493168592453003,37,6343.0,-3.0872690677642822,-60,9953.0
11350,0.3408321440219879,-0.49509602785110474,-50,6343.0,-3.4795756340026855,97,9953.0
11360,0.3420342803001404,0.5339744091033936,-103,6343.0,-2.696985960006714,50,9953.0
11370,0.34191176295280457,-0.06458206474781036,-37,6343.0,-2.234510898590088,-36,9953.0
11380,0.3417845666408539,0.44658005237579346,62,6343.0,-0.3715304434299469,-84,9953.0
11390,0.3416651785373688,1.0126512050628662,158,6343.0,-0.3342970609664917,-68,9953.0
11400,0.3428080976009369,2.591939687728882,84,6343.0,-1.5815283060073853,44,9953.0
11410,0.34263384342193604,4.552011489868164,13,6343.0,-0.6042486429214478,77,9953.0
11420,0.3424520790576935,3.4200851917266846,-31,6343.0,-1.1135843992233276,108,9953.0
11430,0.34232762455940247,3.6058297157287598,-45,6343.0,1.9613392353057861,23,9953.0
11440,0.342142790555954,2.6857166290283203,81,6343.0,2.49257755279541,-74,9953.0
11450,0.34294191002845764,1.4704585075378418,109,6343.0,1.3986308574676514,-10,9953.0
11460,0.3427058458328247,0.752911388874054,32,6343.0,-0.9678881168365479,-24,9953.0
11470,0.34259119629859924,0.5528181791305542,2,6343.0,-2.4910147190093994,76,9953.0
11480,0.3424956500530243,-0.864713191986084,-89,6343.0,-1.7639280557632446,40,9953.0
11490,0.3453047275543213,-0.5323829054832458,-4,6343.0,-2.339033842086792,-95,9953.0
11500,0.3451783359050751,0.21209803223609924,82,6343.0,-1.1268450021743774,-121,9953.0
11510,0.34513312578201294,0.33337152004241943,90,6343.0,-1.8582127094268799,-77,9953.0
11520,0.3451912999153137,0.9421135783195496,49,6343.0,-1.3453099727630615,22,9953.0
11530,0.3452346920967102,2.588196277618408,-47,6343.0,1.7293654680252075,172,9953.0
11540,0.3466958701610565,3.595578670501709,-58,6343.0,0.27408871054649353,88,9953.0
11550,0.3467364013195038,2.112830400466919,-43,6343.0,0.4327544569969177,23,9953.0
11560,0.3468961715698242,0.5564752817153931,35,6343.0,3.5131120681762695,-66,9953.0
11570,0.3470861613750458,0.43482506275177,93,6343.0,2.153353452682495,-63,9953.0
11580,0.34951794147491455,0.4841499626636505,105,6343.0,2.6702404022216797,85,9953.0
11590,0.3497507870197296,2.0800037384033203,22,6343.0,0.9013979434967041,16,9953.0
11600,0.3500916361808777,1.4327466487884521,-43,6343.0,1.0100980997085571,147,9953.0
11610,0.35040539503097534,-0.089300237596035,-64,6343.0,-2.2355217933654785,56,9953.0
11620,0.35304173827171326,0.8345198035240173,-65,6343.0,-1.7371481657028198,-61,9953.0
11630,0.35328128933906555,0.9729715585708618,13,6343.0,-1.8833237886428833,-88,9953.0
11640,0.3535025119781494,-1.510494351387024,35,6343.0,0.5448693037033081,-175,9953.0
11650,0.3536280691623688,-1.123684048652649,71,6343.0,-0.932915449142456,-147,9953.0
11660,0.35372793674468994,-1.3271738290786743,95,6343.0,-2.041041612625122,-116,9953.0
11670,0.35391533374786377,-3.136831760406494,73,6343.0,-0.2521492540836334,3,9953.0
11680,0.3539748787879944,-0.5643938183784485,-51,6343.0,0.1733352690935135,94,9953.0
11690,0.35395103693008423,-1.4078998565673828,-65,6343.0,1.5859750509262085,54,9953.0
11700,0.35396164655685425,-2.7427074909210205,-108,6343.0,4.8902177810668945,136,9953.0
11710,0.35569068789482117,-2.143460750579834,-166,6343.0,2.1253366470336914,95,9953.0
11720,0.3558705747127533,-3.5411553382873535,-105,6343.0,1.486191749572754,105,9953.0
11730,0.3559967279434204,-3.5203144550323486,-113,6343.0,-0.4064876139163971,30,9953.0
11740,0.35613036155700684,-2.4459962844848633,-14,6343.0,-2.0418553352355957,-14,9953.0
11750,0.3561287522315979,-2.224518299102783,-41,6343.0,-2.5012588500976562,-62,9953.0
11760,0.3559335768222809,-1.6914467811584473,2,6343.0,-1.4965176582336426,-139,9953.0
11770,0.35579541325569153,-1.86568284034729,27,6343.0,-2.390119791030884,-133,9953.0
11780,0.3556210696697235,-0.03166409209370613,39,6343.0,-1.9896665811538696,-80,9953.0
11790,0.35547059774398804,-3.576723575592041,59,6343.0,0.03430937975645065,-48,9953.0
11800,0.35559624433517456,-1.5574177503585815,33,6343.0,0.9241682887077332,0,9953.0
11810,0.35537534952163696,-2.180957078933716,17,6343.0,3.425788402557373,44,9953.0
11820,0.35511314868927,-2.2659201622009277,42,6343.0,3.198972702026367,-28,9953.0
11830,0.3549165427684784,-3.901479482650757,4,6343.0,3.447129726409912,-63,9953.0
11840,0.3548462390899658,-2.3693854808807373,31,6343.0,4.1490607261657715,-65,9953.0
11850,0.3547241985797882,-4.139934539794922,23,6343.0,1.987477421760559,37,9953.0
11860,0.3546724021434784,-0.3767504394054413,3,6343.0,-0.5917444229125977,34,9953.0
11870,0.35454025864601135,0.4395442605018616,-25,6343.0,-0.665432333946228,62,9953.0
11880,0.35431399941444397,2.592345952987671,-116,6343.0,-1.6445332765579224,69,9953.0
11890,0.3542645573616028,0.8264575600624084,-80,6343.0,-2.9034881591796875,37,9953.0
11900,0.3538517355918884,2.037889003753662,-126,6343.0,-2.19747257232666,69,9953.0
11910,0.3533840477466583,0.6400291323661804,-81,6343.0,-4.5165557861328125,8,9953.0
11920,0.35291603207588196,-1.4185547828674316,-88,6343.0,-1.689833164215088,1,9953.0
11930,0.35224756598472595,0.9565375447273254,68,6343.0,-0.11402293294668198,-109,9953.0
11940,0.35176897048950195,-1.220737338066101,61,6343.0,2.1848065853118896,-26,9953.0
11950,0.3513489067554474,-0.09355103224515915,102,6343.0,3.4152002334594727,-76,9953.0
11960,0.35085436701774597,-3.7212040424346924,109,6343.0,6.323193550109863,-12,9953.0
11970,0.3503108322620392,-0.31071990728378296,65,6343.0,7.187493324279785,87,9953.0
11980,0.34727340936660767,-1.1367557048797607,-22,6343.0,5.661718845367432,115,9953.0
11990,0.34654659032821655,1.8168882131576538,-145,6343.0,5.273821830749512,252,9953.0
12000,0.34569355845451355,0.3375874161720276,-62,6343.0,7.419811725616455,196,9953.0
12010,0.3449264168739319,-1.2996350526809692,-105,6343.0,1.4871267080307007,62,9953.0
12020,0.34344056248664856,-0.5856530666351318,20,6343.0,0.32826218008995056,-135,9953.0
12030,0.3426530659198761,-0.0895952507853508,103,6343.0,-0.21967379748821259,-106,9953.0
12040,0.3418968915939331,1.0263991355895996,89,6343.0,-3.7545533180236816,-48,9953.0
12050,0.3412977457046509,2.5991108417510986,46,6343.0,-2.9219534397125244,4,9953.0
12060,0.33932802081108093,3.2999191284179688,-40,6343.0,-3.2551116943359375,32,9953.0
12070,0.3387838304042816,0.5235918760299683,-30,6343.0,1.5734314918518066,-66,9953.0
12080,0.3382580578327179,-0.01597323641180992,72,6343.0,1.9576283693313599,-68,9953.0
12090,0.33785539865493774,-1.6550551652908325,4,6343.0,1.1714341640472412,85,9953.0
12100,0.3375684320926666,-1.8657835721969604,-72,6343.0,3.676720380783081,144,9953.0
12110,0.33792582154273987,-0.7317484021186829,-96,6343.0,4.885095119476318,149,9953.0
12120,0.3377566933631897,-1.5938270092010498,-49,6343.0,5.635770320892334,-3,9953.0
12130,0.3375740647315979,-1.7067583799362183,50,6343.0,4.576025485992432,-15,9953.0
12140,0.3375111520290375,-0.13603085279464722,2,6343.0,2.6173758506774902,72,9953.0
12150,0.3369537889957428,1.308454155921936,-42,6343.0,2.135462999343872,81,9953.0
12160,0.3371390402317047,1.8620976209640503,29,6343.0,3.0454540252685547,-44,9953.0
12170,0.337373286485672,2.490522623062134,111,6343.0,0.3672897219657898,-39,9953.0
12180,0.33757084608078003,2.0837831497192383,62,6343.0,-3.1745760440826416,3,9953.0
12190,0.33776193857192993,1.5275938510894775,-28,6343.0,-3.203608512878418,16,9953.0
12200,0.33610284328460693,0.3879944980144501,-38,6343.0,-2.8726043701171875,-64,9953.0
12210,0.3363599181175232,0.8860137462615967,109,6343.0,-3.4451279640197754,-121,9953.0
12220,0.3367525041103363,0.0382525734603405,41,6343.0,-1.6799172163009644,-21,9953.0
12230,0.3371391296386719,-0.15636232495307922,-71,6343.0,-2.4969053268432617,86,9953.0
12240,0.3362289369106293,0.18486781418323517,-45,6343.0,0.5045799016952515,32,9953.0
12250,0.33645546436309814,-0.2421329915523529,-18,6343.0,2.5481247901916504,-17,9953.0
12260,0.33673256635665894,-1.7153218984603882,48,6343.0,5.017882347106934,31,9953.0
12270,0.33712372183799744,-1.6394225358963013,20,6343.0,2.2937164306640625,118,9953.0
12280,0.3361479938030243,-0.9529402852058411,-92,6343.0,3.3866679668426514,186,9953.0
12290,0.3364908695220947,-0.18269740045070648,-84,6343.0,2.4563846588134766,-42,9953.0
12300,0.3367520868778229,-1.0526514053344727,57,6343.0,0.5380299091339111,-104,9953.0
12310,0.3370257019996643,-1.1804612874984741,4,6343.0,-1.7236011028289795,42,9953.0
12320,0.33733388781547546,0.679719865322113,-28,6343.0,-3.562004804611206,3,9953.0
12330,0.3367588520050049,1.7228466272354126,-33,6343.0,-4.08974552154541,-19,9953.0
12340,0.3370972275733948,0.867664098739624,20,6343.0,-2.2402400970458984,-117,9953.0
12350,0.3373821973800659,0.851283848285675,101,6343.0,-0.959436297416687,-96,9953.0
12360,0.33758795261383057,-0.0030731484293937683,14,6343.0,0.6373440027236938,74,9953.0
12370,0.33788391947746277,0.550031304359436,-27,6343.0,2.74794602394104,149,9953.0
12380,0.3381834030151367,2.3838911056518555,-9,6343.0,5.397843360900879,119,9953.0
12390,0.3385155200958252,0.8744748830795288,60,6343.0,7.74619722366333,11,9953.0
12400,0.33877864480018616,1.7485142946243286,126,6343.0,6.075675010681152,47,9953.0
12410,0.33896711468696594,1.116212010383606,72,6343.0,3.8772222995758057,140,9953.0
12420,0.3386983871459961,1.3484899997711182,-72,6343.0,-0.2936747372150421,45,9953.0
12430,0.33888351917266846,0.1564195454120636,-33,6343.0,-2.995485305786133,-22,9953.0
12440,0.33911800384521484,-1.7421751022338867,26,6343.0,-4.487565517425537,-181,9953.0
12450,0.33931028842926025,-2.1183485984802246,72,6343.0,-5.807849407196045,-190,9953.0
12460,0.34005770087242126,-3.0386431217193604,22,6343.0,-5.539783477783203,11,9953.0
12470,0.3401257395744324,-1.4244519472122192,9,6343.0,-6.162058353424072,-25,9953.0
12480,0.3402568995952606,-1.3136705160140991,-76,6343.0,-4.498618125915527,83,9953.0
12490,0.3404351472854614,1.8776333332061768,-55,6343.0,-0.8022225499153137,71,9953.0
12500,0.3403273820877075,2.674301862716675,52,6343.0,4.521970272064209,-26,9953.0
12510,0.3403441607952118,3.1621460914611816,65,6343.0,5.2091383934021,-9,9953.0
12520,0.34036144614219666,2.1224887371063232,120,6343.0,3.470309019088745,60,9953.0
12530,0.3404660224914551,1.689046025276184,-5,6343.0,2.8128442764282227,89,9953.0
12540,0.34061336517333984,1.0180844068527222,-57,6343.0,1.074419617652893,65,9953.0
12550,0.3431779444217682,0.3423360586166382,-2,6343.0,-0.006289360113441944,-80,9953.0
12560,0.34327903389930725,-0.5682147741317749,53,6343.0,-1.4199970960617065,-116,9953.0
12570,0.3434496819972992,-0.47614559531211853,58,6343.0,-3.8316726684570312,-103,9953.0
12580,0.34372013807296753,0.7980102300643921,18,6343.0,-4.067751884460449,32,9953.0
12590,0.34597501158714294,1.0418205261230469,-88,6343.0,-4.680257320404053,39,9953.0
12600,0.3461686372756958,0.8211670517921448,11,6343.0,-3.7987709045410156,-95,9953.0
12610,0.3463442027568817,1.6414600610733032,81,6343.0,-2.4381022453308105,-127,9953.0
12620,0.34660547971725464,0.9122490286827087,103,6343.0,-2.4240429401397705,-103,9953.0
12630,0.34925419092178345,-0.19042786955833435,67,6343.0,-2.10074782371521,-81,9953.0
12640,0.3495420813560486,0.7759689092636108,29,6343.0,-3.1934280395507812,94,9953.0
12650,0.3497536778450012,1.854194164276123,-48,6343.0,-0.8997032046318054,102,9953.0
12660,0.3500303626060486,2.627432346343994,-33,6343.0,1.8549890518188477,104,9953.0
12670,0.35037294030189514,3.553004264831543,12,6343.0,2.850404977798462,61,9953.0
12680,0.3516794443130493,3.257908582687378,100,6343.0,6.401514530181885,-12,9953.0
12690,0.3519120514392853,2.2656705379486084,105,6343.0,4.1904826164245605,-15,9953.0
12700,0.3521932363510132,1.9178156852722168,114,6343.0,2.652017593383789,-75,9953.0
12710,0.35248348116874695,1.0124828815460205,65,6343.0,-0.949630856513977,0,9953.0
12720,0.35438570380210876,0.9943392872810364,-53,6343.0,-4.740652561187744,16,9953.0
12730,0.35451173782348633,-0.5917478203773499,-43,6343.0,-2.8801229000091553,50,9953.0
12740,0.35464656352996826,0.16647976636886597,-85,6343.0,-6.503520488739014,-60,9953.0
12750,0.35473406314849854,-1.685815453529358,-58,6343.0,-1.8437862396240234,18,9953.0
12760,0.35475122928619385,-0.19414842128753662,-31,6343.0,-6.539120674133301,-99,9953.0
12770,0.35567018389701843,-2.287005662918091,-63,6343.0,-2.929100751876831,-80,9953.0
12780,0.35570624470710754,-1.4181030988693237,4,6343.0,-0.7141653895378113,-92,9953.0
12790,0.35565856099128723,-1.3024026155471802,44,6343.0,-0.3968220353126526,-6,9953.0
12800,0.355614572763443,-0.28271153569221497,48,6343.0,1.2941679954528809,-48,9953.0
12810,0.3572755753993988,0.6458415985107422,80,6343.0,-0.4310420751571655,-19,9953.0
12820,0.35719016194343567,-0.8328077793121338,63,6343.0,2.1453697681427,-33,9953.0
12830,0.35707834362983704,-1.6196194887161255,62,6343.0,2.0189054012298584,-20,9953.0
12840,0.3569079637527466,1.2578246593475342,-27,6343.0,-3.063542127609253,-44,9953.0
12850,0.3567812442779541,-0.8841443061828613,-34,6343.0,-2.1334216594696045,-34,9953.0
12860,0.3565398156642914,-1.2650363445281982,-52,6343.0,-2.011953353881836,50,9953.0
12870,0.3563605546951294,-1.6494783163070679,-104,6343.0,-2.2677156925201416,99,9953.0
12880,0.35615411400794983,-0.36471831798553467,-100,6343.0,-2.290475606918335,55,9953.0
12890,0.3559483587741852,-1.6929490566253662,-111,6343.0,-2.7755250930786133,64,9953.0
12900,0.3574351668357849,-2.48271107673645,-84,6343.0,-1.176391839981079,60,9953.0
12910,0.3573165237903595,-2.182375192642212,-30,6343.0,-0.20336657762527466,54,9953.0
12920,0.35717859864234924,-3.4811859130859375,-53,6343.0,1.7413357496261597,-1,9953.0
12930,0.35704684257507324,-4.0275983810424805,20,6343.0,2.67153000831604,-1,9953.0
12940,0.3556913733482361,-3.3994922637939453,26,6343.0,0.7016447186470032,-61,9953.0
12950,0.3553808033466339,-4.588374614715576,86,6343.0,4.5698089599609375,-75,9953.0
12960,0.35502442717552185,-1.88020920753479,64,6343.0,1.572279453277588,-72,9953.0
12970,0.35459160804748535,-3.541917324066162,76,6343.0,1.8794846534729004,14,9953.0
12980,0.3541778326034546,-1.789864420890808,15,6343.0,1.6064434051513672,27,9953.0
12990,0.35409608483314514,0.5712737441062927,-93,6343.0,-1.269852876663208,93,9953.0
13000,0.353586882352829,-0.5679893493652344,-20,6343.0,-0.3830193877220154,28,9953.0
13010,0.35308316349983215,3.0713138580322266,-118,6343.0,-3.7113382816314697,67,9953.0
13020,0.3526352047920227,1.493908405303955,20,6343.0,-3.2210240364074707,8,9953.0
13030,0.35228556394577026,2.925095558166504,-10,6343.0,-4.342155456542969,-77,9953.0
13040,0.35175439715385437,1.2976720333099365,26,6343.0,-1.8926411867141724,-113,9953.0
13050,0.3512895703315735,-0.8400591611862183,47,6343.0,0.3900803029537201,-60,9953.0
13060,0.35076481103897095,-1.3089936971664429,54,6343.0,1.3559634685516357,-68,9953.0
13070,0.3501042425632477,-4.871467113494873,34,6343.0,3.806856870651245,29,9953.0
13080,0.35026171803474426,-3.7084174156188965,-55,6343.0,3.273782730102539,119,9953.0
13090,0.349687397480011,-3.043982744216919,23,6343.0,0.5602598190307617,240,9953.0
13100,0.3490317761898041,-1.380615234375,-112,6343.0,2.329442262649536,138,9953.0
13110,0.34829604625701904,-1.5258612632751465,-111,6343.0,3.0033490657806396,117,9953.0
13120,0.3471162021160126,0.1719234585762024,-84,6343.0,1.2943841218948364,55,9953.0
13130,0.34643831849098206,-2.1115598678588867,15,6343.0,1.4011406898498535,-77,9953.0
13140,0.34570738673210144,0.33024919033050537,86,6343.0,0.7218149900436401,-67,9953.0
13150,0.3449332118034363,0.6836410760879517,60,6343.0,0.24499040842056274,80,9953.0
13160,0.34491562843322754,1.0189836025238037,-52,6343.0,0.6297978758811951,92,9953.0
13170,0.3442366123199463,-0.6156322956085205,-41,6343.0,-0.2946554720401764,82,9953.0
13180,0.34357714653015137,0.3971976339817047,-16,6343.0,2.734360456466675,-30,9953.0
13190,0.34297677874565125,-0.6716583371162415,97,6343.0,1.1134032011032104,-57,9953.0
13200,0.34245535731315613,-2.1557931900024414,9,6343.0,1.3645144701004028,92,9953.0
13210,0.34263068437576294,-0.6364806890487671,-79,6343.0,1.6349389553070068,142,9953.0
13220,0.34226104617118835,-0.9418942332267761,-39,6343.0,3.3868463039398193,69,9953.0
13230,0.3419272005558014,0.6621707677841187,-3,6343.0,5.238734722137451,25,9953.0
13240,0.3416202664375305,0.33319252729415894,88,6343.0,4.4118194580078125,52,9953.0
13250,0.34228798747062683,0.4120238125324249,-10,6343.0,4.35616397857666,168,9953.0
13260,0.34217697381973267,1.4527244567871094,-61,6343.0,4.152266025543213,111,9953.0
13270,0.3422217071056366,1.2282581329345703,40,6343.0,3.7632293701171875,-69,9953.0
13280,0.34227439761161804,0.3714333772659302,119,6343.0,0.8190298676490784,-68,9953.0
13290,0.3433528244495392,0.24916575849056244,-21,6343.0,-1.4424829483032227,95,9953.0
13300,0.3434011936187744,1.3080788850784302,-36,6343.0,0.6935413479804993,37,9953.0
13310,0.3434714376926422,0.5872851014137268,23,6343.0,1.2645317316055298,-109,9953.0
13320,0.3436259627342224,-0.6233832240104675,81,6343.0,1.87549889087677,-23,9953.0
13330,0.34386396408081055,0.18857820332050323,46,6343.0,2.5807223320007324,40,9953.0
13340,0.3441241979598999,1.0511808395385742,-74,6343.0,2.56821346282959,120,9953.0
13350,0.34421947598457336,0.8785590529441833,-37,6343.0,4.525101184844971,132,9953.0
13360,0.3442399203777313,-0.4048055410385132,-36,6343.0,1.5254913568496704,-78,9953.0
13370,0.3443310856819153,-1.0531131029129028,77,6343.0,-0.7658296823501587,-64,9953.0
13380,0.34436097741127014,-1.0273677110671997,-1,6343.0,-3.4566617012023926,-12,9953.0
13390,0.34451109170913696,0.9424991607666016,-76,6343.0,-3.9638054370880127,3,9953.0
13400,0.34458476305007935,1.520940899848938,-10,6343.0,-2.223128080368042,2,9953.0
13410,0.3446138799190521,1.1961469650268555,-31,6343.0,-3.18373966217041,-140,9953.0
13420,0.3446977138519287,-0.5917819738388062,66,6343.0,-1.7718452215194702,-118,9953.0
13430,0.34536975622177124,-0.22407113015651703,88,6343.0,-1.4066060781478882,1,9953.0
13440,0.3454732596874237,1.1380019187927246,-30,6343.0,0.05148433893918991,70,9953.0
13450,0.34549570083618164,0.10948123037815094,-48,6343.0,2.280869245529175,111,9953.0
13460,0.3455161154270172,-0.9760276079177856,-79,6343.0,3.6176793575286865,90,9953.0
13470,0.34662726521492004,-0.5613378882408142,18,6343.0,4.173043727874756,-44,9953.0
13480,0.34683501720428467,1.1383224725723267,154,6343.0,4.373214244842529,-8,9953.0
13490,0.34692612290382385,1.4816696643829346,47,6343.0,3.843757152557373,152,9953.0
13500,0.3468863368034363,3.433084726333618,54,6343.0,0.8665083050727844,42,9953.0
13510,0.34928879141807556,2.1591897010803223,11,6343.0,-0.8347094058990479,73,9953.0
13520,0.3494909107685089,1.7461156845092773,21,6343.0,-1.4062877893447876,-26,9953.0
13530,0.3496972322463989,2.766322374343872,59,6343.0,-2.3264780044555664,-149,9953.0
13540,0.34984639286994934,3.8209309577941895,139,6343.0,-4.968881130218506,-123,9953.0
13550,0.34995439648628235,1.7483983039855957,83,6343.0,-4.829843997955322,-72,9953.0
13560,0.3517416715621948,-0.27078118920326233,47,6343.0,-4.784659385681152,-49,9953.0
13570,0.3519178032875061,3.616114616394043,-127,6343.0,-7.225290775299072,80,9953.0
13580,0.35200202465057373,0.48884016275405884,-100,6343.0,-5.788672924041748,-8,9953.0
13590,0.35214313864707947,-0.5927996635437012,-103,6343.0,-3.191179037094116,104,9953.0
13600,0.3531189262866974,-2.7295093536376953,-99,6343.0,-0.5357838273048401,-48,9953.0
13610,0.3533504605293274,-1.6048883199691772,35,6343.0,1.4751262664794922,-28,9953.0
13620,0.3535325527191162,-1.7407346963882446,44,6343.0,4.920527935028076,-43,9953.0
13630,0.3536575734615326,0.8653515577316284,134,6343.0,4.521912574768066,-68,9953.0
13640,0.3536544442176819,0.8816737532615662,84,6343.0,4.397055625915527,72,9953.0
13650,0.3536438047885895,1.0926631689071655,75,6343.0,5.126408576965332,56,9953.0
13660,0.35342541337013245,2.3848376274108887,-21,6343.0,3.3236775398254395,167,9953.0
13670,0.35319244861602783,5.144052028656006,-55,6343.0,-0.01532779261469841,95,9953.0
13680,0.35293760895729065,5.15189266204834,-20,6343.0,-2.8905279636383057,56,9953.0
13690,0.35393863916397095,2.158116102218628,43,6343.0,-2.3985419273376465,-47,9953.0
13700,0.353829950094223,0.8802630305290222,-16,6343.0,-0.8900538086891174,-153,9953.0
13710,0.35372841358184814,0.6451297998428345,71,6343.0,-2.499842405319214,-133,9953.0
13720,0.35355067253112793,-1.1392085552215576,56,6343.0,-2.857872486114502,-112,9953.0
13730,0.35396572947502136,-1.9399164915084839,73,6343.0,-0.02484973706305027,-86,9953.0
13740,0.35360291600227356,-1.6501487493515015,6,6343.0,0.548608124256134,55,9953.0
13750,0.35310980677604675,-3.1061112880706787,-21,6343.0,1.201537013053894,-49,9953.0
13760,0.3525455594062805,-0.24284914135932922,-147,6343.0,1.6562618017196655,77,9953.0
13770,0.35198166966438293,-0.038610149174928665,-37,6343.0,3.674943447113037,156,9953.0
13780,0.35344836115837097,1.045894980430603,-114,6343.0,2.6766786575317383,166,9953.0
13790,0.3530048429965973,1.427116870880127,-87,6343.0,0.44311854243278503,34,9953.0
13800,0.35265249013900757,2.212009906768799,-1,6343.0,0.21962743997573853,20,9953.0
13810,0.35232213139533997,2.3313801288604736,50,6343.0,-3.3740546703338623,-151,9953.0
13820,0.35249125957489014,0.7284411787986755,111,6343.0,-4.016163349151611,-213,9953.0
13830,0.35189276933670044,2.1111137866973877,160,6343.0,-5.987974643707275,-12,9953.0
13840,0.35130956768989563,1.8154629468917847,42,6343.0,-4.255164623260498,-40,9953.0
13850,0.350770503282547,1.348410725593567,-8,6343.0,-4.740564823150635,-37,9953.0
13860,0.35021090507507324,-0.5804005265235901,-88,6343.0,-2.782802104949951,98,9953.0
13870,0.35164305567741394,-2.1963486671447754,-138,6343.0,-1.047966718673706,-14,9953.0
13880,0.3511914014816284,-2.230128526687622,-82,6343.0,-0.6472246646881104,-52,9953.0
13890,0.3506340980529785,-2.7126004695892334,-16,6343.0,-1.5198436975479126,-58,9953.0
13900,0.35002195835113525,-2.89534854888916,63,6343.0,0.0341016910970211,-109,9953.0
13910,0.3514365553855896,0.5559927225112915,38,6343.0,-0.38378456234931946,65,9953.0
13920,0.35100337862968445,1.574907898902893,-18,6343.0,0.04833170771598816,108,9953.0
13930,0.35060057044029236,-0.013575317338109016,-147,6343.0,2.1487064361572266,69,9953.0
13940,0.3502548336982727,-1.8800885677337646,-20,6343.0,0.6573286056518555,-3,9953.0
13950,0.3504125475883484,-3.735178232192993,-36,6343.0,2.028214693069458,-96,9953.0
13960,0.3502880334854126,-4.3290629386901855,36,6343.0,0.5300505757331848,-151,9953.0
13970,0.3501169979572296,-1.6197192668914795,69,6343.0,-3.5786592960357666,-32,9953.0
13980,0.34991851449012756,-0.24177014827728271,-15,6343.0,-2.287594795227051,38,9953.0
13990,0.3498040437698364,-0.006848912686109543,-35,6343.0,-3.1906137466430664,15,9953.0
14000,0.35144591331481934,1.2484346628189087,-69,6343.0,-2.9662845134735107,7,9953.0
14010,0.3514936566352844,1.6865681409835815,73,6343.0,-1.0649750232696533,-104,9953.0
14020,0.3514626920223236,1.135317087173462,88,6343.0,2.851087808609009,-43,9953.0
14030,0.3513810634613037,1.044832468032837,77,6343.0,1.873792052268982,-8,9953.0
14040,0.35190558433532715,0.021601948887109756,41,6343.0,0.26871544122695923,22,9953.0
14050,0.3517830967903137,-0.20903457701206207,-86,6343.0,0.3152870237827301,135,9953.0
14060,0.3515412211418152,-1.6308598518371582,-133,6343.0,-0.18047469854354858,57,9953.0
14070,0.3513544499874115,-3.6490631103515625,-93,6343.0,1.2078089714050293,36,9953.0
14080,0.3511396646499634,-4.863759517669678,-73,6343.0,1.0656604766845703,-80,9953.0
14090,0.3515709936618805,-3.440251588821411,7,6343.0,-1.59910249710083,-119,9953.0
14100,0.3512049615383148,-2.5462942123413086,69,6343.0,-0.7677487730979919,-91,9953.0
14110,0.350852370262146,-1.4111419916152954,-4,6343.0,-1.3115668296813965,33,9953.0
14120,0.3505246937274933,0.31493979692459106,-126,6343.0,-1.7991564273834229,11,9953.0
14130,0.3523929715156555,0.5405142903327942,-133,6343.0,-3.0320119857788086,58,9953.0
14140,0.3522304892539978,-2.2156102657318115,-94,6343.0,-2.4049973487854004,-8,9953.0
14150,0.35217005014419556,-2.8223540782928467,-46,6343.0,0.5428206920623779,-89,9953.0
14160,0.35214826464653015,-0.7281531095504761,66,6343.0,-0.22009511291980743,-53,9953.0
14170,0.35243311524391174,1.4299622774124146,107,6343.0,1.0992705821990967,-32,9953.0
14180,0.3523622453212738,1.5523769855499268,33,6343.0,4.763154983520508,151,9953.0
14190,0.35241416096687317,1.4585977792739868,-37,6343.0,3.501875400543213,94,9953.0
14200,0.35251060128211975,0.8818586468696594,-26,6343.0,3.9444761276245117,131,9953.0
14210,0.3525182604789734,0.6889258027076721,-23,6343.0,4.222891807556152,107,9953.0
