timestamp,kalman.stateZ,gyro.x,gyro.xRaw,gyro.xVariance,gyro.y,gyro.yRaw,gyro.yVariance
0,0.3281625807285309,0.5706668496131897,14,6343.0,-0.9431141018867493,-18,9953.0
10,0.32894107699394226,-0.05384494736790657,-9,6343.0,-1.2324421405792236,-17,9953.0
20,0.3289947807788849,-0.2989249527454376,6,6343.0,-1.2654139995574951,-31,9953.0
30,0.3290531039237976,-0.3195343613624573,-2,6343.0,-1.8211181163787842,-28,9953.0
40,0.32911327481269836,-0.3401237428188324,-2,6343.0,-2.138909101486206,-36,9953.0
50,0.3295239806175232,-0.2765726149082184,0,6343.0,-2.4192166328430176,-35,9953.0
60,0.3295997381210327,0.6279053092002869,14,6343.0,-2.300128221511841,-37,9953.0
70,0.3296724259853363,0.9688258171081543,7,6343.0,-2.464285135269165,-32,9953.0
80,0.32973867654800415,0.39665302634239197,-4,6343.0,-2.527158498764038,-38,9953.0
90,0.32980015873908997,0.15227153897285461,6,6343.0,-2.2843644618988037,-32,9953.0
100,0.32954442501068115,0.14362123608589172,0,6343.0,-1.9815007448196411,-27,9953.0
110,0.3295958936214447,-0.3676401376724243,-7,6343.0,-1.5349539518356323,-25,9953.0
120,0.32964348793029785,-0.32887139916419983,3,6343.0,-1.3571068048477173,-11,9953.0
130,0.32969731092453003,0.2558077275753021,10,6343.0,-0.7631481289863586,-5,9953.0
140,0.3306798040866852,0.16838741302490234,0,6343.0,-0.24117057025432587,2,9953.0
150,0.3308083415031433,0.21894040703773499,4,6343.0,-0.009156029671430588,7,9953.0
160,0.33093416690826416,0.16874106228351593,-3,6343.0,0.19569139182567596,7,9953.0
170,0.3310692608356476,-0.39534077048301697,-7,6343.0,0.10863374173641205,1,9953.0
180,0.33038467168807983,-0.8991637229919434,-12,6343.0,-0.22244632244110107,-9,9953.0
190,0.33049723505973816,0.6868032813072205,25,6343.0,-1.7638109922409058,-40,9953.0
200,0.33062314987182617,2.087139368057251,37,6343.0,-3.94404673576355,-65,9953.0
210,0.3307736814022064,3.3955063819885254,40,6343.0,-9.300661087036133,-153,9953.0
220,0.33094701170921326,2.1530323028564453,34,6343.0,-12.742050170898438,-224,9953.0
230,0.33034348487854004,1.2139381170272827,-3,6343.0,-17.56685447692871,-277,9953.0
240,0.33051612973213196,0.8676014542579651,0,6343.0,-23.163537979125977,-370,9953.0
250,0.33069029450416565,2.3374757766723633,23,6343.0,-27.852725982666016,-462,9953.0
260,0.3311091661453247,1.4749698638916016,26,6343.0,-29.221723556518555,-525,9953.0
270,0.33132147789001465,4.341517925262451,72,6343.0,-32.68428421020508,-545,9953.0
280,0.33154064416885376,5.4656267166137695,80,6343.0,-32.2634391784668,-431,9953.0
290,0.33171433210372925,2.936434030532837,127,6343.0,-23.137680053710938,-419,9953.0
300,0.33304885029792786,2.124420166015625,30,6343.0,-18.272655487060547,-229,9953.0
310,0.33343908190727234,-2.4456329345703125,-17,6343.0,-10.424914360046387,-206,9953.0
320,0.3344047963619232,-2.6888113021850586,-29,6343.0,-3.5380165576934814,33,9953.0
330,0.3348298668861389,-2.418440341949463,17,6343.0,3.6195003986358643,95,9953.0
340,0.33530572056770325,0.41547200083732605,16,6343.0,10.586209297180176,146,9953.0
350,0.3357747495174408,3.1383745670318604,52,6343.0,12.812450408935547,289,9953.0
360,0.3365224301815033,3.578359603881836,64,6343.0,16.509599685668945,305,9953.0
370,0.33696115016937256,3.845416307449341,75,6343.0,18.88214111328125,191,9953.0
380,0.3371717035770416,1.5659698247909546,43,6343.0,17.03702163696289,236,9953.0
390,0.33766740560531616,1.6027339696884155,-42,6343.0,15.264959335327148,355,9953.0
400,0.33808988332748413,1.0006537437438965,-35,6343.0,14.369523048400879,335,9953.0
410,0.33840319514274597,0.569251298904419,12,6343.0,10.034406661987305,304,9953.0
420,0.33874621987342834,0.3655015528202057,4,6343.0,9.195123672485352,111,9953.0
430,0.3391226530075073,-1.0943384170532227,39,6343.0,5.265761852264404,30,9953.0
440,0.33956027030944824,-1.8737815618515015,-5,6343.0,3.0215532779693604,-36,9953.0
450,0.33779382705688477,-1.6102241277694702,9,6343.0,-2.057419776916504,-140,9953.0
460,0.33826136589050293,-0.4503617286682129,-14,6343.0,-4.639969825744629,-206,9953.0
470,0.3387443423271179,-0.7183897495269775,11,6343.0,-8.91639232635498,-265,9953.0
480,0.33918511867523193,1.227028489112854,41,6343.0,-8.120906829833984,-256,9953.0
490,0.3379060626029968,2.241457462310791,132,6343.0,-7.616499423980713,-315,9953.0
500,0.3383379876613617,2.764470338821411,95,6343.0,-2.5923590660095215,-204,9953.0
510,0.33881086111068726,2.190124273300171,102,6343.0,-0.1050640121102333,-18,9953.0
520,0.33929696679115295,1.0464446544647217,83,6343.0,3.849616527557373,6,9953.0
530,0.33967557549476624,-0.2523433268070221,-9,6343.0,2.8243253231048584,147,9953.0
540,0.34013131260871887,-1.0292747020721436,-31,6343.0,5.871140480041504,130,9953.0
550,0.3405582308769226,0.39750662446022034,-76,6343.0,9.012662887573242,292,9953.0
560,0.34097304940223694,0.81233149766922,8,6343.0,10.213582038879395,232,9953.0
570,0.34135162830352783,0.35665184259414673,-19,6343.0,9.509358406066895,-59,9953.0
580,0.341060072183609,0.01843368262052536,28,6343.0,5.978590965270996,75,9953.0
590,0.3411049544811249,-1.169703722000122,-10,6343.0,0.9447067975997925,-144,9953.0
600,0.3413875997066498,0.208873450756073,19,6343.0,1.2066224813461304,-84,9953.0
610,0.34175994992256165,1.3774967193603516,86,6343.0,-4.798767566680908,71,9953.0
620,0.3412278890609741,1.0004335641860962,-31,6343.0,-1.0448062419891357,-35,9953.0
630,0.3413648009300232,0.040935952216386795,-84,6343.0,-6.898650169372559,-98,9953.0
640,0.3414710760116577,0.11259227991104126,48,6343.0,-6.880308151245117,-117,9953.0
650,0.3415691554546356,-1.7868887186050415,1,6343.0,-7.081218242645264,-269,9953.0
660,0.3416653871536255,0.6966511607170105,-15,6343.0,-7.60274076461792,-147,9953.0
670,0.34062036871910095,-0.44047415256500244,4,6343.0,-7.882077693939209,-5,9953.0
680,0.34060683846473694,0.9533179998397827,10,6343.0,-3.8810529708862305,-55,9953.0
690,0.3406293988227844,-1.3686524629592896,-9,6343.0,-3.3786423206329346,-34,9953.0
700,0.34070512652397156,-3.1236257553100586,-22,6343.0,4.732946872711182,-16,9953.0
710,0.33931398391723633,-1.1924731731414795,13,6343.0,4.347254276275635,37,9953.0
720,0.33913812041282654,-3.0786585807800293,-29,6343.0,2.635249376296997,193,9953.0
730,0.338861882686615,-2.6618294715881348,-85,6343.0,6.268986701965332,3,9953.0
740,0.33858174085617065,0.38231509923934937,10,6343.0,3.608386278152466,56,9953.0
750,0.3389798402786255,2.3910367488861084,50,6343.0,4.829023838043213,127,9953.0
760,0.33879971504211426,3.3731629848480225,73,6343.0,5.549816608428955,-95,9953.0
770,0.33853283524513245,3.092743396759033,1,6343.0,3.5647976398468018,175,9953.0
780,0.3381873667240143,2.254638195037842,-29,6343.0,2.7398431301116943,222,9953.0
790,0.3378557562828064,-3.567776918411255,36,6343.0,7.161436557769775,11,9953.0
800,0.3373635709285736,2.5487618446350098,57,6343.0,3.8356144428253174,60,9953.0
810,0.33712247014045715,-1.7982909679412842,-23,6343.0,2.071561813354492,9,9953.0
820,0.3368484377861023,-1.8912971019744873,-91,6343.0,2.66707181930542,-3,9953.0
830,0.33652305603027344,-0.5470367074012756,-39,6343.0,-2.110478162765503,114,9953.0
840,0.33647698163986206,-1.232083797454834,16,6343.0,-1.3958840370178223,0,9953.0
850,0.3361580967903137,0.026476247236132622,44,6343.0,-2.409675359725952,-297,9953.0
860,0.3358893394470215,0.832580029964447,48,6343.0,-4.381841659545898,-132,9953.0
870,0.335620641708374,0.1481143683195114,-46,6343.0,-7.581392288208008,84,9953.0
880,0.3352995216846466,0.6267142295837402,-39,6343.0,-2.842331647872925,-178,9953.0
890,0.33568599820137024,1.2629727125167847,13,6343.0,-4.131259441375732,-69,9953.0
900,0.3351672291755676,-0.1138201653957367,53,6343.0,-2.1616387367248535,-34,9953.0
910,0.33466529846191406,-2.2771804332733154,-16,6343.0,0.22709034383296967,-62,9953.0
920,0.33425456285476685,-0.18134060502052307,-78,6343.0,0.7059199810028076,106,9953.0
930,0.3339338004589081,-0.11867354810237885,-3,6343.0,-1.4735591411590576,71,9953.0
940,0.3334757089614868,-2.119325637817383,-31,6343.0,2.3892886638641357,-112,9953.0
950,0.332957923412323,0.6579773426055908,-15,6343.0,-0.02611365169286728,55,9953.0
960,0.33247166872024536,-0.6467428207397461,-47,6343.0,-2.1806397438049316,110,9953.0
970,0.33391711115837097,2.012024402618408,-3,6343.0,-1.519410490989685,-95,9953.0
980,0.3337603509426117,2.250659704208374,32,6343.0,-1.9663071632385254,-49,9953.0
990,0.33366695046424866,2.224195957183838,96,6343.0,-2.586427688598633,54,9953.0
1000,0.3335564136505127,2.747346878051758,2,6343.0,-2.0465123653411865,-14,9953.0
1010,0.3333967328071594,-1.7038215398788452,-43,6343.0,2.892864465713501,-128,9953.0
1020,0.3343275189399719,-1.3758465051651,-23,6343.0,-1.3086045980453491,-18,9953.0
1030,0.33430832624435425,-2.8386569023132324,6,6343.0,-0.17421075701713562,-63,9953.0
1040,0.33438363671302795,-0.4567902982234955,-29,6343.0,-2.4414613246917725,67,9953.0
1050,0.33452191948890686,1.364193081855774,-33,6343.0,-1.2080148458480835,118,9953.0
1060,0.3359276354312897,1.2629170417785645,51,6343.0,1.379692554473877,-185,9953.0
1070,0.3360721170902252,1.4357435703277588,96,6343.0,3.222715139389038,-19,9953.0
1080,0.3361012041568756,-0.10720059275627136,-56,6343.0,0.27730610966682434,145,9953.0
1090,0.3360934853553772,-2.3093814849853516,-86,6343.0,0.6325660943984985,-11,9953.0
1100,0.3371724784374237,-2.4643921852111816,13,6343.0,0.9033622145652771,-115,9953.0
1110,0.33736738562583923,-0.6589365005493164,76,6343.0,-1.42611563205719,-54,9953.0
1120,0.3375729024410248,2.0227174758911133,57,6343.0,-1.4462330341339111,39,9953.0
1130,0.3377096354961395,4.6870927810668945,24,6343.0,-0.8000115156173706,93,9953.0
1140,0.33776694536209106,3.553579568862915,-39,6343.0,0.9823012351989746,84,9953.0
1150,0.3389897048473358,-2.123565196990967,61,6343.0,7.002307891845703,29,9953.0
1160,0.33896803855895996,-1.5872437953948975,-23,6343.0,7.542291164398193,112,9953.0
1170,0.33903491497039795,-3.38029408454895,-105,6343.0,6.712528228759766,200,9953.0
1180,0.33921492099761963,-1.9878857135772705,-25,6343.0,5.212689399719238,8,9953.0
1190,0.3385287821292877,-0.82242751121521,52,6343.0,3.2109978199005127,-76,9953.0
1200,0.3387066125869751,2.352243185043335,51,6343.0,-0.6088851094245911,97,9953.0
1210,0.3388383984565735,3.1441190242767334,-5,6343.0,-0.6205022931098938,48,9953.0
1220,0.33898279070854187,0.5367037653923035,-21,6343.0,1.3972959518432617,-84,9953.0
1230,0.33918270468711853,2.052717924118042,22,6343.0,-3.44860577583313,-98,9953.0
1240,0.33768200874328613,-3.95173978805542,37,6343.0,-3.722329616546631,55,9953.0
1250,0.33798158168792725,-0.25830718874931335,-58,6343.0,-3.6815662384033203,-75,9953.0
1260,0.33827638626098633,-3.7601590156555176,-26,6343.0,-4.6959710121154785,-123,9953.0
1270,0.33847177028656006,-0.8680673241615295,9,6343.0,-7.882807731628418,-49,9953.0
1280,0.3387593924999237,0.5342150330543518,-9,6343.0,-5.7721028327941895,-83,9953.0
1290,0.33883795142173767,1.73440682888031,15,6343.0,-2.245227813720703,-130,9953.0
1300,0.3389282524585724,3.467409610748291,100,6343.0,-2.2580103874206543,4,9953.0
1310,0.3390488922595978,2.4599008560180664,5,6343.0,2.2826623916625977,248,9953.0
1320,0.3392770290374756,1.2336747646331787,-26,6343.0,6.847029209136963,63,9953.0
1330,0.33938097953796387,-1.9969319105148315,9,6343.0,7.143754005432129,22,9953.0
1340,0.33971425890922546,-2.9209611415863037,-56,6343.0,5.072355270385742,194,9953.0
1350,0.34014564752578735,-1.7741303443908691,-64,6343.0,4.284822940826416,115,9953.0
1360,0.3406565487384796,-1.3572776317596436,57,6343.0,3.2960145473480225,50,9953.0
1370,0.3411271572113037,3.076627016067505,4,6343.0,0.848290741443634,-63,9953.0
1380,0.3416869044303894,3.376577138900757,86,6343.0,0.4262121319770813,-156,9953.0
1390,0.3422154188156128,3.365830898284912,69,6343.0,0.6491579413414001,75,9953.0
1400,0.3427092432975769,1.9254467487335205,-39,6343.0,-1.2786777019500732,83,9953.0
1410,0.34312477707862854,-0.2946642339229584,24,6343.0,-1.4368019104003906,-146,9953.0
1420,0.3435165286064148,-1.6321982145309448,-16,6343.0,-2.508667230606079,-132,9953.0
1430,0.3438243567943573,-2.5401644706726074,-66,6343.0,-5.182887077331543,110,9953.0
1440,0.3440292775630951,-0.7874768972396851,-16,6343.0,-4.738402366638184,-51,9953.0
1450,0.34414979815483093,-1.0858629941940308,13,6343.0,-1.7756036520004272,-59,9953.0
1460,0.3424958884716034,-0.275200217962265,-57,6343.0,2.2167248725891113,52,9953.0
1470,0.3423647880554199,-1.235133409500122,13,6343.0,1.8704679012298584,65,9953.0
1480,0.34217843413352966,-2.4647295475006104,-50,6343.0,2.429638624191284,60,9953.0
1490,0.34191885590553284,-0.73951655626297,-49,6343.0,4.286679267883301,34,9953.0
1500,0.3413797914981842,0.20276467502117157,52,6343.0,5.233479022979736,24,9953.0
1510,0.3410884141921997,1.56440007686615,45,6343.0,3.870302200317383,141,9953.0
1520,0.34082329273223877,2.825666666030884,13,6343.0,3.808961868286133,195,9953.0
1530,0.3405924439430237,1.0613402128219604,57,6343.0,7.1280364990234375,-25,9953.0
1540,0.340451180934906,-0.1762484759092331,32,6343.0,6.168452739715576,90,9953.0
1550,0.34023189544677734,-2.1332743167877197,-86,6343.0,3.542659282684326,182,9953.0
1560,0.34036123752593994,-2.960165500640869,-83,6343.0,1.580492377281189,58,9953.0
1570,0.3405389189720154,-2.254505157470703,54,6343.0,-1.0309654474258423,-71,9953.0
1580,0.3408623933792114,-0.5243563652038574,-57,6343.0,-1.457175850868225,-76,9953.0
1590,0.3400191366672516,1.6323351860046387,32,6343.0,-3.0041348934173584,-58,9953.0
1600,0.3402853012084961,2.2442004680633545,53,6343.0,-4.782296657562256,-23,9953.0
1610,0.3405357599258423,3.152571678161621,17,6343.0,-6.187207221984863,-89,9953.0
1620,0.34073829650878906,2.4554734230041504,44,6343.0,-4.862784385681152,-227,9953.0
1630,0.3402068018913269,0.8693380355834961,47,6343.0,-6.482673168182373,-82,9953.0
1640,0.34032580256462097,-1.1417008638381958,-45,6343.0,-7.021812438964844,61,9953.0
1650,0.340415358543396,-1.3298909664154053,-39,6343.0,-5.48300838470459,-176,9953.0
1660,0.3405066132545471,-1.6376492977142334,23,6343.0,-3.4380099773406982,-87,9953.0
1670,0.34064650535583496,-0.6410277485847473,-28,6343.0,-4.329194068908691,74,9953.0
1680,0.3401337265968323,0.5326156616210938,-35,6343.0,-3.472141981124878,-54,9953.0
1690,0.3403822183609009,0.8578378558158875,78,6343.0,-2.0450215339660645,-170,9953.0
1700,0.3406751751899719,-0.452366441488266,-40,6343.0,-1.974230170249939,55,9953.0
1710,0.34104248881340027,-1.242852807044983,-49,6343.0,0.04186687618494034,116,9953.0
1720,0.3408347964286804,-0.664360761642456,52,6343.0,3.573965311050415,-40,9953.0
1730,0.3410966098308563,1.2892252206802368,6,6343.0,3.682558298110962,105,9953.0
1740,0.3414265215396881,-0.15167632699012756,-46,6343.0,3.4013242721557617,163,9953.0
1750,0.34153345227241516,-0.3100249469280243,2,6343.0,2.8667123317718506,-53,9953.0
1760,0.33949434757232666,0.24460835754871368,44,6343.0,3.1809849739074707,6,9953.0
1770,0.3393786549568176,0.24095390737056732,-51,6343.0,5.32097864151001,171,9953.0
1780,0.3392488658428192,0.07932204008102417,28,6343.0,6.831907749176025,161,9953.0
1790,0.33917421102523804,-0.11924998462200165,36,6343.0,6.96250581741333,68,9953.0
1800,0.3391473591327667,-0.07867082208395004,-37,6343.0,8.045702934265137,194,9953.0
1810,0.33868762850761414,0.40906962752342224,3,6343.0,6.882294654846191,166,9953.0
1820,0.33883848786354065,0.21698234975337982,59,6343.0,6.030093193054199,25,9953.0
1830,0.3390063941478729,3.2218332290649414,53,6343.0,5.078787326812744,63,9953.0
1840,0.33907127380371094,1.8886839151382446,-19,6343.0,2.973184585571289,15,9953.0
1850,0.339078813791275,1.9167540073394775,13,6343.0,0.7300931811332703,33,9953.0
1860,0.33902329206466675,-0.03494611009955406,30,6343.0,1.138715147972107,59,9953.0
1870,0.33888354897499084,0.09519778192043304,-30,6343.0,2.2111775875091553,3,9953.0
1880,0.3386976420879364,-1.1509064435958862,-31,6343.0,2.0721940994262695,35,9953.0
1890,0.3384734094142914,-1.9877734184265137,-71,6343.0,1.2333672046661377,97,9953.0
1900,0.3381415903568268,-1.752636194229126,-66,6343.0,-0.7281007766723633,27,9953.0
1910,0.33797553181648254,-0.7186893820762634,3,6343.0,-2.006178140640259,-178,9953.0
1920,0.3378468155860901,2.34477162361145,101,6343.0,-5.167614459991455,-182,9953.0
1930,0.3377173840999603,4.5922956466674805,79,6343.0,-5.594289779663086,84,9953.0
1940,0.33969444036483765,5.247982501983643,6,6343.0,-3.0091171264648438,-7,9953.0
1950,0.33965417742729187,0.49225714802742004,19,6343.0,-1.240227222442627,-160,9953.0
1960,0.33957618474960327,-3.1281991004943848,-50,6343.0,-1.2021249532699585,25,9953.0
1970,0.3394429385662079,-4.036502361297607,-128,6343.0,-1.8270504474639893,93,9953.0
1980,0.3392374813556671,-5.100930690765381,-38,6343.0,-0.2250318080186844,-66,9953.0
1990,0.3396681547164917,-2.1313769817352295,4,6343.0,-1.3443719148635864,-103,9953.0
2000,0.3394380807876587,-0.29650235176086426,-49,6343.0,-3.7627737522125244,-38,9953.0
2010,0.33921268582344055,1.7233936786651611,44,6343.0,-4.075798988342285,-75,9953.0
2020,0.3390423655509949,2.2872228622436523,52,6343.0,-2.476682662963867,1,9953.0
2030,0.33941417932510376,1.6450330018997192,12,6343.0,-1.642554521560669,-105,9953.0
2040,0.339479923248291,-0.26221221685409546,8,6343.0,-0.9924572110176086,50,9953.0
2050,0.33968088030815125,-2.1131391525268555,1,6343.0,-1.607787847518921,140,9953.0
2060,0.3400071859359741,-1.105376958847046,-75,6343.0,-0.9957883954048157,-5,9953.0
2070,0.340278685092926,-0.8921500444412231,36,6343.0,0.4916369318962097,-49,9953.0
2080,0.3407682478427887,0.5800155401229858,61,6343.0,-0.6400022506713867,15,9953.0
2090,0.3413364291191101,1.9138069152832031,-30,6343.0,0.1753971129655838,42,9953.0
2100,0.34180307388305664,1.2368282079696655,57,6343.0,4.664653778076172,2,9953.0
2110,0.342217355966568,0.7516365647315979,27,6343.0,4.623301029205322,89,9953.0
2120,0.3415448069572449,-0.30539557337760925,-54,6343.0,3.7672336101531982,208,9953.0
2130,0.3417920470237732,-0.23058165609836578,-29,6343.0,4.285544395446777,90,9953.0
2140,0.3419840335845947,-2.2275116443634033,4,6343.0,4.650184631347656,-20,9953.0
2150,0.3421288728713989,-0.3674609661102295,47,6343.0,2.501039981842041,144,9953.0
2160,0.3406343162059784,0.3349093794822693,6,6343.0,3.1573362350463867,77,9953.0
2170,0.3407519459724426,0.5403108596801758,78,6343.0,3.123981475830078,-75,9953.0
2180,0.3409211337566376,0.9787328243255615,54,6343.0,-0.3288164734840393,3,9953.0
2190,0.3411298096179962,-0.30425333976745605,5,6343.0,-3.1185905933380127,56,9953.0
2200,0.34083160758018494,-1.0057833194732666,-73,6343.0,-1.872680425643921,-37,9953.0
2210,0.3409556746482849,-1.0514247417449951,20,6343.0,-1.560221791267395,-111,9953.0
2220,0.3410259783267975,-1.0470077991485596,13,6343.0,-1.6676138639450073,-17,9953.0
2230,0.3410966694355011,-1.3486275672912598,-33,6343.0,-0.5025845170021057,45,9953.0
2240,0.3413769006729126,0.47072896361351013,-42,6343.0,-0.722713053226471,-48,9953.0
2250,0.34100180864334106,2.0992767810821533,-4,6343.0,-3.5103306770324707,-22,9953.0
2260,0.3413406014442444,-0.25906792283058167,83,6343.0,-4.8827900886535645,7,9953.0
2270,0.34177863597869873,1.138904333114624,-61,6343.0,-0.8629571199417114,-55,9953.0
2280,0.3422342538833618,-1.0236155986785889,-19,6343.0,0.9555391073226929,27,9953.0
2290,0.34126991033554077,-0.9528751969337463,58,6343.0,2.3365306854248047,11,9953.0
2300,0.34155791997909546,-1.058512568473816,-22,6343.0,5.1144118309021,62,9953.0
2310,0.3418267071247101,0.22963839769363403,-58,6343.0,3.8552169799804688,188,9953.0
2320,0.3421078026294708,0.7992114424705505,42,6343.0,3.867793560028076,36,9953.0
2330,0.34243324398994446,1.8559538125991821,94,6343.0,3.3098673820495605,-97,9953.0
2340,0.34267953038215637,1.8549926280975342,44,6343.0,2.641679048538208,80,9953.0
2350,0.34321266412734985,2.9286601543426514,-28,6343.0,0.05669945850968361,112,9953.0
2360,0.34375235438346863,0.5774444937705994,8,6343.0,0.4015081226825714,-64,9953.0
2370,0.34422871470451355,1.8489943742752075,55,6343.0,0.057154975831508636,-75,9953.0
2380,0.34242376685142517,-0.7002601027488708,-40,6343.0,-0.8021895885467529,118,9953.0
2390,0.3426469564437866,-0.10648494213819504,-34,6343.0,1.1404139995574951,39,9953.0
2400,0.3428800702095032,-1.3891764879226685,-3,6343.0,3.2609848976135254,-115,9953.0
2410,0.3431566059589386,0.3349570631980896,45,6343.0,-0.45059508085250854,26,9953.0
2420,0.34217485785484314,1.0071487426757812,36,6343.0,-5.313694000244141,103,9953.0
2430,0.34241941571235657,-0.2545833885669708,-50,6343.0,-2.8182947635650635,-51,9953.0
2440,0.3425591289997101,-2.2559947967529297,76,6343.0,-0.46930867433547974,-109,9953.0
2450,0.34258177876472473,-1.8026845455169678,57,6343.0,-2.462838888168335,6,9953.0
2460,0.3425062298774719,-0.15114490687847137,-68,6343.0,0.0271917711943388,-5,9953.0
2470,0.3414447009563446,0.9300942420959473,-63,6343.0,0.6445088386535645,70,9953.0
2480,0.3413515090942383,0.20132744312286377,27,6343.0,0.6585443615913391,39,9953.0
2490,0.3413258194923401,-0.7757157683372498,-57,6343.0,-0.021446388214826584,-97,9953.0
2500,0.3413136899471283,-1.6328041553497314,-51,6343.0,3.5432705879211426,111,9953.0
2510,0.33920249342918396,-0.24356746673583984,-38,6343.0,2.0377023220062256,99,9953.0
2520,0.33891627192497253,-2.195556879043579,58,6343.0,2.2371389865875244,-165,9953.0
2530,0.3386341333389282,1.652571678161621,14,6343.0,3.6714553833007812,-4,9953.0
2540,0.33841392397880554,1.2056264877319336,-43,6343.0,3.100565195083618,155,9953.0
2550,0.3382751941680908,-1.178612470626831,60,6343.0,4.385908603668213,27,9953.0
2560,0.33813050389289856,0.029577862471342087,36,6343.0,3.2067060470581055,-117,9953.0
2570,0.33811840415000916,-0.7748069167137146,17,6343.0,1.983955979347229,68,9953.0
2580,0.3380727767944336,-1.376120924949646,-63,6343.0,-0.6772423386573792,163,9953.0
2590,0.3379763662815094,-0.11537430435419083,-30,6343.0,0.6269623637199402,-69,9953.0
2600,0.33913302421569824,-0.5270207524299622,39,6343.0,1.809572458267212,-141,9953.0
2610,0.3390841782093048,1.611542820930481,8,6343.0,-2.5508973598480225,62,9953.0
2620,0.3391241133213043,1.6472769975662231,-19,6343.0,-5.066291332244873,36,9953.0
2630,0.3392122685909271,0.7974660992622375,-32,6343.0,-4.658985137939453,-117,9953.0
2640,0.3384106457233429,-0.31675001978874207,19,6343.0,-4.718272686004639,-59,9953.0
2650,0.33842751383781433,0.39685937762260437,23,6343.0,-2.3295907974243164,69,9953.0
2660,0.3383720815181732,1.6689928770065308,-7,6343.0,0.4461207091808319,7,9953.0
2670,0.33828070759773254,1.390150547027588,43,6343.0,2.6350085735321045,-61,9953.0
2680,0.33816060423851013,1.4457519054412842,19,6343.0,1.7672396898269653,98,9953.0
2690,0.33808380365371704,-0.9502676129341125,3,6343.0,1.6041299104690552,116,9953.0
2700,0.33815711736679077,-0.3859051465988159,-54,6343.0,-0.3664804995059967,-41,9953.0
2710,0.33833232522010803,-1.052585482597351,22,6343.0,-0.7904973030090332,-20,9953.0
2720,0.3385646343231201,-0.5260227918624878,48,6343.0,0.28049665689468384,-97,9953.0
2730,0.33888325095176697,1.0472038984298706,3,6343.0,3.115460157394409,28,9953.0
2740,0.33908694982528687,1.4128457307815552,7,6343.0,2.2820873260498047,203,9953.0
2750,0.3392319083213806,-0.08781713992357254,1,6343.0,2.1080212593078613,26,9953.0
2760,0.339363694190979,-2.433901786804199,-45,6343.0,2.5361602306365967,-154,9953.0
2770,0.33955836296081543,-1.127841830253601,-28,6343.0,-0.74056077003479,-10,9953.0
2780,0.3376483619213104,0.31057751178741455,-5,6343.0,-0.7091390490531921,79,9953.0
2790,0.33787962794303894,0.4975702464580536,28,6343.0,-0.8744633197784424,-144,9953.0
2800,0.33820217847824097,2.5657591819763184,12,6343.0,-4.278293609619141,-80,9953.0
2810,0.3385469913482666,0.04391844570636749,-59,6343.0,-4.088894844055176,79,9953.0
2820,0.33731457591056824,0.9301828145980835,-46,6343.0,-1.2014561891555786,-6,9953.0
2830,0.3374757170677185,-0.4593725800514221,19,6343.0,3.6369025707244873,-45,9953.0
2840,0.33768990635871887,-1.1589804887771606,-6,6343.0,4.020862102508545,152,9953.0
2850,0.33798354864120483,-0.647399365901947,-43,6343.0,3.673184394836426,163,9953.0
2860,0.3378470242023468,-2.864380121231079,-74,6343.0,7.099377155303955,8,9953.0
2870,0.3382702171802521,2.1615235805511475,21,6343.0,4.300775527954102,14,9953.0
2880,0.33867961168289185,-1.580672264099121,114,6343.0,3.0926735401153564,-21,9953.0
2890,0.3389867842197418,2.5289151668548584,31,6343.0,6.242257595062256,81,9953.0
2900,0.3391733467578888,0.5741798281669617,-37,6343.0,3.3280487060546875,95,9953.0
2910,0.3396371901035309,0.6311487555503845,13,6343.0,-1.923486590385437,4,9953.0
2920,0.33988043665885925,-0.955397367477417,40,6343.0,-2.1735332012176514,-189,9953.0
2930,0.34009984135627747,-1.1176704168319702,-8,6343.0,-1.6403584480285645,-33,9953.0
2940,0.34027034044265747,-1.7695167064666748,-55,6343.0,-3.9941318035125732,93,9953.0
2950,0.3382647931575775,-1.1536961793899536,-30,6343.0,-2.8961377143859863,-182,9953.0
2960,0.3381587266921997,-2.2967686653137207,27,6343.0,-5.634981155395508,-200,9953.0
2970,0.338008314371109,0.006350781302899122,33,6343.0,-8.683499336242676,16,9953.0
2980,0.33789968490600586,2.031313419342041,-3,6343.0,-2.326286554336548,11,9953.0
2990,0.33788803219795227,0.6882287859916687,46,6343.0,-1.6501002311706543,-166,9953.0
3000,0.33720389008522034,0.48938655853271484,112,6343.0,-2.042227029800415,-54,9953.0
3010,0.33724504709243774,0.5240936279296875,2,6343.0,-2.0493431091308594,84,9953.0
3020,0.33724138140678406,1.5139715671539307,-24,6343.0,1.2853020429611206,52,9953.0
3030,0.3372223675251007,-1.5179604291915894,15,6343.0,4.139273166656494,50,9953.0
3040,0.33636873960494995,-1.30644953250885,39,6343.0,3.769181966781616,-22,9953.0
3050,0.3364725410938263,-3.7444376945495605,-29,6343.0,4.737104892730713,98,9953.0
3060,0.33670806884765625,-2.2562382221221924,-89,6343.0,1.0757120847702026,88,9953.0
3070,0.33706480264663696,-0.35736921429634094,-21,6343.0,0.08498635143041611,33,9953.0
3080,0.33725354075431824,2.488351821899414,148,6343.0,-0.5376064777374268,-158,9953.0
3090,0.337506502866745,3.1717560291290283,56,6343.0,0.24948927760124207,-12,9953.0
3100,0.3376930058002472,3.1762514114379883,-12,6343.0,-3.297786235809326,126,9953.0
3110,0.33784836530685425,2.005582332611084,48,6343.0,-1.475498914718628,-127,9953.0
3120,0.33803749084472656,-0.7515003681182861,21,6343.0,-0.21153049170970917,-102,9953.0
3130,0.33712148666381836,0.587316632270813,-26,6343.0,-2.8916757106781006,129,9953.0
3140,0.3373379111289978,-2.0490972995758057,-74,6343.0,0.849492073059082,28,9953.0
3150,0.33746927976608276,-1.0108977556228638,-28,6343.0,2.2428104877471924,-108,9953.0
3160,0.3375091254711151,-0.7945080399513245,32,6343.0,3.256474018096924,114,9953.0
3170,0.3377021253108978,1.1155164241790771,7,6343.0,3.9196391105651855,156,9953.0
3180,0.33761003613471985,1.5701202154159546,7,6343.0,7.557023525238037,87,9953.0
3190,0.3375042974948883,0.42829322814941406,60,6343.0,5.628538608551025,65,9953.0
3200,0.3374309241771698,1.150490641593933,56,6343.0,1.6184121370315552,-15,9953.0
3210,0.3373633325099945,0.6378715634346008,-48,6343.0,-0.14273589849472046,39,9953.0
3220,0.33671239018440247,0.2975930869579315,-49,6343.0,-2.1146891117095947,47,9953.0
3230,0.33648616075515747,1.7205641269683838,-5,6343.0,-7.590880393981934,-110,9953.0
3240,0.336268812417984,-4.854029655456543,20,6343.0,-5.40700626373291,-253,9953.0
3250,0.3360842764377594,-1.9349522590637207,-47,6343.0,-5.911460876464844,-130,9953.0
3260,0.3351849615573883,-0.259836882352829,-61,6343.0,-7.234134197235107,23,9953.0
3270,0.3351404368877411,1.16746985912323,45,6343.0,-3.3646271228790283,-69,9953.0
3280,0.3351244330406189,2.4137792587280273,71,6343.0,-0.4185943305492401,-133,9953.0
3290,0.3350854516029358,3.0126781463623047,18,6343.0,0.39666637778282166,163,9953.0
3300,0.3349721133708954,0.3599095940589905,-28,6343.0,3.5418756008148193,120,9953.0
3310,0.33480289578437805,-1.2696489095687866,-62,6343.0,6.185905456542969,4,9953.0
3320,0.3346393406391144,-0.9994125962257385,-16,6343.0,6.160043239593506,240,9953.0
3330,0.3345491290092468,-1.868065357208252,-57,6343.0,5.816020965576172,243,9953.0
3340,0.3345208466053009,-0.9539552927017212,-23,6343.0,7.959778785705566,10,9953.0
3350,0.3363499343395233,1.7379777431488037,93,6343.0,4.546027183532715,-12,9953.0
3360,0.33651629090309143,2.8382349014282227,40,6343.0,3.369185447692871,153,9953.0
3370,0.33664530515670776,1.7479872703552246,-19,6343.0,0.3743797540664673,75,9953.0
3380,0.33674392104148865,1.299136757850647,-25,6343.0,-1.8898712396621704,-102,9953.0
3390,0.3368799388408661,0.40007829666137695,56,6343.0,-2.511171340942383,-76,9953.0
3400,0.3369813561439514,-1.1730457544326782,68,6343.0,-4.848705768585205,-243,9953.0
3410,0.3371686041355133,-0.02547878958284855,-26,6343.0,-3.0982887744903564,-35,9953.0
3420,0.3374274969100952,1.430945873260498,-25,6343.0,-4.176170349121094,147,9953.0
3430,0.3377702236175537,-0.30938437581062317,91,6343.0,2.248655319213867,50,9953.0
3440,0.33778393268585205,0.3747066259384155,26,6343.0,2.313298463821411,-102,9953.0
3450,0.3380206525325775,0.9121318459510803,-55,6343.0,2.165642023086548,118,9953.0
3460,0.33819693326950073,0.0540660098195076,-47,6343.0,0.9927654266357422,116,9953.0
3470,0.33834147453308105,-1.1289440393447876,26,6343.0,1.8575681447982788,-112,9953.0
3480,0.33910083770751953,-1.1523809432983398,23,6343.0,1.0905026197433472,3,9953.0
3490,0.339364230632782,-1.5935556888580322,-36,6343.0,-3.583444118499756,102,9953.0
3500,0.33964380621910095,0.39590984582901,-12,6343.0,-5.465272426605225,-66,9953.0
3510,0.3398837447166443,-1.1564393043518066,29,6343.0,-2.786994218826294,-186,9953.0
3520,0.3377287983894348,-0.9296312928199768,-12,6343.0,-1.4817405939102173,66,9953.0
3530,0.3376418650150299,1.200226902961731,-7,6343.0,-1.145142912864685,55,9953.0
3540,0.3375617265701294,1.0157872438430786,-51,6343.0,0.9616298675537109,-13,9953.0
3550,0.3375266492366791,0.9072790145874023,51,6343.0,-0.25959575176239014,-21,9953.0
3560,0.33756184577941895,-0.26239973306655884,49,6343.0,0.041978467255830765,-59,9953.0
3570,0.33781519532203674,-0.03743476793169975,-35,6343.0,0.7764113545417786,27,9953.0
3580,0.3378901183605194,-0.7469302415847778,24,6343.0,-1.6201642751693726,59,9953.0
3590,0.33790192008018494,-0.7004395127296448,5,6343.0,-0.17309868335723877,-102,9953.0
3600,0.33786067366600037,0.08909625560045242,-4,6343.0,2.924164295196533,5,9953.0
3610,0.33668985962867737,1.6196848154067993,12,6343.0,-2.020171642303467,130,9953.0
3620,0.33654582500457764,3.2745234966278076,-17,6343.0,-1.5399460792541504,105,9953.0
3630,0.33646106719970703,0.5960564017295837,45,6343.0,4.211060047149658,-13,9953.0
3640,0.3364155888557434,1.956939935684204,40,6343.0,4.721752166748047,140,9953.0
3650,0.33632680773735046,-0.27523374557495117,-62,6343.0,2.415428400039673,157,9953.0
3660,0.3360234498977661,-0.6172338128089905,-20,6343.0,4.113743305206299,6,9953.0
3670,0.33575236797332764,-1.632163166999817,75,6343.0,2.706683397293091,-109,9953.0
3680,0.3354509770870209,1.6584097146987915,92,6343.0,-0.2795984745025635,49,9953.0
3690,0.33521413803100586,1.850472092628479,69,6343.0,-2.443966865539551,25,9953.0
3700,0.33540841937065125,-0.2511060833930969,-44,6343.0,-1.0281826257705688,-141,9953.0
3710,0.3353230059146881,1.6751099824905396,-17,6343.0,-0.7803991436958313,-55,9953.0
3720,0.33526065945625305,-2.344785690307617,-16,6343.0,-2.731383800506592,-64,9953.0
3730,0.3351443111896515,-1.2835010290145874,-66,6343.0,-2.5620853900909424,-69,9953.0
3740,0.33612918853759766,-1.4776357412338257,-45,6343.0,-5.037228107452393,-1,9953.0
3750,0.3360544443130493,-0.42722195386886597,22,6343.0,-3.426730155944824,-97,9953.0
3760,0.336046040058136,0.6968497037887573,37,6343.0,-2.0102131366729736,-104,9953.0
3770,0.3361005187034607,1.1224230527877808,-23,6343.0,-3.0033349990844727,111,9953.0
3780,0.3362351059913635,2.1333751678466797,-22,6343.0,-1.5510313510894775,33,9953.0
3790,0.33786869049072266,0.2725527882575989,-12,6343.0,2.198981523513794,-66,9953.0
3800,0.33804288506507874,-0.5243120789527893,-82,6343.0,4.000250339508057,150,9953.0
3810,0.3381319046020508,0.7354679703712463,-68,6343.0,4.100244998931885,164,9953.0
3820,0.3381549119949341,-0.7766375541687012,20,6343.0,7.110952854156494,-5,9953.0
3830,0.3369016945362091,0.33974289894104004,67,6343.0,7.006670951843262,51,9953.0
3840,0.33684977889060974,-0.8508539199829102,-17,6343.0,4.488436698913574,232,9953.0
3850,0.3368605971336365,-0.31435921788215637,-51,6343.0,4.448267936706543,97,9953.0
3860,0.33688443899154663,-0.3614175319671631,20,6343.0,5.1338300704956055,-98,9953.0
3870,0.3368586003780365,1.037726640701294,10,6343.0,1.3294343948364258,22,9953.0
3880,0.33593422174453735,3.3040664196014404,75,6343.0,-2.9268288612365723,81,9953.0
3890,0.3356621265411377,3.57057785987854,-31,6343.0,-2.1134960651397705,-56,9953.0
3900,0.33536338806152344,3.7459421157836914,26,6343.0,-4.3662824630737305,-38,9953.0
3910,0.3350989818572998,-3.0003154277801514,-20,6343.0,-2.643778085708618,-80,9953.0
3920,0.33697256445884705,-2.5401225090026855,-66,6343.0,-4.088339805603027,-135,9953.0
3930,0.33693552017211914,-2.4717094898223877,-99,6343.0,-6.422495365142822,-36,9953.0
3940,0.3368680775165558,-2.258765697479248,-22,6343.0,-5.782680034637451,-43,9953.0
3950,0.3367864489555359,-0.40520381927490234,15,6343.0,-0.27608832716941833,-99,9953.0
3960,0.3356408476829529,2.2054131031036377,50,6343.0,-0.6017684936523438,89,9953.0
3970,0.33552035689353943,3.6221940517425537,-10,6343.0,0.6873969435691833,151,9953.0
3980,0.3355914354324341,1.7734229564666748,18,6343.0,2.701603651046753,-120,9953.0
3990,0.33569350838661194,-0.34367433190345764,64,6343.0,4.618115425109863,39,9953.0
4000,0.33584335446357727,-3.1698696613311768,-109,6343.0,4.53788423538208,222,9953.0
4010,0.33644169569015503,-2.140150547027588,-89,6343.0,2.6105079650878906,-13,9953.0
4020,0.3365417420864105,-1.2802120447158813,13,6343.0,0.9877082705497742,-100,9953.0
4030,0.3365926146507263,-0.5575430393218994,28,6343.0,0.5270808339118958,-11,9953.0
4040,0.33670774102211,1.148841142654419,-19,6343.0,1.1261297464370728,127,9953.0
4050,0.3357461988925934,3.111783981323242,6,6343.0,-0.22058486938476562,108,9953.0
4060,0.33598312735557556,3.987922191619873,20,6343.0,-2.5257773399353027,-25,9953.0
4070,0.33627820014953613,-1.7035528421401978,131,6343.0,2.584056854248047,-244,9953.0
4080,0.3365728259086609,1.1245763301849365,38,6343.0,1.4088326692581177,-19,9953.0
4090,0.3367583453655243,-3.212683916091919,-111,6343.0,-1.9928909540176392,60,9953.0
4100,0.33740460872650146,-3.463698387145996,-26,6343.0,-0.9911189675331116,-27,9953.0
4110,0.3376157879829407,-4.789396286010742,42,6343.0,0.44809532165527344,-181,9953.0
4120,0.33784621953964233,-1.0149376392364502,19,6343.0,-1.7541106939315796,61,9953.0
4130,0.33812934160232544,1.1809474229812622,-14,6343.0,-3.6675586700439453,12,9953.0
4140,0.3378801643848419,4.286672592163086,21,6343.0,-1.947640061378479,-218,9953.0
4150,0.33811038732528687,2.1326143741607666,80,6343.0,-0.9673084616661072,-87,9953.0
4160,0.3382570743560791,0.14485624432563782,22,6343.0,-0.43353867530822754,186,9953.0
4170,0.3383534252643585,0.5394260883331299,5,6343.0,2.821389675140381,31,9953.0
4180,0.33828356862068176,-2.277463436126709,-68,6343.0,2.6666293144226074,-103,9953.0
4190,0.3384653627872467,-1.8976857662200928,-12,6343.0,0.7489018440246582,14,9953.0
4200,0.33869045972824097,-0.8941338062286377,52,6343.0,0.049837879836559296,34,9953.0
4210,0.3388788104057312,-0.27107441425323486,-72,6343.0,1.019212245941162,104,9953.0
4220,0.3390798568725586,1.0808275938034058,-17,6343.0,-1.5558605194091797,39,9953.0
4230,0.3379676342010498,0.7675260305404663,49,6343.0,1.4588731527328491,-144,9953.0
4240,0.33799615502357483,0.6832793354988098,31,6343.0,2.4406495094299316,101,9953.0
4250,0.3380711078643799,0.3794226050376892,15,6343.0,2.943110227584839,251,9953.0
4260,0.3382790982723236,-0.841036319732666,-58,6343.0,6.565258979797363,3,9953.0
4270,0.33760344982147217,-2.039811849594116,-25,6343.0,4.008330821990967,-50,9953.0
4280,0.3378443121910095,-2.2853994369506836,56,6343.0,0.3593137860298157,82,9953.0
4290,0.3380185067653656,-0.43922239542007446,16,6343.0,-2.0023159980773926,3,9953.0
4300,0.33822306990623474,-0.24877773225307465,-49,6343.0,-0.019872033968567848,-101,9953.0
4310,0.33844104409217834,1.9905539751052856,121,6343.0,-1.194506049156189,1,9953.0
4320,0.3381456434726715,2.265955686569214,81,6343.0,-0.6494418978691101,27,9953.0
4330,0.3384142518043518,0.4925823509693146,81,6343.0,1.6476863622665405,31,9953.0
4340,0.3386121392250061,-0.4996489882469177,-129,6343.0,1.0458117723464966,-156,9953.0
4350,0.3387029469013214,-0.28258275985717773,-99,6343.0,-0.28245991468429565,53,9953.0
4360,0.33684515953063965,-4.3369622230529785,32,6343.0,-0.9042125940322876,-135,9953.0
4370,0.3366789221763611,-2.3936209678649902,33,6343.0,-2.8848421573638916,-87,9953.0
4380,0.33655446767807007,-1.8954271078109741,-44,6343.0,-5.442436695098877,52,9953.0
4390,0.33650365471839905,1.2563174962997437,-42,6343.0,-4.816668510437012,-114,9953.0
4400,0.33623206615448,-2.114971160888672,61,6343.0,-5.814268112182617,-219,9953.0
4410,0.3359963893890381,2.2758750915527344,39,6343.0,-3.036879301071167,30,9953.0
4420,0.33569490909576416,2.1331593990325928,6,6343.0,0.4777412414550781,38,9953.0
4430,0.3353094458580017,1.7687020301818848,-45,6343.0,-0.5597501993179321,56,9953.0
4440,0.3349955379962921,3.4043734073638916,3,6343.0,-1.1548089981079102,97,9953.0
4450,0.33476004004478455,-0.7962654232978821,33,6343.0,3.513597011566162,-34,9953.0
4460,0.3345857560634613,-0.6155624985694885,-63,6343.0,4.680702209472656,68,9953.0
4470,0.3344108760356903,-3.062924861907959,-93,6343.0,6.16061544418335,220,9953.0
4480,0.3341454565525055,-2.0833077430725098,-9,6343.0,7.302399635314941,11,9953.0
4490,0.3355127274990082,-0.7617918252944946,101,6343.0,5.8769211769104,-62,9953.0
4500,0.3353893458843231,0.6128238439559937,-20,6343.0,4.145012855529785,182,9953.0
4510,0.33537426590919495,4.335340976715088,6,6343.0,3.032144546508789,79,9953.0
4520,0.33550164103507996,2.8535068035125732,8,6343.0,-1.460432767868042,-141,9953.0
4530,0.3356805443763733,1.0873233079910278,53,6343.0,-3.042525291442871,-111,9953.0
4540,0.3355630338191986,-0.47684621810913086,34,6343.0,-4.764573574066162,9,9953.0
4550,0.33565405011177063,-1.3060367107391357,-73,6343.0,-5.760653972625732,-96,9953.0
4560,0.3357801139354706,-2.4483115673065186,23,6343.0,-8.111265182495117,-188,9953.0
4570,0.3359805941581726,-1.2566663026809692,-1,6343.0,-7.066314220428467,-135,9953.0
4580,0.33790263533592224,-1.4512301683425903,26,6343.0,-4.43929386138916,-34,9953.0
4590,0.33834782242774963,0.38934358954429626,-50,6343.0,-2.666781187057495,3,9953.0
4600,0.33870214223861694,2.381922960281372,-33,6343.0,-0.4433341324329376,88,9953.0
4610,0.3389433026313782,0.13958744704723358,68,6343.0,5.681637287139893,12,9953.0
4620,0.33864426612854004,1.4396412372589111,-4,6343.0,5.519835948944092,100,9953.0
4630,0.3387654423713684,0.3412550687789917,-41,6343.0,4.717471599578857,261,9953.0
4640,0.33889997005462646,0.004955549258738756,-4,6343.0,8.738177299499512,55,9953.0
4650,0.33905234932899475,-0.6368873715400696,85,6343.0,9.705415725708008,-27,9953.0
4660,0.33917295932769775,-0.1831732541322708,12,6343.0,8.301063537597656,245,9953.0
4670,0.3387771248817444,-0.6606338024139404,-52,6343.0,6.925604820251465,231,9953.0
4680,0.33868837356567383,-2.1721343994140625,-68,6343.0,8.125994682312012,121,9953.0
4690,0.3385142683982849,-1.3230791091918945,47,6343.0,5.356204509735107,104,9953.0
4700,0.33846840262413025,0.16355367004871368,1,6343.0,1.2919305562973022,-41,9953.0
4710,0.3378349840641022,5.261647701263428,31,6343.0,-2.6230437755584717,-119,9953.0
4720,0.33782243728637695,3.673163652420044,4,6343.0,-3.7016184329986572,110,9953.0
4730,0.3377862870693207,3.195800542831421,45,6343.0,-3.420814275741577,15,9953.0
4740,0.33768102526664734,0.22568921744823456,-1,6343.0,-3.797429084777832,-219,9953.0
4750,0.3375639319419861,0.14960342645645142,-120,6343.0,-7.293828964233398,-121,9953.0
4760,0.33810824155807495,-2.4114038944244385,-37,6343.0,-14.706128120422363,-99,9953.0
4770,0.33825865387916565,-1.3112248182296753,-84,6343.0,-10.156330108642578,-181,9953.0
4780,0.3385221064090729,-2.2631232738494873,-11,6343.0,-6.3121442794799805,-128,9953.0
4790,0.33875375986099243,1.138382911682129,111,6343.0,-5.658450126647949,-70,9953.0
4800,0.337911993265152,2.8490498065948486,17,6343.0,-3.6510322093963623,-39,9953.0
4810,0.3380795419216156,2.6295511722564697,-23,6343.0,-1.069523572921753,-118,9953.0
4820,0.33829832077026367,2.717935085296631,14,6343.0,0.8987672924995422,90,9953.0
4830,0.3385959267616272,-1.9037806987762451,-49,6343.0,1.2365047931671143,-89,9953.0
4840,0.3386034369468689,-2.2897751331329346,-117,6343.0,2.6844005584716797,83,9953.0
4850,0.3390007019042969,-3.69295334815979,-123,6343.0,3.133216619491577,168,9953.0
4860,0.3393165171146393,-1.5947848558425903,-48,6343.0,4.510070323944092,10,9953.0
4870,0.33951759338378906,-0.5912801027297974,19,6343.0,6.595248699188232,105,9953.0
4880,0.3396342098712921,1.4374114274978638,8,6343.0,4.519883632659912,204,9953.0
4890,0.3383220434188843,2.8942863941192627,5,6343.0,4.653753280639648,65,9953.0
4900,0.3384087085723877,1.1450676918029785,87,6343.0,3.7933273315429688,-69,9953.0
4910,0.3385387659072876,1.8606363534927368,48,6343.0,-0.469839483499527,47,9953.0
4920,0.33867451548576355,1.2433634996414185,10,6343.0,-2.681332588195801,34,9953.0
4930,0.3380734622478485,-0.03482156991958618,-67,6343.0,-2.716248035430908,-87,9953.0
4940,0.3380272686481476,0.6302943825721741,-17,6343.0,1.776229977607727,-71,9953.0
4950,0.3379012644290924,-4.07161808013916,57,6343.0,1.3627957105636597,-72,9953.0
4960,0.3377876281738281,-1.6391063928604126,-23,6343.0,2.334906578063965,7,9953.0
4970,0.33774831891059875,-0.2985418140888214,-49,6343.0,-0.16701212525367737,112,9953.0
4980,0.3370822072029114,1.441771149635315,30,6343.0,-0.04396749287843704,-11,9953.0
4990,0.33711689710617065,-0.1089823842048645,73,6343.0,2.729930877685547,-163,9953.0
5000,0.33710959553718567,1.3107863664627075,-3,6343.0,2.7586498260498047,149,9953.0
5010,0.33704209327697754,2.5769896507263184,-33,6343.0,0.5876714587211609,205,9953.0
5020,0.33695027232170105,-1.8203673362731934,-36,6343.0,1.5087155103683472,-104,9953.0
5030,0.3369411528110504,2.404078245162964,55,6343.0,2.359898805618286,-11,9953.0
5040,0.3370416462421417,-1.99972665309906,1,6343.0,-1.3768025636672974,75,9953.0
5050,0.3371998965740204,0.028607407584786415,-57,6343.0,-0.7110997438430786,-40,9953.0
5060,0.33680203557014465,0.733302891254425,-10,6343.0,-1.686772108078003,-34,9953.0
5070,0.33683305978775024,1.2411195039749146,30,6343.0,-0.8285348415374756,16,9953.0
5080,0.33695730566978455,1.0516164302825928,26,6343.0,2.594770669937134,-16,9953.0
5090,0.33697158098220825,0.3215136229991913,-11,6343.0,4.737557888031006,74,9953.0
5100,0.33706870675086975,0.893444836139679,44,6343.0,2.0189061164855957,49,9953.0
5110,0.33713221549987793,-3.0696120262145996,-18,6343.0,-0.5085789561271667,-167,9953.0
5120,0.33716174960136414,-3.3482778072357178,56,6343.0,1.886806607246399,0,9953.0
5130,0.3370770215988159,-0.14333362877368927,-30,6343.0,-3.7364137172698975,89,9953.0
5140,0.33689630031585693,1.526861548423767,8,6343.0,-1.0780385732650757,23,9953.0
5150,0.3364153206348419,1.819387435913086,85,6343.0,1.8765523433685303,-95,9953.0
5160,0.3362688422203064,2.178429365158081,15,6343.0,1.717834711074829,79,9953.0
5170,0.3362155854701996,-0.09001042693853378,-49,6343.0,1.9024308919906616,130,9953.0
5180,0.3361794054508209,-0.27391761541366577,-41,6343.0,0.16521389782428741,-35,9953.0
5190,0.336101770401001,-1.2684236764907837,53,6343.0,-1.9775636196136475,-145,9953.0
5200,0.335932195186615,-1.555593490600586,20,6343.0,-4.45217752456665,-59,9953.0
5210,0.33585670590400696,-0.30718833208084106,-10,6343.0,-5.487936973571777,-113,9953.0
5220,0.3358611762523651,0.5948532223701477,-39,6343.0,-7.909120082855225,-56,9953.0
5230,0.3359859585762024,0.06578464061021805,109,6343.0,-3.5485661029815674,-103,9953.0
5240,0.3369947373867035,-0.1790257841348648,142,6343.0,-2.076446056365967,-203,9953.0
5250,0.3372849225997925,-0.4091818034648895,-32,6343.0,-1.4520217180252075,19,9953.0
5260,0.3375120162963867,1.3053492307662964,4,6343.0,-1.2800756692886353,161,9953.0
5270,0.33769363164901733,-1.8923327922821045,3,6343.0,1.749646544456482,-113,9953.0
5280,0.33673253655433655,-0.28636327385902405,54,6343.0,3.0894298553466797,-8,9953.0
5290,0.33692944049835205,-2.081807851791382,-44,6343.0,4.917541027069092,234,9953.0
5300,0.33721253275871277,0.6539210677146912,-66,6343.0,6.661670684814453,91,9953.0
5310,0.3375433385372162,-1.786346673965454,64,6343.0,7.219452381134033,163,9953.0
5320,0.3378298878669739,0.8196089863777161,72,6343.0,6.273845195770264,49,9953.0
5330,0.33772680163383484,-0.9429529309272766,-38,6343.0,6.44570779800415,1,9953.0
5340,0.33784762024879456,-1.0482580661773682,-53,6343.0,2.7712433338165283,155,9953.0
5350,0.33795270323753357,0.2975352704524994,22,6343.0,1.7867759466171265,150,9953.0
5360,0.3380252420902252,-0.8664960861206055,51,6343.0,3.4850754737854004,-76,9953.0
5370,0.3372891843318939,0.8902171850204468,-13,6343.0,1.5990060567855835,-34,9953.0
5380,0.3374136686325073,-0.5665245056152344,-44,6343.0,-1.529267430305481,98,9953.0
5390,0.3375389575958252,0.26965221762657166,23,6343.0,-4.352653503417969,-77,9953.0
5400,0.3375968337059021,-0.26531487703323364,-7,6343.0,-5.374922275543213,-154,9953.0
5410,0.3376653790473938,1.3977655172348022,73,6343.0,-7.754177093505859,-13,9953.0
5420,0.3375413417816162,-0.3386063873767853,17,6343.0,-5.823080062866211,-41,9953.0
5430,0.3377123475074768,1.4271427392959595,-40,6343.0,-3.5757389068603516,-96,9953.0
5440,0.33796343207359314,1.157096266746521,39,6343.0,-1.8436931371688843,-19,9953.0
5450,0.33826184272766113,1.4060713052749634,22,6343.0,-2.150179386138916,-77,9953.0
5460,0.33760109543800354,0.32063058018684387,-10,6343.0,0.11673052608966827,19,9953.0
5470,0.3377273380756378,-0.7170741558074951,-58,6343.0,0.7035409808158875,127,9953.0
5480,0.33782896399497986,-0.9202780723571777,-22,6343.0,0.7279849052429199,-50,9953.0
5490,0.33799025416374207,-3.9215517044067383,49,6343.0,1.0437355041503906,-122,9953.0
5500,0.3373672664165497,-1.0639249086380005,9,6343.0,1.9128390550613403,169,9953.0
5510,0.33763283491134644,0.866305947303772,-44,6343.0,1.9876285791397095,129,9953.0
5520,0.33788368105888367,0.43759971857070923,12,6343.0,3.7711293697357178,-56,9953.0
5530,0.33808276057243347,2.209399461746216,77,6343.0,2.8010597229003906,0,9953.0
5540,0.3382284343242645,1.6208750009536743,56,6343.0,0.9476017355918884,90,9953.0
5550,0.33788836002349854,1.3101812601089478,-27,6343.0,1.103113055229187,62,9953.0
5560,0.33807703852653503,-0.38472336530685425,-20,6343.0,3.261915445327759,77,9953.0
5570,0.33833277225494385,-0.5947086215019226,-54,6343.0,2.3730640411376953,32,9953.0
5580,0.3386456072330475,-2.5076208114624023,28,6343.0,0.55491703748703,-43,9953.0
5590,0.33830270171165466,-2.514960289001465,-135,6343.0,2.3824384212493896,61,9953.0
5600,0.33846315741539,3.072422981262207,-51,6343.0,-4.930313587188721,121,9953.0
5610,0.33857694268226624,0.7676048278808594,69,6343.0,-2.930049180984497,-165,9953.0
5620,0.3387511372566223,2.6961123943328857,101,6343.0,-0.39389094710350037,-118,9953.0
5630,0.33898308873176575,3.9058148860931396,7,6343.0,-3.4533016681671143,80,9953.0
5640,0.33925431966781616,1.8960739374160767,-55,6343.0,-5.341114044189453,-5,9953.0
5650,0.33949118852615356,-2.8374037742614746,-45,6343.0,-1.6025487184524536,-154,9953.0
5660,0.33968955278396606,-4.089305877685547,20,6343.0,-2.508479595184326,-30,9953.0
5670,0.3398531675338745,-3.2078030109405518,-17,6343.0,-3.2782113552093506,49,9953.0
5680,0.3380349278450012,-4.069346904754639,-130,6343.0,1.7909094095230103,-100,9953.0
5690,0.3380676805973053,0.45205971598625183,-25,6343.0,0.2281835973262787,25,9953.0
5700,0.3381724953651428,0.4724688231945038,76,6343.0,-0.6088714003562927,2,9953.0
5710,0.3383437693119049,5.145672798156738,75,6343.0,-0.44403067231178284,-19,9953.0
5720,0.33791014552116394,4.232803821563721,39,6343.0,0.4412485659122467,97,9953.0
5730,0.3379499018192291,2.937507152557373,16,6343.0,0.9513713717460632,38,9953.0
5740,0.33795371651649475,-0.5414875745773315,23,6343.0,3.517613649368286,-64,9953.0
5750,0.33793875575065613,-2.55674409866333,-80,6343.0,2.7383735179901123,212,9953.0
5760,0.33798813819885254,-3.5214579105377197,-91,6343.0,2.5006062984466553,134,9953.0
5770,0.33772987127304077,-2.7776989936828613,-53,6343.0,3.960047721862793,-78,9953.0
5780,0.3379059135913849,1.9650063514709473,11,6343.0,2.9174280166625977,66,9953.0
5790,0.33806854486465454,2.530362844467163,42,6343.0,0.8376985788345337,160,9953.0
5800,0.33816632628440857,2.6124913692474365,-4,6343.0,0.39356037974357605,11,9953.0
5810,0.3389536142349243,2.1741373538970947,95,6343.0,1.4148259162902832,-78,9953.0
5820,0.33907389640808105,1.6464647054672241,10,6343.0,2.8068580627441406,53,9953.0
5830,0.3392772376537323,-0.6156639456748962,-44,6343.0,1.7072169780731201,24,9953.0
5840,0.33956459164619446,-2.091555595397949,-96,6343.0,1.026147723197937,43,9953.0
5850,0.33979275822639465,-2.945838451385498,42,6343.0,-2.3775370121002197,-54,9953.0
5860,0.33872923254966736,-3.4951934814453125,7,6343.0,-0.19126679003238678,-109,9953.0
5870,0.33869850635528564,0.5325958132743835,107,6343.0,-1.8211791515350342,-87,9953.0
5880,0.3386000394821167,2.977145195007324,18,6343.0,-4.134317874908447,98,9953.0
5890,0.33849090337753296,1.3319451808929443,101,6343.0,-2.2338030338287354,-44,9953.0
5900,0.3374064862728119,1.8437130451202393,53,6343.0,0.164701446890831,-115,9953.0
5910,0.3373178243637085,-0.3489539623260498,15,6343.0,-0.671195387840271,82,9953.0
5920,0.3371645510196686,0.5464491248130798,-43,6343.0,-1.649651050567627,70,9953.0
5930,0.33692216873168945,0.25073039531707764,-50,6343.0,-1.5414419174194336,-71,9953.0
5940,0.33676278591156006,1.2300482988357544,-11,6343.0,-3.1071910858154297,-31,9953.0
5950,0.33644670248031616,-3.4083988666534424,28,6343.0,-0.5433008074760437,50,9953.0
5960,0.3362143039703369,-1.9746873378753662,-57,6343.0,3.2608559131622314,18,9953.0
5970,0.33605197072029114,1.4869638681411743,34,6343.0,3.455831527709961,-40,9953.0
5980,0.33594655990600586,1.3615089654922485,132,6343.0,4.305259704589844,-53,9953.0
5990,0.335860013961792,1.4039262533187866,1,6343.0,4.132835388183594,9,9953.0
6000,0.335716187953949,0.7792828679084778,-62,6343.0,0.6354140043258667,126,9953.0
6010,0.33556869626045227,-2.2751986980438232,-30,6343.0,-0.17841407656669617,-8,9953.0
6020,0.33538931608200073,-3.1196792125701904,9,6343.0,-1.1121612787246704,-134,9953.0
6030,0.3355170786380768,-2.6924819946289062,-18,6343.0,-2.718127727508545,-11,9953.0
6040,0.3354831337928772,0.6015563607215881,-13,6343.0,-6.327547073364258,-48,9953.0
6050,0.3354440927505493,-0.02506544254720211,-10,6343.0,-3.986489772796631,-69,9953.0
6060,0.33532828092575073,1.0675749778747559,139,6343.0,-4.644289493560791,-99,9953.0
6070,0.335159569978714,0.8536281585693359,-6,6343.0,-1.9645267724990845,57,9953.0
6080,0.3361413776874542,3.8992977142333984,46,6343.0,-0.20730015635490417,-22,9953.0
6090,0.33597224950790405,0.5761683583259583,-51,6343.0,1.3687381744384766,127,9953.0
6100,0.335840106010437,0.9951391816139221,4,6343.0,1.5971143245697021,31,9953.0
6110,0.33575335144996643,-1.4874564409255981,-25,6343.0,5.656701564788818,-69,9953.0
6120,0.3373417854309082,-2.5522260665893555,-37,6343.0,5.3096771240234375,181,9953.0
6130,0.337232381105423,-1.4431782960891724,-63,6343.0,3.1387758255004883,222,9953.0
6140,0.33705076575279236,-1.137600302696228,-36,6343.0,3.6992623805999756,-33,9953.0
6150,0.3368619382381439,1.365909457206726,144,6343.0,3.9774367809295654,-18,9953.0
6160,0.3364813029766083,0.39374279975891113,-42,6343.0,1.131932258605957,127,9953.0
6170,0.33649885654449463,5.105453968048096,-22,6343.0,1.661157250404358,49,9953.0
6180,0.3365873396396637,0.9920475482940674,-32,6343.0,2.931626558303833,40,9953.0
6190,0.33666589856147766,-0.4481985569000244,19,6343.0,-0.476617693901062,3,9953.0
6200,0.33668217062950134,-2.3783674240112305,8,6343.0,-2.5900585651397705,-138,9953.0
6210,0.33757030963897705,-2.0492985248565674,-55,6343.0,-2.2574682235717773,-52,9953.0
6220,0.337616890668869,-2.3657336235046387,-50,6343.0,-1.3869026899337769,51,9953.0
6230,0.33778077363967896,-1.2662233114242554,30,6343.0,-2.3693573474884033,-146,9953.0
6240,0.33800485730171204,0.8474004864692688,86,6343.0,-0.938663899898529,-153,9953.0
6250,0.33821532130241394,-1.2565333843231201,-42,6343.0,0.9896445274353027,125,9953.0
6260,0.3383629620075226,0.18553228676319122,-32,6343.0,3.135220527648926,16,9953.0
6270,0.33843159675598145,1.154682993888855,22,6343.0,3.134023666381836,-99,9953.0
6280,0.33847174048423767,0.5396370887756348,92,6343.0,0.5669336915016174,40,9953.0
6290,0.33854660391807556,4.24196720123291,-8,6343.0,-4.162506103515625,69,9953.0
6300,0.33639824390411377,2.0900495052337646,-7,6343.0,-2.1461994647979736,-55,9953.0
6310,0.33644524216651917,-1.1718270778656006,52,6343.0,-3.2249345779418945,-166,9953.0
6320,0.336429238319397,-1.6147123575210571,-26,6343.0,-6.231472969055176,-118,9953.0
6330,0.336329847574234,-2.628411054611206,-6,6343.0,-6.292487621307373,-71,9953.0
6340,0.3348247706890106,-2.401254653930664,-79,6343.0,-4.581335067749023,40,9953.0
6350,0.33455634117126465,0.8769157528877258,16,6343.0,-0.06609291583299637,-31,9953.0
6360,0.33438077569007874,1.3767236471176147,92,6343.0,-0.6481702923774719,-125,9953.0
6370,0.3342415392398834,2.0602071285247803,23,6343.0,3.504873037338257,133,9953.0
6380,0.33405396342277527,1.8436272144317627,-27,6343.0,2.0549488067626953,176,9953.0
6390,0.3338451385498047,0.798732578754425,15,6343.0,3.9802091121673584,-41,9953.0
6400,0.3335907757282257,-1.560990333557129,32,6343.0,4.138792037963867,-18,9953.0
6410,0.3332985043525696,-1.1159045696258545,-32,6343.0,0.5074586868286133,154,9953.0
6420,0.33304262161254883,1.7153253555297852,9,6343.0,0.3783958852291107,56,9953.0
6430,0.3344811797142029,-1.3384310007095337,31,6343.0,3.05568265914917,33,9953.0
6440,0.3344867527484894,0.8356636166572571,50,6343.0,1.9341228008270264,38,9953.0
6450,0.3345218300819397,-2.8326895236968994,-96,6343.0,4.317511558532715,44,9953.0
6460,0.3345050513744354,-0.3652549684047699,-93,6343.0,3.4903924465179443,34,9953.0
6470,0.3354460299015045,-0.2734808623790741,61,6343.0,0.1356102079153061,55,9953.0
6480,0.3354772925376892,-0.47436219453811646,29,6343.0,-0.26030734181404114,-112,9953.0
6490,0.3355531394481659,1.1173040866851807,32,6343.0,-2.392364025115967,-92,9953.0
6500,0.33574193716049194,0.34551864862442017,3,6343.0,-5.052221775054932,33,9953.0
6510,0.33585941791534424,-0.14803244173526764,35,6343.0,-4.217504501342773,-121,9953.0
6520,0.3359922468662262,-1.363203763961792,-20,6343.0,-4.221452713012695,-148,9953.0
6530,0.3360044062137604,-0.6342372298240662,2,6343.0,-3.7010304927825928,93,9953.0
6540,0.3359353840351105,-1.2345741987228394,-63,6343.0,-0.7250800132751465,52,9953.0
6550,0.3358534872531891,-2.3370373249053955,95,6343.0,2.085620880126953,-221,9953.0
6560,0.3359362483024597,-0.9356704950332642,115,6343.0,1.2299009561538696,-55,9953.0
6570,0.3360186219215393,1.014136791229248,57,6343.0,1.0009517669677734,74,9953.0
6580,0.33609676361083984,0.8515382409095764,-39,6343.0,2.5042355060577393,24,9953.0
6590,0.3361336886882782,1.2674474716186523,11,6343.0,0.8926413059234619,49,9953.0
6600,0.3361208736896515,0.48754242062568665,31,6343.0,2.0556790828704834,-38,9953.0
6610,0.33513936400413513,-1.7630373239517212,23,6343.0,1.454512596130371,-27,9953.0
6620,0.33504047989845276,-0.2817893922328949,-29,6343.0,-0.37074676156044006,191,9953.0
6630,0.3350537121295929,0.27511245012283325,-41,6343.0,2.5758047103881836,105,9953.0
6640,0.33518123626708984,-0.27954739332199097,-13,6343.0,2.558783531188965,-22,9953.0
6650,0.3348623812198639,0.3994271159172058,4,6343.0,2.4730594158172607,69,9953.0
6660,0.33495739102363586,0.35918712615966797,-28,6343.0,-0.49817007780075073,145,9953.0
6670,0.33500710129737854,0.1627819538116455,-29,6343.0,-0.1819361448287964,9,9953.0
6680,0.3350595235824585,0.9282320737838745,66,6343.0,-1.4054335355758667,60,9953.0
6690,0.33593517541885376,2.0160892009735107,78,6343.0,-2.3605620861053467,-133,9953.0
6700,0.33615842461586,2.367678165435791,-21,6343.0,-1.947376012802124,-97,9953.0
6710,0.33640193939208984,2.7788944244384766,-31,6343.0,-3.828667640686035,161,9953.0
6720,0.33660057187080383,-3.7584564685821533,8,6343.0,0.8296255469322205,16,9953.0
6730,0.3367055356502533,-2.785372734069824,-63,6343.0,0.7272241115570068,41,9953.0
6740,0.3376857042312622,-2.5212037563323975,-24,6343.0,-1.2915799617767334,60,9953.0
6750,0.3377656042575836,-0.9857733249664307,-48,6343.0,-1.133669376373291,97,9953.0
6760,0.33790409564971924,1.1618931293487549,-11,6343.0,-1.5832579135894775,-79,9953.0
6770,0.33809301257133484,1.16959547996521,75,6343.0,0.3173283636569977,-21,9953.0
6780,0.3378449082374573,3.3110671043395996,98,6343.0,-1.300258994102478,62,9953.0
6790,0.3379584848880768,3.4103527069091797,-8,6343.0,3.3065433502197266,64,9953.0
6800,0.3380066752433777,1.1569126844406128,-11,6343.0,3.752992868423462,79,9953.0
6810,0.3380683362483978,-0.8882144689559937,-2,6343.0,3.0466251373291016,26,9953.0
6820,0.3381355106830597,-4.256206035614014,-34,6343.0,3.415231943130493,188,9953.0
6830,0.33832278847694397,-4.89712381362915,-121,6343.0,3.4457876682281494,99,9953.0
6840,0.33859938383102417,-1.7200641632080078,-72,6343.0,1.4164196252822876,47,9953.0
6850,0.3389970362186432,0.26255542039871216,53,6343.0,1.7958509922027588,64,9953.0
6860,0.3393807113170624,2.7097785472869873,59,6343.0,1.4485496282577515,-17,9953.0
6870,0.337097704410553,3.070756196975708,7,6343.0,-2.4924652576446533,92,9953.0
6880,0.33733418583869934,1.1996475458145142,-39,6343.0,-2.9580516815185547,-28,9953.0
6890,0.33765119314193726,-0.11497032642364502,37,6343.0,-1.8652544021606445,-194,9953.0
6900,0.3380603492259979,-1.2953057289123535,71,6343.0,-1.9796286821365356,-20,9953.0
6910,0.337295800447464,-0.38842129707336426,-32,6343.0,-3.4839892387390137,83,9953.0
6920,0.3376539647579193,-1.481728196144104,-81,6343.0,-0.5174814462661743,-22,9953.0
6930,0.3380625247955322,-2.5883963108062744,-25,6343.0,2.1365041732788086,-19,9953.0
6940,0.3383011817932129,-2.406681537628174,21,6343.0,0.28529927134513855,6,9953.0
6950,0.33851826190948486,2.0322349071502686,36,6343.0,3.284855842590332,42,9953.0
6960,0.3381001949310303,3.4013290405273438,9,6343.0,3.4641363620758057,60,9953.0
6970,0.3383650481700897,4.705030918121338,73,6343.0,0.13511227071285248,41,9953.0
6980,0.3386509120464325,2.469346523284912,71,6343.0,-1.1763733625411987,-123,9953.0
6990,0.33884498476982117,-2.421916961669922,-74,6343.0,0.014688383787870407,67,9953.0
7000,0.33782729506492615,-3.5127761363983154,-94,6343.0,-1.9890419244766235,112,9953.0
7010,0.337878555059433,-5.92072868347168,-63,6343.0,0.09747999161481857,-147,9953.0
7020,0.3378754258155823,-2.69416880607605,37,6343.0,-2.690477132797241,-146,9953.0
7030,0.3379495143890381,-0.34569570422172546,37,6343.0,-6.005845069885254,61,9953.0
7040,0.33828645944595337,3.853511333465576,46,6343.0,-0.3808019459247589,-91,9953.0
7050,0.3379981815814972,3.9932563304901123,40,6343.0,-0.5523957014083862,-23,9953.0
7060,0.33818233013153076,4.325230598449707,58,6343.0,-0.19342108070850372,89,9953.0
7070,0.3382895290851593,1.208701729774475,-6,6343.0,1.8590670824050903,63,9953.0
7080,0.3383719027042389,-1.9273831844329834,-106,6343.0,2.587043046951294,29,9953.0
7090,0.33752307295799255,-2.164313554763794,-26,6343.0,0.6634806990623474,25,9953.0
7100,0.33764469623565674,-3.430213689804077,-16,6343.0,1.10849928855896,-80,9953.0
7110,0.3378368318080902,-2.819330930709839,-28,6343.0,0.8728011250495911,42,9953.0
7120,0.3378352224826813,-2.0297157764434814,-49,6343.0,1.4064425230026245,126,9953.0
7130,0.33763226866722107,2.3265483379364014,63,6343.0,-0.09601020067930222,-165,9953.0
7140,0.33770960569381714,2.70761775970459,110,6343.0,1.857275128364563,-98,9953.0
7150,0.33768633008003235,2.891275405883789,69,6343.0,0.5895720720291138,137,9953.0
7160,0.337616890668869,2.8717668056488037,-23,6343.0,-1.6796902418136597,100,9953.0
7170,0.33757954835891724,-1.9822921752929688,27,6343.0,-1.3215054273605347,-123,9953.0
7180,0.3365497887134552,-0.9924269318580627,65,6343.0,-3.493288278579712,-118,9953.0
7190,0.3365243673324585,-1.699115514755249,-17,6343.0,-3.7413296699523926,11,9953.0
7200,0.3364515006542206,-1.3867720365524292,-66,6343.0,-2.684870719909668,-43,9953.0
7210,0.3363145887851715,-1.6901705265045166,62,6343.0,-4.869842529296875,-94,9953.0
7220,0.3361144959926605,0.0331491194665432,73,6343.0,-2.045483112335205,-92,9953.0
7230,0.33597415685653687,1.8385096788406372,-37,6343.0,0.899164080619812,26,9953.0
7240,0.3359810411930084,3.6602861881256104,-42,6343.0,-1.3527294397354126,60,9953.0
7250,0.33605077862739563,2.185358762741089,0,6343.0,2.5112884044647217,84,9953.0
7260,0.3357277512550354,0.7409542798995972,48,6343.0,6.221405982971191,37,9953.0
7270,0.33578404784202576,-0.7751403450965881,-75,6343.0,6.207764148712158,137,9953.0
7280,0.3357887864112854,-1.2274487018585205,-87,6343.0,4.126769542694092,177,9953.0
7290,0.33576348423957825,-1.6820201873779297,-50,6343.0,4.198459625244141,-30,9953.0
7300,0.3357768654823303,-2.357947587966919,31,6343.0,2.8550877571105957,-59,9953.0
7310,0.33711835741996765,0.06666124612092972,25,6343.0,0.9795945882797241,-6,9953.0
7320,0.3373963236808777,2.2010951042175293,-12,6343.0,1.7715611457824707,71,9953.0
7330,0.33768579363822937,2.2118113040924072,24,6343.0,3.16178035736084,59,9953.0
7340,0.337906152009964,1.8847219944000244,2,6343.0,0.5912659764289856,37,9953.0
7350,0.33723461627960205,0.9520585536956787,46,6343.0,0.44112998247146606,-49,9953.0
7360,0.337186723947525,-0.3842886984348297,-51,6343.0,-0.8445851802825928,-24,9953.0
7370,0.33709993958473206,-0.8135011792182922,1,6343.0,-1.487520456314087,16,9953.0
7380,0.33704596757888794,0.007416629232466221,32,6343.0,-3.7912983894348145,-110,9953.0
7390,0.33699557185173035,-0.9134383797645569,88,6343.0,-4.517099380493164,-127,9953.0
7400,0.33693066239356995,0.12092364579439163,-20,6343.0,-4.346462726593018,68,9953.0
7410,0.3367413878440857,0.06386014819145203,-69,6343.0,-3.9623465538024902,16,9953.0
7420,0.3365166485309601,0.8803497552871704,-40,6343.0,-1.7208839654922485,-121,9953.0
7430,0.3362627327442169,-0.44753846526145935,-47,6343.0,-0.7281518578529358,73,9953.0
7440,0.33641451597213745,-0.3009720742702484,39,6343.0,-2.092432737350464,99,9953.0
7450,0.3362478017807007,-0.5598676204681396,-50,6343.0,2.0501320362091064,-20,9953.0
7460,0.33613720536231995,1.200000524520874,-21,6343.0,2.431999444961548,70,9953.0
7470,0.33604273200035095,0.2454143911600113,62,6343.0,1.7950489521026611,2,9953.0
7480,0.33593183755874634,-0.07074490189552307,-16,6343.0,3.9331374168395996,54,9953.0
7490,0.3357499837875366,-0.4728715717792511,-80,6343.0,1.1909620761871338,182,9953.0
7500,0.3356034457683563,-0.7337608933448792,-7,6343.0,2.736063003540039,34,9953.0
7510,0.33554574847221375,-0.7853270173072815,62,6343.0,5.2523884773254395,-126,9953.0
7520,0.3355579674243927,1.1412384510040283,3,6343.0,3.6104323863983154,153,9953.0
7530,0.3365369141101837,2.4176180362701416,-10,6343.0,-1.6364285945892334,179,9953.0
7540,0.33654075860977173,0.5060232281684875,-35,6343.0,0.11761123687028885,-126,9953.0
7550,0.33650198578834534,-0.010405227541923523,73,6343.0,0.8686372637748718,-5,9953.0
7560,0.336424320936203,-1.2040504217147827,5,6343.0,-4.24088716506958,32,9953.0
7570,0.33742085099220276,0.25313928723335266,-36,6343.0,-3.000802516937256,-54,9953.0
7580,0.33748456835746765,-1.1470738649368286,-23,6343.0,-2.368933916091919,-90,9953.0
7590,0.3375824987888336,-0.5413773655891418,29,6343.0,-2.859555244445801,-26,9953.0
7600,0.33763250708580017,0.9252264499664307,37,6343.0,-3.194319725036621,-85,9953.0
7610,0.33760640025138855,0.35081443190574646,-42,6343.0,-0.10741909593343735,-104,9953.0
7620,0.33734360337257385,1.2986079454421997,14,6343.0,1.0009722709655762,58,9953.0
7630,0.3372948467731476,-0.6514067649841309,-15,6343.0,3.1702167987823486,-112,9953.0
7640,0.33729663491249084,-0.9654353857040405,-13,6343.0,3.9444735050201416,104,9953.0
7650,0.3373521566390991,-1.442673683166504,-67,6343.0,-1.2513450384140015,218,9953.0
7660,0.33805879950523376,-1.1698137521743774,-24,6343.0,2.888392925262451,-126,9953.0
7670,0.3381977379322052,-3.4355647563934326,120,6343.0,3.667306900024414,-162,9953.0
7680,0.3382854163646698,-0.08760389685630798,33,6343.0,-2.985093832015991,97,9953.0
7690,0.3381975293159485,0.26537176966667175,-54,6343.0,-1.9082484245300293,-12,9953.0
7700,0.33578750491142273,2.1740407943725586,6,6343.0,-3.261514186859131,-126,9953.0
7710,0.3355833888053894,1.6622849702835083,118,6343.0,-1.9646806716918945,-88,9953.0
7720,0.335426926612854,2.1244146823883057,-5,6343.0,-3.173316240310669,-43,9953.0
7730,0.335324227809906,2.7475409507751465,-25,6343.0,-0.14668764173984528,56,9953.0
7740,0.33521366119384766,0.9478790163993835,-14,6343.0,-0.98553866147995,82,9953.0
7750,0.334208607673645,-5.144811630249023,22,6343.0,2.3859009742736816,-110,9953.0
7760,0.3338746130466461,-3.4262375831604004,43,6343.0,1.1565016508102417,-30,9953.0
7770,0.3335646390914917,-2.015141010284424,-73,6343.0,-1.325035572052002,152,9953.0
7780,0.333359956741333,1.813376784324646,-45,6343.0,-0.36773017048835754,75,9953.0
7790,0.3339240550994873,3.4011807441711426,32,6343.0,-0.7683320045471191,-92,9953.0
7800,0.33389776945114136,3.0648369789123535,145,6343.0,-1.233142614364624,20,9953.0
7810,0.3338595926761627,2.3130853176116943,-16,6343.0,-1.3022773265838623,72,9953.0
7820,0.33376553654670715,-0.929977297782898,-13,6343.0,-0.04565836116671562,-111,9953.0
7830,0.3336229920387268,-0.9734776616096497,28,6343.0,-2.809561252593994,1,9953.0
7840,0.3345184326171875,-1.7396444082260132,-41,6343.0,1.0978634357452393,111,9953.0
7850,0.334540456533432,-2.00016188621521,-52,6343.0,2.5435009002685547,24,9953.0
7860,0.3346281945705414,-1.0589021444320679,9,6343.0,1.315820574760437,-31,9953.0
7870,0.3347455859184265,-2.409543037414551,50,6343.0,3.4870879650115967,-41,9953.0
7880,0.3360653519630432,1.2615783214569092,94,6343.0,3.419128894805908,66,9953.0
7890,0.3361550569534302,1.5917826890945435,-39,6343.0,-0.028545595705509186,134,9953.0
7900,0.3361843228340149,1.2330458164215088,10,6343.0,0.73570317029953,28,9953.0
7910,0.3362041413784027,0.11589869856834412,46,6343.0,3.279801607131958,-101,9953.0
7920,0.33504748344421387,-0.11942686140537262,-11,6343.0,1.1418287754058838,111,9953.0
7930,0.33510372042655945,-0.5204038619995117,-55,6343.0,0.390817254781723,162,9953.0
7940,0.3351857364177704,-0.7684214115142822,-24,6343.0,3.2496702671051025,22,9953.0
7950,0.33525151014328003,-1.2168240547180176,19,6343.0,0.7013859748840332,-13,9953.0
7960,0.335275799036026,-0.9875836968421936,-38,6343.0,-1.1174745559692383,-55,9953.0
7970,0.3351278603076935,1.1502230167388916,-32,6343.0,-1.8180266618728638,3,9953.0
7980,0.33506059646606445,2.067091226577759,-12,6343.0,-4.0973358154296875,136,9953.0
7990,0.3350546360015869,4.920703887939453,2,6343.0,-2.4564952850341797,-10,9953.0
8000,0.3350963294506073,1.1685484647750854,1,6343.0,-1.7303508520126343,-101,9953.0
8010,0.33626309037208557,-0.34463173151016235,-46,6343.0,-3.8953442573547363,24,9953.0
8020,0.3364490568637848,1.1816203594207764,-59,6343.0,-4.0649871826171875,39,9953.0
8030,0.3366031050682068,-1.5104916095733643,65,6343.0,-2.408203125,-169,9953.0
8040,0.33669474720954895,0.24528788030147552,63,6343.0,-1.5193651914596558,-62,9953.0
8050,0.33681151270866394,-0.5503983497619629,-7,6343.0,-0.6612085700035095,98,9953.0
8060,0.3362159729003906,0.4890231788158417,40,6343.0,1.046737790107727,15,9953.0
8070,0.3364475667476654,0.40615150332450867,21,6343.0,0.9416557550430298,7,9953.0
8080,0.33667483925819397,-0.09955023974180222,93,6343.0,2.6168010234832764,88,9953.0
8090,0.33683717250823975,0.6117496490478516,-48,6343.0,5.473084926605225,95,9953.0
8100,0.337350457906723,1.459490418434143,-54,6343.0,3.9718682765960693,125,9953.0
8110,0.3374170958995819,3.315107822418213,-32,6343.0,3.145678997039795,103,9953.0
8120,0.3374324142932892,-1.0391634702682495,50,6343.0,2.147390127182007,0,9953.0
8130,0.33749133348464966,0.7526206374168396,-29,6343.0,-0.7849944829940796,21,9953.0
8140,0.3374025821685791,-0.5808815956115723,-61,6343.0,-1.55214524269104,112,9953.0
8150,0.3375629782676697,1.1882171630859375,62,6343.0,-0.35327133536338806,-140,9953.0
8160,0.33768752217292786,1.7516839504241943,24,6343.0,-1.002214789390564,-95,9953.0
8170,0.3377242386341095,0.7949227094650269,-18,6343.0,-3.505293846130371,151,9953.0
8180,0.3377319872379303,-0.7795624732971191,-94,6343.0,-3.141350507736206,25,9953.0
8190,0.33747196197509766,-1.0463058948516846,-41,6343.0,-0.9164053797721863,-189,9953.0
8200,0.3375875949859619,-0.42388391494750977,-34,6343.0,-0.5456377863883972,2,9953.0
8210,0.3378107249736786,-0.5432721376419067,61,6343.0,-2.8420939445495605,68,9953.0
8220,0.33809173107147217,-1.3078581094741821,-63,6343.0,1.9101250171661377,-17,9953.0
8230,0.3366897404193878,2.9107747077941895,13,6343.0,0.2473715990781784,62,9953.0
8240,0.33675187826156616,0.44605550169944763,93,6343.0,1.4490890502929688,-19,9953.0
8250,0.3368017077445984,2.0728063583374023,18,6343.0,1.9588550329208374,2,9953.0
8260,0.3369002938270569,-0.1775258332490921,-48,6343.0,1.585198998451233,143,9953.0
8270,0.3370557129383087,-0.7298943400382996,-14,6343.0,1.3729497194290161,20,9953.0
8280,0.3372218608856201,-1.3369489908218384,31,6343.0,4.189889430999756,-70,9953.0
8290,0.3373650312423706,-0.963616132736206,-14,6343.0,2.3599908351898193,148,9953.0
8300,0.33743035793304443,-0.7780583500862122,-58,6343.0,-0.20591849088668823,141,9953.0
8310,0.33744579553604126,-2.453237533569336,-27,6343.0,-0.4140941798686981,-134,9953.0
8320,0.3376310169696808,0.10423105210065842,90,6343.0,-3.8096745014190674,-70,9953.0
8330,0.3376091718673706,0.25227588415145874,29,6343.0,-5.91562557220459,53,9953.0
8340,0.3376731872558594,2.3261728286743164,-8,6343.0,-3.9354751110076904,-97,9953.0
8350,0.3377792537212372,0.20197147130966187,14,6343.0,-4.538398742675781,-121,9953.0
8360,0.33830103278160095,0.3709125220775604,17,6343.0,-5.850102424621582,-58,9953.0
8370,0.3383258283138275,-0.4153318703174591,-76,6343.0,-4.345724105834961,-53,9953.0
8380,0.33830735087394714,-1.0078476667404175,-80,6343.0,-2.9252216815948486,58,9953.0
8390,0.3382841646671295,-1.6498786211013794,0,6343.0,-0.4575583040714264,-20,9953.0
8400,0.33829203248023987,-0.473544716835022,0,6343.0,0.9554234743118286,-99,9953.0
8410,0.33818960189819336,1.097592830657959,-18,6343.0,3.83707857131958,208,9953.0
8420,0.3382291793823242,-0.4205595552921295,-47,6343.0,5.915694713592529,231,9953.0
8430,0.3382705748081207,-1.525212049484253,34,6343.0,12.140655517578125,-61,9953.0
8440,0.3382936120033264,1.257534146308899,39,6343.0,7.306373119354248,143,9953.0
8450,0.33810049295425415,-1.9479879140853882,-26,6343.0,6.554214000701904,250,9953.0
8460,0.3379661440849304,-0.5087279677391052,-57,6343.0,7.048485279083252,60,9953.0
8470,0.3379596471786499,0.15618953108787537,34,6343.0,2.4697117805480957,-23,9953.0
8480,0.33799776434898376,1.835678219795227,70,6343.0,-0.007985370233654976,29,9953.0
8490,0.33821141719818115,1.0789073705673218,-28,6343.0,-2.8404319286346436,-61,9953.0
8500,0.3377853035926819,-0.20899151265621185,-40,6343.0,-4.396237850189209,-75,9953.0
8510,0.3377859890460968,0.2992997467517853,14,6343.0,-6.122148513793945,-63,9953.0
8520,0.3377358913421631,-1.256365418434143,-15,6343.0,-1.8579233884811401,-69,9953.0
8530,0.3376910388469696,-0.6457288265228271,-6,6343.0,-0.40529242157936096,46,9953.0
8540,0.33705011010169983,-0.7051289677619934,-56,6343.0,-2.232900619506836,86,9953.0
8550,0.33715105056762695,0.2213628590106964,19,6343.0,-0.04611951485276222,-115,9953.0
8560,0.33723777532577515,0.19953763484954834,86,6343.0,1.716479778289795,-82,9953.0
8570,0.3373225927352905,0.49023377895355225,-19,6343.0,0.3239789605140686,164,9953.0
8580,0.3368397057056427,3.3294553756713867,-20,6343.0,2.275383472442627,-4,9953.0
8590,0.33677899837493896,0.7234679460525513,36,6343.0,2.0994627475738525,13,9953.0
8600,0.3366986811161041,-1.457531452178955,7,6343.0,1.5068167448043823,39,9953.0
8610,0.3366850018501282,-0.7921587228775024,-48,6343.0,0.34288325905799866,-30,9953.0
8620,0.33674266934394836,-1.0145641565322876,-38,6343.0,2.767745018005371,74,9953.0
8630,0.3376920521259308,-0.8668661117553711,34,6343.0,0.375926673412323,59,9953.0
8640,0.3377489149570465,-0.9340141415596008,55,6343.0,1.3485817909240723,-151,9953.0
8650,0.3377548158168793,1.107071042060852,27,6343.0,0.8121892213821411,5,9953.0
8660,0.33774223923683167,0.5267052054405212,-24,6343.0,-4.642037391662598,141,9953.0
8670,0.33745139837265015,2.2112369537353516,89,6343.0,-3.704615354537964,-156,9953.0
8680,0.3374813497066498,0.04570421949028969,107,6343.0,-0.683983325958252,-202,9953.0
8690,0.33761218190193176,1.0710409879684448,-55,6343.0,-2.053699254989624,61,9953.0
8700,0.33784475922584534,1.234877347946167,-40,6343.0,-2.088738203048706,69,9953.0
8710,0.33808398246765137,-1.3630784749984741,-38,6343.0,1.6687792539596558,-25,9953.0
8720,0.33824971318244934,-1.4110392332077026,7,6343.0,-0.4649006128311157,-26,9953.0
8730,0.3384080231189728,-2.9151158332824707,-11,6343.0,-1.0699962377548218,20,9953.0
8740,0.33855751156806946,-0.5663550496101379,-25,6343.0,0.18369711935520172,14,9953.0
8750,0.3387599587440491,-1.4064934253692627,-18,6343.0,-0.71612548828125,1,9953.0
8760,0.33785542845726013,0.9694644808769226,24,6343.0,-1.920475959777832,-51,9953.0
8770,0.3381444215774536,1.2426908016204834,52,6343.0,1.9425445795059204,-18,9953.0
8780,0.33840468525886536,3.207458019256592,-15,6343.0,-0.09404800832271576,62,9953.0
8790,0.3385921120643616,2.735276460647583,-10,6343.0,0.8348566293716431,64,9953.0
8800,0.3376721441745758,1.4985928535461426,27,6343.0,-0.8441718816757202,-101,9953.0
8810,0.3376784026622772,-0.5976118445396423,-29,6343.0,-1.1195967197418213,35,9953.0
8820,0.3377053737640381,-2.273740768432617,-80,6343.0,-2.613323211669922,51,9953.0
8830,0.33778515458106995,-1.7755029201507568,-17,6343.0,-2.2821407318115234,-157,9953.0
8840,0.33790597319602966,-1.7174848318099976,31,6343.0,2.0591673851013184,-46,9953.0
8850,0.3376009166240692,0.33913654088974,-40,6343.0,2.285102128982544,229,9953.0
8860,0.3375924527645111,2.135094165802002,-1,6343.0,2.638878345489502,101,9953.0
8870,0.3375128507614136,0.12694625556468964,42,6343.0,5.761614799499512,-176,9953.0
8880,0.3374411463737488,-0.23353874683380127,18,6343.0,2.432821750640869,81,9953.0
8890,0.3368836045265198,-1.5935606956481934,-77,6343.0,1.9416254758834839,110,9953.0
8900,0.3369263708591461,-0.3044378459453583,-71,6343.0,-0.28183433413505554,-32,9953.0
8910,0.3370363712310791,0.18523116409778595,22,6343.0,-0.07193442434072495,-7,9953.0
8920,0.337155282497406,-0.47864288091659546,63,6343.0,-1.341947078704834,-64,9953.0
8930,0.33723631501197815,0.716654896736145,26,6343.0,-2.2788915634155273,-77,9953.0
8940,0.3375815451145172,1.1739221811294556,-33,6343.0,-2.647055149078369,84,9953.0
8950,0.33766788244247437,1.9036504030227661,22,6343.0,-1.7981172800064087,-9,9953.0
8960,0.337821900844574,0.7042433023452759,62,6343.0,-0.5640413761138916,-171,9953.0
8970,0.33805185556411743,-1.400057077407837,-68,6343.0,0.4504581093788147,88,9953.0
8980,0.3382108211517334,-1.4019287824630737,-53,6343.0,1.2411372661590576,134,9953.0
8990,0.33849474787712097,-2.727219820022583,-44,6343.0,1.6312915086746216,-147,9953.0
9000,0.33871960639953613,1.6137311458587646,69,6343.0,1.8771679401397705,35,9953.0
9010,0.338869571685791,0.722612202167511,6,6343.0,-1.3636908531188965,120,9953.0
9020,0.33709537982940674,3.5736093521118164,40,6343.0,0.15435266494750977,-50,9953.0
9030,0.3371676802635193,0.7899771928787231,51,6343.0,0.9944338202476501,-86,9953.0
9040,0.33729323744773865,-0.8411790132522583,21,6343.0,-0.4161747694015503,74,9953.0
9050,0.3374703526496887,-1.8257747888565063,-61,6343.0,-0.662066638469696,39,9953.0
9060,0.33760932087898254,-3.175769090652466,-33,6343.0,1.5670654773712158,-26,9953.0
9070,0.3378012776374817,-1.5650533437728882,-4,6343.0,-2.145189046859741,-77,9953.0
9080,0.33780550956726074,-2.105595350265503,30,6343.0,0.4316653609275818,-79,9953.0
9090,0.33782628178596497,1.8606876134872437,7,6343.0,2.448427200317383,78,9953.0
9100,0.33793380856513977,1.8595410585403442,-21,6343.0,-0.38642242550849915,95,9953.0
9110,0.33689603209495544,-0.20887723565101624,102,6343.0,2.4335336685180664,-201,9953.0
9120,0.33706721663475037,-1.851780891418457,113,6343.0,-0.3465024530887604,-143,9953.0
9130,0.33727189898490906,-0.6508632302284241,-43,6343.0,-3.495408535003662,83,9953.0
9140,0.3374602496623993,-1.0915162563323975,-68,6343.0,-3.832373857498169,33,9953.0
9150,0.33754169940948486,-1.0200709104537964,41,6343.0,-2.2774059772491455,-161,9953.0
9160,0.33778947591781616,-0.4243823289871216,68,6343.0,-2.5699143409729004,-63,9953.0
9170,0.33794137835502625,-0.35127899050712585,-30,6343.0,-2.6550514698028564,65,9953.0
9180,0.3381677567958832,-0.7182714939117432,-27,6343.0,-0.08332949876785278,-49,9953.0
9190,0.33841440081596375,-1.385399580001831,-2,6343.0,-1.2153306007385254,-56,9953.0
9200,0.3371659219264984,-0.49801236391067505,73,6343.0,-0.16660915315151215,7,9953.0
9210,0.3371976912021637,-0.10721978545188904,42,6343.0,-0.13773655891418457,2,9953.0
9220,0.3371441960334778,-1.0755136013031006,-9,6343.0,-0.00238282629288733,-51,9953.0
9230,0.33702248334884644,-0.27547621726989746,13,6343.0,4.184422969818115,113,9953.0
9240,0.33618050813674927,-0.742224395275116,102,6343.0,4.654641151428223,-85,9953.0
9250,0.3360901474952698,0.211517795920372,-22,6343.0,1.660668969154358,87,9953.0
9260,0.3360494375228882,1.147423267364502,-36,6343.0,1.1896576881408691,129,9953.0
9270,0.3360219895839691,0.04742330312728882,38,6343.0,4.552028656005859,-52,9953.0
9280,0.3359602987766266,0.7624785900115967,23,6343.0,3.066815137863159,33,9953.0
9290,0.33590322732925415,-1.0708727836608887,-35,6343.0,1.3975025415420532,84,9953.0
9300,0.33576950430870056,0.6530387997627258,-28,6343.0,2.101196765899658,39,9953.0
9310,0.335690438747406,-0.8847823143005371,19,6343.0,0.8242866396903992,-9,9953.0
9320,0.3357231914997101,-0.8609409928321838,19,6343.0,-1.4327834844589233,-53,9953.0
9330,0.33588728308677673,1.743971824645996,-17,6343.0,-2.9054372310638428,-36,9953.0
9340,0.33603042364120483,2.3997371196746826,-42,6343.0,-0.724003791809082,-31,9953.0
9350,0.336129367351532,2.027353525161743,25,6343.0,-4.518924713134766,4,9953.0
9360,0.3361418843269348,-0.29030460119247437,77,6343.0,-5.3902482986450195,-190,9953.0
9370,0.3361204266548157,-0.7696806788444519,12,6343.0,-3.5414388179779053,-122,9953.0
9380,0.33649304509162903,-2.025012969970703,-87,6343.0,-3.4436123371124268,84,9953.0
9390,0.3365981876850128,-0.6552276611328125,-52,6343.0,-0.6498502492904663,-17,9953.0
9400,0.3367258906364441,-1.4662175178527832,20,6343.0,1.4717273712158203,-133,9953.0
9410,0.33681684732437134,-0.5941926836967468,-11,6343.0,-0.05858435854315758,102,9953.0
9420,0.3349514603614807,-0.34813982248306274,-62,6343.0,0.40093737840652466,88,9953.0
9430,0.3347824811935425,-0.23358207941055298,-28,6343.0,0.6754913926124573,-95,9953.0
9440,0.334562748670578,-0.5489094257354736,24,6343.0,0.5920130014419556,-17,9953.0
9450,0.3343740701675415,0.5798158049583435,15,6343.0,-3.1123855113983154,20,9953.0
9460,0.3345290422439575,4.360787868499756,-11,6343.0,-2.818361759185791,-65,9953.0
9470,0.33447861671447754,1.1679983139038086,-7,6343.0,-0.943298876285553,24,9953.0
9480,0.33445650339126587,-0.5832404494285583,49,6343.0,-1.5770447254180908,-7,9953.0
9490,0.33442845940589905,0.1669595092535019,-19,6343.0,-1.4120577573776245,-71,9953.0
9500,0.3343490660190582,-1.8910937309265137,-51,6343.0,-0.4363434612751007,-121,9953.0
9510,0.3352939188480377,-1.0905439853668213,-10,6343.0,0.36041325330734253,4,9953.0
9520,0.33532974123954773,-1.7186203002929688,9,6343.0,3.914848566055298,-19,9953.0
9530,0.3354717195034027,0.02378167025744915,-18,6343.0,3.6465461254119873,207,9953.0
9540,0.3356974124908447,0.3037862777709961,-25,6343.0,4.326328277587891,120,9953.0
9550,0.33518853783607483,-0.3136501610279083,104,6343.0,6.097204208374023,-214,9953.0
9560,0.3353825807571411,1.5692249536514282,113,6343.0,6.520544052124023,164,9953.0
9570,0.33549726009368896,0.04512682184576988,-44,6343.0,4.3852925300598145,237,9953.0
9580,0.33549875020980835,-3.1588926315307617,-56,6343.0,7.209505558013916,-89,9953.0
9590,0.3354337513446808,-1.7654621601104736,-45,6343.0,1.499487280845642,-7,9953.0
9600,0.3352052867412567,-0.9046524167060852,20,6343.0,-1.7592861652374268,61,9953.0
9610,0.3351953625679016,1.2871216535568237,-53,6343.0,-0.9855718016624451,-13,9953.0
9620,0.3351800739765167,1.373313069343567,-29,6343.0,-2.817770481109619,-43,9953.0
9630,0.33513709902763367,1.1328428983688354,47,6343.0,-3.800327777862549,-58,9953.0
9640,0.33542728424072266,0.6433442234992981,57,6343.0,-4.840555191040039,-188,9953.0
9650,0.33531978726387024,0.8750426769256592,-45,6343.0,-2.6867353916168213,-12,9953.0
9660,0.3352491855621338,-1.1881011724472046,-68,6343.0,-4.87227201461792,5,9953.0
9670,0.3352658748626709,-1.2343686819076538,-12,6343.0,-2.3761234283447266,-113,9953.0
9680,0.3360266387462616,-2.5073845386505127,120,6343.0,0.47489237785339355,-17,9953.0
9690,0.3363204598426819,-1.9633612632751465,-62,6343.0,-0.4623377323150635,121,9953.0
9700,0.33662304282188416,-1.9309896230697632,-46,6343.0,2.6399543285369873,-48,9953.0
9710,0.33688610792160034,0.22442926466464996,97,6343.0,2.3320255279541016,-122,9953.0
9720,0.33707767724990845,0.48816928267478943,16,6343.0,1.6737277507781982,143,9953.0
9730,0.3372116684913635,2.592424154281616,6,6343.0,-0.5176668167114258,55,9953.0
9740,0.33741477131843567,1.2464923858642578,25,6343.0,3.9881184101104736,-42,9953.0
9750,0.3376978635787964,1.0441772937774658,52,6343.0,3.5960211753845215,85,9953.0
9760,0.33800941705703735,-0.8291656374931335,-37,6343.0,4.494765281677246,142,9953.0
9770,0.3369514048099518,-1.9356669187545776,-62,6343.0,4.708712100982666,98,9953.0
9780,0.3370252549648285,-4.11185359954834,65,6343.0,0.6701647639274597,-88,9953.0
9790,0.3370061218738556,-1.0969072580337524,-40,6343.0,-1.470526099205017,-33,9953.0
9800,0.3369748294353485,2.021925926208496,68,6343.0,-3.253060817718506,-50,9953.0
9810,0.3369218111038208,4.1323652267456055,0,6343.0,-7.7254486083984375,15,9953.0
9820,0.3378238379955292,2.2758982181549072,30,6343.0,-4.532854080200195,-67,9953.0
9830,0.3380126655101776,1.520609736442566,111,6343.0,-3.9434587955474854,-214,9953.0
9840,0.3382355868816376,1.5722765922546387,6,6343.0,-6.659661769866943,-65,9953.0
9850,0.33844926953315735,-1.9305320978164673,-33,6343.0,-4.349151611328125,88,9953.0
9860,0.33757126331329346,-3.4637022018432617,-31,6343.0,-0.3977369964122772,-110,9953.0
9870,0.3377040922641754,-3.8424794673919678,-3,6343.0,0.18267104029655457,-25,9953.0
9880,0.337912917137146,-2.4440321922302246,-52,6343.0,1.8025047779083252,183,9953.0
9890,0.338203489780426,1.7737523317337036,13,6343.0,1.0122854709625244,49,9953.0
9900,0.3368087112903595,3.0432698726654053,28,6343.0,2.9132513999938965,19,9953.0
9910,0.3370801508426666,2.6439144611358643,88,6343.0,3.614948034286499,-39,9953.0
9920,0.33724310994148254,1.1807430982589722,96,6343.0,2.8344807624816895,-106,9953.0
9930,0.3373049199581146,-2.1673190593719482,-85,6343.0,0.5643647909164429,148,9953.0
9940,0.33726292848587036,-3.2010974884033203,-9,6343.0,0.4352756142616272,40,9953.0
9950,0.3358939588069916,-2.6828198432922363,34,6343.0,1.490085244178772,-126,9953.0
9960,0.3357609808444977,-0.7037965059280396,-52,6343.0,0.38340452313423157,59,9953.0
9970,0.33568239212036133,2.4855639934539795,33,6343.0,-1.6780864000320435,91,9953.0
9980,0.33557650446891785,2.264617443084717,39,6343.0,2.628678560256958,-40,9953.0
9990,0.3344733417034149,0.9500149488449097,97,6343.0,3.0710461139678955,-34,9953.0
10000,0.3342107832431793,-0.7697229981422424,20,6343.0,1.13602876663208,132,9953.0
10010,0.3338991403579712,-1.8258134126663208,-40,6343.0,3.0215492248535156,-3,9953.0
10020,0.3336164951324463,-2.548673391342163,-44,6343.0,1.6175702810287476,53,9953.0
10030,0.33345699310302734,-0.5143082737922668,-15,6343.0,-0.4020676612854004,59,9953.0
10040,0.3352210819721222,0.2597404718399048,54,6343.0,-0.24587713181972504,17,9953.0
10050,0.3353534936904907,2.5832414627075195,-19,6343.0,-0.11811724305152893,51,9953.0
10060,0.33549535274505615,2.2096292972564697,29,6343.0,-1.519773006439209,-2,9953.0
10070,0.335622102022171,0.9917258024215698,60,6343.0,1.3505394458770752,-128,9953.0
10080,0.33543816208839417,-0.11837315559387207,1,6343.0,3.1122217178344727,30,9953.0
10090,0.3355337083339691,-0.9647778868675232,-85,6343.0,0.023123854771256447,192,9953.0
10100,0.33569252490997314,-1.872227430343628,6,6343.0,1.0093353986740112,-33,9953.0
10110,0.33589234948158264,-2.795698404312134,-39,6343.0,-0.23422370851039886,-150,9953.0
10120,0.33603572845458984,-2.2075579166412354,-49,6343.0,-2.77701997756958,89,9953.0
10130,0.3361026346683502,-1.083755612373352,-32,6343.0,-2.010765552520752,-3,9953.0
10140,0.3360719382762909,3.598337173461914,-19,6343.0,-5.283565998077393,-142,9953.0
10150,0.33596616983413696,5.274585723876953,82,6343.0,-5.541077136993408,-57,9953.0
10160,0.3358323574066162,3.258859872817993,116,6343.0,-4.168968200683594,10,9953.0
10170,0.3346400260925293,1.6107854843139648,-27,6343.0,0.76474928855896,-35,9953.0
10180,0.3345777988433838,-0.3459635376930237,-18,6343.0,0.4488142430782318,11,9953.0
10190,0.33457672595977783,-3.6918134689331055,-12,6343.0,-0.42677611112594604,-48,9953.0
10200,0.33457934856414795,-3.794905424118042,-38,6343.0,-0.5002819299697876,-4,9953.0
10210,0.33394232392311096,-3.2241053581237793,-83,6343.0,-0.015247330069541931,128,9953.0
10220,0.3338490128517151,-1.1822775602340698,9,6343.0,0.5156892538070679,-86,9953.0
10230,0.3337971568107605,1.135544776916504,16,6343.0,2.4459800720214844,-71,9953.0
10240,0.3338316082954407,3.782984733581543,41,6343.0,-2.0249476432800293,151,9953.0
10250,0.3339858055114746,1.7246257066726685,39,6343.0,0.20885103940963745,77,9953.0
10260,0.3358529210090637,-0.12192340940237045,17,6343.0,1.7726924419403076,-160,9953.0
10270,0.3362257480621338,-0.3121665418148041,69,6343.0,-0.1253674328327179,15,9953.0
10280,0.33650556206703186,-2.559682846069336,-57,6343.0,-1.6671679019927979,108,9953.0
10290,0.33668842911720276,-1.676058053970337,-2,6343.0,0.5623984932899475,-53,9953.0
10300,0.33490222692489624,0.2945476472377777,36,6343.0,0.5561638474464417,10,9953.0
10310,0.3349374532699585,1.170482873916626,56,6343.0,-0.6215511560440063,48,9953.0
10320,0.3350147008895874,2.3791613578796387,-4,6343.0,1.3754454851150513,12,9953.0
10330,0.33512479066848755,0.3275298476219177,52,6343.0,0.9129113554954529,48,9953.0
10340,0.33669450879096985,-0.3649305999279022,20,6343.0,0.4527723789215088,-2,9953.0
10350,0.3368867039680481,-1.3403226137161255,-16,6343.0,2.016876220703125,33,9953.0
10360,0.33699119091033936,-0.0853162407875061,-29,6343.0,1.3620303869247437,135,9953.0
10370,0.33705851435661316,-0.2160952240228653,-25,6343.0,4.759128093719482,110,9953.0
10380,0.3371785879135132,-1.4416218996047974,13,6343.0,3.8799169063568115,-97,9953.0
10390,0.33609291911125183,1.8829666376113892,-36,6343.0,3.669795036315918,95,9953.0
10400,0.33629441261291504,0.188934326171875,-56,6343.0,-0.4121192991733551,166,9953.0
10410,0.33655717968940735,0.9805797934532166,-12,6343.0,-0.7443810701370239,-57,9953.0
10420,0.336797297000885,0.6194436550140381,92,6343.0,0.012021631002426147,-139,9953.0
10430,0.3361659348011017,0.8886781930923462,-30,6343.0,-2.473383665084839,66,9953.0
10440,0.3362134099006653,0.8546904921531677,-54,6343.0,-0.949550211429596,1,9953.0
10450,0.33626484870910645,0.745455265045166,-18,6343.0,-4.093068599700928,-78,9953.0
10460,0.33638355135917664,-0.7305701375007629,27,6343.0,-1.235692024230957,-47,9953.0
10470,0.3365592360496521,-0.2025737464427948,-14,6343.0,-1.048930048942566,-4,9953.0
10480,0.3360958993434906,-2.9400784969329834,-150,6343.0,2.2689502239227295,16,9953.0
10490,0.33617618680000305,1.687364101409912,-22,6343.0,-3.0130367279052734,15,9953.0
10500,0.33618271350860596,-0.05406061187386513,50,6343.0,0.9722278714179993,-100,9953.0
10510,0.33607423305511475,3.56259822845459,66,6343.0,-0.01839994080364704,-17,9953.0
10520,0.336668998003006,-1.09801185131073,-39,6343.0,-0.6542619466781616,79,9953.0
10530,0.33660274744033813,-0.03671623021364212,-19,6343.0,1.5310795307159424,-5,9953.0
10540,0.3365837335586548,-0.5538933873176575,32,6343.0,1.6115556955337524,-36,9953.0
10550,0.3366169035434723,-0.24868996441364288,-16,6343.0,1.7176940441131592,178,9953.0
10560,0.334807813167572,-0.025888871401548386,-32,6343.0,2.6529600620269775,47,9953.0
10570,0.3347257971763611,0.2970014810562134,27,6343.0,0.06022496521472931,17,9953.0
10580,0.33459970355033875,-0.12881390750408173,32,6343.0,-2.234910488128662,-13,9953.0
10590,0.33443203568458557,-0.23254714906215668,-12,6343.0,-2.9784021377563477,62,9953.0
10600,0.3342990279197693,0.02436617948114872,-25,6343.0,-3.5161404609680176,7,9953.0
10610,0.3329322338104248,0.9629940986633301,51,6343.0,-3.426238536834717,-142,9953.0
10620,0.33285728096961975,-1.712341070175171,23,6343.0,-1.7231364250183105,-178,9953.0
10630,0.3327493965625763,3.433171272277832,63,6343.0,-2.242745876312256,9,9953.0
10640,0.3326141834259033,1.0733023881912231,32,6343.0,-2.7643866539001465,175,9953.0
10650,0.3338368833065033,-1.0140787363052368,-48,6343.0,3.083951711654663,-45,9953.0
10660,0.3335930407047272,-3.227586507797241,126,6343.0,3.463975429534912,-189,9953.0
10670,0.3333066999912262,-3.7187533378601074,-84,6343.0,1.8899946212768555,107,9953.0
10680,0.33306583762168884,-2.159848928451538,-94,6343.0,2.1890616416931152,35,9953.0
10690,0.3333231806755066,0.4338938593864441,-6,6343.0,1.4431180953979492,-92,9953.0
10700,0.33323612809181213,1.291159987449646,62,6343.0,0.02006339468061924,10,9953.0
10710,0.33316314220428467,1.211496114730835,25,6343.0,0.29041966795921326,86,9953.0
10720,0.3330532908439636,1.0051259994506836,-53,6343.0,-0.0013208893360570073,32,9953.0
10730,0.33288970589637756,0.07209831476211548,-4,6343.0,-1.814389705657959,-76,9953.0
10740,0.3339455723762512,-1.5637215375900269,20,6343.0,-2.272595167160034,-169,9953.0
10750,0.3339134752750397,-0.5001097321510315,-36,6343.0,0.033547963947057724,7,9953.0
10760,0.33399534225463867,-4.2671074867248535,-80,6343.0,3.3962464332580566,88,9953.0
10770,0.3341591954231262,-1.3805418014526367,30,6343.0,3.0909159183502197,22,9953.0
10780,0.33420175313949585,-2.4955034255981445,130,6343.0,4.869537353515625,49,9953.0
10790,0.3343127965927124,0.6470268964767456,12,6343.0,1.1466646194458008,106,9953.0
10800,0.33432140946388245,0.999966025352478,-34,6343.0,2.440523624420166,42,9953.0
10810,0.3342326283454895,0.44937664270401,74,6343.0,4.132481098175049,-55,9953.0
10820,0.3341329097747803,1.4302787780761719,46,6343.0,1.0648276805877686,42,9953.0
10830,0.3348144590854645,1.3853517770767212,8,6343.0,-0.9627523422241211,92,9953.0
10840,0.3348223567008972,0.7601377964019775,-34,6343.0,-0.44983822107315063,-39,9953.0
10850,0.334799587726593,-0.7458492517471313,-6,6343.0,-0.7342539429664612,-55,9953.0
10860,0.3347128629684448,-1.6785777807235718,44,6343.0,-1.6761051416397095,-73,9953.0
10870,0.333910197019577,-1.130286693572998,-20,6343.0,-3.105391502380371,-24,9953.0
10880,0.33375412225723267,-0.6041056513786316,-48,6343.0,-5.020890235900879,33,9953.0
10890,0.3336849510669708,-0.7818093299865723,5,6343.0,-4.9930338859558105,-34,9953.0
10900,0.33373522758483887,2.2315022945404053,76,6343.0,-6.44258451461792,-153,9953.0
10910,0.33433443307876587,1.9000979661941528,39,6343.0,-5.990006923675537,-14,9953.0
10920,0.33457469940185547,3.351384401321411,21,6343.0,-5.256507873535156,-57,9953.0
10930,0.3347955346107483,1.6591565608978271,40,6343.0,-5.2157206535339355,-190,9953.0
10940,0.33493295311927795,-0.30188700556755066,-37,6343.0,-3.2921531200408936,-14,9953.0
10950,0.33504948019981384,-2.1556782722473145,-74,6343.0,-1.1184947490692139,117,9953.0
10960,0.33551105856895447,-1.7081513404846191,-49,6343.0,1.6296818256378174,-56,9953.0
10970,0.33568906784057617,-2.446254014968872,12,6343.0,1.6277575492858887,-14,9953.0
10980,0.33586862683296204,-2.1767868995666504,24,6343.0,5.614716529846191,175,9953.0
10990,0.3360344469547272,1.9807251691818237,18,6343.0,5.518765449523926,135,9953.0
11000,0.3360873758792877,1.9144935607910156,85,6343.0,6.888118743896484,106,9953.0
11010,0.33612602949142456,5.7310333251953125,-15,6343.0,5.1240553855896,152,9953.0
11020,0.33610787987709045,2.6586129665374756,143,6343.0,4.064748287200928,53,9953.0
11030,0.3360797166824341,-0.41232043504714966,-72,6343.0,1.8021113872528076,148,9953.0
11040,0.3361038565635681,-0.09882644563913345,-74,6343.0,-1.154333472251892,77,9953.0
11050,0.33528709411621094,-2.631793975830078,16,6343.0,-0.29019343852996826,-109,9953.0
11060,0.3353497385978699,0.20100902020931244,69,6343.0,-1.3004207611083984,-46,9953.0
11070,0.3354423940181732,1.3361220359802246,-7,6343.0,-4.461863994598389,43,9953.0
11080,0.3355133831501007,2.4328455924987793,99,6343.0,-3.6516056060791016,-151,9953.0
11090,0.3373170495033264,2.626357078552246,38,6343.0,-3.484922170639038,-101,9953.0
11100,0.3373853862285614,0.39185136556625366,-56,6343.0,-2.412322759628296,95,9953.0
11110,0.3374655246734619,-1.3721320629119873,-71,6343.0,-0.2753538191318512,-17,9953.0
11120,0.33762672543525696,-3.6170308589935303,-13,6343.0,-0.3734489977359772,-121,9953.0
11130,0.3366853594779968,-2.6453869342803955,-41,6343.0,-0.08728106319904327,-3,9953.0
11140,0.3367787003517151,-1.0978246927261353,-44,6343.0,-1.0052134990692139,74,9953.0
11150,0.33680281043052673,-2.135018825531006,10,6343.0,1.5347919464111328,31,9953.0
11160,0.3367253541946411,1.3879083395004272,83,6343.0,3.990980386734009,-51,9953.0
11170,0.3365406394004822,3.5401177406311035,92,6343.0,4.534851551055908,32,9953.0
11180,0.3365013897418976,1.6543834209442139,-47,6343.0,2.5707130432128906,112,9953.0
11190,0.3363422751426697,1.3910127878189087,-86,6343.0,0.44085031747817993,97,9953.0
11200,0.3362407982349396,-4.194795608520508,-2,6343.0,3.1272943019866943,-63,9953.0
11210,0.33622750639915466,-2.1270363330841064,-12,6343.0,2.0942373275756836,-10,9953.0
11220,0.3357572555541992,-1.1486554145812988,-48,6343.0,-2.110975742340088,50,9953.0
11230,0.3357396125793457,0.4846656620502472,17,6343.0,-2.886274814605713,-63,9953.0
11240,0.33566996455192566,1.237244725227356,62,6343.0,-3.8566927909851074,-52,9953.0
11250,0.335573673248291,1.9490631818771362,31,6343.0,-4.613600730895996,-78,9953.0
11260,0.33550822734832764,2.3691699504852295,26,6343.0,-3.1265082359313965,-19,9953.0
11270,0.3349009156227112,0.13013668358325958,-21,6343.0,-2.5830020904541016,28,9953.0
11280,0.3349137008190155,-0.72072434425354,7,6343.0,-3.3167295455932617,-103,9953.0
11290,0.33490440249443054,-2.070558786392212,12,6343.0,-2.095536231994629,-63,9953.0
11300,0.33485347032546997,-2.65199613571167,-76,6343.0,-1.032509207725525,142,9953.0
11310,0.33401551842689514,0.5295995473861694,-39,6343.0,-0.0871581882238388,31,9953.0
11320,0.3337955176830292,0.8542335629463196,-17,6343.0,2.473250389099121,-19,9953.0
11330,0.33351147174835205,2.641617774963379,88,6343.0,1.8203486204147339,175,9953.0
11340,0.3332468867301941,3.8915200233459473,5,6343.0,3.057912826538086,157,9953.0
11350,0.3341973125934601,3.2830042839050293,0,6343.0,4.547900676727295,34,9953.0
11360,0.33411386609077454,1.103013277053833,82,6343.0,2.6623308658599854,55,9953.0
11370,0.3340652883052826,-0.3435237407684326,-15,6343.0,0.6797961592674255,68,9953.0
11380,0.3339904248714447,-1.348899006843567,-79,6343.0,0.4849287271499634,-30,9953.0
11390,0.3338988423347473,-1.3525135517120361,11,6343.0,-0.30320775508880615,-9,9953.0
11400,0.33575111627578735,-0.7658628225326538,41,6343.0,-0.8410651683807373,-27,9953.0
11410,0.3356541097164154,0.8031550049781799,5,6343.0,0.8368622660636902,12,9953.0
11420,0.33560910820961,0.13992616534233093,-34,6343.0,1.1835238933563232,90,9953.0
11430,0.3356511890888214,-0.045318521559238434,-7,6343.0,1.4270532131195068,-20,9953.0
11440,0.33460989594459534,-1.783584475517273,14,6343.0,1.957577109336853,-56,9953.0
11450,0.3345325291156769,-0.6495884656906128,-27,6343.0,-1.412318229675293,152,9953.0
11460,0.33438026905059814,-1.9182060956954956,-62,6343.0,-2.0146381855010986,31,9953.0
11470,0.3341314494609833,0.8630796670913696,36,6343.0,-2.12326717376709,-167,9953.0
11480,0.3338409662246704,1.5486483573913574,175,6343.0,-5.505125522613525,-87,9953.0
11490,0.3336922228336334,1.4836907386779785,17,6343.0,-4.672212600708008,52,9953.0
11500,0.33360764384269714,0.6083364486694336,-32,6343.0,-3.0585179328918457,-106,9953.0
11510,0.3336147367954254,0.7132266163825989,32,6343.0,-2.3166186809539795,-51,9953.0
11520,0.33365219831466675,-1.3081287145614624,33,6343.0,-1.5933802127838135,16,9953.0
11530,0.33460256457328796,-0.303809255361557,-53,6343.0,0.854354202747345,-15,9953.0
11540,0.33466580510139465,-0.09045717865228653,-7,6343.0,0.07754795253276825,44,9953.0
11550,0.33468735218048096,-0.20676159858703613,46,6343.0,2.1806435585021973,4,9953.0
11560,0.3347162902355194,2.1632628440856934,28,6343.0,3.5884945392608643,65,9953.0
11570,0.33606600761413574,0.4056186079978943,-30,6343.0,5.378376483917236,205,9953.0
11580,0.33626788854599,0.9081438183784485,33,6343.0,6.910708427429199,37,9953.0
11590,0.3364889621734619,-0.5961021184921265,44,6343.0,7.02017068862915,-51,9953.0
11600,0.33668622374534607,1.1791363954544067,30,6343.0,3.078273296356201,181,9953.0
11610,0.3368068039417267,1.2497806549072266,-26,6343.0,-0.39217257499694824,83,9953.0
11620,0.33483195304870605,0.10369790345430374,-25,6343.0,-0.6739736199378967,-191,9953.0
11630,0.33459794521331787,2.0171356201171875,71,6343.0,-0.8632134199142456,-40,9953.0
11640,0.3343410789966583,0.3596118092536926,54,6343.0,-4.721195220947266,44,9953.0
11650,0.3341403305530548,1.6976784467697144,-22,6343.0,-4.640678882598877,-83,9953.0
11660,0.3348231017589569,1.849015474319458,43,6343.0,-3.964806318283081,-77,9953.0
11670,0.3348419964313507,-1.574900507926941,27,6343.0,-4.799989223480225,-36,9953.0
11680,0.3348672688007355,-1.1552014350891113,-66,6343.0,-5.890550136566162,-103,9953.0
11690,0.33484315872192383,-2.951422691345215,-59,6343.0,-5.599206447601318,-63,9953.0
11700,0.33478811383247375,-3.4524459838867188,-22,6343.0,-3.495234251022339,-91,9953.0
11710,0.3352671265602112,-1.6483749151229858,1,6343.0,-2.2991676330566406,-66,9953.0
11720,0.33530759811401367,1.1786378622055054,-31,6343.0,-2.1392340660095215,138,9953.0
11730,0.3354141414165497,1.9645265340805054,50,6343.0,2.143141269683838,-14,9953.0
11740,0.3355809152126312,1.5510979890823364,23,6343.0,7.083386421203613,-20,9953.0
11750,0.3363194465637207,2.232970952987671,3,6343.0,5.174746990203857,258,9953.0
11760,0.33644789457321167,0.8719063401222229,-36,6343.0,5.58030366897583,129,9953.0
11770,0.3364710211753845,-2.4296224117279053,-28,6343.0,4.497869968414307,-3,9953.0
11780,0.33640676736831665,-1.8380495309829712,77,6343.0,3.7444968223571777,110,9953.0
11790,0.3362039625644684,0.2283286601305008,-38,6343.0,5.273101329803467,107,9953.0
11800,0.33610594272613525,1.3718223571777344,7,6343.0,4.483904838562012,-77,9953.0
11810,0.3360423147678375,4.0193657875061035,51,6343.0,4.904618263244629,79,9953.0
11820,0.33610495924949646,2.251328229904175,55,6343.0,0.7104503512382507,57,9953.0
11830,0.33613961935043335,0.8921997547149658,-70,6343.0,-1.7627876996994019,-16,9953.0
11840,0.3368980884552002,0.4453609585762024,-61,6343.0,-6.551676273345947,-2,9953.0
11850,0.33687660098075867,-2.464350700378418,37,6343.0,-5.632936477661133,-212,9953.0
11860,0.33674490451812744,-1.4879728555679321,-5,6343.0,-7.895245552062988,-184,9953.0
11870,0.3365641236305237,-1.4914981126785278,-65,6343.0,-10.587038040161133,-55,9953.0
11880,0.3354664146900177,0.3217162787914276,-6,6343.0,-8.475360870361328,-138,9953.0
11890,0.3353147506713867,0.9741045832633972,48,6343.0,-6.408363342285156,-146,9953.0
11900,0.3351716697216034,-0.014752917923033237,1,6343.0,-5.092790603637695,-57,9953.0
11910,0.3350127637386322,1.10295832157135,-19,6343.0,-1.789574384689331,6,9953.0
11920,0.3348100781440735,1.2680950164794922,15,6343.0,0.6918409466743469,-63,9953.0
11930,0.33584609627723694,0.6038720011711121,28,6343.0,3.088890552520752,-13,9953.0
11940,0.33561521768569946,0.5164698958396912,27,6343.0,4.529435634613037,65,9953.0
11950,0.3354245722293854,-1.700445294380188,-62,6343.0,5.057711124420166,180,9953.0
11960,0.33529600501060486,-0.5449213981628418,-56,6343.0,4.174410820007324,29,9953.0
11970,0.33475279808044434,-1.5771253108978271,41,6343.0,4.080324649810791,2,9953.0
11980,0.3347867429256439,-0.04692189022898674,8,6343.0,2.881273031234741,220,9953.0
11990,0.3348102271556854,1.584452748298645,-36,6343.0,3.104180097579956,32,9953.0
12000,0.3347589373588562,0.9899023771286011,101,6343.0,3.628993272781372,-148,9953.0
12010,0.3343740403652191,3.1176693439483643,119,6343.0,-0.0040528117679059505,91,9953.0
12020,0.334083616733551,3.4260284900665283,-10,6343.0,0.9751707911491394,60,9953.0
12030,0.33358320593833923,4.349234104156494,-2,6343.0,-1.090689778327942,-78,9953.0
12040,0.3329523801803589,3.382103204727173,104,6343.0,-4.119157791137695,-48,9953.0
12050,0.3322432041168213,4.031553745269775,106,6343.0,-5.723155498504639,-96,9953.0
12060,0.33211424946784973,3.1574623584747314,-44,6343.0,-5.741327285766602,-143,9953.0
12070,0.3312104046344757,1.314670205116272,40,6343.0,-4.956101894378662,-64,9953.0
12080,0.33012300729751587,-1.0340560674667358,-3,6343.0,-3.737872362136841,-78,9953.0
12090,0.3288593292236328,-3.35487961769104,-119,6343.0,-3.4559311866760254,-16,9953.0
12100,0.3277888000011444,-2.5423083305358887,-29,6343.0,-3.0640881061553955,-17,9953.0
12110,0.3261103630065918,-2.2848165035247803,30,6343.0,0.49940523505210876,-51,9953.0
12120,0.3241404592990875,-3.6067278385162354,-123,6343.0,2.2344295978546143,81,9953.0
12130,0.3219190835952759,-3.3855676651000977,-32,6343.0,1.598528265953064,89,9953.0
12140,0.31963858008384705,-4.092400550842285,-32,6343.0,3.9764585494995117,85,9953.0
12150,0.31699883937835693,-6.21409273147583,-164,6343.0,7.965952396392822,70,9953.0
12160,0.31476616859436035,-5.782474040985107,-65,6343.0,10.004230499267578,254,9953.0
12170,0.31264370679855347,-4.12407922744751,-98,6343.0,10.994234085083008,286,9953.0
12180,0.31077948212623596,-3.3621692657470703,-39,6343.0,13.937607765197754,173,9953.0
12190,0.3093603849411011,-3.0456948280334473,-38,6343.0,15.893926620483398,195,9953.0
12200,0.3083932101726532,-3.476091146469116,-43,6343.0,13.985794067382812,10,9953.0
12210,0.30775198340415955,-2.2878530025482178,9,6343.0,8.105218887329102,118,9953.0
12220,0.3075981140136719,-2.0005078315734863,-80,6343.0,2.8754587173461914,17,9953.0
12230,0.3097299337387085,-1.1254992485046387,0,6343.0,-2.9946436882019043,40,9953.0
12240,0.31008806824684143,0.3018089532852173,-38,6343.0,-8.320730209350586,-24,9953.0
12250,0.31057000160217285,0.7270360589027405,17,6343.0,-10.600174903869629,-171,9953.0
12260,0.3110063076019287,3.707817316055298,124,6343.0,-11.46713638305664,-182,9953.0
12270,0.3115105926990509,6.861525058746338,121,6343.0,-8.838794708251953,-290,9953.0
12280,0.3129378855228424,10.97044849395752,205,6343.0,-6.722992420196533,-161,9953.0
12290,0.31332117319107056,13.203283309936523,172,6343.0,-2.7447128295898438,29,9953.0
12300,0.3136446177959442,14.089672088623047,253,6343.0,0.9308476448059082,156,9953.0
12310,0.313945472240448,14.208252906799316,196,6343.0,5.393543720245361,265,9953.0
12320,0.3158680200576782,10.120890617370605,170,6343.0,11.020060539245605,38,9953.0
12330,0.3164193630218506,6.809485912322998,114,6343.0,12.770744323730469,220,9953.0
12340,0.31698012351989746,-9.496763229370117,-213,6343.0,14.481402397155762,263,9953.0
12350,0.31781065464019775,-20.51168441772461,-376,6343.0,13.469236373901367,240,9953.0
12360,0.32143452763557434,-23.906404495239258,-440,6343.0,8.717148780822754,169,9953.0
12370,0.32290005683898926,-26.632314682006836,-417,6343.0,4.988327503204346,-94,9953.0
12380,0.3240106701850891,-25.108640670776367,-310,6343.0,-3.0450761318206787,-196,9953.0
12390,0.3247101604938507,-9.606677055358887,-66,6343.0,-11.192721366882324,-116,9953.0
12400,0.32506194710731506,6.846203327178955,95,6343.0,-21.09235382080078,-261,9953.0
12410,0.32621851563453674,11.890524864196777,202,6343.0,-27.967111587524414,-496,9953.0
12420,0.32572704553604126,12.946762084960938,297,6343.0,-32.70804977416992,-611,9953.0
12430,0.3247602581977844,18.176742553710938,287,6343.0,-33.36480712890625,-582,9953.0
12440,0.3235000967979431,24.961854934692383,408,6343.0,-32.243804931640625,-503,9953.0
12450,0.3242293894290924,23.77910041809082,384,6343.0,-22.907455444335938,-272,9953.0
12460,0.32249078154563904,24.565261840820312,412,6343.0,-13.575066566467285,-284,9953.0
12470,0.3209719955921173,21.37438201904297,270,6343.0,-6.317554473876953,78,9953.0
12480,0.31866124272346497,13.043540954589844,122,6343.0,1.5448936223983765,18,9953.0
12490,0.3161931037902832,-3.5323190689086914,-198,6343.0,8.620901107788086,179,9953.0
12500,0.3137739896774292,-21.67413902282715,-410,6343.0,16.745147705078125,322,9953.0
12510,0.3108908534049988,-32.20362091064453,-615,6343.0,20.878108978271484,383,9953.0
12520,0.3078804910182953,-38.388214111328125,-555,6343.0,27.858856201171875,312,9953.0
12530,0.3053795397281647,-32.78950881958008,-440,6343.0,29.484033584594727,373,9953.0
12540,0.3032764196395874,-21.864990234375,-262,6343.0,25.3084774017334,302,9953.0
12550,0.3010827898979187,-13.596116065979004,-107,6343.0,17.940624237060547,118,9953.0
12560,0.29864123463630676,-8.62913990020752,-65,6343.0,8.65936279296875,9,9953.0
12570,0.29687318205833435,-0.42160674929618835,130,6343.0,1.7481478452682495,-157,9953.0
12580,0.2951139211654663,4.456577301025391,33,6343.0,-3.2580113410949707,-120,9953.0
12590,0.2952222526073456,3.673879861831665,25,6343.0,-7.326094627380371,-156,9953.0
12600,0.29406338930130005,-0.2675692141056061,-67,6343.0,-9.897591590881348,-186,9953.0
12610,0.29296305775642395,-4.456326961517334,-72,6343.0,-13.348105430603027,-167,9953.0
12620,0.2919882833957672,-8.134454727172852,-146,6343.0,-11.149982452392578,-86,9953.0
12630,0.28998544812202454,-4.87997579574585,-164,6343.0,-6.884943008422852,-37,9953.0
12640,0.2886253595352173,-2.6094257831573486,-45,6343.0,-3.0995051860809326,106,9953.0
12650,0.28750911355018616,-0.016827646642923355,-41,6343.0,3.756986379623413,259,9953.0
12660,0.2857345640659332,8.337218284606934,48,6343.0,15.07089614868164,397,9953.0
12670,0.2834690511226654,9.706426620483398,121,6343.0,22.998794555664062,588,9953.0
12680,0.28171777725219727,11.054614067077637,174,6343.0,28.320331573486328,601,9953.0
12690,0.27978232502937317,11.489618301391602,107,6343.0,31.604751586914062,551,9953.0
12700,0.27748042345046997,4.918739318847656,-5,6343.0,32.9092903137207,429,9953.0
12710,0.275266170501709,3.5401508808135986,80,6343.0,29.46828269958496,367,9953.0
12720,0.2726143002510071,-0.017351867631077766,106,6343.0,24.49629783630371,280,9953.0
12730,0.27049514651298523,-1.3604522943496704,-65,6343.0,15.62773609161377,288,9953.0
12740,0.2682787775993347,2.966327428817749,-12,6343.0,7.494043827056885,215,9953.0
12750,0.2666824758052826,2.7289040088653564,37,6343.0,2.0315139293670654,-28,9953.0
12760,0.26420527696609497,-2.0726516246795654,6,6343.0,-1.0149617195129395,-142,9953.0
12770,0.2621414363384247,-8.675063133239746,-111,6343.0,-2.870511770248413,-35,9953.0
12780,0.2605714201927185,-10.624101638793945,-278,6343.0,-0.8016297221183777,62,9953.0
12790,0.25890111923217773,-10.589458465576172,-228,6343.0,3.4793038368225098,51,9953.0
12800,0.25839540362358093,-4.651768684387207,27,6343.0,9.510704040527344,152,9953.0
12810,0.25780344009399414,2.0450122356414795,79,6343.0,15.022388458251953,412,9953.0
12820,0.25692737102508545,9.454071044921875,122,6343.0,22.77981948852539,477,9953.0
12830,0.256375253200531,11.770805358886719,202,6343.0,27.498159408569336,424,9953.0
12840,0.255931556224823,11.270045280456543,248,6343.0,29.016551971435547,469,9953.0
12850,0.2564906179904938,8.583060264587402,125,6343.0,29.272205352783203,507,9953.0
12860,0.2562476694583893,5.19763708114624,104,6343.0,27.918197631835938,407,9953.0
12870,0.2559872269630432,2.4345452785491943,102,6343.0,24.449037551879883,395,9953.0
12880,0.25578537583351135,-0.862639307975769,-28,6343.0,17.757322311401367,328,9953.0
12890,0.25762856006622314,-2.8569371700286865,-40,6343.0,12.918188095092773,139,9953.0
12900,0.2576850354671478,-4.788243293762207,-33,6343.0,7.976166248321533,126,9953.0
12910,0.2575587034225464,-5.039635181427002,-188,6343.0,2.4975011348724365,58,9953.0
12920,0.25748711824417114,-6.265907287597656,-53,6343.0,0.8492602109909058,-165,9953.0
12930,0.25743216276168823,-2.2802233695983887,-67,6343.0,0.13819025456905365,8,9953.0
12940,0.2587168514728546,-1.0040884017944336,-104,6343.0,1.6674437522888184,52,9953.0
12950,0.25822874903678894,-0.634720504283905,10,6343.0,2.656891107559204,20,9953.0
12960,0.2580468952655792,-2.5475716590881348,-26,6343.0,4.9651570320129395,118,9953.0
12970,0.2580198645591736,-1.1678411960601807,-78,6343.0,7.104148864746094,106,9953.0
12980,0.25880780816078186,-0.37060657143592834,33,6343.0,7.365443229675293,36,9953.0
12990,0.2576776146888733,1.8452821969985962,57,6343.0,7.95281982421875,185,9953.0
13000,0.2575153708457947,3.5222396850585938,26,6343.0,13.207359313964844,165,9953.0
13010,0.2568982243537903,6.238104343414307,144,6343.0,13.737104415893555,115,9953.0
13020,0.25565165281295776,8.130013465881348,135,6343.0,12.89101791381836,319,9953.0
13030,0.25624027848243713,8.725611686706543,108,6343.0,13.526394844055176,235,9953.0
13040,0.25546950101852417,7.700199127197266,169,6343.0,15.94525146484375,238,9953.0
13050,0.254947304725647,7.421324253082275,70,6343.0,16.374113082885742,343,9953.0
13060,0.2539031505584717,5.120881080627441,52,6343.0,16.108232498168945,170,9953.0
13070,0.25418075919151306,4.461105823516846,53,6343.0,14.387811660766602,295,9953.0
13080,0.2535507380962372,2.551487445831299,-57,6343.0,12.742392539978027,309,9953.0
13090,0.2522784471511841,1.3321508169174194,41,6343.0,14.266196250915527,152,9953.0
13100,0.25154218077659607,-0.82237708568573,10,6343.0,15.572601318359375,390,9953.0
13110,0.2508124113082886,-0.21414777636528015,-89,6343.0,15.336411476135254,213,9953.0
13120,0.25006869435310364,0.15780848264694214,43,6343.0,18.713109970092773,362,9953.0
13130,0.24925489723682404,1.1810699701309204,13,6343.0,19.968843460083008,376,9953.0
13140,0.248996302485466,3.5008862018585205,138,6343.0,20.213668823242188,276,9953.0
13150,0.2483331710100174,4.993306636810303,50,6343.0,17.9077091217041,351,9953.0
13160,0.24952198565006256,7.583898067474365,153,6343.0,18.968185424804688,324,9953.0
13170,0.2500470280647278,7.804568767547607,141,6343.0,18.490209579467773,375,9953.0
13180,0.2501200735569,6.242406368255615,78,6343.0,18.601699829101562,338,9953.0
13190,0.250194787979126,5.160449504852295,117,6343.0,16.370641708374023,157,9953.0
13200,0.254092276096344,3.7299981117248535,-22,6343.0,10.033177375793457,239,9953.0
13210,0.2547137439250946,-0.0196087509393692,80,6343.0,6.37610387802124,-55,9953.0
13220,0.25524768233299255,-1.0733623504638672,-50,6343.0,1.4852079153060913,66,9953.0
13230,0.25598135590553284,-3.33990740776062,-67,6343.0,-3.230628728866577,-91,9953.0
13240,0.2566317021846771,-5.596415996551514,-103,6343.0,-7.173718452453613,-197,9953.0
13250,0.2621302604675293,-7.207271575927734,-145,6343.0,-10.291519165039062,-145,9953.0
13260,0.2629808485507965,-9.30949592590332,-110,6343.0,-9.374944686889648,-279,9953.0
13270,0.2637573480606079,-8.265079498291016,-139,6343.0,-11.88280963897705,-40,9953.0
13280,0.26436856389045715,-6.838871002197266,-109,6343.0,-8.028792381286621,-195,9953.0
13290,0.26822105050086975,-2.323507785797119,34,6343.0,-5.410410404205322,-109,9953.0
13300,0.26905038952827454,4.4549736976623535,-10,6343.0,-4.545230388641357,-37,9953.0
13310,0.26980748772621155,6.111442565917969,137,6343.0,-2.1249194145202637,-102,9953.0
13320,0.2704867422580719,7.373115062713623,115,6343.0,-2.5012755393981934,38,9953.0
13330,0.2737675905227661,7.134634494781494,67,6343.0,-2.7189078330993652,-98,9953.0
13340,0.2744632065296173,6.549911975860596,164,6343.0,-4.567653179168701,-29,9953.0
13350,0.2751261591911316,5.02774715423584,53,6343.0,-6.425648212432861,-4,9953.0
13360,0.2756385803222656,3.2111730575561523,11,6343.0,-9.545522689819336,-230,9953.0
13370,0.2760976552963257,0.9890826940536499,28,6343.0,-10.650763511657715,-160,9953.0
13380,0.2789760231971741,-0.7485360503196716,-70,6343.0,-9.949530601501465,-96,9953.0
13390,0.2791834771633148,-1.6043320894241333,-50,6343.0,-8.71430492401123,-221,9953.0
13400,0.2791202664375305,-2.632615566253662,36,6343.0,-11.78257942199707,-215,9953.0
13410,0.27906233072280884,-5.556157112121582,-112,6343.0,-11.453892707824707,-102,9953.0
13420,0.28075623512268066,-4.834687232971191,-134,6343.0,-8.848750114440918,-150,9953.0
13430,0.2806307077407837,-4.206571102142334,-3,6343.0,-8.244433403015137,-186,9953.0
13440,0.28052210807800293,-2.3553714752197266,-74,6343.0,-9.7116060256958,-84,9953.0
13450,0.28033602237701416,0.24386273324489594,-73,6343.0,-7.761383533477783,-183,9953.0
13460,0.2824937701225281,0.0766846314072609,33,6343.0,-8.417830467224121,-247,9953.0
13470,0.28230786323547363,0.9671596884727478,81,6343.0,-10.011482238769531,-88,9953.0
13480,0.28209128975868225,1.4645910263061523,-37,6343.0,-7.27987003326416,-108,9953.0
13490,0.2817152440547943,0.3523898124694824,43,6343.0,-3.6815717220306396,-229,9953.0
13500,0.28152212500572205,1.127630352973938,91,6343.0,-3.007692337036133,-40,9953.0
13510,0.2815696597099304,2.923557758331299,6,6343.0,-3.0789756774902344,96,9953.0
13520,0.2808893322944641,1.879382848739624,5,6343.0,-2.125808000564575,-64,9953.0
13530,0.2802257835865021,1.2307660579681396,100,6343.0,0.1345270723104477,-78,9953.0
13540,0.2799219489097595,1.4573472738265991,33,6343.0,0.6253262162208557,82,9953.0
13550,0.27699026465415955,1.205797791481018,-36,6343.0,0.6289833784103394,140,9953.0
13560,0.2764216959476471,1.088034749031067,15,6343.0,1.9024181365966797,-59,9953.0
13570,0.2755299210548401,0.8257235884666443,70,6343.0,-3.3405916690826416,-82,9953.0
13580,0.274496853351593,-1.2637609243392944,-40,6343.0,-2.5955471992492676,28,9953.0
13590,0.2734622061252594,-0.9230100512504578,39,6343.0,-2.581441879272461,-108,9953.0
13600,0.27088218927383423,-1.2618321180343628,55,6343.0,-3.013108253479004,-69,9953.0
13610,0.2697262763977051,0.35975202918052673,-31,6343.0,-1.9339252710342407,36,9953.0
13620,0.26887667179107666,1.8985241651535034,7,6343.0,1.683411955833435,15,9953.0
13630,0.26895418763160706,2.101201295852661,82,6343.0,4.253057479858398,97,9953.0
13640,0.26709356904029846,0.17237736284732819,-58,6343.0,6.442602157592773,128,9953.0
13650,0.2659624516963959,-2.522730588912964,18,6343.0,8.855053901672363,82,9953.0
13660,0.26501691341400146,-2.437758684158325,-54,6343.0,9.545673370361328,253,9953.0
13670,0.26409250497817993,0.572663426399231,-28,6343.0,11.079615592956543,113,9953.0
13680,0.26119041442871094,0.8867147564888,18,6343.0,13.922273635864258,276,9953.0
13690,0.2597801983356476,3.243682861328125,67,6343.0,13.299042701721191,161,9953.0
13700,0.2584800124168396,2.7375097274780273,80,6343.0,12.592142105102539,272,9953.0
13710,0.25810790061950684,3.064527750015259,52,6343.0,13.249486923217773,83,9953.0
13720,0.2573903501033783,5.995302200317383,89,6343.0,9.406342506408691,262,9953.0
13730,0.25814393162727356,4.97632360458374,169,6343.0,11.091486930847168,74,9953.0
13740,0.25763243436813354,5.836178779602051,132,6343.0,8.484262466430664,189,9953.0
13750,0.2570168673992157,5.0032572746276855,45,6343.0,10.282353401184082,118,9953.0
13760,0.2567560374736786,2.292487382888794,31,6343.0,8.348441123962402,191,9953.0
13770,0.25710245966911316,-0.35656556487083435,53,6343.0,10.558712005615234,106,9953.0
13780,0.25687143206596375,-1.5773468017578125,-100,6343.0,10.355219841003418,254,9953.0
13790,0.2571503520011902,-2.0919952392578125,36,6343.0,13.424299240112305,231,9953.0
13800,0.2573721408843994,-3.741924285888672,-125,6343.0,13.55904769897461,212,9953.0
13810,0.25734928250312805,-4.399211406707764,-38,6343.0,13.118931770324707,313,9953.0
13820,0.2616250216960907,-4.423112869262695,-113,6343.0,12.103328704833984,78,9953.0
13830,0.26226338744163513,-6.59900426864624,-58,6343.0,8.830819129943848,101,9953.0
13840,0.2631254196166992,-6.22669792175293,-138,6343.0,6.032183647155762,138,9953.0
13850,0.2639077305793762,-5.937846660614014,-40,6343.0,5.2746262550354,62,9953.0
13860,0.26715975999832153,-3.5934813022613525,-59,6343.0,4.159249305725098,47,9953.0
13870,0.26825860142707825,-2.7163610458374023,-39,6343.0,2.3532795906066895,59,9953.0
13880,0.26940664649009705,-1.3612582683563232,-8,6343.0,2.7901737689971924,71,9953.0
13890,0.2706165313720703,-0.2190309762954712,41,6343.0,3.6782171726226807,-18,9953.0
13900,0.27403995394706726,2.4111859798431396,16,6343.0,0.4859388470649719,148,9953.0
13910,0.27554118633270264,2.6595146656036377,58,6343.0,2.197197437286377,-64,9953.0
13920,0.2770439088344574,3.5193188190460205,107,6343.0,0.3228165805339813,70,9953.0
13930,0.2785739302635193,3.0425353050231934,19,6343.0,1.3328964710235596,23,9953.0
13940,0.28001707792282104,1.6762359142303467,31,6343.0,-0.3544817566871643,-82,9953.0
13950,0.2840711772441864,0.03369319066405296,39,6343.0,-0.997932493686676,-72,9953.0
13960,0.28581416606903076,0.26088178157806396,-36,6343.0,-2.4585087299346924,72,9953.0
13970,0.2875002324581146,-0.9012477993965149,-63,6343.0,-2.0430901050567627,-101,9953.0
13980,0.2890445291996002,-0.788808286190033,18,6343.0,-3.5003371238708496,-146,9953.0
13990,0.29243820905685425,0.391539603471756,58,6343.0,-6.010584831237793,-73,9953.0
14000,0.2937282919883728,-0.41184791922569275,-38,6343.0,-7.984528064727783,-91,9953.0
14010,0.29494404792785645,-0.8609580993652344,-108,6343.0,-11.087103843688965,-27,9953.0
14020,0.2959921956062317,-2.2324001789093018,-56,6343.0,-12.164680480957031,-256,9953.0
14030,0.2969346046447754,-0.6680821180343628,25,6343.0,-9.887194633483887,-216,9953.0
14040,0.29916131496429443,0.2288813441991806,108,6343.0,-8.013558387756348,-179,9953.0
14050,0.299917608499527,-1.3016666173934937,56,6343.0,-5.213768482208252,-192,9953.0
14060,0.3003722131252289,-2.380441427230835,4,6343.0,-2.2232558727264404,-70,9953.0
14070,0.30088454484939575,-3.0921690464019775,-7,6343.0,0.2868807911872864,-10,9953.0
14080,0.30249279737472534,-6.993323802947998,-57,6343.0,5.783941745758057,23,9953.0
14090,0.30249062180519104,-7.5529656410217285,-194,6343.0,4.735806465148926,58,9953.0
14100,0.3023410439491272,-8.399690628051758,-195,6343.0,5.540826320648193,144,9953.0
14110,0.30214962363243103,-6.044856548309326,-166,6343.0,4.469166278839111,105,9953.0
14120,0.30440637469291687,-2.628368377685547,-139,6343.0,3.343595504760742,148,9953.0
14130,0.3041091561317444,-1.0651021003723145,-106,6343.0,3.5721588134765625,106,9953.0
14140,0.3036171495914459,-0.07378288358449936,-85,6343.0,1.9109705686569214,75,9953.0
14150,0.30302178859710693,0.8993030786514282,7,6343.0,-0.086713507771492,17,9953.0
14160,0.3024400472640991,3.7159664630889893,102,6343.0,-2.0302274227142334,-64,9953.0
14170,0.3044975697994232,8.342583656311035,205,6343.0,-0.3878181576728821,-91,9953.0
14180,0.30385467410087585,5.688657283782959,174,6343.0,-0.6252503395080566,-189,9953.0
14190,0.3032706677913666,2.8113527297973633,170,6343.0,-0.19201946258544922,-42,9953.0
14200,0.3025222420692444,2.491109848022461,116,6343.0,-0.00046496090362779796,-81,9953.0
14210,0.3039918839931488,-3.7263035774230957,51,6343.0,2.518211603164673,59,9953.0
14220,0.30321285128593445,-4.17606258392334,-78,6343.0,-0.05307712405920029,-54,9953.0
