timestamp,kalman.stateZ,gyro.x,gyro.xRaw,gyro.xVariance,gyro.y,gyro.yRaw,gyro.yVariance
0,0.27043014764785767,0.12613937258720398,3,5871.0,-2.1949737071990967,-37,9957.0
10,0.2704012095928192,0.11296775192022324,6,5871.0,-2.3638360500335693,-36,9957.0
20,0.27021417021751404,0.06957528740167618,7,5871.0,-2.434128761291504,-39,9957.0
30,0.27020928263664246,0.045778609812259674,4,5871.0,-2.6266465187072754,-40,9957.0
40,0.2701687514781952,0.10008365660905838,3,5871.0,-2.5415658950805664,-40,9957.0
50,0.2701264023780823,0.1346229761838913,0,5871.0,-2.4857566356658936,-34,9957.0
60,0.2704049348831177,-0.04977007210254669,2,5871.0,-2.25993013381958,-41,9957.0
70,0.270378440618515,0.10188204050064087,1,5871.0,-2.3163504600524902,-38,9957.0
80,0.27039363980293274,-0.012359793297946453,-1,5871.0,-1.8886871337890625,-33,9957.0
90,0.2703726291656494,0.08070825040340424,6,5871.0,-1.9190257787704468,-30,9957.0
100,0.2703436017036438,0.1568571776151657,-4,5871.0,-1.8204360008239746,-28,9957.0
110,0.27056437730789185,0.021283961832523346,4,5871.0,-1.5206854343414307,-25,9957.0
120,0.27054107189178467,0.015274840407073498,3,5871.0,-1.2097734212875366,-18,9957.0
130,0.27051693201065063,-0.025918403640389442,-5,5871.0,-1.0878113508224487,-13,9957.0
140,0.2705160677433014,0.0684451088309288,4,5871.0,-0.4953707158565521,-5,9957.0
150,0.2716237008571625,-0.11525685340166092,-2,5871.0,-0.038720179349184036,-5,9957.0
160,0.27169641852378845,-0.160670205950737,1,5871.0,0.0647030621767044,-2,9957.0
170,0.27173924446105957,-0.2971583604812622,-4,5871.0,-0.2977725565433502,6,9957.0
180,0.27178072929382324,0.047778867185115814,14,5871.0,1.544110655784607,39,9957.0
190,0.27185195684432983,3.0282139778137207,36,5871.0,-0.053129058331251144,-19,9957.0
200,0.27075594663619995,1.4474098682403564,104,5871.0,2.8123908042907715,-18,9957.0
210,0.27078402042388916,2.8122005462646484,150,5871.0,2.3744115829467773,5,9957.0
220,0.27082157135009766,6.399175643920898,204,5871.0,1.628390908241272,-73,9957.0
230,0.2708868682384491,10.62707233428955,258,5871.0,-2.2070841789245605,51,9957.0
240,0.26736149191856384,12.585392951965332,124,5871.0,2.4809324741363525,-7,9957.0
250,0.26727789640426636,12.385062217712402,238,5871.0,0.6116966605186462,159,9957.0
260,0.26731202006340027,10.038415908813477,217,5871.0,2.352536916732788,-84,9957.0
270,0.26725706458091736,7.616219520568848,199,5871.0,1.8237229585647583,-210,9957.0
280,0.265974223613739,5.745171070098877,210,5871.0,0.7455032467842102,-191,9957.0
290,0.2659272849559784,4.448056697845459,174,5871.0,0.3920978009700775,-49,9957.0
300,0.2659046947956085,2.825878143310547,31,5871.0,0.3160870671272278,30,9957.0
310,0.265998899936676,1.6465694904327393,24,5871.0,-0.719156801700592,6,9957.0
320,0.2662375569343567,1.152153730392456,-23,5871.0,1.3581633567810059,15,9957.0
330,0.2691722512245178,0.09638837724924088,104,5871.0,1.334067463874817,-42,9957.0
340,0.2698330581188202,0.43177908658981323,-108,5871.0,2.730344772338867,149,9957.0
350,0.27059346437454224,-1.2582502365112305,98,5871.0,4.649631977081299,-7,9957.0
360,0.27142012119293213,-0.8817682266235352,-13,5871.0,6.041196346282959,121,9957.0
370,0.27373307943344116,-1.307595133781433,-56,5871.0,6.472494602203369,86,9957.0
380,0.2747793197631836,-1.0448564291000366,45,5871.0,4.074521064758301,137,9957.0
390,0.2758546769618988,-1.4762611389160156,-53,5871.0,6.028959274291992,-57,9957.0
400,0.2768824100494385,-1.2997980117797852,-90,5871.0,2.5376205444335938,266,9957.0
410,0.27786216139793396,-3.054495096206665,-24,5871.0,6.97390604019165,-41,9957.0
420,0.2792404890060425,-2.7853121757507324,-3,5871.0,7.567673683166504,89,9957.0
430,0.28012198209762573,-2.2444353103637695,-119,5871.0,4.6472930908203125,87,9957.0
440,0.2809557616710663,-1.9393548965454102,91,5871.0,4.490025043487549,139,9957.0
450,0.2817469835281372,-2.5502638816833496,-183,5871.0,2.5747315883636475,38,9957.0
460,0.2827366888523102,-1.4183175563812256,43,5871.0,2.109757423400879,80,9957.0
470,0.2834117114543915,-0.3420123755931854,-11,5871.0,2.6740922927856445,60,9957.0
480,0.2841462194919586,-0.14842064678668976,19,5871.0,4.572338104248047,-29,9957.0
490,0.2847917973995209,1.9043208360671997,-28,5871.0,4.335451126098633,293,9957.0
500,0.28588828444480896,1.4062445163726807,70,5871.0,7.080374717712402,-62,9957.0
510,0.28629717230796814,1.5047755241394043,9,5871.0,8.564598083496094,218,9957.0
520,0.28659379482269287,0.36832132935523987,4,5871.0,10.818817138671875,187,9957.0
530,0.28672900795936584,0.8619487285614014,73,5871.0,9.784320831298828,172,9957.0
540,0.2867891788482666,1.4170942306518555,-141,5871.0,8.58655834197998,111,9957.0
550,0.2856726348400116,-1.6987963914871216,140,5871.0,8.178492546081543,93,9957.0
560,0.28563860058784485,-3.5916714668273926,-138,5871.0,4.911684513092041,57,9957.0
570,0.28552326560020447,-4.236404895782471,-77,5871.0,2.045919418334961,21,9957.0
580,0.28537696599960327,-2.393239974975586,-59,5871.0,-1.2250715494155884,13,9957.0
590,0.2855586111545563,-2.724050521850586,76,5871.0,-2.5512497425079346,-177,9957.0
600,0.28544557094573975,1.7157788276672363,-98,5871.0,-6.745474815368652,7,9957.0
610,0.2852378487586975,-1.545269250869751,142,5871.0,-4.827871322631836,-96,9957.0
620,0.2850395441055298,1.456457495689392,-27,5871.0,-4.520034313201904,-109,9957.0
630,0.28487393260002136,0.7733086347579956,8,5871.0,-4.376142501831055,-51,9957.0
640,0.28400322794914246,1.4298796653747559,-55,5871.0,-1.9825477600097656,149,9957.0
650,0.28393852710723877,0.4727684259414673,134,5871.0,0.5757499933242798,-96,9957.0
660,0.28398579359054565,1.8031940460205078,-71,5871.0,3.5586798191070557,130,9957.0
670,0.2840828001499176,-0.07856925576925278,89,5871.0,4.023317813873291,138,9957.0
680,0.283748596906662,1.4216028451919556,-31,5871.0,2.977060079574585,146,9957.0
690,0.28392699360847473,-0.5454353094100952,63,5871.0,3.4894845485687256,-51,9957.0
700,0.2841593623161316,-0.28047847747802734,-172,5871.0,2.107072114944458,45,9957.0
710,0.2844248414039612,-0.29903075098991394,123,5871.0,-0.7643470764160156,97,9957.0
720,0.28380855917930603,-0.8534711599349976,-104,5871.0,1.7992186546325684,-4,9957.0
730,0.28408101201057434,-1.8750085830688477,-9,5871.0,-2.0832772254943848,-49,9957.0
740,0.28439024090766907,-1.1107932329177856,-105,5871.0,-2.8140575885772705,30,9957.0
750,0.2846643924713135,-0.045487064868211746,152,5871.0,-2.4803552627563477,-81,9957.0
760,0.28491008281707764,-0.3990676701068878,-209,5871.0,-1.4149681329727173,-43,9957.0
770,0.2844458818435669,-1.4754191637039185,80,5871.0,-4.823080539703369,-53,9957.0
780,0.2846457362174988,0.27972301840782166,9,5871.0,-2.864306926727295,-58,9957.0
790,0.28476229310035706,0.3392505347728729,73,5871.0,-4.058817386627197,-104,9957.0
800,0.28486889600753784,0.968411922454834,-90,5871.0,-4.019716262817383,21,9957.0
810,0.2834729254245758,1.933455467224121,161,5871.0,-1.5231263637542725,-152,9957.0
820,0.28338339924812317,1.8080859184265137,-21,5871.0,-6.599977016448975,-78,9957.0
830,0.2832893431186676,1.2462083101272583,68,5871.0,-3.7274792194366455,-64,9957.0
840,0.28307607769966125,2.364165782928467,41,5871.0,-3.7519662380218506,76,9957.0
850,0.2828008532524109,2.448899030685425,41,5871.0,-1.3192089796066284,-94,9957.0
860,0.28256526589393616,1.2610633373260498,-12,5871.0,-1.0782418251037598,29,9957.0
870,0.2822885513305664,1.2244200706481934,74,5871.0,2.4949951171875,-77,9957.0
880,0.28203436732292175,1.951802372932434,21,5871.0,-0.6849092245101929,-33,9957.0
890,0.2817791700363159,1.0340802669525146,-59,5871.0,-1.1639057397842407,25,9957.0
900,0.2829810678958893,1.0326377153396606,152,5871.0,-3.292468309402466,-62,9957.0
910,0.2829046845436096,2.640742301940918,-135,5871.0,-0.07047796249389648,-45,9957.0
920,0.2828029990196228,2.2734642028808594,118,5871.0,0.6122203469276428,32,9957.0
930,0.28271469473838806,1.2074412107467651,62,5871.0,3.59802508354187,47,9957.0
940,0.2824743688106537,1.7684077024459839,88,5871.0,2.8226635456085205,-30,9957.0
950,0.2825118601322174,1.8183560371398926,-105,5871.0,0.9257472157478333,189,9957.0
960,0.28261932730674744,1.6643266677856445,153,5871.0,-2.2480742931365967,44,9957.0
970,0.28275197744369507,0.4691910743713379,-114,5871.0,-1.7275714874267578,-81,9957.0
980,0.2828786075115204,-0.35324540734291077,46,5871.0,1.0353336334228516,-10,9957.0
990,0.2822073698043823,-0.8049943447113037,-34,5871.0,-1.6568304300308228,92,9957.0
1000,0.2822834253311157,-2.561899423599243,59,5871.0,-0.7143352031707764,-116,9957.0
1010,0.28236156702041626,-2.933812379837036,-193,5871.0,0.406331866979599,4,9957.0
1020,0.282428503036499,-3.1280479431152344,41,5871.0,-4.007598400115967,-54,9957.0
1030,0.2827218174934387,-2.6065752506256104,-83,5871.0,-2.14290452003479,-2,9957.0
1040,0.28284144401550293,-3.1665897369384766,-52,5871.0,-0.6969313621520996,-127,9957.0
1050,0.2829250991344452,-1.8737094402313232,-95,5871.0,0.26181966066360474,60,9957.0
1060,0.2830080986022949,-4.565236568450928,81,5871.0,1.760575532913208,-131,9957.0
1070,0.2830315828323364,-2.5097718238830566,-168,5871.0,-3.144735813140869,13,9957.0
1080,0.28418654203414917,-2.26945161819458,-28,5871.0,-3.868924379348755,-23,9957.0
1090,0.2842092216014862,-0.9840046763420105,-9,5871.0,-1.3654115200042725,16,9957.0
1100,0.2842146158218384,-0.9140908718109131,55,5871.0,1.4746778011322021,-95,9957.0
1110,0.2842174172401428,1.0715993642807007,-57,5871.0,-1.2645894289016724,156,9957.0
1120,0.2833482027053833,-1.6947206258773804,37,5871.0,-1.914750337600708,-59,9957.0
1130,0.28328314423561096,1.1688593626022339,-51,5871.0,0.4958052635192871,4,9957.0
1140,0.2831984758377075,0.8964168429374695,8,5871.0,0.32860836386680603,-68,9957.0
1150,0.2830730378627777,1.513823390007019,56,5871.0,0.01786164566874504,162,9957.0
1160,0.2815902829170227,2.0839717388153076,71,5871.0,-1.5034892559051514,-210,9957.0
1170,0.28137680888175964,2.5993294715881348,39,5871.0,-2.54927396774292,78,9957.0
1180,0.281205415725708,2.262521982192993,112,5871.0,-1.464415431022644,-65,9957.0
1190,0.2810819149017334,1.097712516784668,33,5871.0,0.5049815773963928,89,9957.0
1200,0.2809918224811554,2.897592306137085,-41,5871.0,0.6301987767219543,-140,9957.0
1210,0.28087538480758667,4.1196208000183105,63,5871.0,-3.1076316833496094,111,9957.0
1220,0.2806906998157501,1.5603820085525513,119,5871.0,-4.441871643066406,-255,9957.0
1230,0.28050604462623596,1.8690141439437866,10,5871.0,-3.4691224098205566,-31,9957.0
1240,0.28032180666923523,0.9356721639633179,-36,5871.0,-0.5170437097549438,-20,9957.0
1250,0.28096628189086914,0.33738085627555847,48,5871.0,-0.8867981433868408,132,9957.0
1260,0.2809210419654846,-0.4440341293811798,-38,5871.0,5.527994155883789,-198,9957.0
1270,0.2808646261692047,-2.914984703063965,-27,5871.0,0.302532821893692,93,9957.0
1280,0.28083139657974243,-1.8966264724731445,-14,5871.0,2.1247479915618896,27,9957.0
1290,0.28081122040748596,-2.129750967025757,7,5871.0,1.3378735780715942,96,9957.0
1300,0.2825057804584503,-1.6525384187698364,-87,5871.0,1.903691053390503,-151,9957.0
1310,0.28257623314857483,-3.4582886695861816,-50,5871.0,-4.53779411315918,128,9957.0
1320,0.28267326951026917,-2.438601016998291,1,5871.0,1.7047260999679565,-49,9957.0
1330,0.2827843725681305,-1.8882254362106323,-18,5871.0,1.9696717262268066,19,9957.0
1340,0.28338780999183655,-1.08615243434906,-26,5871.0,3.2760348320007324,-131,9957.0
1350,0.2835555970668793,-0.7992438673973083,52,5871.0,2.2223544120788574,233,9957.0
1360,0.2836778461933136,0.9342635869979858,-2,5871.0,-1.7794716358184814,-90,9957.0
1370,0.28378280997276306,-1.3195990324020386,-96,5871.0,1.661149024963379,120,9957.0
1380,0.28429263830184937,-0.4799124300479889,3,5871.0,3.598928928375244,-19,9957.0
1390,0.28435763716697693,0.6847759485244751,116,5871.0,4.083564758300781,152,9957.0
1400,0.2844298481941223,0.8273715376853943,-30,5871.0,4.008970260620117,-104,9957.0
1410,0.2845308482646942,1.7150593996047974,27,5871.0,0.6683462858200073,250,9957.0
1420,0.28463053703308105,2.1938557624816895,20,5871.0,1.512626051902771,-94,9957.0
1430,0.2828773856163025,1.9837770462036133,4,5871.0,0.19340422749519348,38,9957.0
1440,0.28290432691574097,1.6414943933486938,3,5871.0,-0.7470009326934814,-40,9957.0
1450,0.2828630805015564,2.3074846267700195,123,5871.0,-1.9589000940322876,72,9957.0
1460,0.28277769684791565,3.0750837326049805,-34,5871.0,-2.3384323120117188,-224,9957.0
1470,0.2816545367240906,1.382585883140564,57,5871.0,-3.75123929977417,66,9957.0
1480,0.2815888226032257,-0.26023784279823303,-12,5871.0,-0.8633019924163818,15,9957.0
1490,0.2815067172050476,-2.1281259059906006,-38,5871.0,1.8575595617294312,-72,9957.0
1500,0.28144651651382446,-2.7805731296539307,36,5871.0,0.6898335814476013,132,9957.0
1510,0.28145843744277954,-2.3682548999786377,-4,5871.0,4.183401107788086,-83,9957.0
1520,0.2804587483406067,0.28395041823387146,-64,5871.0,2.7213244438171387,172,9957.0
1530,0.280335396528244,0.24303002655506134,26,5871.0,-0.2431149035692215,-32,9957.0
1540,0.2801506221294403,0.7058942317962646,51,5871.0,-0.6658155918121338,-18,9957.0
1550,0.27991271018981934,1.5501015186309814,-16,5871.0,-2.77695631980896,-216,9957.0
1560,0.2803274393081665,2.0070037841796875,40,5871.0,-4.970496654510498,135,9957.0
1570,0.28026947379112244,0.7248111963272095,10,5871.0,-2.074927806854248,-178,9957.0
1580,0.28021591901779175,0.5864315629005432,29,5871.0,-4.706509590148926,-39,9957.0
1590,0.2801620662212372,0.5638784766197205,-32,5871.0,-2.4569616317749023,-108,9957.0
1600,0.2815917134284973,-0.04184134304523468,72,5871.0,-1.4901553392410278,190,9957.0
1610,0.2815573215484619,-1.1446539163589478,-84,5871.0,4.130834579467773,-160,9957.0
1620,0.28155651688575745,-1.6046830415725708,-32,5871.0,1.4865905046463013,31,9957.0
1630,0.2815079092979431,-2.4581491947174072,-3,5871.0,4.728707790374756,9,9957.0
1640,0.2814754545688629,-1.1716580390930176,43,5871.0,4.6472697257995605,178,9957.0
1650,0.2832421660423279,0.06374677270650864,-109,5871.0,2.751030206680298,-48,9957.0
1660,0.28332996368408203,-1.3805627822875977,-23,5871.0,1.5982168912887573,179,9957.0
1670,0.28332847356796265,-1.9298046827316284,-3,5871.0,1.2235262393951416,-99,9957.0
1680,0.28333017230033875,-1.2563053369522095,0,5871.0,0.4338226318359375,-6,9957.0
1690,0.28472477197647095,-1.500311255455017,-63,5871.0,0.334114134311676,-82,9957.0
1700,0.28487080335617065,-0.40234678983688354,74,5871.0,-2.5151126384735107,101,9957.0
1710,0.28490570187568665,0.4570121169090271,-27,5871.0,-1.9900473356246948,-239,9957.0
1720,0.2849620282649994,1.7899281978607178,20,5871.0,4.126516342163086,94,9957.0
1730,0.28501400351524353,1.9974123239517212,18,5871.0,-1.0119904279708862,37,9957.0
1740,0.28501096367836,0.5217531323432922,27,5871.0,-0.6263211369514465,88,9957.0
1750,0.28501036763191223,1.0826411247253418,-88,5871.0,1.2402836084365845,-135,9957.0
1760,0.28496280312538147,2.3125460147857666,140,5871.0,3.263115644454956,186,9957.0
1770,0.28490281105041504,1.6395961046218872,19,5871.0,2.9833121299743652,-44,9957.0
1780,0.28447794914245605,2.556091070175171,18,5871.0,-1.114913821220398,82,9957.0
1790,0.284379243850708,2.0480384826660156,-18,5871.0,0.655379056930542,16,9957.0
1800,0.28443074226379395,1.907616138458252,108,5871.0,0.5996988415718079,33,9957.0
1810,0.2843224108219147,1.0643378496170044,-111,5871.0,-0.7228466868400574,-131,9957.0
1820,0.2833172380924225,-1.491531491279602,36,5871.0,-5.93515682220459,47,9957.0
1830,0.2831084132194519,-1.9022204875946045,-4,5871.0,-3.00546932220459,-132,9957.0
1840,0.282880038022995,-0.4186934530735016,20,5871.0,-3.992907762527466,-79,9957.0
1850,0.28270578384399414,0.9366472959518433,-32,5871.0,-4.998172760009766,-135,9957.0
1860,0.2825610339641571,-0.21675452589988708,160,5871.0,-1.4885103702545166,87,9957.0
1870,0.283417671918869,-1.35124671459198,-122,5871.0,0.07907050102949142,-66,9957.0
1880,0.2833911180496216,0.025733111426234245,0,5871.0,-0.062378790229558945,70,9957.0
1890,0.2835102081298828,-0.4742182493209839,-50,5871.0,5.2084245681762695,16,9957.0
1900,0.28411176800727844,-0.6677477955818176,92,5871.0,4.9611897468566895,89,9957.0
1910,0.2825216054916382,-1.7602280378341675,-162,5871.0,3.180776596069336,10,9957.0
1920,0.28259003162384033,-2.9370927810668945,12,5871.0,0.49718210101127625,180,9957.0
1930,0.2826148271560669,-1.7739613056182861,-28,5871.0,0.13493259251117706,-94,9957.0
1940,0.2826644778251648,-2.065197467803955,22,5871.0,-1.45427668094635,-36,9957.0
1950,0.28400900959968567,-1.084789752960205,-94,5871.0,-3.433525562286377,-110,9957.0
1960,0.2841832935810089,-1.6577370166778564,17,5871.0,-3.319000720977783,102,9957.0
1970,0.28438031673431396,-0.7724630236625671,-59,5871.0,-1.1271991729736328,-175,9957.0
1980,0.28453925251960754,-2.280423164367676,23,5871.0,0.09756813943386078,48,9957.0
1990,0.2848362326622009,-0.3585309088230133,13,5871.0,2.333515167236328,67,9957.0
2000,0.28494083881378174,1.1043959856033325,94,5871.0,3.469775915145874,139,9957.0
2010,0.2849646806716919,3.015383005142212,-66,5871.0,3.183119297027588,-65,9957.0
2020,0.2849797308444977,1.8909467458724976,96,5871.0,2.8431148529052734,155,9957.0
2030,0.2851034104824066,1.9083712100982666,6,5871.0,1.2388449907302856,-56,9957.0
2040,0.28506362438201904,-1.4245495796203613,-8,5871.0,3.740494728088379,54,9957.0
2050,0.2850770652294159,-1.7030636072158813,-117,5871.0,1.4464929103851318,-8,9957.0
2060,0.28491681814193726,-1.3837355375289917,91,5871.0,0.886242151260376,21,9957.0
2070,0.28470733761787415,-1.0839557647705078,-63,5871.0,-0.41286540031433105,-189,9957.0
2080,0.28452467918395996,-0.6704792380332947,-18,5871.0,-1.1402252912521362,130,9957.0
2090,0.2837783098220825,-0.13742657005786896,-48,5871.0,-0.78343266248703,-6,9957.0
2100,0.2836219072341919,-0.9493735432624817,55,5871.0,1.7361756563186646,-62,9957.0
2110,0.28349965810775757,0.6229528784751892,32,5871.0,-0.22529809176921844,132,9957.0
2120,0.283390074968338,-0.08180691301822662,61,5871.0,-1.1800645589828491,-112,9957.0
2130,0.2835789620876312,-1.5793957710266113,-139,5871.0,-0.9246480464935303,116,9957.0
2140,0.28352880477905273,-1.9602478742599487,30,5871.0,1.1309022903442383,-3,9957.0
2150,0.28349384665489197,-1.5189194679260254,-27,5871.0,-1.8459608554840088,12,9957.0
2160,0.2834928333759308,-1.034382939338684,-27,5871.0,0.8857235312461853,-41,9957.0
2170,0.28461602330207825,0.6174891591072083,-67,5871.0,1.9951316118240356,155,9957.0
2180,0.2848071753978729,0.3148084878921509,135,5871.0,3.2839443683624268,-97,9957.0
2190,0.2850075662136078,1.1243362426757812,-79,5871.0,-2.6175360679626465,-82,9957.0
2200,0.2851887345314026,-0.278695672750473,37,5871.0,0.5976683497428894,98,9957.0
2210,0.2853488624095917,0.8690942525863647,10,5871.0,0.8679490685462952,149,9957.0
2220,0.2849932610988617,0.3207653760910034,35,5871.0,1.9158363342285156,-116,9957.0
2230,0.2851372957229614,2.1616554260253906,-45,5871.0,1.1802903413772583,119,9957.0
2240,0.2852693498134613,0.8550177812576294,112,5871.0,3.001246690750122,-60,9957.0
2250,0.2854349911212921,1.0551563501358032,-28,5871.0,1.3043959140777588,62,9957.0
2260,0.2849237322807312,-0.39237159490585327,-1,5871.0,2.5281291007995605,9,9957.0
2270,0.2849196493625641,0.5787408947944641,57,5871.0,2.3171958923339844,100,9957.0
2280,0.28481006622314453,1.6798954010009766,85,5871.0,2.4066884517669678,-169,9957.0
2290,0.2846500277519226,3.28979754447937,-17,5871.0,1.4428322315216064,250,9957.0
2300,0.2844861149787903,2.652043342590332,83,5871.0,-2.5983452796936035,-45,9957.0
2310,0.2857247591018677,2.3978748321533203,28,5871.0,2.304295778274536,27,9957.0
2320,0.2856869101524353,0.9866737127304077,2,5871.0,1.2027509212493896,-113,9957.0
2330,0.2857442796230316,1.2437856197357178,80,5871.0,-1.7075339555740356,114,9957.0
2340,0.28565314412117004,1.3861429691314697,87,5871.0,-0.5882226824760437,-179,9957.0
2350,0.28413668274879456,0.5084314346313477,-63,5871.0,-1.5628869533538818,83,9957.0
2360,0.2839476764202118,-1.507404088973999,5,5871.0,-2.329501152038574,-58,9957.0
2370,0.28377729654312134,-2.0301315784454346,11,5871.0,-3.088549852371216,-2,9957.0
2380,0.28364992141723633,-0.8765148520469666,-64,5871.0,-3.428262710571289,-181,9957.0
2390,0.28456175327301025,-1.9070143699645996,-39,5871.0,-4.254036903381348,212,9957.0
2400,0.28458625078201294,-1.8191065788269043,-38,5871.0,-1.9897783994674683,-155,9957.0
2410,0.2845974862575531,-1.4417682886123657,-55,5871.0,-3.2359840869903564,-61,9957.0
2420,0.2845926880836487,1.595249891281128,35,5871.0,-3.8335506916046143,-95,9957.0
2430,0.2845514118671417,4.040926933288574,157,5871.0,-3.3808226585388184,82,9957.0
2440,0.2834363281726837,6.053752422332764,33,5871.0,0.6012153029441833,-144,9957.0
2450,0.283273845911026,4.092425346374512,17,5871.0,-1.2525604963302612,178,9957.0
2460,0.28312286734580994,2.4703011512756348,82,5871.0,0.45526090264320374,-134,9957.0
2470,0.2829829454421997,3.280042886734009,68,5871.0,1.769880771636963,-6,9957.0
2480,0.28370100259780884,2.126472234725952,-15,5871.0,-0.5676396489143372,-73,9957.0
2490,0.28358039259910583,0.7617293000221252,48,5871.0,-3.126887559890747,151,9957.0
2500,0.2834224998950958,-2.097729206085205,-91,5871.0,0.5050811767578125,-185,9957.0
2510,0.28324803709983826,-3.202810049057007,-41,5871.0,-0.7917550802230835,-6,9957.0
2520,0.2830326557159424,-1.9723970890045166,3,5871.0,-3.3356940746307373,-19,9957.0
2530,0.283772736787796,-2.8262057304382324,23,5871.0,-0.18287672102451324,74,9957.0
2540,0.28370651602745056,-2.5294604301452637,-104,5871.0,-4.612453460693359,-118,9957.0
2550,0.2835856080055237,-0.7116677761077881,-69,5871.0,-1.4969284534454346,182,9957.0
2560,0.28339964151382446,0.13562104105949402,-3,5871.0,-5.040694713592529,-166,9957.0
2570,0.28310802578926086,0.2088279128074646,-20,5871.0,1.5712618827819824,30,9957.0
2580,0.28284749388694763,-1.0452158451080322,-46,5871.0,2.113156795501709,-21,9957.0
2590,0.28255873918533325,-0.4888792932033539,51,5871.0,0.8255030512809753,181,9957.0
2600,0.2822944223880768,0.26070311665534973,-39,5871.0,1.7003581523895264,-162,9957.0
2610,0.2816302478313446,-0.39869463443756104,-72,5871.0,0.36211347579956055,117,9957.0
2620,0.28146106004714966,0.8070021271705627,70,5871.0,-0.29787054657936096,-54,9957.0
2630,0.28125545382499695,-0.1205044537782669,43,5871.0,1.13736891746521,23,9957.0
2640,0.281015008687973,1.6738592386245728,-11,5871.0,-0.6973100304603577,-127,9957.0
2650,0.28074613213539124,-1.1418838500976562,-10,5871.0,0.733726441860199,301,9957.0
2660,0.2826381325721741,0.7004359364509583,8,5871.0,-2.281444549560547,-30,9957.0
2670,0.28252118825912476,-1.3990859985351562,-88,5871.0,-3.2192938327789307,-148,9957.0
2680,0.28241321444511414,-0.7242529392242432,-30,5871.0,-2.43048357963562,-108,9957.0
2690,0.282307505607605,-2.08305287361145,12,5871.0,-4.478571891784668,55,9957.0
2700,0.28329604864120483,-0.4816618859767914,6,5871.0,-1.5527894496917725,-233,9957.0
2710,0.2831398546695709,-1.8564400672912598,-105,5871.0,-2.1338582038879395,108,9957.0
2720,0.282973974943161,-0.6823484897613525,-26,5871.0,1.4990777969360352,97,9957.0
2730,0.2827950716018677,-0.24053335189819336,54,5871.0,4.21120548248291,66,9957.0
2740,0.28259602189064026,0.5707605481147766,-54,5871.0,4.947592258453369,55,9957.0
2750,0.283800333738327,2.407508134841919,172,5871.0,2.937042236328125,139,9957.0
2760,0.2836843729019165,-1.0778082609176636,-79,5871.0,3.190798282623291,-26,9957.0
2770,0.28355565667152405,2.6298365592956543,32,5871.0,-0.28087711334228516,66,9957.0
2780,0.28341352939605713,2.0606508255004883,0,5871.0,0.2719947099685669,-69,9957.0
2790,0.28308534622192383,0.6160493493080139,91,5871.0,-0.08301184326410294,-6,9957.0
2800,0.2829151749610901,-0.37180671095848083,-43,5871.0,-1.0842044353485107,-181,9957.0
2810,0.2827513813972473,-2.234703302383423,-34,5871.0,-7.013108253479004,143,9957.0
2820,0.2825758755207062,-2.438276529312134,5,5871.0,-6.23180627822876,-165,9957.0
2830,0.2838088572025299,-1.8130861520767212,-23,5871.0,-4.92925500869751,-26,9957.0
2840,0.28370144963264465,-2.460202932357788,-96,5871.0,-0.6161609292030334,-129,9957.0
2850,0.28357645869255066,-1.624731421470642,29,5871.0,0.2737436592578888,176,9957.0
2860,0.28346237540245056,0.5033003091812134,-4,5871.0,-0.9148282408714294,-36,9957.0
2870,0.28336918354034424,0.010999446734786034,-26,5871.0,5.06417179107666,176,9957.0
2880,0.2843274772167206,-0.9085160493850708,-59,5871.0,10.287615776062012,83,9957.0
2890,0.2843371331691742,0.04593978822231293,43,5871.0,9.38534927368164,273,9957.0
2900,0.284341424703598,0.10808675736188889,34,5871.0,8.070523262023926,-212,9957.0
2910,0.284365713596344,-0.18973994255065918,-8,5871.0,7.482343673706055,134,9957.0
2920,0.2849608063697815,1.993329405784607,118,5871.0,-0.046975355595350266,9,9957.0
2930,0.2849108576774597,2.8431801795959473,84,5871.0,-1.3273024559020996,34,9957.0
2940,0.2848776578903198,3.341068983078003,66,5871.0,-3.647498846054077,-180,9957.0
2950,0.28487932682037354,3.5596747398376465,-14,5871.0,-3.9514424800872803,104,9957.0
2960,0.2850649952888489,1.2649598121643066,113,5871.0,-1.5694754123687744,-74,9957.0
2970,0.2837865948677063,1.233662724494934,-61,5871.0,-0.5204962491989136,18,9957.0
2980,0.2836545705795288,-1.8327945470809937,-71,5871.0,1.3093189001083374,-5,9957.0
2990,0.2834998667240143,-2.602088451385498,-76,5871.0,3.8348629474639893,251,9957.0
3000,0.28335142135620117,-2.997748613357544,25,5871.0,5.888162612915039,7,9957.0
3010,0.28470760583877563,-0.5847273468971252,-140,5871.0,0.9777427911758423,31,9957.0
3020,0.2846974730491638,-1.7149356603622437,60,5871.0,5.835178852081299,37,9957.0
3030,0.2846716344356537,0.5501965880393982,24,5871.0,1.3522940874099731,81,9957.0
3040,0.2846287190914154,0.2655377984046936,119,5871.0,3.039628267288208,-21,9957.0
3050,0.2855193316936493,0.058400385081768036,-160,5871.0,3.0027427673339844,73,9957.0
3060,0.2854611277580261,-2.7448363304138184,79,5871.0,2.001079797744751,88,9957.0
3070,0.2853795289993286,-2.4729785919189453,-120,5871.0,-0.42686164379119873,-26,9957.0
3080,0.28530746698379517,-2.1092443466186523,-25,5871.0,-2.207378625869751,-71,9957.0
3090,0.2852708399295807,-0.901385486125946,-101,5871.0,-2.434638738632202,-31,9957.0
3100,0.2851165235042572,-0.6224466562271118,174,5871.0,-2.7007741928100586,56,9957.0
3110,0.285051554441452,-1.7801384925842285,-125,5871.0,0.012038870714604855,-71,9957.0
3120,0.285066694021225,-0.05190379172563553,-14,5871.0,-0.03220202401280403,69,9957.0
3130,0.2848851978778839,0.6041423678398132,-24,5871.0,-0.12069486826658249,-42,9957.0
3140,0.28523266315460205,-1.9729458093643188,131,5871.0,1.0802173614501953,1,9957.0
3150,0.2850760519504547,0.0018527196953073144,-86,5871.0,0.23462361097335815,-82,9957.0
3160,0.284918874502182,0.2899009585380554,40,5871.0,0.4223572611808777,162,9957.0
3170,0.28472384810447693,1.6259428262710571,-25,5871.0,1.2033071517944336,20,9957.0
3180,0.28450247645378113,0.6183181405067444,35,5871.0,3.011268377304077,79,9957.0
3190,0.2848590314388275,1.0747885704040527,-22,5871.0,3.023437023162842,-118,9957.0
3200,0.28471851348876953,1.4726672172546387,41,5871.0,1.7787606716156006,304,9957.0
3210,0.284551739692688,3.987565279006958,158,5871.0,2.995016574859619,-118,9957.0
3220,0.28438711166381836,3.445634603500366,-5,5871.0,1.0149880647659302,75,9957.0
3230,0.2860654592514038,4.395617961883545,14,5871.0,-1.878009557723999,-26,9957.0
3240,0.2859437167644501,1.4175602197647095,-17,5871.0,-3.5489425659179688,115,9957.0
3250,0.2858399748802185,2.0181808471679688,141,5871.0,-1.2785226106643677,-71,9957.0
3260,0.28575775027275085,0.09217941761016846,-212,5871.0,-0.14159493148326874,-81,9957.0
3270,0.2870232164859772,1.2323637008666992,117,5871.0,-3.191422939300537,-24,9957.0
3280,0.28704047203063965,-2.3488755226135254,28,5871.0,0.9488750100135803,-22,9957.0
3290,0.28704535961151123,-1.3102333545684814,102,5871.0,-2.6865646839141846,-78,9957.0
3300,0.28703659772872925,-1.1141462326049805,-209,5871.0,-0.3381465971469879,1,9957.0
3310,0.2870323956012726,-2.232231616973877,23,5871.0,0.5248374938964844,155,9957.0
3320,0.28701505064964294,-0.3901616334915161,-42,5871.0,0.6490781903266907,-65,9957.0
3330,0.2870235741138458,-0.28091001510620117,-28,5871.0,2.016390562057495,9,9957.0
3340,0.28704947233200073,0.9138203859329224,-8,5871.0,0.2240302860736847,138,9957.0
3350,0.28705817461013794,1.4390406608581543,132,5871.0,-0.013136802241206169,-96,9957.0
3360,0.28741180896759033,3.81144380569458,-122,5871.0,-2.0347402095794678,-17,9957.0
3370,0.2873636782169342,0.36416739225387573,133,5871.0,-0.7468733787536621,-65,9957.0
3380,0.287301242351532,0.4194004237651825,27,5871.0,-2.4417552947998047,-59,9957.0
3390,0.28723612427711487,-1.020796775817871,46,5871.0,-4.28970193862915,-98,9957.0
3400,0.28716975450515747,-0.46085742115974426,-99,5871.0,-4.359387397766113,-28,9957.0
3410,0.28740793466567993,-1.9738879203796387,105,5871.0,-3.8946852684020996,55,9957.0
3420,0.28728988766670227,0.4211849570274353,-125,5871.0,0.9416770339012146,-58,9957.0
3430,0.28714385628700256,0.20604807138442993,2,5871.0,-0.1561167687177658,-29,9957.0
3440,0.28693029284477234,0.2556622326374054,-69,5871.0,-0.359616756439209,39,9957.0
3450,0.28713294863700867,1.1198164224624634,195,5871.0,-0.014843522571027279,60,9957.0
3460,0.2869742512702942,2.710422992706299,-56,5871.0,0.5355455279350281,-109,9957.0
3470,0.28682225942611694,1.0792784690856934,-2,5871.0,0.35931286215782166,126,9957.0
3480,0.286665678024292,0.8922563195228577,12,5871.0,0.5587424635887146,16,9957.0
3490,0.28680598735809326,0.7188724875450134,16,5871.0,-1.5789813995361328,76,9957.0
3500,0.28666937351226807,-0.79005366563797,-90,5871.0,-1.2206593751907349,-217,9957.0
3510,0.28648728132247925,1.4479126930236816,51,5871.0,-4.626976490020752,88,9957.0
3520,0.28632551431655884,-0.7795844674110413,79,5871.0,-2.4157888889312744,-157,9957.0
3530,0.28618624806404114,-0.8202177882194519,-24,5871.0,-2.2244138717651367,-54,9957.0
3540,0.2871674597263336,-0.4052032232284546,-17,5871.0,0.4344150424003601,-66,9957.0
3550,0.28702232241630554,0.613246500492096,-66,5871.0,0.5500703454017639,130,9957.0
3560,0.2869040071964264,-1.060235857963562,197,5871.0,-0.9733278751373291,-117,9957.0
3570,0.2868119776248932,1.1787549257278442,-91,5871.0,-0.9012703895568848,-114,9957.0
3580,0.28753766417503357,-1.780110239982605,-22,5871.0,2.333054304122925,3,9957.0
3590,0.28742271661758423,-1.9088643789291382,-71,5871.0,2.254399061203003,47,9957.0
3600,0.2871897518634796,-2.8320796489715576,129,5871.0,1.629494309425354,128,9957.0
3610,0.2873564064502716,-3.7482855319976807,-129,5871.0,-0.7003313302993774,-127,9957.0
3620,0.28595542907714844,-3.8135392665863037,-147,5871.0,-1.440865397453308,170,9957.0
3630,0.2858150005340576,-5.607987403869629,-101,5871.0,1.3239911794662476,22,9957.0
3640,0.2856442332267761,-3.275306224822998,15,5871.0,-0.09006340801715851,112,9957.0
3650,0.2854439616203308,0.17609058320522308,18,5871.0,0.1598557084798813,-182,9957.0
3660,0.28519079089164734,3.671229362487793,-37,5871.0,1.9988276958465576,49,9957.0
3670,0.2868453562259674,1.3808892965316772,146,5871.0,0.8682565689086914,25,9957.0
3680,0.2866816818714142,4.190472602844238,18,5871.0,0.784479022026062,56,9957.0
3690,0.2871732711791992,4.826746463775635,105,5871.0,-0.6940533518791199,1,9957.0
3700,0.28709307312965393,3.697523593902588,-79,5871.0,-0.04242713749408722,-72,9957.0
3710,0.2877431809902191,3.5103161334991455,94,5871.0,-5.483688831329346,134,9957.0
3720,0.2876697778701782,-0.7942032814025879,-9,5871.0,4.732574462890625,-141,9957.0
3730,0.28737086057662964,0.1878145933151245,-44,5871.0,-6.195073127746582,-129,9957.0
3740,0.28762298822402954,-1.2358168363571167,-56,5871.0,-1.8011282682418823,-166,9957.0
3750,0.2874618470668793,-3.1254396438598633,-47,5871.0,-2.517137050628662,146,9957.0
3760,0.28800052404403687,-4.5970282554626465,32,5871.0,-0.6330922842025757,-149,9957.0
3770,0.2878377139568329,-2.6432580947875977,-62,5871.0,1.0212805271148682,-43,9957.0
3780,0.28771859407424927,-0.6208568811416626,10,5871.0,1.2700096368789673,14,9957.0
3790,0.2875726819038391,4.827391147613525,22,5871.0,-0.7436010837554932,10,9957.0
3800,0.287451833486557,2.7306976318359375,139,5871.0,1.3181992769241333,45,9957.0
3810,0.287285715341568,1.2522313594818115,-20,5871.0,1.7784795761108398,-258,9957.0
3820,0.28709736466407776,-1.8930944204330444,-14,5871.0,-1.225235104560852,20,9957.0
3830,0.28689420223236084,-0.8744611144065857,7,5871.0,-1.0103051662445068,-66,9957.0
3840,0.28887200355529785,-0.6423454284667969,22,5871.0,-0.14836423099040985,138,9957.0
3850,0.289172887802124,0.38731226325035095,129,5871.0,3.7674243450164795,-2,9957.0
3860,0.28931695222854614,1.2046314477920532,-104,5871.0,0.07031279802322388,26,9957.0
3870,0.2892688810825348,1.9770889282226562,51,5871.0,2.0015571117401123,47,9957.0
3880,0.2891683280467987,3.0738632678985596,8,5871.0,4.483826637268066,68,9957.0
3890,0.290625661611557,3.5185418128967285,180,5871.0,4.57872200012207,147,9957.0
3900,0.29057759046554565,4.097193241119385,30,5871.0,5.784224033355713,-139,9957.0
3910,0.29049447178840637,2.408534288406372,45,5871.0,4.491975784301758,114,9957.0
3920,0.29042986035346985,3.5760810375213623,122,5871.0,2.60744571685791,45,9957.0
3930,0.2916775643825531,0.8338620662689209,27,5871.0,4.493269443511963,65,9957.0
3940,0.2915692627429962,1.4798682928085327,89,5871.0,-0.5672942996025085,-146,9957.0
3950,0.2913719713687897,-3.42022442817688,-37,5871.0,0.335318386554718,76,9957.0
3960,0.29113146662712097,-1.3069928884506226,33,5871.0,-4.373585224151611,-165,9957.0
3970,0.2908284068107605,-1.2393437623977661,-54,5871.0,1.0503817796707153,7,9957.0
3980,0.2892748713493347,0.32332679629325867,6,5871.0,2.2353575229644775,-11,9957.0
3990,0.2888275384902954,1.405856728553772,-72,5871.0,6.612832069396973,163,9957.0
4000,0.28838640451431274,1.2051972150802612,216,5871.0,5.235148906707764,207,9957.0
4010,0.287911057472229,1.8714771270751953,-51,5871.0,9.225968360900879,50,9957.0
4020,0.289877325296402,1.6722429990768433,-12,5871.0,2.5532166957855225,139,9957.0
4030,0.2894429564476013,1.9954477548599243,-23,5871.0,1.3467787504196167,-15,9957.0
4040,0.28903117775917053,1.0012928247451782,-29,5871.0,-4.038808822631836,117,9957.0
4050,0.2887921929359436,-3.0413849353790283,118,5871.0,-6.7031450271606445,-112,9957.0
4060,0.2910449504852295,-2.398926258087158,-143,5871.0,-7.582569122314453,-236,9957.0
4070,0.2908205986022949,-2.725084066390991,-10,5871.0,-5.0046515464782715,-101,9957.0
4080,0.2906360328197479,-3.7235846519470215,-50,5871.0,1.6651045083999634,-93,9957.0
4090,0.2904437780380249,-0.9247210025787354,44,5871.0,1.548449158668518,244,9957.0
4100,0.2902321219444275,-0.5563562512397766,56,5871.0,4.264949798583984,-23,9957.0
4110,0.2915300726890564,1.0607759952545166,-95,5871.0,3.0682740211486816,17,9957.0
4120,0.2913397550582886,0.49672433733940125,29,5871.0,1.6431574821472168,14,9957.0
4130,0.2912463843822479,-0.1880226880311966,-87,5871.0,2.5985968112945557,93,9957.0
4140,0.2910866439342499,-1.786596417427063,103,5871.0,0.8076779842376709,201,9957.0
4150,0.2924724519252777,-3.896188259124756,-72,5871.0,3.443909168243408,-50,9957.0
4160,0.29235899448394775,1.5291428565979004,-49,5871.0,-0.6110014915466309,75,9957.0
4170,0.29224205017089844,1.452172875404358,-9,5871.0,-0.40103432536125183,-29,9957.0
4180,0.2921290695667267,2.459115982055664,-54,5871.0,-0.9941831827163696,69,9957.0
4190,0.2919929325580597,-1.6365678310394287,154,5871.0,1.4835584163665771,162,9957.0
4200,0.2914007902145386,5.026115894317627,-17,5871.0,-3.6883227825164795,-126,9957.0
4210,0.2911781966686249,1.6792144775390625,3,5871.0,-6.608263969421387,-61,9957.0
4220,0.29096949100494385,1.906602144241333,34,5871.0,-3.165085554122925,-134,9957.0
4230,0.29078176617622375,2.5673348903656006,-2,5871.0,-1.008695125579834,84,9957.0
4240,0.2918769121170044,2.217820882797241,200,5871.0,-0.7232648134231567,-62,9957.0
4250,0.2917352616786957,1.5812546014785767,-70,5871.0,0.5058853626251221,7,9957.0
4260,0.2916012704372406,-1.5443562269210815,32,5871.0,-0.4267968535423279,-9,9957.0
4270,0.29143190383911133,-1.361031413078308,-133,5871.0,-0.18166916072368622,-129,9957.0
4280,0.2942143380641937,-2.128034830093384,-108,5871.0,3.8928120136260986,162,9957.0
4290,0.29418307542800903,-0.4134485721588135,30,5871.0,-1.411495327949524,-54,9957.0
4300,0.2941097021102905,1.2897189855575562,-21,5871.0,-1.9593392610549927,-75,9957.0
4310,0.2940199673175812,0.6506625413894653,130,5871.0,2.1745381355285645,-108,9957.0
4320,0.2939109206199646,-0.9650993347167969,-62,5871.0,7.41822624206543,-155,9957.0
4330,0.29551810026168823,0.21169470250606537,9,5871.0,2.893472194671631,162,9957.0
4340,0.2956010103225708,0.24495111405849457,-4,5871.0,4.097561359405518,-55,9957.0
4350,0.2955705225467682,2.1290853023529053,38,5871.0,0.5584465861320496,167,9957.0
4360,0.2955799102783203,3.4580633640289307,135,5871.0,2.302400827407837,-22,9957.0
4370,0.2965945601463318,-1.173015832901001,-97,5871.0,-0.5790671706199646,6,9957.0
4380,0.29671183228492737,-4.33023738861084,3,5871.0,0.9646713137626648,-24,9957.0
4390,0.29681238532066345,-3.246729850769043,-139,5871.0,-0.49189555644989014,-160,9957.0
4400,0.29693490266799927,-2.2300307750701904,27,5871.0,1.0450612306594849,95,9957.0
4410,0.2971039116382599,-2.0496604442596436,28,5871.0,-4.801150321960449,-66,9957.0
4420,0.2993338406085968,-3.0162265300750732,-20,5871.0,-0.2895970940589905,74,9957.0
4430,0.29956117272377014,-2.0511159896850586,71,5871.0,2.475856304168701,6,9957.0
4440,0.2997833788394928,-3.604811906814575,-171,5871.0,4.5004682540893555,39,9957.0
4450,0.29997968673706055,-4.210589408874512,-49,5871.0,4.298120021820068,103,9957.0
4460,0.30016621947288513,-3.0309712886810303,-85,5871.0,6.8151469230651855,17,9957.0
4470,0.30037686228752136,0.057626497000455856,50,5871.0,5.348108291625977,196,9957.0
4480,0.3005448579788208,1.3921570777893066,136,5871.0,5.6688761711120605,-60,9957.0
4490,0.30063676834106445,1.3097811937332153,-67,5871.0,-0.9767124056816101,49,9957.0
4500,0.30068475008010864,1.2457258701324463,47,5871.0,1.1129450798034668,40,9957.0
4510,0.3000118136405945,1.642561435699463,-144,5871.0,-2.5308239459991455,-16,9957.0
4520,0.2999436557292938,-0.64132159948349,-68,5871.0,-6.351644515991211,134,9957.0
4530,0.29980865120887756,-4.358931541442871,-38,5871.0,-2.699514865875244,-61,9957.0
4540,0.2996591031551361,-3.163250684738159,-88,5871.0,-0.42530858516693115,45,9957.0
4550,0.2999979555606842,-3.505847692489624,-7,5871.0,3.139436721801758,-60,9957.0
4560,0.29979684948921204,-0.6289868950843811,12,5871.0,2.0111217498779297,176,9957.0
4570,0.2995772063732147,1.2872116565704346,163,5871.0,5.599735736846924,81,9957.0
4580,0.2993168234825134,4.433788299560547,24,5871.0,0.08718184381723404,4,9957.0
4590,0.3012905418872833,3.475426435470581,126,5871.0,0.7272846102714539,-19,9957.0
4600,0.3011043667793274,1.6771303415298462,24,5871.0,-1.1772408485412598,-214,9957.0
4610,0.3008612096309662,0.42811691761016846,-10,5871.0,0.3720795512199402,-67,9957.0
4620,0.30064037442207336,0.16879892349243164,142,5871.0,-4.602996349334717,35,9957.0
4630,0.3005637228488922,3.3695766925811768,-15,5871.0,0.38540980219841003,99,9957.0
4640,0.3002232015132904,2.5994315147399902,127,5871.0,4.555868625640869,205,9957.0
4650,0.3001047968864441,0.8472578525543213,18,5871.0,11.86496353149414,42,9957.0
4660,0.29995623230934143,4.102112293243408,-12,5871.0,9.685916900634766,171,9957.0
4670,0.29982954263687134,1.1869962215423584,80,5871.0,10.30156421661377,74,9957.0
4680,0.3005636930465698,1.2092187404632568,-65,5871.0,6.438239574432373,-36,9957.0
4690,0.30046018958091736,2.3969292640686035,154,5871.0,3.993086576461792,121,9957.0
4700,0.30035263299942017,-2.2017860412597656,99,5871.0,1.0072938203811646,-1,9957.0
4710,0.3002760410308838,-1.4427744150161743,-23,5871.0,3.1634514331817627,61,9957.0
4720,0.3004843294620514,0.11082608252763748,87,5871.0,0.01562245562672615,46,9957.0
4730,0.30044224858283997,2.8987905979156494,52,5871.0,-5.250150680541992,-243,9957.0
4740,0.3004353642463684,6.582383632659912,-87,5871.0,-6.507939338684082,-33,9957.0
4750,0.3004545569419861,4.328845500946045,143,5871.0,-6.824626922607422,-1,9957.0
4760,0.30047765374183655,1.6938774585723877,-32,5871.0,-0.9232351779937744,-96,9957.0
4770,0.3007352650165558,0.6761384606361389,43,5871.0,-1.9149985313415527,147,9957.0
4780,0.30079901218414307,-0.03407454490661621,70,5871.0,1.8237390518188477,-14,9957.0
4790,0.30092141032218933,-2.8054866790771484,-63,5871.0,4.879805564880371,28,9957.0
4800,0.30106276273727417,-3.9880990982055664,6,5871.0,6.198546886444092,120,9957.0
4810,0.3004038631916046,-4.158592224121094,-112,5871.0,0.9485749006271362,-133,9957.0
4820,0.30040398240089417,-4.017001152038574,-116,5871.0,-0.23712405562400818,31,9957.0
4830,0.3007062077522278,-3.7133238315582275,-44,5871.0,-2.2638683319091797,-2,9957.0
4840,0.30072370171546936,-5.756837368011475,-182,5871.0,-5.582292079925537,-89,9957.0
4850,0.3010500371456146,-4.018799304962158,19,5871.0,-7.853168964385986,4,9957.0
4860,0.3022201657295227,-1.9917387962341309,-32,5871.0,-10.049641609191895,-335,9957.0
4870,0.3024683892726898,2.0630943775177,-88,5871.0,-2.1032869815826416,-123,9957.0
4880,0.3027501702308655,0.514443039894104,35,5871.0,-3.649301767349243,-39,9957.0
4890,0.30302369594573975,-0.6645347476005554,-112,5871.0,-0.24149765074253082,-22,9957.0
4900,0.3039325773715973,-0.6148544549942017,-18,5871.0,-1.3851910829544067,225,9957.0
4910,0.30420738458633423,-2.3025035858154297,-19,5871.0,-0.3754357695579529,-49,9957.0
4920,0.3044768273830414,-2.9732484817504883,-136,5871.0,1.1288166046142578,121,9957.0
4930,0.30471405386924744,-3.389796257019043,17,5871.0,1.265343427658081,-47,9957.0
4940,0.30548375844955444,-0.7215580344200134,-173,5871.0,1.4267830848693848,-94,9957.0
4950,0.3054841458797455,-3.029309034347534,-5,5871.0,2.2717161178588867,66,9957.0
4960,0.30580559372901917,-1.6479583978652954,5,5871.0,-1.639803171157837,-62,9957.0
4970,0.3058042824268341,1.2297606468200684,21,5871.0,-5.8451762199401855,-37,9957.0
4980,0.305992066860199,0.09753885865211487,104,5871.0,-5.236036777496338,-80,9957.0
4990,0.3056004047393799,3.3828651905059814,-108,5871.0,-4.30619478225708,-166,9957.0
5000,0.30567678809165955,2.5780673027038574,77,5871.0,-9.527999877929688,-142,9957.0
5010,0.305685430765152,2.124998092651367,17,5871.0,-7.64158296585083,-143,9957.0
5020,0.30566081404685974,0.8640482425689697,-13,5871.0,-4.709651470184326,33,9957.0
5030,0.3053829073905945,-1.4256097078323364,125,5871.0,-2.6950297355651855,-131,9957.0
5040,0.3052975535392761,-1.0539597272872925,-104,5871.0,2.4036202430725098,0,9957.0
5050,0.3052196800708771,-1.2856189012527466,59,5871.0,3.355679750442505,102,9957.0
5060,0.3051329553127289,3.3505682945251465,-10,5871.0,4.149491310119629,-12,9957.0
5070,0.3049990236759186,3.11352276802063,-18,5871.0,5.894688129425049,187,9957.0
5080,0.30487868189811707,3.398510217666626,186,5871.0,3.8161725997924805,36,9957.0
5090,0.30476492643356323,-1.1439464092254639,-59,5871.0,-0.8606278896331787,-16,9957.0
5100,0.3046412467956543,-0.9726453423500061,47,5871.0,-1.1524235010147095,64,9957.0
5110,0.3045154809951782,-0.8341261148452759,-57,5871.0,-4.1672749519348145,-135,9957.0
5120,0.30504274368286133,-0.7206618785858154,-161,5871.0,-4.040737628936768,-79,9957.0
5130,0.30498987436294556,-1.5332732200622559,31,5871.0,-1.9366289377212524,-80,9957.0
5140,0.3049301505088806,-0.7493596076965332,-38,5871.0,-1.3903766870498657,-137,9957.0
5150,0.30485817790031433,-1.5195242166519165,-30,5871.0,-1.3102465867996216,123,9957.0
5160,0.30564945936203003,0.8563182950019836,131,5871.0,5.091813564300537,33,9957.0
5170,0.30568212270736694,1.4056411981582642,3,5871.0,2.7753889560699463,66,9957.0
5180,0.30573418736457825,2.529904842376709,85,5871.0,6.007169246673584,53,9957.0
5190,0.3057686686515808,4.165466785430908,-52,5871.0,9.833914756774902,64,9957.0
5200,0.3058605492115021,0.6784790754318237,75,5871.0,3.0973405838012695,177,9957.0
5210,0.3059753179550171,0.4959697425365448,31,5871.0,6.555355548858643,80,9957.0
5220,0.3060624301433563,0.07774379104375839,-59,5871.0,5.450475692749023,80,9957.0
5230,0.30616122484207153,-2.4766924381256104,68,5871.0,5.376282691955566,211,9957.0
5240,0.30626147985458374,-5.756182670593262,-134,5871.0,-2.195314407348633,-45,9957.0
5250,0.3066451847553253,-0.49117419123649597,-164,5871.0,-1.1968152523040771,58,9957.0
5260,0.3067980408668518,-0.42740023136138916,28,5871.0,-1.4734063148498535,-85,9957.0
5270,0.30691397190093994,1.1559253931045532,-97,5871.0,-2.4660677909851074,-160,9957.0
5280,0.3070079982280731,1.1508063077926636,-17,5871.0,-4.336336612701416,18,9957.0
5290,0.3063207268714905,0.6684918403625488,123,5871.0,-3.6735568046569824,-37,9957.0
5300,0.30640876293182373,-0.527458131313324,-54,5871.0,5.146000385284424,0,9957.0
5310,0.3065457344055176,2.0785539150238037,102,5871.0,4.584741115570068,211,9957.0
5320,0.3067080080509186,1.7544329166412354,24,5871.0,11.37277603149414,90,9957.0
5330,0.3068642020225525,2.3204689025878906,-126,5871.0,9.411782264709473,99,9957.0
5340,0.30702078342437744,2.2467551231384277,40,5871.0,4.165157318115234,169,9957.0
5350,0.3071962296962738,2.506870985031128,-52,5871.0,4.210265636444092,-42,9957.0
5360,0.3073665201663971,0.9292955994606018,-112,5871.0,3.027022361755371,73,9957.0
5370,0.30752289295196533,-0.9971222281455994,43,5871.0,0.5264003872871399,197,9957.0
5380,0.3085668683052063,-1.475856065750122,-21,5871.0,-2.974398374557495,-170,9957.0
5390,0.3087676465511322,0.11563386023044586,46,5871.0,-1.9718884229660034,46,9957.0
5400,0.3089330196380615,-0.04741392657160759,57,5871.0,-2.4214770793914795,-79,9957.0
5410,0.30909493565559387,2.4042112827301025,-11,5871.0,-7.103690147399902,-177,9957.0
5420,0.3092442452907562,4.2511067390441895,88,5871.0,3.180799961090088,70,9957.0
5430,0.30929070711135864,1.9344128370285034,9,5871.0,1.319097638130188,-70,9957.0
5440,0.309402734041214,0.8104527592658997,-130,5871.0,2.813180685043335,164,9957.0
5450,0.30966395139694214,-0.5217178463935852,53,5871.0,3.415409564971924,123,9957.0
5460,0.3098556399345398,-2.995382785797119,-130,5871.0,1.6545145511627197,-39,9957.0
5470,0.30963295698165894,-2.4780611991882324,-52,5871.0,-0.5715034604072571,148,9957.0
5480,0.30977457761764526,-2.964064359664917,-48,5871.0,6.371768474578857,122,9957.0
5490,0.3099292814731598,-0.45759573578834534,-99,5871.0,-5.700837135314941,-192,9957.0
5500,0.3100665509700775,-1.158839464187622,45,5871.0,1.6544544696807861,-19,9957.0
5510,0.31124192476272583,0.026964757591485977,46,5871.0,-1.9289988279342651,-163,9957.0
5520,0.31136709451675415,0.9877121448516846,-123,5871.0,-0.04072413593530655,-27,9957.0
5530,0.31149667501449585,-0.8763323426246643,73,5871.0,-0.1106838509440422,117,9957.0
5540,0.311649352312088,-0.3764432966709137,-30,5871.0,-0.49037232995033264,-4,9957.0
5550,0.3118167221546173,-0.6337377429008484,-74,5871.0,-0.1251673549413681,120,9957.0
5560,0.31320053339004517,-2.1279685497283936,78,5871.0,0.5441553592681885,79,9957.0
5570,0.31348714232444763,-1.223893642425537,-56,5871.0,3.0592825412750244,-64,9957.0
5580,0.31375619769096375,-5.044665813446045,-91,5871.0,-0.6259506940841675,35,9957.0
5590,0.3139957785606384,-4.24536657333374,-23,5871.0,-4.5349931716918945,-139,9957.0
5600,0.31566497683525085,-2.404212474822998,-70,5871.0,-6.074804782867432,-350,9957.0
5610,0.31595876812934875,-1.7504554986953735,-6,5871.0,0.7289274334907532,142,9957.0
5620,0.31628620624542236,-1.6740115880966187,73,5871.0,4.351135730743408,5,9957.0
5630,0.3165564239025116,0.9010791182518005,-54,5871.0,4.229137420654297,78,9957.0
5640,0.31650587916374207,1.2476794719696045,36,5871.0,3.2394051551818848,313,9957.0
5650,0.3167613744735718,-0.03192045912146568,24,5871.0,4.096923351287842,36,9957.0
5660,0.3169887959957123,-1.3198692798614502,-110,5871.0,3.9435644149780273,46,9957.0
5670,0.317222535610199,-2.888124465942383,-3,5871.0,0.2437952309846878,103,9957.0
5680,0.3174753487110138,-6.3822174072265625,-106,5871.0,2.8035712242126465,-162,9957.0
5690,0.3182218372821808,-5.315680503845215,-203,5871.0,1.8411859273910522,-97,9957.0
5700,0.3184747099876404,-0.42184850573539734,43,5871.0,-6.452048301696777,-76,9957.0
5710,0.31875142455101013,2.290541410446167,126,5871.0,-5.749402046203613,-159,9957.0
5720,0.31902167201042175,5.567749500274658,65,5871.0,-4.6442551612854,-16,9957.0
5730,0.31881317496299744,8.576677322387695,270,5871.0,-2.153087854385376,98,9957.0
5740,0.31910598278045654,9.58024787902832,126,5871.0,-0.030029790475964546,-121,9957.0
5750,0.31945082545280457,6.4105916023254395,46,5871.0,1.898722529411316,99,9957.0
5760,0.31971558928489685,3.418466567993164,133,5871.0,4.261220455169678,58,9957.0
5770,0.32010528445243835,1.634800910949707,-31,5871.0,6.078871726989746,-79,9957.0
5780,0.3198448717594147,1.373098611831665,-51,5871.0,6.066328525543213,78,9957.0
5790,0.3200744688510895,-0.7299497127532959,-85,5871.0,-0.956794023513794,-15,9957.0
5800,0.3202837109565735,-5.529847145080566,-100,5871.0,2.658902406692505,159,9957.0
5810,0.32053500413894653,-3.8368399143218994,67,5871.0,-2.822906017303467,2,9957.0
5820,0.32131537795066833,-0.7176652550697327,-70,5871.0,-2.5180206298828125,-234,9957.0
5830,0.3215256929397583,6.121492385864258,-85,5871.0,-8.662903785705566,-65,9957.0
5840,0.32180055975914,1.1288220882415771,65,5871.0,-7.858169078826904,-89,9957.0
5850,0.3219784200191498,-2.527982473373413,-94,5871.0,-6.3553385734558105,-247,9957.0
5860,0.32314106822013855,-1.1613281965255737,-41,5871.0,-3.8513569831848145,15,9957.0
5870,0.3234907388687134,-5.3568267822265625,45,5871.0,1.3855608701705933,46,9957.0
5880,0.323682576417923,-4.209000110626221,-128,5871.0,3.1439359188079834,-14,9957.0
5890,0.32414838671684265,-5.867362022399902,-61,5871.0,4.77770471572876,261,9957.0
5900,0.3243385851383209,-6.954065799713135,95,5871.0,6.146867275238037,160,9957.0
5910,0.32509955763816833,-5.209290504455566,-211,5871.0,6.795729637145996,101,9957.0
5920,0.32516661286354065,-7.799872875213623,-112,5871.0,7.1437578201293945,167,9957.0
5930,0.3252297639846802,-5.548053741455078,-39,5871.0,2.3304026126861572,-32,9957.0
5940,0.32526201009750366,-9.272457122802734,-260,5871.0,0.9724823832511902,-187,9957.0
5950,0.32489439845085144,-19.94237518310547,-311,5871.0,-4.077145099639893,-6,9957.0
5960,0.3250831663608551,-19.312335968017578,-251,5871.0,-7.866556644439697,-111,9957.0
5970,0.32497355341911316,-18.272750854492188,-335,5871.0,-4.026827335357666,-165,9957.0
5980,0.32492390275001526,-13.232118606567383,-217,5871.0,-7.54623556137085,17,9957.0
5990,0.3247162699699402,-8.151467323303223,-60,5871.0,-6.269233703613281,64,9957.0
6000,0.32326245307922363,-7.17057466506958,-154,5871.0,2.4454352855682373,-9,9957.0
6010,0.323191374540329,-10.625076293945312,-208,5871.0,5.6656060218811035,181,9957.0
6020,0.3231595456600189,-11.09880256652832,-67,5871.0,9.169437408447266,272,9957.0
6030,0.32299694418907166,-9.475214958190918,-207,5871.0,4.929006099700928,93,9957.0
6040,0.3220054805278778,-9.29966926574707,-240,5871.0,5.249215602874756,78,9957.0
6050,0.32189759612083435,-8.592761993408203,-119,5871.0,2.2323338985443115,155,9957.0
6060,0.3217528164386749,-11.716617584228516,-91,5871.0,5.964968204498291,-20,9957.0
6070,0.3216877281665802,-10.600051879882812,-281,5871.0,-3.897193431854248,-289,9957.0
6080,0.321774423122406,-11.774054527282715,-290,5871.0,-6.1283721923828125,-92,9957.0
6090,0.32164478302001953,-10.743545532226562,-72,5871.0,-6.227049827575684,-72,9957.0
6100,0.321564257144928,-6.849145412445068,-91,5871.0,-4.3187150955200195,-191,9957.0
6110,0.32144472002983093,-5.483244895935059,-163,5871.0,-4.010842800140381,-123,9957.0
6120,0.3214205205440521,-2.413508415222168,-46,5871.0,-3.1562976837158203,103,9957.0
6130,0.3211689293384552,-6.840763568878174,8,5871.0,-2.5655627250671387,-62,9957.0
6140,0.32123517990112305,-5.625638961791992,-128,5871.0,-1.2486562728881836,-143,9957.0
6150,0.3211922347545624,-8.770194053649902,-116,5871.0,3.2502918243408203,127,9957.0
6160,0.32116955518722534,-12.095856666564941,-76,5871.0,-2.9485440254211426,-20,9957.0
6170,0.3217839002609253,-1.2520850896835327,-3,5871.0,2.4128730297088623,-73,9957.0
6180,0.3218517303466797,-3.8823537826538086,-87,5871.0,7.818554401397705,171,9957.0
6190,0.32186999917030334,0.3456084132194519,112,5871.0,1.0699204206466675,121,9957.0
6200,0.32189273834228516,1.9856783151626587,132,5871.0,-0.06837287545204163,-66,9957.0
6210,0.32188183069229126,2.9111781120300293,-71,5871.0,-4.682631015777588,-141,9957.0
6220,0.32265791296958923,0.005185270216315985,31,5871.0,-0.45026931166648865,35,9957.0
6230,0.322715163230896,1.4226058721542358,97,5871.0,-3.5276873111724854,-57,9957.0
6240,0.3227182626724243,-0.20368556678295135,-21,5871.0,1.307356595993042,-160,9957.0
6250,0.32273444533348083,-3.3019280433654785,-75,5871.0,4.031245231628418,250,9957.0
6260,0.32357391715049744,-2.8165829181671143,78,5871.0,6.678240776062012,190,9957.0
6270,0.32367178797721863,-3.6696207523345947,-59,5871.0,5.086330413818359,-302,9957.0
6280,0.3237537145614624,1.5345323085784912,-110,5871.0,-0.2724141776561737,88,9957.0
6290,0.32377028465270996,-2.224496841430664,80,5871.0,7.247154235839844,122,9957.0
6300,0.3238338828086853,-0.24036669731140137,-60,5871.0,2.954927921295166,2,9957.0
6310,0.3238963186740875,3.268678903579712,13,5871.0,3.9629955291748047,113,9957.0
6320,0.32396200299263,8.37952995300293,190,5871.0,3.6542201042175293,141,9957.0
6330,0.32404404878616333,2.755202531814575,50,5871.0,1.9242284297943115,11,9957.0
6340,0.32421040534973145,4.7144999504089355,15,5871.0,4.556608200073242,205,9957.0
6350,0.32376936078071594,6.03761100769043,150,5871.0,3.393150806427002,189,9957.0
6360,0.3239189088344574,6.702696800231934,123,5871.0,5.528804302215576,-105,9957.0
6370,0.32407233119010925,7.682509422302246,167,5871.0,0.8847373723983765,133,9957.0
6380,0.3242737054824829,7.3366570472717285,169,5871.0,2.9486141204833984,134,9957.0
6390,0.3246435225009918,6.6461501121521,-30,5871.0,3.3456263542175293,73,9957.0
6400,0.32487666606903076,3.452209711074829,145,5871.0,3.512382745742798,116,9957.0
6410,0.32514488697052,4.118765830993652,71,5871.0,0.14659187197685242,-31,9957.0
6420,0.32546645402908325,3.6519720554351807,-39,5871.0,2.2998902797698975,36,9957.0
6430,0.32580018043518066,3.8393759727478027,122,5871.0,-4.982958793640137,70,9957.0
6440,0.3261704742908478,4.882744312286377,61,5871.0,-1.9650369882583618,-69,9957.0
6450,0.3265313506126404,3.2148597240448,0,5871.0,0.9699645638465881,-23,9957.0
6460,0.3268463611602783,4.289823532104492,194,5871.0,-1.2443259954452515,25,9957.0
6470,0.3271866738796234,5.120053768157959,123,5871.0,1.6840368509292603,-184,9957.0
6480,0.3261243999004364,11.118355751037598,43,5871.0,-0.09930289536714554,-66,9957.0
6490,0.3263808488845825,9.393265724182129,259,5871.0,1.7634859085083008,106,9957.0
6500,0.3266223967075348,8.935955047607422,165,5871.0,8.421585083007812,-17,9957.0
6510,0.3268495202064514,12.848830223083496,112,5871.0,7.699365615844727,108,9957.0
6520,0.3278258442878723,3.8421132564544678,166,5871.0,5.307205677032471,79,9957.0
6530,0.32808324694633484,2.633125066757202,-27,5871.0,5.49337911605835,10,9957.0
6540,0.32830190658569336,-0.009617368690669537,-39,5871.0,4.633304595947266,173,9957.0
6550,0.3284931182861328,-2.1538617610931396,109,5871.0,1.524855136871338,-19,9957.0
6560,0.32867106795310974,1.3530545234680176,-63,5871.0,1.4127345085144043,-24,9957.0
6570,0.3280975818634033,4.136488914489746,88,5871.0,-0.6367610096931458,107,9957.0
6580,0.3282100558280945,6.917818546295166,271,5871.0,-2.6693131923675537,-19,9957.0
6590,0.32833731174468994,12.310462951660156,59,5871.0,0.0957912877202034,-86,9957.0
6600,0.32844436168670654,6.6384172439575195,96,5871.0,-3.2409298419952393,129,9957.0
6610,0.3279685080051422,3.0417070388793945,158,5871.0,1.002714991569519,68,9957.0
6620,0.3281431198120117,2.50253963470459,-25,5871.0,4.380403518676758,-76,9957.0
6630,0.32828930020332336,4.402055263519287,43,5871.0,4.900570392608643,178,9957.0
6640,0.32836392521858215,6.438682556152344,180,5871.0,6.387915134429932,78,9957.0
6650,0.32855701446533203,5.914584159851074,22,5871.0,8.205025672912598,14,9957.0
6660,0.3284618556499481,6.993208408355713,69,5871.0,2.4502155780792236,234,9957.0
6670,0.3286104202270508,7.266523361206055,285,5871.0,4.605468273162842,89,9957.0
6680,0.32876238226890564,6.734651565551758,73,5871.0,5.813596725463867,-52,9957.0
6690,0.32893505692481995,8.846622467041016,61,5871.0,-1.995192050933838,153,9957.0
6700,0.32982245087623596,4.483572483062744,201,5871.0,-3.5742194652557373,33,9957.0
6710,0.32998207211494446,10.845518112182617,-6,5871.0,-9.136022567749023,-172,9957.0
6720,0.330122709274292,2.523169755935669,-16,5871.0,-0.23077480494976044,58,9957.0
6730,0.33021318912506104,0.6738408803939819,121,5871.0,0.8647637367248535,-6,9957.0
6740,0.33093878626823425,1.3047837018966675,-3,5871.0,-0.36849820613861084,-140,9957.0
6750,0.3311298191547394,1.8782354593276978,5,5871.0,1.2708789110183716,83,9957.0
6760,0.33132442831993103,-0.05661897361278534,82,5871.0,1.463960886001587,9,9957.0
6770,0.3314485251903534,0.7493683099746704,-83,5871.0,2.3316450119018555,-76,9957.0
6780,0.33155199885368347,2.201096296310425,-37,5871.0,0.34669843316078186,52,9957.0
6790,0.3315158188343048,-2.2066590785980225,7,5871.0,-4.291007995605469,-71,9957.0
6800,0.33172816038131714,-3.4669365882873535,-112,5871.0,-4.861024856567383,-189,9957.0
6810,0.33189651370048523,-4.983645915985107,-136,5871.0,-6.408020973205566,-26,9957.0
6820,0.3320910632610321,-2.876291275024414,22,5871.0,-6.895082950592041,-45,9957.0
6830,0.3333633244037628,-2.7709970474243164,-141,5871.0,-12.513708114624023,-260,9957.0
6840,0.33368679881095886,-6.08857536315918,-146,5871.0,-8.746456146240234,-59,9957.0
6850,0.3341495394706726,-5.142883777618408,-27,5871.0,-0.7870429754257202,98,9957.0
6860,0.33456161618232727,-1.5272746086120605,-48,5871.0,0.806045413017273,-111,9957.0
6870,0.33498111367225647,3.428349256515503,9,5871.0,2.8274688720703125,94,9957.0
6880,0.33497267961502075,2.6763100624084473,149,5871.0,4.048454284667969,175,9957.0
6890,0.3354329466819763,1.6629164218902588,63,5871.0,8.528855323791504,-87,9957.0
6900,0.3359616994857788,6.993495941162109,-60,5871.0,0.11175781488418579,3,9957.0
6910,0.3364630341529846,1.439314365386963,108,5871.0,1.2905025482177734,10,9957.0
6920,0.3366028964519501,0.4185831844806671,14,5871.0,-1.2688405513763428,-182,9957.0
6930,0.33714500069618225,1.0516955852508545,-182,5871.0,-5.292468547821045,-31,9957.0
6940,0.33767908811569214,4.668252944946289,101,5871.0,-8.818001747131348,37,9957.0
6950,0.33827289938926697,3.9046175479888916,130,5871.0,-7.678293228149414,-161,9957.0
6960,0.3381350040435791,6.5161213874816895,-22,5871.0,-3.3074798583984375,-138,9957.0
6970,0.3386543095111847,4.195323944091797,111,5871.0,-3.58247709274292,94,9957.0
6980,0.33915820717811584,6.463716506958008,168,5871.0,-1.2473533153533936,-24,9957.0
6990,0.3396429717540741,7.422897815704346,77,5871.0,4.066897869110107,187,9957.0
7000,0.34010785818099976,6.913110733032227,223,5871.0,5.672850608825684,13,9957.0
7010,0.3403392732143402,7.5876312255859375,204,5871.0,5.42622709274292,-147,9957.0
7020,0.3407905101776123,5.855891704559326,101,5871.0,0.7963491082191467,215,9957.0
7030,0.34123608469963074,4.923452854156494,120,5871.0,6.664052963256836,23,9957.0
7040,0.34164103865623474,1.349705696105957,-51,5871.0,-2.533889055252075,-92,9957.0
7050,0.3427666127681732,-0.09856675565242767,-18,5871.0,-7.646004676818848,-19,9957.0
7060,0.34318023920059204,-1.8118804693222046,48,5871.0,-4.417993545532227,-130,9957.0
7070,0.3435821235179901,-2.9410507678985596,-134,5871.0,-8.437925338745117,-153,9957.0
7080,0.3439859449863434,-4.651246070861816,-34,5871.0,-5.859921455383301,61,9957.0
7090,0.3444516956806183,-6.24873161315918,-3,5871.0,1.6894919872283936,-106,9957.0
7100,0.3454923927783966,-2.9749670028686523,-110,5871.0,-2.513882637023926,-98,9957.0
7110,0.34598809480667114,0.25870856642723083,54,5871.0,-3.8056459426879883,51,9957.0
7120,0.3464588224887848,0.9459877610206604,74,5871.0,-0.44616493582725525,-22,9957.0
7130,0.34694501757621765,5.828793525695801,3,5871.0,-0.12661191821098328,-151,9957.0
7140,0.34806492924690247,0.30514615774154663,13,5871.0,0.35768914222717285,235,9957.0
7150,0.34862399101257324,-2.2567646503448486,-1,5871.0,-1.5089149475097656,-59,9957.0
7160,0.3491232097148895,-1.9484033584594727,-162,5871.0,-2.051013469696045,-79,9957.0
7170,0.3495911955833435,3.9146344661712646,30,5871.0,-6.711841106414795,-4,9957.0
7180,0.3485023081302643,-0.183477520942688,57,5871.0,-5.336637020111084,-158,9957.0
7190,0.3488497734069824,1.2826786041259766,-68,5871.0,-4.932157039642334,-66,9957.0
7200,0.34917858242988586,0.1319357007741928,38,5871.0,-1.8083276748657227,172,9957.0
7210,0.3495124578475952,-0.08424889296293259,-29,5871.0,-3.16632080078125,-55,9957.0
7220,0.34982407093048096,-2.8768765926361084,-98,5871.0,-2.2388999462127686,-28,9957.0
7230,0.34977415204048157,-2.931614398956299,32,5871.0,-3.6080286502838135,52,9957.0
7240,0.3500795364379883,-3.874821901321411,-87,5871.0,-4.3244733810424805,-144,9957.0
7250,0.35038191080093384,-4.907110214233398,-161,5871.0,-0.4986394941806793,43,9957.0
7260,0.35071712732315063,-3.7085742950439453,43,5871.0,-0.8531666398048401,65,9957.0
7270,0.3514123558998108,-3.5017824172973633,-88,5871.0,-2.751788854598999,-249,9957.0
7280,0.3517829477787018,-0.051267676055431366,-101,5871.0,2.985929012298584,115,9957.0
7290,0.35214561223983765,0.6998640894889832,88,5871.0,3.5992202758789062,123,9957.0
7300,0.3524969220161438,3.8230035305023193,-15,5871.0,2.377995491027832,-37,9957.0
7310,0.3528067469596863,3.268993377685547,-4,5871.0,2.2387125492095947,229,9957.0
7320,0.3523373007774353,0.03905123472213745,131,5871.0,0.9959167242050171,97,9957.0
7330,0.35255110263824463,3.643076181411743,-32,5871.0,4.2045769691467285,-26,9957.0
7340,0.35273975133895874,1.5961135625839233,6,5871.0,-0.298668771982193,148,9957.0
7350,0.3529740273952484,-1.563550591468811,23,5871.0,-1.0459173917770386,-91,9957.0
7360,0.352741539478302,-5.820876598358154,-129,5871.0,-1.3328686952590942,-14,9957.0
7370,0.3529740571975708,-7.229762077331543,23,5871.0,-1.6766027212142944,25,9957.0
7380,0.35326462984085083,-4.1230902671813965,-74,5871.0,-3.7514655590057373,-166,9957.0
7390,0.35357728600502014,-7.677066326141357,-33,5871.0,-1.2750993967056274,212,9957.0
7400,0.3547416627407074,-6.593480587005615,4,5871.0,4.54849100112915,-85,9957.0
7410,0.3551071286201477,1.1473315954208374,-149,5871.0,-1.2699180841445923,-19,9957.0
7420,0.3554670214653015,-0.43044397234916687,24,5871.0,-6.6712541580200195,-49,9957.0
7430,0.35587313771247864,-1.8070801496505737,-46,5871.0,4.016927242279053,-12,9957.0
7440,0.356280118227005,1.2678837776184082,51,5871.0,4.648015022277832,166,9957.0
7450,0.35732215642929077,0.13669906556606293,71,5871.0,2.744100570678711,23,9957.0
7460,0.3581084609031677,-0.02495807595551014,-78,5871.0,5.090481758117676,164,9957.0
7470,0.3586863577365875,-1.7311969995498657,114,5871.0,5.4849443435668945,150,9957.0
7480,0.3591381013393402,-1.3498046398162842,-113,5871.0,1.4130175113677979,-38,9957.0
7490,0.3593248128890991,-1.3385460376739502,3,5871.0,4.3788957595825195,72,9957.0
7500,0.35968393087387085,0.785818338394165,-30,5871.0,2.0156185626983643,-108,9957.0
7510,0.36002227663993835,-2.7459330558776855,-32,5871.0,8.251310348510742,176,9957.0
7520,0.36040031909942627,-2.0104644298553467,0,5871.0,2.2691280841827393,39,9957.0
7530,0.3608464002609253,-0.4887818396091461,-4,5871.0,3.4480273723602295,136,9957.0
7540,0.36055704951286316,0.26523908972740173,149,5871.0,5.562850475311279,9,9957.0
7550,0.3609949052333832,0.7512032389640808,-85,5871.0,2.060553789138794,39,9957.0
7560,0.3614329397678375,-3.0905284881591797,6,5871.0,3.2097318172454834,-23,9957.0
7570,0.3618830740451813,-2.944410562515259,-221,5871.0,0.7913430333137512,-25,9957.0
7580,0.3618066906929016,-5.56026029586792,-7,5871.0,-1.1282086372375488,16,9957.0
7590,0.36227837204933167,-4.003139495849609,-105,5871.0,0.46515631675720215,-69,9957.0
7600,0.36274880170822144,-4.406906604766846,46,5871.0,-1.6913050413131714,52,9957.0
7610,0.3631933629512787,-0.37537357211112976,2,5871.0,1.0416696071624756,-127,9957.0
7620,0.3645746111869812,1.3800214529037476,24,5871.0,-1.3962877988815308,-9,9957.0
7630,0.36516934633255005,4.4198455810546875,51,5871.0,-1.5244966745376587,-7,9957.0
7640,0.3658025562763214,6.223988056182861,185,5871.0,0.3423108756542206,153,9957.0
7650,0.366464227437973,5.505167484283447,84,5871.0,-1.355345606803894,-177,9957.0
7660,0.36706575751304626,5.31228494644165,87,5871.0,0.3467468321323395,74,9957.0
7670,0.3693084418773651,2.113194704055786,-7,5871.0,5.03661584854126,-76,9957.0
7680,0.3700273633003235,1.050032615661621,12,5871.0,0.297811359167099,131,9957.0
7690,0.3707616925239563,2.0552217960357666,88,5871.0,0.15187665820121765,-21,9957.0
7700,0.37144777178764343,0.8718332648277283,-11,5871.0,-0.24975958466529846,78,9957.0
7710,0.37282294034957886,0.13409613072872162,51,5871.0,-2.4347622394561768,-58,9957.0
7720,0.37367257475852966,-0.11846978217363358,-130,5871.0,0.373768150806427,-32,9957.0
7730,0.37432682514190674,-3.4477829933166504,-69,5871.0,-4.106174945831299,-57,9957.0
7740,0.3749544024467468,-2.265050172805786,-163,5871.0,-4.118516445159912,42,9957.0
7750,0.3755429983139038,0.7599270939826965,90,5871.0,-7.415194988250732,-25,9957.0
7760,0.374783992767334,-1.2205651998519897,-32,5871.0,-4.086977005004883,11,9957.0
7770,0.3752359449863434,-0.6296771764755249,125,5871.0,-0.5284023880958557,-67,9957.0
7780,0.3755638003349304,-0.4493483304977417,-56,5871.0,2.475947856903076,-53,9957.0
7790,0.3761870265007019,-1.9253977537155151,126,5871.0,7.57192850112915,-15,9957.0
7800,0.3763355612754822,3.85037899017334,-42,5871.0,6.487385272979736,-54,9957.0
7810,0.3766351640224457,2.9476451873779297,151,5871.0,5.0095696449279785,63,9957.0
7820,0.3769022226333618,3.244324207305908,6,5871.0,5.726254940032959,61,9957.0
7830,0.37730202078819275,4.627890110015869,169,5871.0,4.9047956466674805,131,9957.0
7840,0.37813687324523926,3.1728591918945312,37,5871.0,8.548672676086426,22,9957.0
7850,0.3785243332386017,1.5180580615997314,70,5871.0,4.297641277313232,110,9957.0
7860,0.3786911964416504,2.357907295227051,2,5871.0,4.521760940551758,-102,9957.0
7870,0.3788491189479828,4.791476249694824,135,5871.0,-2.1437294483184814,-25,9957.0
7880,0.37937110662460327,-1.0683526992797852,-32,5871.0,6.450040340423584,-17,9957.0
7890,0.37739086151123047,0.20804236829280853,7,5871.0,5.812801837921143,123,9957.0
7900,0.3772754967212677,-1.2131962776184082,-39,5871.0,1.9374358654022217,-62,9957.0
7910,0.37811022996902466,-3.2265970706939697,-77,5871.0,-2.1630420684814453,106,9957.0
7920,0.37812134623527527,-3.587041139602661,68,5871.0,-6.051018238067627,-174,9957.0
7930,0.3782479465007782,1.9527140855789185,-19,5871.0,-10.823111534118652,-72,9957.0
7940,0.3782977759838104,-1.2818976640701294,110,5871.0,-7.535348892211914,-151,9957.0
7950,0.3787168562412262,-0.1017124280333519,-36,5871.0,-8.888055801391602,-160,9957.0
7960,0.37876272201538086,-1.1201742887496948,12,5871.0,-4.25679349899292,-48,9957.0
7970,0.3801485002040863,-2.2259273529052734,-127,5871.0,0.14424285292625427,-56,9957.0
7980,0.3795263469219208,-4.435784339904785,-15,5871.0,4.035121440887451,131,9957.0
7990,0.37969866394996643,-3.5729804039001465,-136,5871.0,4.764937400817871,-70,9957.0
8000,0.38002386689186096,-6.27810001373291,-102,5871.0,1.8370819091796875,83,9957.0
8010,0.3803407847881317,-8.859439849853516,-159,5871.0,-2.9503815174102783,-167,9957.0
8020,0.3799605369567871,-11.967862129211426,-191,5871.0,-5.539258003234863,-31,9957.0
8030,0.3801776170730591,-12.965550422668457,-152,5871.0,-6.668051719665527,-188,9957.0
8040,0.38037100434303284,-9.647063255310059,-180,5871.0,-4.463220119476318,-30,9957.0
8050,0.38060814142227173,-8.62862491607666,-31,5871.0,-0.6884358525276184,-51,9957.0
8060,0.38092169165611267,-4.610077381134033,-134,5871.0,-2.541759967803955,-29,9957.0
8070,0.38120442628860474,-1.557182788848877,28,5871.0,-1.0185415744781494,189,9957.0
8080,0.3815220892429352,0.8633542656898499,-16,5871.0,-3.954284191131592,-36,9957.0
8090,0.38185766339302063,-0.700676679611206,0,5871.0,5.190919876098633,210,9957.0
8100,0.3821879029273987,0.2840936481952667,45,5871.0,9.347905158996582,13,9957.0
8110,0.38284075260162354,4.872447967529297,29,5871.0,1.4889185428619385,72,9957.0
8120,0.38320550322532654,5.182290077209473,212,5871.0,2.4929654598236084,-37,9957.0
8130,0.3836047649383545,5.5577192306518555,26,5871.0,1.0861207246780396,-107,9957.0
8140,0.38399311900138855,4.91163969039917,150,5871.0,-5.490355968475342,1,9957.0
8150,0.38423773646354675,4.533730506896973,40,5871.0,-2.8625597953796387,-238,9957.0
8160,0.38465064764022827,2.1884100437164307,2,5871.0,-4.844996452331543,49,9957.0
8170,0.38502237200737,0.8082787394523621,34,5871.0,0.25048118829727173,-40,9957.0
8180,0.385343998670578,-2.081023693084717,-143,5871.0,2.694991111755371,4,9957.0
8190,0.3856669068336487,-3.646334648132324,70,5871.0,-0.16373096406459808,-5,9957.0
8200,0.38534483313560486,-1.8462107181549072,-60,5871.0,4.37965726852417,-50,9957.0
8210,0.38569650053977966,-0.6395039558410645,108,5871.0,4.455467700958252,120,9957.0
8220,0.38599538803100586,2.3010151386260986,85,5871.0,-1.0217006206512451,-140,9957.0
8230,0.38626542687416077,3.350346326828003,-25,5871.0,-8.986214637756348,-3,9957.0
8240,0.3847010135650635,5.638193130493164,21,5871.0,-1.8325289487838745,-95,9957.0
8250,0.3848726451396942,7.0508246421813965,123,5871.0,-2.744722366333008,93,9957.0
8260,0.38502299785614014,4.2978901863098145,136,5871.0,1.5936203002929688,-51,9957.0
8270,0.3851560056209564,4.872861385345459,30,5871.0,-1.0802448987960815,67,9957.0
8280,0.3867083191871643,2.7814831733703613,170,5871.0,-2.7316346168518066,-19,9957.0
8290,0.38690686225891113,3.0819153785705566,-52,5871.0,-0.873198926448822,-24,9957.0
8300,0.3871094882488251,2.3551347255706787,96,5871.0,0.9023433327674866,133,9957.0
8310,0.38732200860977173,1.8312140703201294,15,5871.0,3.4308042526245117,29,9957.0
8320,0.38749459385871887,2.96158766746521,43,5871.0,0.8925660848617554,151,9957.0
8330,0.38670244812965393,1.4378591775894165,92,5871.0,0.039746809750795364,-20,9957.0
8340,0.3868946433067322,2.784019708633423,-79,5871.0,-7.359304904937744,-119,9957.0
8350,0.387066513299942,3.042147636413574,73,5871.0,-4.320962905883789,-8,9957.0
8360,0.387220561504364,2.210738182067871,-16,5871.0,-1.827575445175171,-235,9957.0
8370,0.38645559549331665,1.1796241998672485,47,5871.0,-2.796992063522339,12,9957.0
8380,0.3865947723388672,1.800189733505249,37,5871.0,-0.34124651551246643,-156,9957.0
8390,0.3867534399032593,3.056994676589966,-71,5871.0,-0.85063236951828,113,9957.0
8400,0.3869154751300812,1.164262056350708,57,5871.0,0.721010684967041,-33,9957.0
8410,0.38704726099967957,-0.458015501499176,-157,5871.0,1.546205997467041,-31,9957.0
8420,0.3871610164642334,-1.486749529838562,43,5871.0,1.8495609760284424,76,9957.0
8430,0.3873451054096222,-1.0103548765182495,-84,5871.0,5.847066879272461,-1,9957.0
8440,0.38756096363067627,1.6142702102661133,76,5871.0,1.6903342008590698,215,9957.0
8450,0.3877691924571991,2.4021360874176025,42,5871.0,9.19478702545166,79,9957.0
8460,0.38804200291633606,4.12711238861084,47,5871.0,4.819128513336182,106,9957.0
8470,0.38822776079177856,1.5331668853759766,190,5871.0,5.456750392913818,-17,9957.0
8480,0.38848596811294556,4.751764297485352,13,5871.0,-2.419968605041504,-47,9957.0
8490,0.38873785734176636,3.069194793701172,142,5871.0,-6.907037734985352,-29,9957.0
8500,0.3897963762283325,-2.0107827186584473,-34,5871.0,2.931168794631958,-51,9957.0
8510,0.3900490999221802,-1.3544282913208008,-27,5871.0,-0.5147358179092407,73,9957.0
8520,0.3902944326400757,-1.9278544187545776,-23,5871.0,-0.9199362397193909,-61,9957.0
8530,0.39055564999580383,0.5306282639503479,-26,5871.0,0.9840050339698792,48,9957.0
8540,0.3908327519893646,2.28949236869812,97,5871.0,0.9249154329299927,13,9957.0
8550,0.3907630145549774,1.6340898275375366,-17,5871.0,3.786040782928467,27,9957.0
8560,0.39103665947914124,6.041389465332031,151,5871.0,-1.4221127033233643,41,9957.0
8570,0.3912803530693054,2.806551456451416,-30,5871.0,4.074177265167236,-69,9957.0
8580,0.3915577828884125,2.02307391166687,51,5871.0,0.6980618238449097,76,9957.0
8590,0.39189544320106506,0.9135151505470276,-14,5871.0,0.39954695105552673,-129,9957.0
8600,0.3921709656715393,0.9078112244606018,-53,5871.0,-2.176936626434326,-62,9957.0
8610,0.39242294430732727,1.8553107976913452,117,5871.0,0.8483461737632751,-22,9957.0
8620,0.39266151189804077,3.1070234775543213,-36,5871.0,2.3927128314971924,35,9957.0
8630,0.3929048180580139,5.140615463256836,172,5871.0,3.3258025646209717,106,9957.0
8640,0.3923323154449463,3.6059999465942383,20,5871.0,2.891592264175415,16,9957.0
8650,0.392436683177948,3.4601900577545166,54,5871.0,3.346320629119873,189,9957.0
8660,0.39250653982162476,2.175572395324707,24,5871.0,4.984504699707031,54,9957.0
8670,0.3925846815109253,0.7649514675140381,-12,5871.0,2.2457568645477295,221,9957.0
8680,0.3932293653488159,1.481827974319458,70,5871.0,-3.233421564102173,-81,9957.0
8690,0.3933401107788086,-0.3962723910808563,-65,5871.0,-3.2459404468536377,-4,9957.0
8700,0.39339762926101685,-2.872404098510742,52,5871.0,-3.1586155891418457,-60,9957.0
8710,0.3934261202812195,-3.0034399032592773,-169,5871.0,-3.808741807937622,-102,9957.0
8720,0.39488136768341064,-2.746890068054199,36,5871.0,-2.5063095092773438,22,9957.0
8730,0.39501091837882996,0.8976030945777893,-38,5871.0,-3.4136781692504883,-140,9957.0
8740,0.395136296749115,-1.2938666343688965,-24,5871.0,4.216082572937012,164,9957.0
8750,0.3952215015888214,-0.7904192805290222,41,5871.0,3.717392921447754,-97,9957.0
8760,0.39527198672294617,-1.3989942073822021,-128,5871.0,2.9784772396087646,75,9957.0
8770,0.39479926228523254,-1.7588998079299927,15,5871.0,0.8035756349563599,0,9957.0
8780,0.3948501646518707,-0.641744077205658,-114,5871.0,-1.20399010181427,-98,9957.0
8790,0.3949153423309326,-1.8694326877593994,-11,5871.0,-5.9543046951293945,27,9957.0
8800,0.39496809244155884,-3.765507459640503,-64,5871.0,-4.9735331535339355,-170,9957.0
8810,0.3946104347705841,-1.9234273433685303,-58,5871.0,-2.584529399871826,66,9957.0
8820,0.39466148614883423,-0.7127531170845032,54,5871.0,-3.903614044189453,-89,9957.0
8830,0.3947213292121887,-0.41194024682044983,-146,5871.0,-2.705355167388916,37,9957.0
8840,0.3948105573654175,3.321338653564453,114,5871.0,-2.463129758834839,-7,9957.0
8850,0.39491912722587585,-0.9324355125427246,-77,5871.0,1.8825734853744507,62,9957.0
8860,0.3938348591327667,-2.6722524166107178,79,5871.0,3.4548661708831787,64,9957.0
8870,0.39388275146484375,-2.5255043506622314,-98,5871.0,5.46394681930542,42,9957.0
8880,0.39391568303108215,-2.9762625694274902,21,5871.0,2.4825429916381836,120,9957.0
8890,0.3938983678817749,-1.3493825197219849,-86,5871.0,-2.8660032749176025,-78,9957.0
8900,0.39389756321907043,-0.7537880539894104,-19,5871.0,2.1621861457824707,178,9957.0
8910,0.3938574194908142,-2.2102222442626953,1,5871.0,2.8946292400360107,-7,9957.0
8920,0.39382514357566833,-1.7587554454803467,-131,5871.0,1.1772027015686035,60,9957.0
8930,0.39375558495521545,-1.0618219375610352,95,5871.0,3.7684969902038574,95,9957.0
8940,0.393000066280365,-3.40706205368042,-95,5871.0,7.016730308532715,-194,9957.0
8950,0.39288681745529175,1.179529070854187,62,5871.0,-0.5601484179496765,5,9957.0
8960,0.3927864134311676,-0.7581678628921509,43,5871.0,-2.862861156463623,-83,9957.0
8970,0.3926972448825836,1.00593900680542,-77,5871.0,-1.3721743822097778,-4,9957.0
8980,0.39258772134780884,-2.2785468101501465,6,5871.0,-1.0813883543014526,28,9957.0
8990,0.39384689927101135,-4.2407660484313965,-89,5871.0,1.8066431283950806,-150,9957.0
9000,0.3938322365283966,-5.191573143005371,-60,5871.0,0.12147852033376694,61,9957.0
9010,0.3938221037387848,-6.72813081741333,-58,5871.0,2.157305955886841,-106,9957.0
9020,0.3938250243663788,-5.034607887268066,-164,5871.0,1.5524886846542358,-30,9957.0
9030,0.3947030305862427,-3.726114273071289,2,5871.0,-0.19264905154705048,75,9957.0
9040,0.3948048949241638,-5.844758987426758,-151,5871.0,1.6495559215545654,-147,9957.0
9050,0.3949134945869446,-3.6807596683502197,-85,5871.0,4.3644938468933105,85,9957.0
9060,0.3950027525424957,-0.9783986806869507,59,5871.0,-0.7803708910942078,-53,9957.0
9070,0.3950940668582916,1.1058259010314941,-96,5871.0,-2.306028127670288,-99,9957.0
9080,0.3951551020145416,-0.24768443405628204,51,5871.0,0.2935795485973358,85,9957.0
9090,0.3952600955963135,2.5328941345214844,7,5871.0,-1.6050456762313843,-52,9957.0
9100,0.3953768014907837,-0.1873270869255066,-30,5871.0,1.0814098119735718,110,9957.0
9110,0.3954755365848541,-1.2574973106384277,76,5871.0,5.198437690734863,98,9957.0
9120,0.3953712582588196,-2.128523111343384,-92,5871.0,2.2557523250579834,-73,9957.0
9130,0.39545756578445435,0.048985060304403305,70,5871.0,3.8099496364593506,159,9957.0
9140,0.3955446183681488,0.5096692442893982,44,5871.0,2.369824171066284,-74,9957.0
9150,0.39565491676330566,-0.901857316493988,-73,5871.0,-2.2576515674591064,44,9957.0
9160,0.3954679071903229,-1.9688893556594849,91,5871.0,-0.2650763690471649,7,9957.0
9170,0.39560800790786743,-1.865679144859314,-111,5871.0,-2.202521562576294,-146,9957.0
9180,0.395712673664093,-3.5352208614349365,-30,5871.0,-3.815908670425415,26,9957.0
9190,0.39579078555107117,-4.55915641784668,23,5871.0,-5.943618297576904,-95,9957.0
9200,0.3958626687526703,-3.3362503051757812,-142,5871.0,-5.180413246154785,-61,9957.0
9210,0.3955644965171814,-0.5608380436897278,63,5871.0,-2.5489747524261475,117,9957.0
9220,0.395537406206131,3.4609696865081787,16,5871.0,-1.928288221359253,-71,9957.0
9230,0.39553284645080566,0.836517870426178,15,5871.0,2.2318315505981445,127,9957.0
9240,0.3955303430557251,3.285676956176758,164,5871.0,-3.223780393600464,48,9957.0
9250,0.3969050943851471,1.9244201183319092,-22,5871.0,0.9111869931221008,-50,9957.0
9260,0.39693522453308105,-0.6460238099098206,-2,5871.0,-0.3204745054244995,141,9957.0
9270,0.3969454765319824,-2.7622408866882324,-54,5871.0,2.037688732147217,-74,9957.0
9280,0.3969428837299347,-4.03243350982666,-161,5871.0,-3.719301223754883,-6,9957.0
9290,0.39690709114074707,-6.985190391540527,-49,5871.0,-5.767399787902832,-29,9957.0
9300,0.39564889669418335,-7.263647556304932,-121,5871.0,-4.202898979187012,-209,9957.0
9310,0.3954940140247345,-7.1724042892456055,-216,5871.0,-4.248666286468506,-15,9957.0
9320,0.3953506350517273,-5.9383745193481445,-21,5871.0,-1.9433950185775757,8,9957.0
9330,0.3952133357524872,-1.1361732482910156,-112,5871.0,0.19572703540325165,-116,9957.0
9340,0.39579951763153076,-2.880338191986084,-84,5871.0,1.365233302116394,110,9957.0
9350,0.3957580327987671,-0.786811888217926,126,5871.0,5.816235542297363,139,9957.0
9360,0.39573338627815247,2.577303886413574,-74,5871.0,-0.7779566049575806,-46,9957.0
9370,0.39571866393089294,0.6684001684188843,-14,5871.0,-0.9318346977233887,110,9957.0
9380,0.3954167366027832,0.5911019444465637,138,5871.0,1.0864187479019165,-48,9957.0
9390,0.39538490772247314,0.9579066634178162,-19,5871.0,-3.238701581954956,-249,9957.0
9400,0.395397812128067,1.8558303117752075,51,5871.0,-2.892763376235962,55,9957.0
9410,0.3953765630722046,3.258998155593872,141,5871.0,-3.5875489711761475,-84,9957.0
9420,0.3953786790370941,5.124016761779785,10,5871.0,-7.249660968780518,-239,9957.0
9430,0.39482739567756653,1.0177396535873413,31,5871.0,-2.705277681350708,59,9957.0
9440,0.39479076862335205,0.8467270731925964,13,5871.0,-0.9760857224464417,-10,9957.0
9450,0.39474257826805115,2.6550610065460205,-39,5871.0,1.2983876466751099,-190,9957.0
9460,0.3947061598300934,4.214808940887451,147,5871.0,2.581225633621216,184,9957.0
9470,0.39400067925453186,2.8680295944213867,21,5871.0,4.686859130859375,-37,9957.0
9480,0.3939414322376251,0.057956911623477936,25,5871.0,3.787126064300537,106,9957.0
9490,0.3939071595668793,-0.2598554491996765,39,5871.0,3.8422045707702637,134,9957.0
9500,0.3938889503479004,-2.2218704223632812,-114,5871.0,1.9383552074432373,-137,9957.0
9510,0.39388829469680786,-2.8420140743255615,-25,5871.0,0.4119482636451721,68,9957.0
9520,0.39556625485420227,-1.363145112991333,136,5871.0,-5.456434726715088,-165,9957.0
9530,0.3956753611564636,-0.2165117710828781,-56,5871.0,-2.902466058731079,-152,9957.0
9540,0.3957669734954834,-0.3546716868877411,-20,5871.0,-8.39336109161377,40,9957.0
9550,0.3958689570426941,-4.205490589141846,58,5871.0,-4.645689964294434,-119,9957.0
9560,0.3956422209739685,2.574244260787964,-20,5871.0,-3.4822778701782227,-100,9957.0
9570,0.3957713544368744,1.5970041751861572,95,5871.0,-2.6020522117614746,65,9957.0
9580,0.3958723843097687,4.108892917633057,105,5871.0,0.918524980545044,-92,9957.0
9590,0.39598754048347473,4.113297939300537,6,5871.0,3.1811702251434326,54,9957.0
9600,0.3980332314968109,4.995619297027588,158,5871.0,3.9133799076080322,78,9957.0
9610,0.3982527554035187,4.30452299118042,19,5871.0,3.89390230178833,-94,9957.0
9620,0.3984566926956177,2.6831352710723877,53,5871.0,4.030268669128418,259,9957.0
9630,0.3986634612083435,0.8054757714271545,78,5871.0,3.1361255645751953,-11,9957.0
9640,0.39885666966438293,3.7566874027252197,-20,5871.0,1.0662546157836914,-3,9957.0
9650,0.39867454767227173,0.33497321605682373,48,5871.0,0.6212600469589233,104,9957.0
9660,0.39877358078956604,0.03484271466732025,-63,5871.0,1.9350370168685913,-84,9957.0
9670,0.3988490700721741,-0.3819624185562134,-55,5871.0,-0.7965220808982849,96,9957.0
9680,0.3989279568195343,-0.052967991679906845,52,5871.0,-3.631762742996216,-91,9957.0
9690,0.3994169533252716,-1.663131594657898,-102,5871.0,-0.4609624445438385,64,9957.0
9700,0.3994694948196411,-3.046592950820923,32,5871.0,2.4379782676696777,131,9957.0
9710,0.39948707818984985,-2.8997998237609863,-89,5871.0,4.734869956970215,-32,9957.0
9720,0.39954230189323425,-0.31330356001853943,18,5871.0,2.4059836864471436,161,9957.0
9730,0.39960628747940063,1.2570981979370117,91,5871.0,2.6660494804382324,-109,9957.0
9740,0.39938101172447205,0.7213582396507263,-73,5871.0,6.590908050537109,89,9957.0
9750,0.39936113357543945,-1.2586013078689575,30,5871.0,7.517022609710693,172,9957.0
9760,0.3993547558784485,-0.6817729473114014,-65,5871.0,5.699403762817383,9,9957.0
9770,0.3994053304195404,2.23203182220459,59,5871.0,0.2659527063369751,131,9957.0
9780,0.3992895483970642,-0.3301358222961426,88,5871.0,2.034465789794922,-47,9957.0
9790,0.3993177115917206,4.396953582763672,29,5871.0,-1.2133474349975586,35,9957.0
9800,0.3993174731731415,3.5099313259124756,189,5871.0,-1.0755325555801392,20,9957.0
9810,0.3993159830570221,4.170962333679199,26,5871.0,-1.3228496313095093,-72,9957.0
9820,0.3995859622955322,4.378195285797119,108,5871.0,1.0773876905441284,185,9957.0
9830,0.3995944559574127,2.6583786010742188,-15,5871.0,2.0043632984161377,-37,9957.0
9840,0.3996067941188812,1.2116773128509521,10,5871.0,3.577307939529419,199,9957.0
9850,0.3996134102344513,-0.7165200114250183,132,5871.0,2.850104570388794,-43,9957.0
9860,0.39963170886039734,-1.187597393989563,-62,5871.0,2.258115768432617,64,9957.0
9870,0.39979323744773865,-1.9859143495559692,67,5871.0,1.713521122932434,43,9957.0
9880,0.3997838795185089,-2.1688098907470703,-85,5871.0,1.2641574144363403,-6,9957.0
9890,0.39972594380378723,-1.1524032354354858,20,5871.0,1.0301384925842285,83,9957.0
9900,0.3996451795101166,-2.9500155448913574,16,5871.0,-0.60630863904953,-117,9957.0
9910,0.39970216155052185,-0.32373225688934326,13,5871.0,-1.0145009756088257,53,9957.0
9920,0.3996199071407318,0.23381225764751434,142,5871.0,-0.2250036746263504,-59,9957.0
9930,0.399502158164978,2.727942705154419,-6,5871.0,-0.7159372568130493,22,9957.0
9940,0.3993726968765259,3.1887474060058594,114,5871.0,1.423392653465271,102,9957.0
9950,0.39925020933151245,3.6170783042907715,26,5871.0,-1.1685512065887451,-141,9957.0
9960,0.3990183472633362,3.826154947280884,62,5871.0,-2.4778549671173096,101,9957.0
9970,0.39888831973075867,0.16368921101093292,100,5871.0,1.104892611503601,-136,9957.0
9980,0.3987470269203186,3.6733784675598145,-14,5871.0,-2.144827365875244,33,9957.0
9990,0.39858242869377136,2.01613450050354,128,5871.0,-4.420238971710205,-84,9957.0
10000,0.3977522850036621,0.0482122041285038,-47,5871.0,-2.056490659713745,-56,9957.0
10010,0.39751195907592773,-0.39148464798927307,70,5871.0,0.019937219098210335,132,9957.0
10020,0.3972628712654114,-1.5164496898651123,-61,5871.0,1.3004517555236816,-58,9957.0
10030,0.39699530601501465,-3.6294331550598145,-44,5871.0,2.778517007827759,201,9957.0
10040,0.3960256278514862,-2.8933138847351074,-87,5871.0,2.939030647277832,-52,9957.0
10050,0.3957653045654297,-2.954770565032959,-111,5871.0,0.45951157808303833,125,9957.0
10060,0.3955569267272949,-4.954278469085693,40,5871.0,1.1691291332244873,-137,9957.0
10070,0.3953617513179779,-1.812252402305603,-115,5871.0,3.191772937774658,88,9957.0
10080,0.39517855644226074,-1.679527759552002,66,5871.0,0.7402978539466858,-88,9957.0
10090,0.3941088020801544,-0.14591223001480103,-110,5871.0,3.421433687210083,109,9957.0
10100,0.39390790462493896,1.8496650457382202,143,5871.0,2.7344229221343994,44,9957.0
10110,0.3937326669692993,1.9473581314086914,-17,5871.0,4.52650785446167,-105,9957.0
10120,0.3935411870479584,2.610264301300049,112,5871.0,4.099061489105225,194,9957.0
10130,0.3950975835323334,0.07445088773965836,-11,5871.0,7.2302422523498535,-122,9957.0
10140,0.3950110971927643,-0.6892916560173035,11,5871.0,0.5743388533592224,52,9957.0
10150,0.3949706554412842,-2.986673355102539,-33,5871.0,-1.5304337739944458,-177,9957.0
10160,0.39495334029197693,-2.7906055450439453,-132,5871.0,-7.195215702056885,-54,9957.0
10170,0.3949545919895172,-4.746361255645752,19,5871.0,-0.004268990829586983,-18,9957.0
10180,0.3945358097553253,-2.583974838256836,-179,5871.0,2.010711431503296,103,9957.0
10190,0.3945332169532776,-0.516327977180481,25,5871.0,4.360157012939453,71,9957.0
10200,0.3945794701576233,1.1282923221588135,-31,5871.0,5.011821269989014,-73,9957.0
10210,0.3946603536605835,-0.9783831834793091,32,5871.0,4.44557523727417,177,9957.0
10220,0.3936391770839691,-0.6213629245758057,-56,5871.0,3.4589290618896484,-69,9957.0
10230,0.39362967014312744,-1.2988905906677246,-25,5871.0,2.173358917236328,122,9957.0
10240,0.393619179725647,-2.6465978622436523,-20,5871.0,-3.56974720954895,-165,9957.0
10250,0.3936494290828705,-1.4428590536117554,-69,5871.0,-6.11888313293457,-9,9957.0
10260,0.3934221565723419,-1.5692819356918335,27,5871.0,-10.366863250732422,-149,9957.0
10270,0.39343732595443726,-1.8296482563018799,-74,5871.0,-10.756878852844238,-26,9957.0
10280,0.3934686481952667,-6.103863716125488,-25,5871.0,-2.00738525390625,-96,9957.0
10290,0.39346304535865784,-4.526367664337158,-113,5871.0,-0.4917500913143158,7,9957.0
10300,0.3934347927570343,-4.168440341949463,-3,5871.0,1.571315050125122,-77,9957.0
10310,0.3920977711677551,-1.9630672931671143,-171,5871.0,0.19702944159507751,67,9957.0
10320,0.39207693934440613,-1.7521021366119385,11,5871.0,1.47023606300354,13,9957.0
10330,0.39209800958633423,0.8225236535072327,-68,5871.0,2.783059597015381,55,9957.0
10340,0.39211800694465637,-1.0437437295913696,138,5871.0,1.5431883335113525,-63,9957.0
10350,0.394008994102478,2.2573983669281006,-23,5871.0,0.11424046009778976,94,9957.0
10360,0.394044429063797,2.219433546066284,203,5871.0,-3.1383800506591797,-29,9957.0
10370,0.3940946161746979,2.704763174057007,-46,5871.0,-4.349946975708008,-26,9957.0
10380,0.394170880317688,1.0720183849334717,101,5871.0,-3.0619800090789795,-117,9957.0
10390,0.39427128434181213,2.796788215637207,-121,5871.0,2.0355963706970215,-1,9957.0
10400,0.3950917720794678,1.9332219362258911,-5,5871.0,0.7235169410705566,29,9957.0
10410,0.3951888978481293,0.6225157380104065,-101,5871.0,2.9918363094329834,138,9957.0
10420,0.3952537178993225,-2.248962879180908,65,5871.0,5.0257039070129395,68,9957.0
10430,0.3952515721321106,1.1900180578231812,-48,5871.0,4.754978656768799,140,9957.0
10440,0.3946877717971802,0.12526248395442963,111,5871.0,-1.251230001449585,-87,9957.0
10450,0.394606351852417,0.45875391364097595,-97,5871.0,-1.6108276844024658,22,9957.0
10460,0.3945167660713196,0.0034196225460618734,32,5871.0,-2.9964358806610107,-150,9957.0
10470,0.39443665742874146,2.8357608318328857,-82,5871.0,-3.636228084564209,-18,9957.0
10480,0.3958244323730469,4.374241352081299,115,5871.0,-6.306591987609863,-151,9957.0
10490,0.39582961797714233,5.981472492218018,44,5871.0,-2.926434278488159,103,9957.0
10500,0.39583030343055725,3.869964838027954,140,5871.0,-1.5788843631744385,-92,9957.0
10510,0.39578691124916077,4.669477462768555,51,5871.0,-2.660639762878418,49,9957.0
10520,0.39570239186286926,1.5911691188812256,36,5871.0,-0.25884994864463806,-128,9957.0
10530,0.3969637453556061,2.3526248931884766,55,5871.0,-3.716256856918335,-72,9957.0
10540,0.3969486951828003,0.8260583877563477,-13,5871.0,1.4836788177490234,-190,9957.0
10550,0.3969428539276123,-0.19655026495456696,-20,5871.0,-2.030205011367798,-36,9957.0
10560,0.3969559073448181,-1.6727162599563599,-90,5871.0,-1.388248085975647,-92,9957.0
10570,0.3973739445209503,-3.7390971183776855,24,5871.0,-3.309654474258423,-63,9957.0
10580,0.3974105715751648,-1.2502222061157227,-57,5871.0,-4.078339099884033,-22,9957.0
10590,0.39743760228157043,-1.0453553199768066,145,5871.0,-1.8545594215393066,-11,9957.0
10600,0.39742201566696167,4.165396213531494,10,5871.0,-2.629166841506958,-9,9957.0
10610,0.39742571115493774,3.7812397480010986,149,5871.0,-2.197625160217285,-70,9957.0
10620,0.3963029682636261,10.212898254394531,-3,5871.0,2.059189558029175,21,9957.0
10630,0.39614805579185486,7.0967936515808105,99,5871.0,1.3268119096755981,-28,9957.0
10640,0.39604318141937256,5.9988274574279785,-5,5871.0,1.2412770986557007,50,9957.0
10650,0.3959161937236786,5.098954677581787,91,5871.0,0.030578533187508583,-13,9957.0
10660,0.3974806070327759,3.2325332164764404,37,5871.0,0.06592505425214767,218,9957.0
10670,0.3974594473838806,3.0906529426574707,33,5871.0,2.316685199737549,-1,9957.0
10680,0.39737334847450256,2.9810049533843994,75,5871.0,0.6692255735397339,159,9957.0
10690,0.3972770869731903,0.3260905146598816,14,5871.0,5.06193733215332,62,9957.0
10700,0.3971090018749237,1.464220643043518,84,5871.0,8.052013397216797,24,9957.0
10710,0.3960036039352417,4.470266342163086,40,5871.0,2.528116226196289,-119,9957.0
10720,0.39569807052612305,3.24650502204895,181,5871.0,2.494711399078369,-33,9957.0
10730,0.39538058638572693,3.522210121154785,43,5871.0,1.6681044101715088,175,9957.0
10740,0.39506515860557556,2.149278402328491,96,5871.0,-2.4568731784820557,-97,9957.0
10750,0.3943594694137573,-1.0640461444854736,-10,5871.0,-1.6192631721496582,-10,9957.0
10760,0.39410850405693054,-2.3586320877075195,-33,5871.0,-0.7817448973655701,-206,9957.0
10770,0.3938682973384857,-1.001890778541565,-78,5871.0,-2.4949710369110107,59,9957.0
10780,0.3936026394367218,-1.9252370595932007,-53,5871.0,3.639752149581909,-61,9957.0
10790,0.3946191668510437,-1.0681602954864502,-7,5871.0,5.456234931945801,257,9957.0
10800,0.3943457007408142,1.3445510864257812,-23,5871.0,7.011844158172607,80,9957.0
10810,0.39404383301734924,0.3311472535133362,54,5871.0,5.534496307373047,220,9957.0
10820,0.3937370777130127,0.2505077123641968,-15,5871.0,6.019845485687256,-13,9957.0
10830,0.39345985651016235,-0.275799423456192,-20,5871.0,3.4986023902893066,85,9957.0
10840,0.39305806159973145,-1.8781837224960327,-48,5871.0,1.859609603881836,-190,9957.0
10850,0.3928386867046356,-2.5511233806610107,-81,5871.0,-2.951151132583618,86,9957.0
10860,0.39261332154273987,-4.457579135894775,-120,5871.0,-1.3010022640228271,-111,9957.0
10870,0.392395943403244,-2.822697877883911,-45,5871.0,-5.4991774559021,59,9957.0
10880,0.3936005234718323,-2.324061393737793,-15,5871.0,-5.553154945373535,-99,9957.0
10890,0.3934549391269684,-1.7080693244934082,-31,5871.0,-4.199175834655762,38,9957.0
10900,0.39333289861679077,0.02362048625946045,35,5871.0,-4.522579193115234,-114,9957.0
10910,0.3932526409626007,-0.024827295914292336,-76,5871.0,-0.05320601537823677,62,9957.0
10920,0.3930995464324951,-1.5283236503601074,12,5871.0,2.0983939170837402,-103,9957.0
10930,0.39305540919303894,-0.4720914363861084,-119,5871.0,0.6916458606719971,98,9957.0
10940,0.3929575979709625,-2.9273531436920166,-19,5871.0,2.861065626144409,-24,9957.0
10950,0.39296162128448486,-3.053375244140625,-112,5871.0,1.7503412961959839,213,9957.0
10960,0.3927375078201294,-7.457424640655518,-14,5871.0,0.1910196989774704,-63,9957.0
10970,0.39126747846603394,-3.459927558898926,-108,5871.0,-3.3790547847747803,17,9957.0
10980,0.3909146785736084,-5.567365646362305,43,5871.0,-3.0307798385620117,-131,9957.0
10990,0.3909098505973816,-4.75697660446167,-150,5871.0,-7.46350622177124,-90,9957.0
11000,0.3904917240142822,-3.9361910820007324,28,5871.0,-7.899526596069336,-158,9957.0
11010,0.3918299376964569,-1.2518539428710938,-148,5871.0,-1.6482685804367065,-95,9957.0
11020,0.3916637599468231,-1.8972833156585693,-19,5871.0,-3.0689237117767334,-35,9957.0
11030,0.39149704575538635,-1.1976580619812012,-96,5871.0,-1.9334461688995361,-81,9957.0
11040,0.3913423418998718,-1.0134387016296387,111,5871.0,1.1026883125305176,-40,9957.0
11050,0.39120054244995117,0.21089714765548706,-70,5871.0,0.4288833737373352,31,9957.0
11060,0.39105120301246643,-1.7798168659210205,72,5871.0,4.329923152923584,95,9957.0
11070,0.3908013105392456,-2.7435061931610107,-94,5871.0,2.8166377544403076,98,9957.0
11080,0.39080214500427246,-2.306156635284424,64,5871.0,2.5676257610321045,31,9957.0
11090,0.39050233364105225,-3.805711030960083,-177,5871.0,3.3604371547698975,65,9957.0
11100,0.3899296224117279,-3.9131228923797607,-2,5871.0,-1.9880881309509277,-47,9957.0
11110,0.38964900374412537,-3.3437530994415283,-144,5871.0,-5.183417797088623,-81,9957.0
11120,0.38965240120887756,-3.473129987716675,18,5871.0,-6.06718635559082,-195,9957.0
11130,0.3894488215446472,-3.21923828125,-131,5871.0,-2.766662836074829,-54,9957.0
11140,0.3892762362957001,-2.7591609954833984,84,5871.0,-2.8673593997955322,22,9957.0
11150,0.3890514671802521,0.8778517246246338,-9,5871.0,-2.2109627723693848,42,9957.0
11160,0.3890516757965088,0.226291686296463,143,5871.0,-0.29022037982940674,-64,9957.0
11170,0.3888804316520691,2.153630018234253,-31,5871.0,-0.3892340362071991,-28,9957.0
11180,0.3887091875076294,2.3569347858428955,103,5871.0,-1.774182915687561,-69,9957.0
11190,0.3879327178001404,3.7486214637756348,-52,5871.0,-1.4742755889892578,-2,9957.0
11200,0.3877726197242737,1.3387192487716675,39,5871.0,2.6229238510131836,5,9957.0
11210,0.38762402534484863,-0.42044100165367126,-84,5871.0,2.833333969116211,160,9957.0
11220,0.38749730587005615,-0.4721375107765198,18,5871.0,5.228577613830566,73,9957.0
11230,0.38682788610458374,-2.9432899951934814,-52,5871.0,6.186222076416016,302,9957.0
11240,0.3866007626056671,-3.8708255290985107,-26,5871.0,2.978501319885254,20,9957.0
11250,0.38633012771606445,-4.355832576751709,-35,5871.0,1.5278739929199219,95,9957.0
11260,0.3859931230545044,-3.3794069290161133,-45,5871.0,-3.8553178310394287,-147,9957.0
11270,0.3856072425842285,-1.730942726135254,-25,5871.0,-4.533878326416016,-36,9957.0
11280,0.3859381377696991,0.6967724561691284,-21,5871.0,-4.745781421661377,-182,9957.0
11290,0.385625958442688,-0.5451059937477112,5,5871.0,-4.998810768127441,-33,9957.0
11300,0.38532811403274536,2.89400053024292,37,5871.0,-7.6070098876953125,-168,9957.0
11310,0.38501352071762085,3.4306328296661377,183,5871.0,-2.7964718341827393,-23,9957.0
11320,0.38440966606140137,3.786008596420288,-12,5871.0,1.9614784717559814,29,9957.0
11330,0.3840373158454895,0.4950559139251709,68,5871.0,5.892088890075684,-8,9957.0
11340,0.38363268971443176,0.5177586674690247,-94,5871.0,9.528779983520508,254,9957.0
11350,0.3832254409790039,-4.906284809112549,-49,5871.0,14.446938514709473,117,9957.0
11360,0.3832560181617737,-4.630573749542236,-169,5871.0,9.17847728729248,171,9957.0
11370,0.38289007544517517,-3.9305903911590576,-80,5871.0,6.548823833465576,84,9957.0
11380,0.3825896084308624,-4.08834981918335,-111,5871.0,-0.15666724741458893,162,9957.0
11390,0.38229385018348694,-4.273996353149414,58,5871.0,-5.040060043334961,-141,9957.0
11400,0.3820100724697113,-3.0017192363739014,-26,5871.0,-9.234162330627441,-141,9957.0
11410,0.382222980260849,-0.9956552982330322,45,5871.0,-12.993215560913086,-236,9957.0
11420,0.38193538784980774,-1.061691403388977,-87,5871.0,-13.335679054260254,-188,9957.0
11430,0.38166749477386475,2.72617506980896,93,5871.0,-9.179537773132324,-201,9957.0
11440,0.38141703605651855,3.193849802017212,-79,5871.0,-7.209282875061035,-32,9957.0
11450,0.38156917691230774,2.3965487480163574,60,5871.0,3.170421600341797,8,9957.0
11460,0.38142308592796326,0.3704855740070343,-84,5871.0,7.996214389801025,278,9957.0
11470,0.3813207149505615,-0.2829461097717285,43,5871.0,11.225515365600586,161,9957.0
11480,0.38123148679733276,-1.134391188621521,-42,5871.0,9.887908935546875,305,9957.0
11490,0.38110053539276123,-3.461489200592041,33,5871.0,7.682231426239014,53,9957.0
11500,0.38096487522125244,0.03495979309082031,9,5871.0,1.0503950119018555,86,9957.0
11510,0.3808165490627289,0.9028847813606262,39,5871.0,-4.9582953453063965,-216,9957.0
11520,0.3806641101837158,0.15578347444534302,35,5871.0,-7.903682231903076,-132,9957.0
11530,0.3805357813835144,1.6216156482696533,1,5871.0,-6.799741744995117,-301,9957.0
11540,0.3814193904399872,2.0744924545288086,-16,5871.0,-10.362203598022461,-15,9957.0
11550,0.38137322664260864,3.2425050735473633,21,5871.0,-4.129613876342773,-181,9957.0
11560,0.3813159465789795,0.6801510453224182,52,5871.0,0.8306517601013184,95,9957.0
11570,0.38122278451919556,3.1142399311065674,-23,5871.0,-0.6336027979850769,40,9957.0
11580,0.38143086433410645,-0.8167404532432556,58,5871.0,3.029970169067383,75,9957.0
11590,0.38129785656929016,-2.198392868041992,-59,5871.0,4.876409530639648,76,9957.0
11600,0.38115745782852173,-2.277414321899414,49,5871.0,2.4686944484710693,102,9957.0
11610,0.3810350298881531,-3.4606690406799316,-138,5871.0,2.6157383918762207,116,9957.0
11620,0.3809785842895508,-2.777228593826294,5,5871.0,3.112215995788574,51,9957.0
11630,0.3813697099685669,-1.4321608543395996,-119,5871.0,3.077946662902832,-35,9957.0
11640,0.381405770778656,0.47377991676330566,48,5871.0,-3.556199789047241,-49,9957.0
11650,0.38143178820610046,-0.02010718733072281,-56,5871.0,-6.2266716957092285,-68,9957.0
11660,0.3814116418361664,0.6206268668174744,133,5871.0,-4.659646511077881,-91,9957.0
11670,0.38198360800743103,1.559067726135254,-16,5871.0,-5.613916397094727,-65,9957.0
11680,0.38193419575691223,2.001995801925659,174,5871.0,-2.966257333755493,-73,9957.0
11690,0.38188421726226807,4.80113410949707,8,5871.0,0.9348304867744446,174,9957.0
11700,0.38183706998825073,2.3422579765319824,132,5871.0,2.9529082775115967,20,9957.0
11710,0.38181936740875244,3.019487142562866,-11,5871.0,7.655313491821289,167,9957.0
11720,0.3802850544452667,2.549470901489258,103,5871.0,7.632589340209961,-5,9957.0
11730,0.38019734621047974,5.577790260314941,15,5871.0,5.195352077484131,181,9957.0
11740,0.38010919094085693,4.402822494506836,79,5871.0,2.331692695617676,59,9957.0
11750,0.38000375032424927,4.765460968017578,45,5871.0,1.4224532842636108,124,9957.0
11760,0.38028594851493835,5.717589378356934,176,5871.0,-7.859123229980469,-111,9957.0
11770,0.3801177740097046,3.4693422317504883,54,5871.0,-3.917546510696411,6,9957.0
11780,0.37995365262031555,1.1731384992599487,119,5871.0,-1.3365544080734253,-167,9957.0
11790,0.37986668944358826,0.3559049069881439,7,5871.0,-4.943217754364014,-58,9957.0
11800,0.37870097160339355,0.3874202370643616,16,5871.0,-5.480312824249268,-234,9957.0
11810,0.3784869611263275,0.40792518854141235,12,5871.0,-4.719951152801514,-5,9957.0
11820,0.3782757520675659,0.5326136350631714,10,5871.0,0.2617802023887634,-96,9957.0
11830,0.37802654504776,-0.9066468477249146,37,5871.0,1.0706424713134766,121,9957.0
11840,0.37772253155708313,-0.7031201124191284,-19,5871.0,4.913333892822266,-118,9957.0
11850,0.378031849861145,-2.298269510269165,-49,5871.0,5.879702568054199,220,9957.0
11860,0.37769636511802673,-3.066398859024048,-71,5871.0,1.8158061504364014,4,9957.0
11870,0.37737253308296204,-3.6230087280273438,-55,5871.0,-0.9246249198913574,178,9957.0
11880,0.37708932161331177,-1.0223067998886108,-21,5871.0,1.7913047075271606,-35,9957.0
11890,0.3772670328617096,-1.024907112121582,59,5871.0,1.5061966180801392,137,9957.0
11900,0.3769979178905487,3.3697471618652344,102,5871.0,1.7014089822769165,-80,9957.0
11910,0.3767339289188385,3.496166944503784,-2,5871.0,1.4146480560302734,100,9957.0
11920,0.376484751701355,1.6753863096237183,-52,5871.0,5.336695671081543,30,9957.0
11930,0.37619996070861816,-0.3378094732761383,80,5871.0,3.687105655670166,239,9957.0
11940,0.3767480254173279,-0.12623590230941772,-30,5871.0,4.881939888000488,30,9957.0
11950,0.37657082080841064,0.6252830028533936,14,5871.0,4.189150810241699,201,9957.0
11960,0.37639737129211426,1.9411704540252686,56,5871.0,2.4327263832092285,-66,9957.0
11970,0.3762626647949219,1.7911927700042725,62,5871.0,2.7028167247772217,127,9957.0
11980,0.3749116063117981,0.23138971626758575,49,5871.0,5.212892532348633,78,9957.0
11990,0.3746688663959503,3.8343584537506104,41,5871.0,5.386176109313965,170,9957.0
12000,0.37445634603500366,4.112574577331543,129,5871.0,6.241546630859375,-5,9957.0
12010,0.374277263879776,4.2528395652771,-107,5871.0,8.110198020935059,104,9957.0
12020,0.3748144507408142,2.8502728939056396,80,5871.0,5.2022223472595215,150,9957.0
12030,0.3746647536754608,0.8648790717124939,-61,5871.0,10.457253456115723,135,9957.0
12040,0.37447240948677063,3.1323699951171875,63,5871.0,4.280730724334717,206,9957.0
12050,0.37424352765083313,3.559932231903076,-14,5871.0,-0.7689619064331055,-18,9957.0
12060,0.3740289509296417,3.376030445098877,106,5871.0,-1.4112799167633057,57,9957.0
12070,0.3735091984272003,2.8140528202056885,116,5871.0,-2.9257936477661133,-91,9957.0
12080,0.3732635974884033,1.894148349761963,-58,5871.0,-1.3762097358703613,62,9957.0
12090,0.37296634912490845,-0.23315274715423584,87,5871.0,0.774850606918335,31,9957.0
12100,0.3726462125778198,-3.5424983501434326,-204,5871.0,3.8436625003814697,-65,9957.0
12110,0.37030306458473206,-3.0749759674072266,-10,5871.0,-2.227884292602539,33,9957.0
12120,0.36987146735191345,-4.927206516265869,-133,5871.0,0.4521699845790863,-127,9957.0
12130,0.3694624900817871,-6.877936840057373,-105,5871.0,-0.012126642279326916,91,9957.0
12140,0.3690425455570221,-4.801068305969238,-47,5871.0,2.3636984825134277,99,9957.0
12150,0.36910027265548706,-3.8466105461120605,-90,5871.0,2.9879417419433594,79,9957.0
12160,0.3687179386615753,-1.4972906112670898,111,5871.0,5.018866539001465,39,9957.0
12170,0.368324875831604,-2.416334390640259,32,5871.0,0.5900934338569641,-135,9957.0
12180,0.36794403195381165,1.2668554782867432,65,5871.0,-1.9675588607788086,26,9957.0
12190,0.36754855513572693,-0.17216818034648895,57,5871.0,3.031006097793579,-127,9957.0
12200,0.3682584762573242,-1.1079291105270386,-102,5871.0,1.9217743873596191,34,9957.0
12210,0.36797410249710083,3.5185306072235107,107,5871.0,-7.086509704589844,20,9957.0
12220,0.36762523651123047,4.072911739349365,27,5871.0,-2.0194973945617676,-109,9957.0
12230,0.3672465980052948,5.586606025695801,83,5871.0,0.7101064324378967,264,9957.0
12240,0.3672909140586853,2.9975080490112305,74,5871.0,3.4031717777252197,-13,9957.0
12250,0.3669707775115967,3.4064524173736572,-39,5871.0,0.5594058632850647,78,9957.0
12260,0.3666952848434448,1.6302855014801025,138,5871.0,-0.28016430139541626,19,9957.0
12270,0.3663817048072815,-0.41321972012519836,-90,5871.0,-2.559330463409424,-71,9957.0
12280,0.36607933044433594,-4.306451320648193,-40,5871.0,-3.3708736896514893,42,9957.0
12290,0.3674621284008026,-5.0150651931762695,-115,5871.0,-0.48278164863586426,-167,9957.0
12300,0.3672730624675751,-5.177948951721191,-121,5871.0,-5.738735198974609,-48,9957.0
12310,0.36703726649284363,-3.140566825866699,54,5871.0,-3.4847779273986816,-26,9957.0
12320,0.3668271005153656,-1.436017632484436,-140,5871.0,0.09818606823682785,-80,9957.0
12330,0.36675700545310974,-1.5881139039993286,51,5871.0,0.2930467426776886,69,9957.0
12340,0.36658892035484314,0.5727438926696777,7,5871.0,2.8627216815948486,-53,9957.0
12350,0.3664208650588989,1.4554446935653687,-30,5871.0,0.9471803307533264,163,9957.0
12360,0.3662309944629669,1.493557095527649,149,5871.0,-1.1532663106918335,-45,9957.0
12370,0.36679020524024963,0.003617281559854746,-39,5871.0,-4.353757381439209,-63,9957.0
12380,0.36668023467063904,0.22023776173591614,87,5871.0,-1.8237383365631104,18,9957.0
12390,0.3665866553783417,-0.44686368107795715,17,5871.0,-4.779417037963867,-227,9957.0
12400,0.36648622155189514,0.3575712740421295,68,5871.0,-4.470489501953125,-8,9957.0
12410,0.366378515958786,1.6729060411453247,57,5871.0,-4.4028825759887695,-207,9957.0
12420,0.36694177985191345,1.1895439624786377,-81,5871.0,-5.258139133453369,-143,9957.0
12430,0.3669743835926056,2.358607292175293,121,5871.0,-5.811733722686768,-72,9957.0
12440,0.3668728470802307,3.8277180194854736,-11,5871.0,-3.23012113571167,-106,9957.0
12450,0.3667739927768707,4.108974456787109,93,5871.0,-1.2395156621932983,19,9957.0
12460,0.36521610617637634,3.823928117752075,49,5871.0,-0.8717633485794067,-115,9957.0
12470,0.3650287985801697,2.111767292022705,56,5871.0,-2.0299806594848633,84,9957.0
12480,0.3648616075515747,1.8255383968353271,-34,5871.0,-4.852248191833496,-191,9957.0
12490,0.36468052864074707,-1.5548111200332642,-20,5871.0,-5.37843656539917,-1,9957.0
12500,0.3644530475139618,-2.346996784210205,-1,5871.0,-3.753661632537842,-247,9957.0
12510,0.3653281629085541,-2.9066457748413086,-40,5871.0,-5.386349678039551,19,9957.0
12520,0.3651386797428131,-1.668965220451355,-8,5871.0,-1.4382195472717285,-110,9957.0
12530,0.36498498916625977,-3.2031631469726562,34,5871.0,-1.636927843093872,-16,9957.0
12540,0.3648444712162018,-0.05658808350563049,-18,5871.0,-0.8432249426841736,-93,9957.0
12550,0.3651868999004364,-0.24361582100391388,23,5871.0,-3.5988235473632812,-93,9957.0
12560,0.36506587266921997,2.134415626525879,104,5871.0,2.063352584838867,90,9957.0
12570,0.3649090826511383,-0.0796559602022171,-18,5871.0,2.6271347999572754,90,9957.0
12580,0.36476022005081177,1.4172672033309937,181,5871.0,-2.4384570121765137,-156,9957.0
12590,0.3646450936794281,1.8895832300186157,-3,5871.0,-0.7278493046760559,-47,9957.0
12600,0.3638296127319336,0.30405667424201965,114,5871.0,-1.526501178741455,-70,9957.0
12610,0.3635896146297455,-0.9582409858703613,-93,5871.0,-4.030786514282227,-169,9957.0
12620,0.36331048607826233,-2.203953266143799,1,5871.0,-3.5097289085388184,-77,9957.0
12630,0.36303097009658813,-3.261523723602295,-64,5871.0,-5.539428234100342,-237,9957.0
12640,0.3616904318332672,-4.457828998565674,-17,5871.0,-6.89205265045166,-45,9957.0
12650,0.3613499701023102,-6.299010276794434,-112,5871.0,-5.833043575286865,-231,9957.0
12660,0.3609752953052521,-5.315208911895752,-81,5871.0,-4.893592834472656,-16,9957.0
12670,0.3605797290802002,-6.551026821136475,-61,5871.0,-1.098593831062317,-170,9957.0
12680,0.3593486249446869,-6.964895248413086,-182,5871.0,-2.8549764156341553,35,9957.0
12690,0.3589108884334564,-3.5083470344543457,-69,5871.0,0.8625508546829224,-29,9957.0
12700,0.3585023880004883,-3.8568902015686035,-197,5871.0,2.874545097351074,65,9957.0
12710,0.3581468462944031,-5.986451148986816,-32,5871.0,2.7501165866851807,91,9957.0
12720,0.3577693700790405,-4.130219459533691,-170,5871.0,5.672369956970215,81,9957.0
12730,0.3582251965999603,-5.885664463043213,-75,5871.0,1.3750983476638794,42,9957.0
12740,0.35787418484687805,-4.206838130950928,-133,5871.0,6.086367607116699,16,9957.0
12750,0.35753607749938965,-2.042754650115967,-36,5871.0,0.1287253350019455,232,9957.0
12760,0.35725924372673035,-2.363471269607544,-31,5871.0,-0.5493286848068237,-11,9957.0
12770,0.3569539785385132,-0.10319069027900696,-53,5871.0,0.9707072973251343,37,9957.0
12780,0.3567047417163849,-0.13753865659236908,121,5871.0,1.2633389234542847,-32,9957.0
12790,0.35647040605545044,2.2450695037841797,-29,5871.0,-2.0952329635620117,-119,9957.0
12800,0.35625597834587097,2.518946647644043,60,5871.0,-5.965972423553467,13,9957.0
12810,0.3575461506843567,3.059509754180908,42,5871.0,-3.6976683139801025,-152,9957.0
12820,0.3574254512786865,3.2705016136169434,51,5871.0,-0.7322317361831665,162,9957.0
12830,0.35730546712875366,0.35428839921951294,36,5871.0,0.9913153052330017,-43,9957.0
12840,0.35720089077949524,-0.6969360113143921,-50,5871.0,4.422669410705566,173,9957.0
12850,0.3571145832538605,-2.203789710998535,46,5871.0,6.310153961181641,56,9957.0
12860,0.3578112721443176,-4.779343128204346,-136,5871.0,6.539444446563721,117,9957.0
12870,0.3577822744846344,-4.8031110763549805,47,5871.0,3.9478232860565186,87,9957.0
12880,0.35772860050201416,-3.769977331161499,-179,5871.0,1.1040937900543213,68,9957.0
12890,0.3576902449131012,-4.019262313842773,-13,5871.0,1.3221931457519531,110,9957.0
12900,0.35821446776390076,-1.3086262941360474,-44,5871.0,2.3404858112335205,-186,9957.0
12910,0.35820579528808594,-1.9008007049560547,18,5871.0,-0.5472439527511597,37,9957.0
12920,0.3582538962364197,2.0256526470184326,56,5871.0,0.6543623805046082,-110,9957.0
12930,0.35820692777633667,1.8022403717041016,-59,5871.0,-3.5188024044036865,98,9957.0
12940,0.3581277132034302,1.3042880296707153,73,5871.0,0.59627765417099,-40,9957.0
12950,0.35812923312187195,1.045600414276123,-46,5871.0,3.437978506088257,39,9957.0
12960,0.3581339120864868,2.5764102935791016,134,5871.0,-0.24103160202503204,86,9957.0
12970,0.35814422369003296,4.399596691131592,5,5871.0,7.304141044616699,118,9957.0
12980,0.358084112405777,2.007333993911743,89,5871.0,10.522513389587402,222,9957.0
12990,0.3583821654319763,3.317143201828003,32,5871.0,8.887757301330566,72,9957.0
13000,0.35826942324638367,2.886716365814209,112,5871.0,6.766414642333984,141,9957.0
13010,0.3582085371017456,0.2786101698875427,-4,5871.0,-0.9854089617729187,-150,9957.0
13020,0.3581146001815796,-2.1195759773254395,-8,5871.0,-1.0887104272842407,3,9957.0
13030,0.3583665192127228,-3.7529475688934326,-41,5871.0,-3.9732775688171387,-272,9957.0
13040,0.35820505023002625,-3.616098642349243,-164,5871.0,-9.912996292114258,-47,9957.0
13050,0.358023464679718,-1.601198434829712,-19,5871.0,-6.509796619415283,-128,9957.0
13060,0.3578720986843109,-0.34551459550857544,-110,5871.0,-3.516221046447754,66,9957.0
13070,0.35774508118629456,1.530935287475586,94,5871.0,-2.4175877571105957,22,9957.0
13080,0.35690900683403015,3.2402000427246094,1,5871.0,-0.9597496390342712,-4,9957.0
13090,0.35670769214630127,1.4253883361816406,31,5871.0,2.7221882343292236,167,9957.0
13100,0.35649800300598145,3.78487491607666,-24,5871.0,5.994012832641602,-14,9957.0
13110,0.35627174377441406,-0.1286570429801941,31,5871.0,7.152061939239502,160,9957.0
13120,0.3548274040222168,1.074682593345642,-50,5871.0,3.584876298904419,30,9957.0
13130,0.35454264283180237,2.1229240894317627,35,5871.0,-1.6204906702041626,-1,9957.0
13140,0.3542177677154541,3.9024505615234375,55,5871.0,0.4048396348953247,-104,9957.0
13150,0.3538348972797394,1.9857592582702637,149,5871.0,7.392098426818848,139,9957.0
13160,0.35349828004837036,5.576003074645996,11,5871.0,8.608793258666992,87,9957.0
13170,0.3533056676387787,4.58637809753418,-37,5871.0,10.866547584533691,317,9957.0
13180,0.35293129086494446,3.9733779430389404,31,5871.0,9.76215934753418,55,9957.0
13190,0.3525572121143341,0.6632598042488098,-63,5871.0,6.878046035766602,255,9957.0
13200,0.35215529799461365,-1.5197819471359253,21,5871.0,2.658830404281616,88,9957.0
13210,0.3514334261417389,-2.248953342437744,-119,5871.0,3.54878830909729,137,9957.0
13220,0.350961297750473,-7.514369964599609,60,5871.0,3.8634045124053955,59,9957.0
13230,0.35044729709625244,-6.166550159454346,-155,5871.0,1.3946434259414673,-50,9957.0
13240,0.3499409854412079,-3.425042152404785,-47,5871.0,-0.6340848803520203,147,9957.0
13250,0.34923720359802246,1.0157251358032227,80,5871.0,-1.7254759073257446,-36,9957.0
13260,0.3486909866333008,3.1914970874786377,10,5871.0,-0.5261634588241577,-17,9957.0
13270,0.348215252161026,6.018218040466309,145,5871.0,0.2205619066953659,83,9957.0
13280,0.34772226214408875,7.658586025238037,97,5871.0,1.9797672033309937,-127,9957.0
13290,0.3472682535648346,7.648727893829346,82,5871.0,1.2411714792251587,59,9957.0
13300,0.3479202091693878,5.221003532409668,168,5871.0,0.9560235738754272,-22,9957.0
13310,0.3476003110408783,4.293149948120117,-20,5871.0,0.4372533857822418,-66,9957.0
13320,0.3472617268562317,0.8158911466598511,65,5871.0,0.4679223299026489,47,9957.0
13330,0.34699782729148865,0.4813712537288666,48,5871.0,1.9609005451202393,-87,9957.0
13340,0.34720438718795776,1.568670392036438,-79,5871.0,0.6586409211158752,-14,9957.0
13350,0.34695538878440857,-1.2773046493530273,19,5871.0,2.5546059608459473,63,9957.0
13360,0.34670397639274597,-0.025142071768641472,-47,5871.0,0.6956963539123535,-145,9957.0
13370,0.34643861651420593,-3.3032755851745605,-72,5871.0,5.760444164276123,123,9957.0
13380,0.3464929759502411,0.4211180508136749,53,5871.0,2.7148218154907227,-78,9957.0
13390,0.3463347852230072,1.5717005729675293,-101,5871.0,0.7750428915023804,-76,9957.0
13400,0.3462015688419342,2.7141032218933105,47,5871.0,3.526608467102051,128,9957.0
13410,0.34606441855430603,3.340949058532715,54,5871.0,-2.422960042953491,-120,9957.0
13420,0.345925509929657,4.042241096496582,-1,5871.0,0.9767782092094421,19,9957.0
13430,0.3454115092754364,1.9984749555587769,168,5871.0,-5.045987129211426,3,9957.0
13440,0.34522590041160583,2.8697264194488525,43,5871.0,-2.7597877979278564,-142,9957.0
13450,0.344997376203537,4.64649772644043,38,5871.0,-4.055716514587402,23,9957.0
13460,0.34474557638168335,2.6775033473968506,108,5871.0,-7.004244804382324,-112,9957.0
13470,0.34702301025390625,-2.1624057292938232,-76,5871.0,-0.6784228682518005,-74,9957.0
13480,0.34681177139282227,-3.331450939178467,10,5871.0,-3.9882657527923584,55,9957.0
13490,0.3465803861618042,-6.119040489196777,-150,5871.0,-0.7892489433288574,-69,9957.0
13500,0.3463827669620514,-3.8427226543426514,-82,5871.0,-1.268835425376892,121,9957.0
13510,0.34615886211395264,-1.6742305755615234,142,5871.0,-7.126210689544678,-218,9957.0
13520,0.34747079014778137,0.5021749138832092,-62,5871.0,-0.4834724962711334,37,9957.0
13530,0.3473145067691803,2.7581536769866943,97,5871.0,-2.2066617012023926,74,9957.0
13540,0.34720563888549805,1.7420189380645752,6,5871.0,0.9927139282226562,-37,9957.0
13550,0.34715667366981506,5.336972236633301,43,5871.0,0.35843315720558167,86,9957.0
13560,0.3470459282398224,3.789417266845703,163,5871.0,0.20362906157970428,-42,9957.0
13570,0.3469078540802002,5.261590480804443,-16,5871.0,-0.5766580104827881,-28,9957.0
13580,0.34678709506988525,1.236936092376709,45,5871.0,-1.1758191585540771,112,9957.0
13590,0.34667685627937317,-0.25179174542427063,49,5871.0,-3.0967087745666504,-134,9957.0
13600,0.3459426462650299,-1.50255286693573,-67,5871.0,-1.7068670988082886,21,9957.0
13610,0.34575149416923523,-2.5357604026794434,100,5871.0,-0.20093265175819397,70,9957.0
13620,0.3455581068992615,1.0849369764328003,-52,5871.0,-3.3390021324157715,-82,9957.0
13630,0.3453567922115326,0.4216098487377167,46,5871.0,-0.11114870011806488,159,9957.0
13640,0.3451388478279114,1.047651767730713,-4,5871.0,-1.2044811248779297,-14,9957.0
13650,0.3456203043460846,0.9887099862098694,-26,5871.0,1.617005467414856,185,9957.0
13660,0.3454168736934662,2.347262382507324,146,5871.0,2.9357128143310547,127,9957.0
13670,0.3451838195323944,0.6408653855323792,-37,5871.0,2.9104504585266113,-6,9957.0
13680,0.34488287568092346,0.5352337956428528,22,5871.0,0.1613921970129013,110,9957.0
13690,0.34517526626586914,2.0481021404266357,23,5871.0,-5.038641929626465,-129,9957.0
13700,0.3449397385120392,1.5671883821487427,39,5871.0,-10.278403282165527,-123,9957.0
13710,0.34473851323127747,0.6551378965377808,44,5871.0,-9.309442520141602,-170,9957.0
13720,0.34453803300857544,-1.4615962505340576,-134,5871.0,-11.730649948120117,-192,9957.0
13730,0.344322144985199,-2.5728373527526855,11,5871.0,-13.122567176818848,-113,9957.0
13740,0.34434273838996887,-2.9898738861083984,-103,5871.0,-9.517440795898438,-245,9957.0
13750,0.3441036343574524,-3.9319941997528076,-20,5871.0,-7.5668487548828125,-19,9957.0
13760,0.3438820540904999,-2.9357621669769287,-61,5871.0,-7.161521911621094,-257,9957.0
13770,0.34367597103118896,-5.301156997680664,-4,5871.0,0.9846376776695251,20,9957.0
13780,0.3413105607032776,-4.680089473724365,-102,5871.0,2.006446599960327,-101,9957.0
13790,0.34098169207572937,-4.357155799865723,-1,5871.0,0.22983257472515106,25,9957.0
13800,0.3406704366207123,-3.300995349884033,-10,5871.0,0.539395809173584,-96,9957.0
13810,0.3403898775577545,-2.271784782409668,-132,5871.0,-2.7892916202545166,79,9957.0
13820,0.3404587507247925,-2.0919854640960693,46,5871.0,-3.3799519538879395,-116,9957.0
13830,0.34020957350730896,-2.6693530082702637,-134,5871.0,2.6063783168792725,54,9957.0
13840,0.3399654030799866,-1.994248867034912,74,5871.0,-3.949864387512207,-127,9957.0
13850,0.33978596329689026,-2.4193053245544434,-99,5871.0,-2.1675775051116943,-171,9957.0
13860,0.33963310718536377,-1.899847388267517,-1,5871.0,-4.275415897369385,3,9957.0
13870,0.33998578786849976,-2.4433703422546387,-40,5871.0,-2.048011064529419,-196,9957.0
13880,0.339840829372406,-3.383910894393921,-12,5871.0,-3.6009647846221924,-21,9957.0
13890,0.3396911323070526,-2.443084239959717,18,5871.0,-4.074560165405273,-150,9957.0
13900,0.33957064151763916,-1.6141937971115112,-70,5871.0,-4.8912482261657715,-14,9957.0
13910,0.3404487073421478,-1.2028526067733765,57,5871.0,-5.263430595397949,-85,9957.0
13920,0.3403935432434082,-2.018866539001465,-85,5871.0,-1.4510464668273926,22,9957.0
13930,0.3403174579143524,-3.0768442153930664,90,5871.0,-0.30355021357536316,-22,9957.0
13940,0.340222030878067,-3.123713254928589,-113,5871.0,5.180159568786621,82,9957.0
13950,0.34121641516685486,-0.18487222492694855,79,5871.0,6.312112331390381,174,9957.0
13960,0.34119436144828796,1.5899120569229126,-25,5871.0,1.790042757987976,24,9957.0
13970,0.34118011593818665,0.3542711138725281,73,5871.0,4.841475486755371,164,9957.0
13980,0.3411535620689392,-1.9798307418823242,-37,5871.0,3.2457752227783203,-14,9957.0
13990,0.341177761554718,0.36850225925445557,20,5871.0,-1.3011837005615234,72,9957.0
14000,0.34106317162513733,-1.1743284463882446,8,5871.0,0.09479473531246185,-118,9957.0
14010,0.3410327136516571,-2.772998809814453,-55,5871.0,-1.4949166774749756,39,9957.0
14020,0.3410364091396332,-2.7420151233673096,-8,5871.0,-1.226441502571106,-124,9957.0
14030,0.34106653928756714,-2.159578323364258,-91,5871.0,-2.90936541557312,17,9957.0
14040,0.3402594327926636,-1.55695641040802,41,5871.0,-1.793167233467102,-108,9957.0
14050,0.3402237892150879,-1.893555760383606,-119,5871.0,-2.667685031890869,79,9957.0
14060,0.34017252922058105,0.1703154742717743,45,5871.0,3.02976655960083,102,9957.0
14070,0.34012463688850403,0.3525366485118866,-123,5871.0,3.7634475231170654,154,9957.0
14080,0.34005945920944214,2.8448824882507324,72,5871.0,-0.23214221000671387,93,9957.0
14090,0.34038209915161133,2.323991298675537,-120,5871.0,9.732461929321289,147,9957.0
14100,0.34036627411842346,3.026862144470215,131,5871.0,6.162232398986816,165,9957.0
14110,0.3403109610080719,0.728064239025116,-97,5871.0,10.147887229919434,101,9957.0
14120,0.34026312828063965,1.7088792324066162,15,5871.0,4.392828464508057,121,9957.0
14130,0.3396822512149811,-2.0797536373138428,-121,5871.0,1.2233043909072876,-57,9957.0
14140,0.33953654766082764,-3.4634194374084473,-104,5871.0,3.4144673347473145,173,9957.0
14150,0.3393777012825012,-0.8444968461990356,-63,5871.0,-1.304123044013977,26,9957.0
14160,0.33920568227767944,-1.8921880722045898,-81,5871.0,1.8127371072769165,220,9957.0
14170,0.33745360374450684,-0.8896805644035339,42,5871.0,-1.7675747871398926,-26,9957.0
14180,0.337144672870636,0.2875194251537323,-31,5871.0,2.056685447692871,139,9957.0
14190,0.33685004711151123,-1.9914640188217163,75,5871.0,4.0194196701049805,95,9957.0
14200,0.33658334612846375,-1.19357168674469,-95,5871.0,7.005947113037109,97,9957.0
14210,0.33628103137016296,-1.036281704902649,48,5871.0,4.261273384094238,146,9957.0
