timestamp,kalman.stateZ,gyro.x,gyro.xRaw,gyro.xVariance,gyro.y,gyro.yRaw,gyro.yVariance
0,0.28158238530158997,-0.024692127481102943,-1,9999.0,0.08697844296693802,7,8491.0
10,0.28173887729644775,-0.15090182423591614,1,9999.0,-0.3463837802410126,1,8491.0
20,0.2819083631038666,-0.11422406882047653,2,9999.0,0.015275690704584122,5,8491.0
30,0.27959704399108887,-0.27253589034080505,5,9999.0,-0.07450685650110245,0,8491.0
40,0.27961939573287964,0.2213773876428604,1,9999.0,0.09502663463354111,0,8491.0
50,0.2796486020088196,0.1589774638414383,-5,9999.0,-0.06413460522890091,-1,8491.0
60,0.27967342734336853,0.17033898830413818,-1,9999.0,-0.15541833639144897,4,8491.0
70,0.2797872722148895,-0.050621096044778824,-5,9999.0,0.08001218736171722,4,8491.0
80,0.2798251807689667,-0.19244159758090973,5,9999.0,-0.2698376774787903,0,8491.0
90,0.2798582911491394,-0.012373462319374084,-1,9999.0,0.03252232074737549,-7,8491.0
100,0.2799055874347687,0.05830419436097145,-6,9999.0,-0.01687602326273918,-2,8491.0
110,0.2799457907676697,0.3667963743209839,1,9999.0,-0.09148083627223969,-1,8491.0
120,0.2791609764099121,0.09457170218229294,-1,9999.0,-0.14522817730903625,5,8491.0
130,0.27916744351387024,0.21001069247722626,5,9999.0,-0.12452255189418793,6,8491.0
140,0.27916663885116577,0.12493859231472015,8,9999.0,-0.16769474744796753,-2,8491.0
150,0.27916979789733887,0.18673966825008392,5,9999.0,-0.0019523270893841982,-6,8491.0
160,0.2786910831928253,-0.36035752296447754,-12,9999.0,-0.07020051777362823,-1,8491.0
170,0.2786717116832733,-0.3414542078971863,-1,9999.0,-0.16630294919013977,3,8491.0
180,0.2786627411842346,2.021552324295044,36,9999.0,-2.3608856201171875,-54,8491.0
190,0.27867209911346436,1.0164417028427124,32,9999.0,-1.4771265983581543,-9,8491.0
200,0.2787303328514099,4.364606857299805,54,9999.0,-5.982478618621826,-71,8491.0
210,0.27927178144454956,6.90327262878418,103,9999.0,-6.981755256652832,-128,8491.0
220,0.2795112729072571,8.325803756713867,142,9999.0,-7.565131664276123,-152,8491.0
230,0.27963119745254517,8.720709800720215,120,9999.0,-8.354451179504395,-171,8491.0
240,0.27976763248443604,7.276887893676758,76,9999.0,-10.65347671508789,-177,8491.0
250,0.2779594957828522,9.11362075805664,170,9999.0,-8.927994728088379,-146,8491.0
260,0.277966171503067,5.355790615081787,64,9999.0,-6.617037773132324,-116,8491.0
270,0.27795523405075073,3.7262442111968994,69,9999.0,-5.628485202789307,-120,8491.0
280,0.27799391746520996,3.2257044315338135,30,9999.0,-4.642693042755127,-4,8491.0
290,0.2783331871032715,2.1217031478881836,72,9999.0,-1.4049232006072998,-75,8491.0
300,0.2783961594104767,1.4630552530288696,15,9999.0,1.2615400552749634,-73,8491.0
310,0.2784135043621063,1.872477412223816,-7,9999.0,2.7478444576263428,124,8491.0
320,0.2784276604652405,1.483776569366455,11,9999.0,3.472423791885376,218,8491.0
330,0.2784450352191925,2.1432037353515625,13,9999.0,4.522000312805176,150,8491.0
340,0.27670836448669434,2.83703351020813,22,9999.0,5.178912162780762,32,8491.0
350,0.27665892243385315,2.97446608543396,49,9999.0,5.085063457489014,-56,8491.0
360,0.2765834331512451,3.4755282402038574,79,9999.0,3.2234342098236084,-126,8491.0
370,0.27650582790374756,2.437577724456787,51,9999.0,0.7358126640319824,-138,8491.0
380,0.27667471766471863,2.005070447921753,1,9999.0,-2.84552264213562,-71,8491.0
390,0.2766002118587494,0.9459150433540344,-78,9999.0,-5.2110090255737305,-4,8491.0
400,0.27649590373039246,-1.4997849464416504,-162,9999.0,-6.180483341217041,43,8491.0
410,0.27643707394599915,-0.524898886680603,-83,9999.0,-6.9594502449035645,72,8491.0
420,0.2764785587787628,-1.967149019241333,-152,9999.0,-7.1055192947387695,-36,8491.0
430,0.279224157333374,-0.3014671802520752,-72,9999.0,-1.5740591287612915,1,8491.0
440,0.27963387966156006,-1.1589864492416382,-36,9999.0,-0.5186312794685364,83,8491.0
450,0.2799642086029053,0.08920019865036011,28,9999.0,3.3284027576446533,150,8491.0
460,0.28022852540016174,-0.4564010798931122,85,9999.0,4.627581596374512,-24,8491.0
470,0.28189024329185486,-0.8364913463592529,49,9999.0,6.68333101272583,-7,8491.0
480,0.2822767198085785,0.40669187903404236,-84,9999.0,7.7377142906188965,103,8491.0
490,0.282604455947876,0.00012321041140239686,10,9999.0,8.83718204498291,155,8491.0
500,0.28288477659225464,0.45772263407707214,33,9999.0,6.276121139526367,200,8491.0
510,0.28385913372039795,-0.027686594054102898,-17,9999.0,4.9213995933532715,71,8491.0
520,0.28420618176460266,-0.26622000336647034,66,9999.0,3.688448667526245,35,8491.0
530,0.2845957577228546,-0.12547695636749268,66,9999.0,1.713240385055542,-143,8491.0
540,0.28506988286972046,-0.5757020711898804,-39,9999.0,-3.3542027473449707,-70,8491.0
550,0.2855824828147888,-2.1730146408081055,-112,9999.0,-4.524608612060547,79,8491.0
560,0.28364473581314087,-2.6967546939849854,29,9999.0,-4.920782089233398,-47,8491.0
570,0.2840484082698822,-1.0944057703018188,30,9999.0,-4.4301676750183105,-246,8491.0
580,0.28446173667907715,-0.7084223031997681,-33,9999.0,-5.121959209442139,-36,8491.0
590,0.28491348028182983,-1.1137256622314453,2,9999.0,-3.2484607696533203,-16,8491.0
600,0.28376954793930054,0.0747249647974968,-53,9999.0,-1.8178911209106445,35,8491.0
610,0.2843801975250244,-1.2588237524032593,-49,9999.0,0.3195669651031494,90,8491.0
620,0.2851244807243347,-1.2325624227523804,72,9999.0,3.112541437149048,-110,8491.0
630,0.2859472334384918,-1.8523021936416626,-48,9999.0,5.368899822235107,64,8491.0
640,0.28676310181617737,-0.6852574348449707,-79,9999.0,5.913271903991699,276,8491.0
650,0.2860252559185028,-0.7678627371788025,18,9999.0,6.657548904418945,66,8491.0
660,0.2866838872432709,-0.07156350463628769,53,9999.0,6.289221286773682,92,8491.0
670,0.28733986616134644,0.49902427196502686,-19,9999.0,3.3117358684539795,-14,8491.0
680,0.28808268904685974,1.7297966480255127,-6,9999.0,1.4258440732955933,99,8491.0
690,0.28692805767059326,1.591566801071167,-88,9999.0,-2.679387092590332,94,8491.0
700,0.2877539098262787,0.20985744893550873,155,9999.0,-2.8312361240386963,-200,8491.0
710,0.28869858384132385,0.33386480808258057,46,9999.0,-4.700633525848389,-204,8491.0
720,0.28973275423049927,0.19098080694675446,-11,9999.0,-6.950910568237305,11,8491.0
730,0.28742754459381104,-0.04899252951145172,-89,9999.0,-7.183054447174072,-73,8491.0
740,0.2882777154445648,-0.7854698896408081,41,9999.0,-6.1997199058532715,-182,8491.0
750,0.28901445865631104,-0.26009538769721985,-15,9999.0,-4.060670852661133,-125,8491.0
760,0.2896096706390381,-0.02882881835103035,108,9999.0,-0.4796636700630188,-54,8491.0
770,0.2901158928871155,2.1256866455078125,-132,9999.0,-1.6589443683624268,194,8491.0
780,0.2890959680080414,1.5991110801696777,7,9999.0,0.6675295233726501,140,8491.0
790,0.28929218649864197,0.22038905322551727,79,9999.0,4.038693904876709,-109,8491.0
800,0.28945308923721313,0.6410449147224426,-69,9999.0,3.9449000358581543,139,8491.0
810,0.2896653115749359,-0.3824913799762726,3,9999.0,4.110733509063721,112,8491.0
820,0.28613361716270447,0.6583636403083801,21,9999.0,3.9505913257598877,24,8491.0
830,0.28626883029937744,0.9684081673622131,49,9999.0,2.179288864135742,-33,8491.0
840,0.28646621108055115,1.877259373664856,-3,9999.0,-1.1357812881469727,103,8491.0
850,0.28675153851509094,1.0736455917358398,67,9999.0,-0.834503710269928,-135,8491.0
860,0.28709274530410767,1.191301941871643,47,9999.0,-4.159955978393555,-89,8491.0
870,0.2858429551124573,-0.04754924774169922,-87,9999.0,-4.897103309631348,37,8491.0
880,0.2861287593841553,-1.2474888563156128,51,9999.0,-5.229774475097656,-168,8491.0
890,0.28642508387565613,-1.443624496459961,-62,9999.0,-4.776857376098633,-43,8491.0
900,0.2867363691329956,-1.3221074342727661,-33,9999.0,-4.277792453765869,68,8491.0
910,0.28626713156700134,-2.318694829940796,38,9999.0,0.2692815661430359,-146,8491.0
920,0.2865679860115051,0.7563496232032776,-53,9999.0,-1.182983636856079,89,8491.0
930,0.28682973980903625,0.0548175610601902,46,9999.0,1.4017436504364014,25,8491.0
940,0.2870582044124603,0.5479066371917725,-7,9999.0,3.3459224700927734,2,8491.0
950,0.2856297791004181,1.3048733472824097,35,9999.0,4.63112735748291,116,8491.0
960,0.2857416272163391,1.8638063669204712,55,9999.0,5.32792329788208,36,8491.0
970,0.28582024574279785,2.4282143115997314,41,9999.0,3.032205820083618,103,8491.0
980,0.28585508465766907,2.6335041522979736,20,9999.0,2.8510522842407227,6,8491.0
990,0.28592678904533386,3.0655312538146973,41,9999.0,0.8993906378746033,-60,8491.0
1000,0.28569430112838745,1.087189793586731,41,9999.0,-1.4303430318832397,70,8491.0
1010,0.285844624042511,0.5485408902168274,11,9999.0,-3.39640474319458,-105,8491.0
1020,0.2860177457332611,-0.7032057046890259,-45,9999.0,-5.237277507781982,-96,8491.0
1030,0.2862149178981781,-1.8847306966781616,-23,9999.0,-4.683359622955322,-45,8491.0
1040,0.2866459786891937,-2.2589006423950195,-50,9999.0,-6.258696556091309,-26,8491.0
1050,0.28683462738990784,-2.376615047454834,31,9999.0,-4.373030185699463,-183,8491.0
1060,0.28700441122055054,-1.7713674306869507,-151,9999.0,-3.162337303161621,123,8491.0
1070,0.2872024476528168,-2.4720394611358643,67,9999.0,1.445603370666504,-144,8491.0
1080,0.28743138909339905,-0.9041133522987366,-76,9999.0,2.8197274208068848,141,8491.0
1090,0.2859017550945282,-1.461508870124817,36,9999.0,6.05531120300293,110,8491.0
1100,0.2860910892486572,-0.584157407283783,6,9999.0,8.002265930175781,163,8491.0
1110,0.28630179166793823,3.581031084060669,42,9999.0,5.3290300369262695,3,8491.0
1120,0.2864765226840973,2.654372215270996,-26,9999.0,3.7456657886505127,198,8491.0
1130,0.2867823839187622,2.8992652893066406,167,9999.0,3.1296091079711914,-120,8491.0
1140,0.2870023846626282,3.1437289714813232,-52,9999.0,0.6711615920066833,123,8491.0
1150,0.28726187348365784,2.191434621810913,73,9999.0,-1.1590826511383057,-82,8491.0
1160,0.2875484228134155,0.2896827757358551,53,9999.0,-3.4930150508880615,-16,8491.0
1170,0.2879013419151306,1.2077466249465942,33,9999.0,-4.540009498596191,-95,8491.0
1180,0.28818386793136597,2.9954428672790527,-39,9999.0,-6.90415620803833,-111,8491.0
1190,0.28846871852874756,0.5460235476493835,-7,9999.0,-3.795760154724121,-25,8491.0
1200,0.28876233100891113,0.98836749792099,94,9999.0,-1.9917330741882324,-99,8491.0
1210,0.28905487060546875,-0.8374718427658081,-46,9999.0,0.1826464831829071,127,8491.0
1220,0.2901245951652527,-1.3808727264404297,-12,9999.0,1.511919379234314,27,8491.0
1230,0.2904863655567169,-1.5885658264160156,-66,9999.0,2.3666250705718994,111,8491.0
1240,0.2908968925476074,-2.1669888496398926,76,9999.0,3.7876083850860596,-27,8491.0
1250,0.29130709171295166,-0.4678245782852173,-33,9999.0,2.945523262023926,111,8491.0
1260,0.29142993688583374,1.2093422412872314,-117,9999.0,4.679890155792236,162,8491.0
1270,0.29185470938682556,2.2557034492492676,101,9999.0,2.4712417125701904,-118,8491.0
1280,0.2923211455345154,2.0081112384796143,31,9999.0,-0.09517979621887207,5,8491.0
1290,0.29278987646102905,0.3868250548839569,52,9999.0,1.2198060750961304,-47,8491.0
1300,0.2932487428188324,1.4350589513778687,-20,9999.0,-2.231062412261963,-97,8491.0
1310,0.2944297194480896,1.7473300695419312,53,9999.0,-2.685429573059082,121,8491.0
1320,0.29491734504699707,2.1347289085388184,90,9999.0,-2.458498477935791,-80,8491.0
1330,0.295398086309433,-2.082272529602051,-102,9999.0,1.42941153049469,153,8491.0
1340,0.29589733481407166,0.013338044285774231,11,9999.0,-1.3561123609542847,29,8491.0
1350,0.2950378954410553,-1.8043195009231567,-58,9999.0,0.46247634291648865,60,8491.0
1360,0.29546627402305603,-0.6662527322769165,-102,9999.0,0.29751816391944885,122,8491.0
1370,0.29592835903167725,-1.269632339477539,53,9999.0,3.7923967838287354,-157,8491.0
1380,0.29640015959739685,-2.3015506267547607,-128,9999.0,2.2400386333465576,-8,8491.0
1390,0.29692116379737854,-2.802818775177002,-140,9999.0,2.2012133598327637,133,8491.0
1400,0.2974296808242798,-2.751573324203491,-7,9999.0,2.7799556255340576,20,8491.0
1410,0.2979806661605835,-0.47595030069351196,-32,9999.0,-0.3488469421863556,54,8491.0
1420,0.2984887361526489,-0.11007199436426163,21,9999.0,0.6854297518730164,25,8491.0
1430,0.2990075349807739,0.12933091819286346,97,9999.0,2.5157017707824707,-198,8491.0
1440,0.30007049441337585,0.3338594138622284,-39,9999.0,-2.4002106189727783,-48,8491.0
1450,0.30061283707618713,0.22732478380203247,-47,9999.0,-1.8602758646011353,43,8491.0
1460,0.30122077465057373,-4.6868743896484375,2,9999.0,1.0215920209884644,-4,8491.0
1470,0.3018213212490082,-7.127246856689453,-112,9999.0,2.269106864929199,132,8491.0
1480,0.3010066747665405,-4.637359142303467,35,9999.0,-0.26163262128829956,-53,8491.0
1490,0.30134907364845276,-3.39237642288208,-29,9999.0,1.1954452991485596,-16,8491.0
1500,0.30170872807502747,-4.133796215057373,-184,9999.0,-1.2755627632141113,157,8491.0
1510,0.3020411729812622,-3.530639171600342,9,9999.0,1.134262204170227,-46,8491.0
1520,0.3023115396499634,-3.8594281673431396,-70,9999.0,0.44231119751930237,47,8491.0
1530,0.3032512366771698,-3.6600282192230225,-47,9999.0,2.3657469749450684,50,8491.0
1540,0.30353349447250366,-2.6225996017456055,32,9999.0,0.5543779134750366,-151,8491.0
1550,0.30372297763824463,1.483351707458496,-158,9999.0,0.4073635935783386,117,8491.0
1560,0.3039216995239258,1.2241098880767822,39,9999.0,2.408447265625,5,8491.0
1570,0.3032461404800415,3.5736873149871826,86,9999.0,2.863572120666504,-51,8491.0
1580,0.30353665351867676,3.4106650352478027,60,9999.0,0.38334327936172485,62,8491.0
1590,0.30359455943107605,5.418442726135254,152,9999.0,3.4669008255004883,7,8491.0
1600,0.30401408672332764,7.682260990142822,61,9999.0,4.36167049407959,119,8491.0
1610,0.3038831651210785,10.379531860351562,96,9999.0,7.9582695960998535,269,8491.0
1620,0.30412209033966064,12.110825538635254,312,9999.0,11.758548736572266,96,8491.0
1630,0.3043895959854126,14.830110549926758,332,9999.0,11.0858154296875,197,8491.0
1640,0.30445247888565063,14.185062408447266,188,9999.0,8.755208015441895,221,8491.0
1650,0.30446764826774597,9.980696678161621,188,9999.0,7.63222074508667,61,8491.0
1660,0.30463993549346924,8.130760192871094,63,9999.0,3.5178446769714355,88,8491.0
1670,0.3046121895313263,4.87610387802124,2,9999.0,0.040755558758974075,2,8491.0
1680,0.304593026638031,-1.820454478263855,100,9999.0,-3.897209644317627,-249,8491.0
1690,0.30455148220062256,-2.5952305793762207,-45,9999.0,-3.9980459213256836,-57,8491.0
1700,0.3059008717536926,-1.712990164756775,-96,9999.0,-4.6639227867126465,15,8491.0
1710,0.3059180676937103,-3.6854701042175293,-30,9999.0,-1.1903008222579956,-70,8491.0
1720,0.3059394955635071,-1.2260464429855347,-88,9999.0,-1.6622939109802246,-3,8491.0
1730,0.305937796831131,0.03675377741456032,-69,9999.0,-2.5463242530822754,22,8491.0
1740,0.30593636631965637,-1.972078561782837,65,9999.0,-1.349469542503357,-133,8491.0
1750,0.3051394522190094,2.0313918590545654,36,9999.0,0.280337393283844,-64,8491.0
1760,0.30508294701576233,0.4300498366355896,-55,9999.0,-1.2114613056182861,92,8491.0
1770,0.30501630902290344,-0.5748099684715271,10,9999.0,-2.4656107425689697,-36,8491.0
1780,0.3049810826778412,0.35290226340293884,-48,9999.0,-0.7107088565826416,25,8491.0
1790,0.30615654587745667,1.023796796798706,-62,9999.0,-3.1215980052948,49,8491.0
1800,0.30616554617881775,0.16936498880386353,71,9999.0,-6.1500043869018555,-83,8491.0
1810,0.3061527609825134,-5.467884063720703,28,9999.0,-4.51760196685791,-161,8491.0
1820,0.30613648891448975,-3.320249080657959,-102,9999.0,-5.99452018737793,2,8491.0
1830,0.30685198307037354,-1.4449602365493774,-30,9999.0,-5.160604000091553,-58,8491.0
1840,0.3068932592868805,-1.9642030000686646,-8,9999.0,-6.238203048706055,-164,8491.0
1850,0.3069281280040741,0.6764270663261414,-116,9999.0,-4.9471588134765625,79,8491.0
1860,0.3069865107536316,-0.9029483795166016,20,9999.0,-4.08468770980835,-80,8491.0
1870,0.30706068873405457,-0.3000163733959198,111,9999.0,-1.549910545349121,-232,8491.0
1880,0.3082667291164398,-0.8575345873832703,2,9999.0,-1.8292587995529175,-20,8491.0
1890,0.30837157368659973,0.3894849121570587,16,9999.0,-0.4758068323135376,34,8491.0
1900,0.30848613381385803,1.3474007844924927,-41,9999.0,-0.3755023181438446,-68,8491.0
1910,0.3085878789424896,0.3152350187301636,-3,9999.0,2.116251230239868,68,8491.0
1920,0.3088109493255615,0.45568156242370605,188,9999.0,1.4588701725006104,-141,8491.0
1930,0.3089449405670166,-3.909390687942505,-27,9999.0,2.345789670944214,75,8491.0
1940,0.3090973198413849,-2.244929790496826,-53,9999.0,0.33292117714881897,70,8491.0
1950,0.3092462122440338,-2.7847394943237305,-29,9999.0,-3.0974204540252686,-77,8491.0
1960,0.30941975116729736,-2.524144172668457,-68,9999.0,-3.9514732360839844,-40,8491.0
1970,0.30618181824684143,1.0992188453674316,-47,9999.0,-8.599130630493164,-3,8491.0
1980,0.3061376214027405,1.1423553228378296,197,9999.0,-6.567856311798096,-189,8491.0
1990,0.30610695481300354,4.746040344238281,87,9999.0,-3.8064701557159424,19,8491.0
2000,0.3060849905014038,1.622841715812683,-29,9999.0,-3.175210952758789,125,8491.0
2010,0.30566880106925964,2.6304590702056885,44,9999.0,1.5207852125167847,-41,8491.0
2020,0.3056298792362213,1.6846269369125366,-27,9999.0,0.9303827285766602,-10,8491.0
2030,0.3055906295776367,1.8824918270111084,-79,9999.0,0.3460414409637451,94,8491.0
2040,0.30555108189582825,-1.4101535081863403,96,9999.0,1.3855838775634766,-152,8491.0
2050,0.30531856417655945,-4.0107855796813965,-84,9999.0,1.1238056421279907,-16,8491.0
2060,0.3053208887577057,-4.19081449508667,-150,9999.0,-0.31667307019233704,60,8491.0
2070,0.30531466007232666,-6.201880931854248,-70,9999.0,-1.392021656036377,-75,8491.0
2080,0.3052421808242798,-3.8966410160064697,-92,9999.0,-1.6213452816009521,-58,8491.0
2090,0.30513814091682434,-0.3718554377555847,-91,9999.0,-6.984189033508301,3,8491.0
2100,0.3045666217803955,-1.9159125089645386,27,9999.0,-2.5296995639801025,-52,8491.0
2110,0.3044319748878479,-0.9450927972793579,120,9999.0,0.1959894597530365,-302,8491.0
2120,0.30430594086647034,2.8019859790802,-5,9999.0,-3.413851022720337,-13,8491.0
2130,0.3042216897010803,2.789583683013916,54,9999.0,0.16111813485622406,48,8491.0
2140,0.30407556891441345,2.6446120738983154,54,9999.0,3.8460142612457275,19,8491.0
2150,0.30400463938713074,3.2298130989074707,-34,9999.0,5.530386924743652,136,8491.0
2160,0.30396395921707153,2.55037522315979,13,9999.0,6.091994762420654,96,8491.0
2170,0.30397728085517883,1.638982892036438,87,9999.0,6.21436071395874,-38,8491.0
2180,0.30403053760528564,-1.9830092191696167,33,9999.0,6.144914150238037,68,8491.0
2190,0.3020625710487366,-3.109299421310425,-64,9999.0,2.1817996501922607,133,8491.0
2200,0.30201810598373413,-2.0729408264160156,10,9999.0,-0.6352280974388123,7,8491.0
2210,0.30198028683662415,0.16846324503421783,-8,9999.0,-2.146172523498535,-74,8491.0
2220,0.3019768297672272,1.748812198638916,-50,9999.0,-5.201000690460205,68,8491.0
2230,0.3023968040943146,2.238813877105713,39,9999.0,-6.973186016082764,-143,8491.0
2240,0.3024328351020813,0.9503846764564514,266,9999.0,-5.880964756011963,-188,8491.0
2250,0.3025052845478058,-0.479182630777359,-21,9999.0,-0.3080059885978699,50,8491.0
2260,0.30260375142097473,-0.7454780340194702,3,9999.0,3.903337240219116,110,8491.0
2270,0.30280622839927673,-1.327560305595398,71,9999.0,5.329435348510742,79,8491.0
2280,0.3029059171676636,1.0662955045700073,-95,9999.0,7.071773529052734,217,8491.0
2290,0.3030335307121277,0.2907073199748993,-67,9999.0,9.48551082611084,277,8491.0
2300,0.30315539240837097,-2.083991765975952,14,9999.0,5.937530994415283,19,8491.0
2310,0.30332323908805847,-0.1268633008003235,16,9999.0,3.521867513656616,14,8491.0
2320,0.30495187640190125,0.17889274656772614,-34,9999.0,0.034529466181993484,15,8491.0
2330,0.3051619827747345,-0.019129179418087006,38,9999.0,-2.345888137817383,-84,8491.0
2340,0.3053739070892334,0.21652370691299438,20,9999.0,-3.9077024459838867,-156,8491.0
2350,0.3055817484855652,-0.9959565997123718,-54,9999.0,-6.412438869476318,79,8491.0
2360,0.30587509274482727,-1.457464337348938,-44,9999.0,-3.751319408416748,-12,8491.0
2370,0.30609554052352905,0.2590309679508209,157,9999.0,-0.9248504042625427,-152,8491.0
2380,0.306340754032135,-0.19340847432613373,-33,9999.0,-0.6602516174316406,48,8491.0
2390,0.30658411979675293,0.5882444381713867,-27,9999.0,4.479496002197266,65,8491.0
2400,0.3068118095397949,-0.2696155607700348,67,9999.0,4.1732683181762695,-35,8491.0
2410,0.3067067563533783,1.8810741901397705,-4,9999.0,2.8151793479919434,85,8491.0
2420,0.30693864822387695,0.7622150778770447,-120,9999.0,4.544395923614502,324,8491.0
2430,0.3071703016757965,-0.021545711904764175,-5,9999.0,6.094813346862793,-26,8491.0
2440,0.30742883682250977,-1.8663514852523804,-74,9999.0,-0.25009629130363464,-151,8491.0
2450,0.3070043921470642,-3.3539083003997803,-44,9999.0,-2.539013385772705,-51,8491.0
2460,0.30720919370651245,-2.1569647789001465,-9,9999.0,-2.657895565032959,-120,8491.0
2470,0.30741217732429504,0.5542072653770447,18,9999.0,-5.052219867706299,31,8491.0
2480,0.30758747458457947,3.575105905532837,35,9999.0,-7.059328079223633,30,8491.0
2490,0.30773812532424927,1.4773176908493042,222,9999.0,-1.5459673404693604,-146,8491.0
2500,0.30963030457496643,2.5415573120117188,6,9999.0,-4.106253147125244,10,8491.0
2510,0.3098714053630829,0.526175856590271,-50,9999.0,0.6618464589118958,88,8491.0
2520,0.31010788679122925,-0.520300030708313,12,9999.0,3.4878711700439453,33,8491.0
2530,0.3103400766849518,-1.4104489088058472,-38,9999.0,4.713409900665283,147,8491.0
2540,0.31118693947792053,-0.46223703026771545,-76,9999.0,5.252983093261719,263,8491.0
2550,0.31137189269065857,-1.0025427341461182,116,9999.0,6.685276985168457,54,8491.0
2560,0.3115316331386566,0.2882787883281708,20,9999.0,8.231131553649902,-5,8491.0
2570,0.3117254674434662,2.610186815261841,-61,9999.0,1.711625576019287,90,8491.0
2580,0.31193000078201294,2.357966423034668,13,9999.0,-0.824612021446228,-62,8491.0
2590,0.312084823846817,2.758472204208374,46,9999.0,-4.879714488983154,-155,8491.0
2600,0.31221985816955566,3.137080430984497,-1,9999.0,-8.042943000793457,-74,8491.0
2610,0.3123268187046051,1.8566304445266724,62,9999.0,-7.015964031219482,-126,8491.0
2620,0.31240206956863403,-0.04331479221582413,123,9999.0,-5.772120475769043,-237,8491.0
2630,0.31273695826530457,-2.248727321624756,-114,9999.0,-3.3719875812530518,23,8491.0
2640,0.31286460161209106,-2.067142963409424,-73,9999.0,0.12387591600418091,17,8491.0
2650,0.3129919469356537,-2.909557819366455,-53,9999.0,5.242092132568359,2,8491.0
2660,0.31308889389038086,-0.2643436789512634,-52,9999.0,5.307087421417236,142,8491.0
2670,0.3135358989238739,1.1175727844238281,-47,9999.0,5.188997745513916,186,8491.0
2680,0.31364551186561584,-1.5891309976577759,128,9999.0,5.9757561683654785,-10,8491.0
2690,0.3137492835521698,-1.037026047706604,-57,9999.0,1.2229924201965332,-8,8491.0
2700,0.31387022137641907,-0.9000691175460815,-112,9999.0,-3.485811471939087,89,8491.0
2710,0.31279271841049194,-0.9387522339820862,4,9999.0,-2.50917911529541,-38,8491.0
2720,0.3128174841403961,-1.9281519651412964,15,9999.0,0.3463257849216461,-91,8491.0
2730,0.31284859776496887,2.031358003616333,-2,9999.0,-4.578934669494629,32,8491.0
2740,0.3128865957260132,2.70647931098938,156,9999.0,-5.391283988952637,-132,8491.0
2750,0.31292933225631714,2.2302324771881104,184,9999.0,-2.656661033630371,-112,8491.0
2760,0.31218650937080383,0.9308791756629944,10,9999.0,5.072736740112305,183,8491.0
2770,0.3121592402458191,0.7493025064468384,-12,9999.0,-0.27540960907936096,79,8491.0
2780,0.312160462141037,-0.7104141116142273,23,9999.0,2.2715673446655273,3,8491.0
2790,0.3121868073940277,-1.372018575668335,-80,9999.0,3.8703298568725586,134,8491.0
2800,0.31293073296546936,-1.5508668422698975,-43,9999.0,2.9798245429992676,102,8491.0
2810,0.3130216598510742,-2.110278606414795,85,9999.0,7.467790126800537,-43,8491.0
2820,0.3131222128868103,-4.270966053009033,-39,9999.0,2.148519992828369,-42,8491.0
2830,0.3132426142692566,1.7627180814743042,-73,9999.0,-1.331800103187561,170,8491.0
2840,0.31334415078163147,-2.2520453929901123,4,9999.0,1.3891538381576538,29,8491.0
2850,0.3136994242668152,-1.4423556327819824,-17,9999.0,-2.83756947517395,-78,8491.0
2860,0.31380409002304077,0.15288174152374268,-67,9999.0,-4.7296037673950195,10,8491.0
2870,0.31390494108200073,2.04840087890625,26,9999.0,-3.6358132362365723,-117,8491.0
2880,0.31400397419929504,2.063354015350342,193,9999.0,-6.683563709259033,-319,8491.0
2890,0.313296914100647,-0.14115487039089203,-81,9999.0,-0.11930996924638748,62,8491.0
2900,0.3133271634578705,0.23110489547252655,-66,9999.0,2.168539047241211,67,8491.0
2910,0.31336355209350586,-0.13403421640396118,18,9999.0,4.248833179473877,48,8491.0
2920,0.313401997089386,-0.3320406675338745,-45,9999.0,6.178781986236572,143,8491.0
2930,0.3134298622608185,1.6108789443969727,-19,9999.0,5.213067531585693,176,8491.0
2940,0.31370946764945984,2.751434564590454,71,9999.0,6.469239711761475,15,8491.0
2950,0.31376904249191284,0.3228221833705902,73,9999.0,6.671585559844971,22,8491.0
2960,0.3139176666736603,-0.3130555748939514,-101,9999.0,3.431723117828369,52,8491.0
2970,0.31403395533561707,-1.9054744243621826,-6,9999.0,-2.161992073059082,-74,8491.0
2980,0.31334102153778076,-3.5550522804260254,-46,9999.0,-7.85518741607666,-182,8491.0
2990,0.3134556710720062,-5.627490520477295,-104,9999.0,-10.325101852416992,-59,8491.0
3000,0.31357666850090027,-3.6332924365997314,-104,9999.0,-8.066158294677734,8,8491.0
3010,0.3137446641921997,-1.673441767692566,42,9999.0,-1.9985820055007935,-142,8491.0
3020,0.31272387504577637,-2.296625852584839,66,9999.0,-3.8527145385742188,-135,8491.0
3030,0.31279343366622925,1.9555031061172485,-4,9999.0,0.43953630328178406,95,8491.0
3040,0.3128589987754822,1.1591321229934692,56,9999.0,3.237316131591797,73,8491.0
3050,0.3129180371761322,0.7862589955329895,-41,9999.0,4.167821884155273,26,8491.0
3060,0.3129768967628479,0.04016236588358879,-11,9999.0,5.27422571182251,278,8491.0
3070,0.3126646876335144,2.5269782543182373,191,9999.0,5.577176570892334,177,8491.0
3080,0.3127478063106537,6.2449750900268555,65,9999.0,6.601544380187988,93,8491.0
3090,0.3128178119659424,8.56877613067627,6,9999.0,0.2254609316587448,85,8491.0
3100,0.3129497170448303,4.793691158294678,90,9999.0,1.7528542280197144,-1,8491.0
3110,0.31345951557159424,2.75348162651062,36,9999.0,-1.5107477903366089,-34,8491.0
3120,0.31354302167892456,3.1545727252960205,-14,9999.0,-6.116795063018799,5,8491.0
3130,0.31361857056617737,2.3135058879852295,57,9999.0,-4.9467244148254395,-91,8491.0
3140,0.3136996328830719,-3.4408249855041504,94,9999.0,-5.450229167938232,-228,8491.0
3150,0.3137901723384857,-2.802924871444702,-134,9999.0,-4.11177396774292,-70,8491.0
3160,0.3119054138660431,-5.576220989227295,-109,9999.0,-4.4995622634887695,-34,8491.0
3170,0.3118745684623718,-5.724600315093994,-40,9999.0,-3.232945203781128,-169,8491.0
3180,0.3118398189544678,-5.264418601989746,-200,9999.0,-1.9331659078598022,-10,8491.0
3190,0.31182053685188293,-3.6465888023376465,-217,9999.0,-1.6243237257003784,92,8491.0
3200,0.311465322971344,-2.417268753051758,1,9999.0,2.1064112186431885,-65,8491.0
3210,0.31140196323394775,-1.531444787979126,30,9999.0,4.430294513702393,-60,8491.0
3220,0.31131771206855774,-1.1957573890686035,-27,9999.0,2.3470520973205566,71,8491.0
3230,0.3112368881702423,-0.7188954949378967,16,9999.0,5.337472915649414,88,8491.0
3240,0.31229108572006226,0.3008479177951813,85,9999.0,3.7696750164031982,-97,8491.0
3250,0.3122970759868622,6.0575785636901855,1,9999.0,1.4292633533477783,58,8491.0
3260,0.31241124868392944,10.433782577514648,-33,9999.0,-1.5279278755187988,77,8491.0
3270,0.3125500977039337,13.379447937011719,189,9999.0,-5.077409744262695,-204,8491.0
3280,0.31350594758987427,8.52214241027832,239,9999.0,-2.025052547454834,-202,8491.0
3290,0.31360283493995667,4.561285972595215,27,9999.0,0.7657119631767273,5,8491.0
3300,0.31405627727508545,-2.6817526817321777,-21,9999.0,2.181749105453491,15,8491.0
3310,0.3145526945590973,-2.1013295650482178,28,9999.0,0.9086203575134277,-63,8491.0
3320,0.31505274772644043,-1.170944333076477,-58,9999.0,2.009641408920288,124,8491.0
3330,0.31555482745170593,3.2516255378723145,-166,9999.0,1.0666298866271973,202,8491.0
3340,0.31606602668762207,-0.42392459511756897,-31,9999.0,0.5852771401405334,35,8491.0
3350,0.3165735602378845,-2.2085251808166504,-5,9999.0,6.404804229736328,-7,8491.0
3360,0.31700146198272705,1.88733971118927,-20,9999.0,4.0269551277160645,188,8491.0
3370,0.31604042649269104,2.7901675701141357,108,9999.0,3.0461764335632324,-55,8491.0
3380,0.3162859082221985,-0.9268497824668884,6,9999.0,0.12348657101392746,-107,8491.0
3390,0.3165823221206665,-7.743873119354248,-235,9999.0,0.08619721978902817,138,8491.0
3400,0.3168735206127167,-12.458636283874512,-223,9999.0,0.0010868506506085396,28,8491.0
3410,0.3169458508491516,-19.016740798950195,-274,9999.0,1.5271157026290894,40,8491.0
3420,0.3184453845024109,-17.717016220092773,-338,9999.0,1.6695325374603271,105,8491.0
3430,0.3187517821788788,-13.633624076843262,-157,9999.0,1.134176254272461,27,8491.0
3440,0.318960964679718,-10.493708610534668,-12,9999.0,-0.828498899936676,-160,8491.0
3450,0.31914225220680237,-7.496645450592041,-95,9999.0,-0.8535884022712708,47,8491.0
3460,0.3208203911781311,-1.5344122648239136,-34,9999.0,-0.46498891711235046,55,8491.0
3470,0.32088643312454224,-2.4676034450531006,-22,9999.0,1.7674561738967896,44,8491.0
3480,0.3210318386554718,-4.88457727432251,-157,9999.0,0.11389932781457901,100,8491.0
3490,0.32101958990097046,-8.670892715454102,-230,9999.0,2.1087799072265625,113,8491.0
3500,0.3211755156517029,-10.832428932189941,-120,9999.0,1.430307149887085,-151,8491.0
3510,0.32124564051628113,-13.95873737335205,-202,9999.0,-1.032372236251831,-14,8491.0
3520,0.321236789226532,-15.607190132141113,-306,9999.0,-0.7365195155143738,32,8491.0
3530,0.32110583782196045,-14.88930606842041,-196,9999.0,-0.049313031136989594,-31,8491.0
3540,0.32084742188453674,-13.894290924072266,-229,9999.0,-0.9037131667137146,-1,8491.0
3550,0.3217647075653076,-13.982574462890625,-332,9999.0,0.8807597160339355,149,8491.0
3560,0.32173460721969604,-14.196954727172852,-250,9999.0,0.3565627336502075,9,8491.0
3570,0.32166701555252075,-10.76115894317627,-127,9999.0,3.9085655212402344,-313,8491.0
3580,0.3215314447879791,-12.251646995544434,-251,9999.0,-1.4648219347000122,-31,8491.0
3590,0.3215292692184448,-10.826652526855469,-236,9999.0,2.6448142528533936,59,8491.0
3600,0.3219531178474426,-6.680993556976318,-54,9999.0,1.8198670148849487,-29,8491.0
3610,0.3217797577381134,-3.898932695388794,6,9999.0,1.318153738975525,-76,8491.0
3620,0.3216211199760437,-1.3045520782470703,-102,9999.0,-1.360148549079895,56,8491.0
3630,0.3214743137359619,0.09010713547468185,51,9999.0,-0.6505404710769653,83,8491.0
3640,0.32060185074806213,-2.4144904613494873,26,9999.0,1.4370476007461548,-42,8491.0
3650,0.3203316330909729,-3.5621516704559326,-123,9999.0,-1.1085271835327148,-120,8491.0
3660,0.32005777955055237,-5.963057994842529,-73,9999.0,1.7467727661132812,-2,8491.0
3670,0.3197748363018036,-7.724870204925537,-23,9999.0,2.3799285888671875,-48,8491.0
3680,0.3192680776119232,-4.11583948135376,-62,9999.0,-3.3185923099517822,38,8491.0
3690,0.3189552128314972,-0.13180379569530487,-88,9999.0,-1.7757461071014404,210,8491.0
3700,0.31860384345054626,3.520333766937256,45,9999.0,-2.1331777572631836,-61,8491.0
3710,0.31834927201271057,0.9482204914093018,105,9999.0,-2.4166085720062256,-214,8491.0
3720,0.31794846057891846,-0.34424516558647156,-77,9999.0,-1.1626113653182983,12,8491.0
3730,0.3180404305458069,-3.654221773147583,-57,9999.0,-1.6432088613510132,-30,8491.0
3740,0.31772494316101074,-4.697511196136475,2,9999.0,0.03144993633031845,-183,8491.0
3750,0.3174288272857666,-7.587831497192383,-215,9999.0,0.22131562232971191,62,8491.0
3760,0.31712037324905396,-4.9364423751831055,-197,9999.0,-6.040825366973877,-60,8491.0
3770,0.31789326667785645,-1.4001902341842651,-3,9999.0,-3.922907829284668,-183,8491.0
3780,0.317660391330719,0.5333924889564514,66,9999.0,-4.5888824462890625,-107,8491.0
3790,0.31746330857276917,3.211095094680786,80,9999.0,1.0703376531600952,86,8491.0
3800,0.3173249363899231,10.961209297180176,130,9999.0,2.1179006099700928,187,8491.0
3810,0.3178817629814148,11.285873413085938,240,9999.0,3.0775649547576904,-10,8491.0
3820,0.31785985827445984,11.195807456970215,244,9999.0,4.78114128112793,-46,8491.0
3830,0.3178459703922272,12.7545804977417,181,9999.0,1.1283568143844604,70,8491.0
3840,0.317815363407135,10.201314926147461,185,9999.0,2.224996566772461,59,8491.0
3850,0.31777358055114746,6.604154109954834,177,9999.0,0.7381070852279663,-21,8491.0
3860,0.31541356444358826,1.8082412481307983,5,9999.0,-3.067897081375122,95,8491.0
3870,0.315328449010849,0.35924720764160156,-77,9999.0,-5.939004421234131,130,8491.0
3880,0.31521132588386536,-2.3282620906829834,-6,9999.0,-5.27355432510376,-33,8491.0
3890,0.31514328718185425,-2.359846591949463,-25,9999.0,-1.996221899986267,29,8491.0
3900,0.31535986065864563,-1.038824200630188,-68,9999.0,0.8950421214103699,144,8491.0
3910,0.3152780532836914,-0.8167553544044495,32,9999.0,3.7193522453308105,38,8491.0
3920,0.3152426481246948,2.225595712661743,134,9999.0,5.964572906494141,-61,8491.0
3930,0.3151656687259674,2.819775104522705,-9,9999.0,4.9273362159729,111,8491.0
3940,0.31520262360572815,9.702696800231934,78,9999.0,6.451514720916748,111,8491.0
3950,0.31553858518600464,12.794024467468262,166,9999.0,6.936488151550293,-3,8491.0
3960,0.3156122863292694,12.259564399719238,187,9999.0,2.5474660396575928,-22,8491.0
3970,0.3157093822956085,13.131876945495605,137,9999.0,1.5147383213043213,92,8491.0
3980,0.3158397972583771,9.96446704864502,75,9999.0,-2.9178147315979004,16,8491.0
3990,0.3176027536392212,7.192924976348877,159,9999.0,-4.842014789581299,-130,8491.0
4000,0.3177827298641205,8.265949249267578,151,9999.0,-11.561407089233398,-254,8491.0
4010,0.3179745376110077,3.7131989002227783,-46,9999.0,-5.796205520629883,-49,8491.0
4020,0.3181309700012207,-0.16297337412834167,42,9999.0,-2.7216436862945557,-22,8491.0
4030,0.31934642791748047,2.8852157592773438,123,9999.0,-1.777871012687683,-87,8491.0
4040,0.3195313513278961,3.5650153160095215,34,9999.0,-0.06681326776742935,62,8491.0
4050,0.31973132491111755,2.8334877490997314,-88,9999.0,2.016913890838623,252,8491.0
4060,0.31995368003845215,3.2590601444244385,59,9999.0,-0.3263639211654663,20,8491.0
4070,0.3202499449253082,3.944119930267334,65,9999.0,4.085606575012207,11,8491.0
4080,0.31998297572135925,2.376028060913086,-20,9999.0,5.154411792755127,119,8491.0
4090,0.320180743932724,3.468636989593506,87,9999.0,3.221395492553711,48,8491.0
4100,0.32023200392723083,6.2866716384887695,203,9999.0,0.02054581418633461,-108,8491.0
4110,0.3204908072948456,5.9625244140625,82,9999.0,-1.089687705039978,-53,8491.0
4120,0.3207437992095947,10.879046440124512,43,9999.0,-3.047196388244629,94,8491.0
4130,0.3209228217601776,8.7767972946167,146,9999.0,-2.3079264163970947,69,8491.0
4140,0.3210337162017822,7.897190093994141,218,9999.0,-7.617733478546143,-165,8491.0
4150,0.32114309072494507,6.871588706970215,45,9999.0,-3.992377281188965,2,8491.0
4160,0.32119444012641907,5.960196495056152,111,9999.0,-2.53489351272583,5,8491.0
4170,0.322795033454895,7.4834303855896,230,9999.0,-0.8358546495437622,-87,8491.0
4180,0.32290875911712646,8.56258773803711,176,9999.0,2.575425148010254,-35,8491.0
4190,0.3230263888835907,3.9456286430358887,-30,9999.0,4.0782012939453125,181,8491.0
4200,0.3231455981731415,-0.32710880041122437,3,9999.0,3.0505497455596924,30,8491.0
4210,0.32199832797050476,-2.728626012802124,-30,9999.0,1.2237006425857544,-25,8491.0
4220,0.3220299184322357,-5.9215216636657715,-101,9999.0,1.0991570949554443,91,8491.0
4230,0.3221588432788849,-3.991652727127075,-130,9999.0,-2.1387503147125244,93,8491.0
4240,0.32218626141548157,-2.5589632987976074,25,9999.0,-5.871974468231201,-135,8491.0
4250,0.3222302794456482,-4.384209632873535,-116,9999.0,-6.10548734664917,-50,8491.0
4260,0.322033166885376,4.874160289764404,-21,9999.0,-6.109805583953857,26,8491.0
4270,0.3219391703605652,7.411825180053711,211,9999.0,-1.7190998792648315,-76,8491.0
4280,0.32192450761795044,10.740277290344238,189,9999.0,-0.4693374037742615,-7,8491.0
4290,0.32175081968307495,12.079873085021973,173,9999.0,2.1268248558044434,132,8491.0
4300,0.3217904269695282,11.434821128845215,288,9999.0,2.65682315826416,65,8491.0
4310,0.3216950297355652,9.588260650634766,270,9999.0,1.7349401712417603,9,8491.0
4320,0.3216058313846588,9.198724746704102,156,9999.0,0.0010429342510178685,-5,8491.0
4330,0.32151004672050476,5.745636940002441,-63,9999.0,-3.6993298530578613,81,8491.0
4340,0.3215850293636322,0.01952216774225235,18,9999.0,-2.4780969619750977,-39,8491.0
4350,0.32149538397789,-5.378849983215332,-15,9999.0,-0.21175001561641693,-64,8491.0
4360,0.3214138150215149,-5.921700477600098,-138,9999.0,-2.2648353576660156,-24,8491.0
4370,0.32132279872894287,-6.7961225509643555,-170,9999.0,-4.336658954620361,-3,8491.0
4380,0.32121801376342773,-7.436233997344971,-67,9999.0,-2.203005313873291,-157,8491.0
4390,0.321850448846817,-6.053531646728516,-62,9999.0,-0.8951098322868347,-184,8491.0
4400,0.3217979073524475,-7.61643123626709,-210,9999.0,1.2254359722137451,13,8491.0
4410,0.32175856828689575,-5.149065017700195,-167,9999.0,-0.3895028233528137,64,8491.0
4420,0.32174980640411377,-1.9755866527557373,8,9999.0,2.012157440185547,3,8491.0
4430,0.3218560516834259,-0.9379993677139282,-19,9999.0,1.606445550918579,25,8491.0
4440,0.32190728187561035,1.7377029657363892,10,9999.0,0.4050750732421875,126,8491.0
4450,0.3219022750854492,3.580505847930908,48,9999.0,-3.2291030883789062,87,8491.0
4460,0.32209843397140503,-2.8164162635803223,145,9999.0,0.3876914083957672,-79,8491.0
4470,0.32210487127304077,-5.116611003875732,80,9999.0,-1.5921357870101929,-47,8491.0
4480,0.3230173885822296,0.5971302390098572,-101,9999.0,0.2591533064842224,63,8491.0
4490,0.3230242133140564,-4.410763740539551,-71,9999.0,3.440250873565674,56,8491.0
4500,0.32333576679229736,-2.41619610786438,26,9999.0,0.6258190870285034,-43,8491.0
4510,0.32332831621170044,-3.6681525707244873,-142,9999.0,0.0355953574180603,76,8491.0
4520,0.32446688413619995,-2.2755117416381836,-149,9999.0,-0.767421543598175,133,8491.0
4530,0.32466891407966614,-2.02423357963562,-42,9999.0,0.8539542555809021,-104,8491.0
4540,0.3248762786388397,-2.609039545059204,72,9999.0,-0.3515704870223999,-230,8491.0
4550,0.3252011835575104,-6.359456539154053,-130,9999.0,1.9288239479064941,36,8491.0
4560,0.3255011737346649,-7.871834754943848,-132,9999.0,1.4902751445770264,31,8491.0
4570,0.3256116509437561,-6.7474565505981445,-58,9999.0,2.0328595638275146,0,8491.0
4580,0.32570838928222656,-3.330228805541992,-41,9999.0,-0.4972704350948334,1,8491.0
4590,0.32583943009376526,-2.4190874099731445,-98,9999.0,0.2608981430530548,160,8491.0
4600,0.3258342444896698,-2.458293914794922,-56,9999.0,-0.4070517122745514,61,8491.0
4610,0.3255479037761688,0.46130669116973877,90,9999.0,-2.2522165775299072,-6,8491.0
4620,0.32553455233573914,-2.488241672515869,-53,9999.0,1.5031144618988037,-22,8491.0
4630,0.3255879580974579,-5.290645599365234,-143,9999.0,2.9810032844543457,74,8491.0
4640,0.3255877196788788,-6.0319976806640625,-98,9999.0,2.649360418319702,-35,8491.0
4650,0.3249819874763489,-5.324319362640381,-24,9999.0,1.4245799779891968,-106,8491.0
4660,0.32494598627090454,0.3404208719730377,-63,9999.0,-1.4027358293533325,-2,8491.0
4670,0.32492905855178833,2.4872162342071533,-127,9999.0,-0.40670326352119446,168,8491.0
4680,0.3249259293079376,1.692528247833252,0,9999.0,-0.42378678917884827,31,8491.0
4690,0.3249164819717407,1.6984244585037231,167,9999.0,0.6358112692832947,-92,8491.0
4700,0.3241294324398041,0.35273855924606323,54,9999.0,0.0460851788520813,-27,8491.0
4710,0.3240629732608795,1.2331424951553345,12,9999.0,-1.5385838747024536,71,8491.0
4720,0.3239755928516388,-0.6232466697692871,97,9999.0,0.3515779972076416,-36,8491.0
4730,0.32386621832847595,1.8466657400131226,105,9999.0,-0.9372731447219849,-95,8491.0
4740,0.32460856437683105,1.1213434934616089,-42,9999.0,-0.7847964763641357,80,8491.0
4750,0.3244955241680145,2.3923332691192627,-98,9999.0,-1.3347407579421997,180,8491.0
4760,0.3243634104728699,-3.7212650775909424,-2,9999.0,3.819718599319458,157,8491.0
4770,0.3241783678531647,2.8797874450683594,133,9999.0,4.6634697914123535,-131,8491.0
4780,0.3247509300708771,5.116380214691162,52,9999.0,0.03048691526055336,-58,8491.0
4790,0.324640691280365,5.974042892456055,118,9999.0,0.18635514378547668,-11,8491.0
4800,0.32453152537345886,7.2419753074646,177,9999.0,-1.6648085117340088,-135,8491.0
4810,0.32450106739997864,4.428023338317871,-68,9999.0,0.6889334321022034,-8,8491.0
4820,0.3244278132915497,-0.9713234305381775,-39,9999.0,-5.83278226852417,54,8491.0
4830,0.3261958658695221,-8.612268447875977,-106,9999.0,-2.8057515621185303,-138,8491.0
4840,0.3262649178504944,-11.907444953918457,-243,9999.0,-2.065617322921753,-13,8491.0
4850,0.3263217508792877,-12.559239387512207,-255,9999.0,-2.114238977432251,40,8491.0
4860,0.3264114558696747,-10.547369003295898,-87,9999.0,-0.7842239737510681,-24,8491.0
4870,0.32652202248573303,-6.118762016296387,77,9999.0,-0.08348080515861511,-209,8491.0
4880,0.3266822099685669,-0.04817253351211548,32,9999.0,8.35533332824707,299,8491.0
4890,0.32680800557136536,5.832334995269775,-8,9999.0,5.662788391113281,105,8491.0
4900,0.3269123136997223,8.160158157348633,144,9999.0,4.574315547943115,126,8491.0
4910,0.3270419239997864,5.951759338378906,129,9999.0,2.744511842727661,45,8491.0
4920,0.3270939290523529,3.57094407081604,19,9999.0,2.0802955627441406,145,8491.0
4930,0.32723140716552734,1.6671315431594849,29,9999.0,-3.296316146850586,8,8491.0
4940,0.32738596200942993,-5.284115791320801,42,9999.0,-4.5715107917785645,-212,8491.0
4950,0.32746148109436035,-11.264433860778809,-128,9999.0,-5.807252883911133,-146,8491.0
4960,0.3269714415073395,-9.53768253326416,-178,9999.0,-3.4749033451080322,-9,8491.0
4970,0.32702237367630005,-8.220602989196777,-62,9999.0,-5.196625232696533,-105,8491.0
4980,0.32708263397216797,-5.38384485244751,-44,9999.0,-0.2781764268875122,-64,8491.0
4990,0.32717397809028625,-0.44417181611061096,-100,9999.0,-1.3517502546310425,89,8491.0
5000,0.3290555775165558,3.2431209087371826,24,9999.0,-0.42248770594596863,77,8491.0
5010,0.32929009199142456,4.453885555267334,154,9999.0,-2.1146156787872314,-6,8491.0
5020,0.32949942350387573,4.248736381530762,68,9999.0,3.5754244327545166,32,8491.0
5030,0.3296946883201599,2.5754635334014893,2,9999.0,2.591165781021118,66,8491.0
5040,0.3298528492450714,4.258160591125488,67,9999.0,0.7941330671310425,-20,8491.0
5050,0.33078834414482117,3.7239434719085693,154,9999.0,2.087876796722412,-162,8491.0
5060,0.3309764564037323,6.506612777709961,-25,9999.0,-1.207945466041565,-32,8491.0
5070,0.3311232328414917,2.8925671577453613,-140,9999.0,-4.744885444641113,19,8491.0
5080,0.33126315474510193,2.8760056495666504,18,9999.0,-5.095999240875244,-202,8491.0
5090,0.3312523066997528,2.4475719928741455,-10,9999.0,1.9552370309829712,-72,8491.0
5100,0.33136048913002014,3.2558224201202393,11,9999.0,-2.4650070667266846,10,8491.0
5110,0.3314393162727356,3.583425521850586,118,9999.0,4.292740345001221,-37,8491.0
5120,0.33149999380111694,4.3277692794799805,142,9999.0,3.403982400894165,-19,8491.0
5130,0.33153754472732544,3.3748080730438232,2,9999.0,7.07280158996582,138,8491.0
5140,0.33094358444213867,0.8377658128738403,4,9999.0,5.263042449951172,98,8491.0
5150,0.33091452717781067,0.22348305583000183,1,9999.0,2.4630744457244873,30,8491.0
5160,0.330873966217041,-1.37075936794281,-55,9999.0,1.7064377069473267,96,8491.0
5170,0.33083704113960266,-2.868149995803833,-104,9999.0,0.6953393816947937,148,8491.0
5180,0.3304964601993561,-2.742858648300171,64,9999.0,-3.569207191467285,-108,8491.0
5190,0.3304726183414459,-4.713218688964844,12,9999.0,-0.8434710502624512,-88,8491.0
5200,0.3304692804813385,0.5770519375801086,-56,9999.0,-6.570770263671875,21,8491.0
5210,0.33048075437545776,0.7377706170082092,65,9999.0,-3.5627827644348145,0,8491.0
5220,0.331455260515213,4.671281814575195,129,9999.0,-3.3508832454681396,-43,8491.0
5230,0.3314954936504364,5.672499179840088,26,9999.0,-0.8266277313232422,185,8491.0
5240,0.33159321546554565,6.679446697235107,108,9999.0,-0.50048828125,113,8491.0
5250,0.3316728174686432,6.2421393394470215,256,9999.0,3.426187038421631,-4,8491.0
5260,0.3317524492740631,4.338579177856445,117,9999.0,-0.6790785789489746,9,8491.0
5270,0.33185532689094543,3.4564316272735596,6,9999.0,2.2310800552368164,183,8491.0
5280,0.3319781422615051,3.984084367752075,118,9999.0,4.467136383056641,68,8491.0
5290,0.3320753574371338,7.727802276611328,125,9999.0,4.00358772277832,66,8491.0
5300,0.3320867121219635,10.165095329284668,85,9999.0,2.4974277019500732,114,8491.0
5310,0.3312600255012512,9.177513122558594,148,9999.0,0.8034641146659851,33,8491.0
5320,0.331285685300827,7.134021759033203,290,9999.0,-0.7210941314697266,-222,8491.0
5330,0.33131158351898193,5.577738285064697,48,9999.0,-4.540065288543701,-40,8491.0
5340,0.3313344717025757,5.235435485839844,-49,9999.0,-5.479875087738037,-28,8491.0
5350,0.33136191964149475,3.755096673965454,69,9999.0,-4.077813148498535,-67,8491.0
5360,0.3300142288208008,2.424304723739624,-20,9999.0,-2.7854740619659424,-64,8491.0
5370,0.3299884498119354,1.768500804901123,-3,9999.0,-2.7917885780334473,124,8491.0
5380,0.32996928691864014,-0.7385426163673401,110,9999.0,1.508347988128662,68,8491.0
5390,0.3299749195575714,-1.187142014503479,-48,9999.0,-0.7784154415130615,-43,8491.0
5400,0.3292037844657898,-0.8713338375091553,-156,9999.0,3.515263080596924,127,8491.0
5410,0.3291490077972412,-3.4284820556640625,-45,9999.0,6.960253715515137,16,8491.0
5420,0.329113632440567,-3.518418073654175,-50,9999.0,4.9406208992004395,-11,8491.0
5430,0.32907557487487793,-0.3664235770702362,-102,9999.0,2.0728213787078857,81,8491.0
5440,0.3297646641731262,-1.661728024482727,-139,9999.0,1.903149127960205,48,8491.0
5450,0.32979899644851685,0.36350229382514954,74,9999.0,0.020649947226047516,-123,8491.0
5460,0.3298737108707428,4.117969036102295,137,9999.0,-2.891648054122925,-284,8491.0
5470,0.3299512267112732,0.0058802408166229725,-18,9999.0,0.8463020324707031,-22,8491.0
5480,0.3300114572048187,-0.30782780051231384,13,9999.0,1.4658490419387817,19,8491.0
5490,0.33042749762535095,0.15394344925880432,65,9999.0,-0.1673460155725479,-106,8491.0
5500,0.3305111527442932,-0.18821753561496735,-43,9999.0,-0.12345359474420547,10,8491.0
5510,0.330599844455719,-0.45400699973106384,-123,9999.0,-5.553211688995361,70,8491.0
5520,0.33070582151412964,-6.124302387237549,-95,9999.0,-1.4588106870651245,-87,8491.0
5530,0.3301349878311157,-6.305769443511963,-10,9999.0,-2.584214448928833,-113,8491.0
5540,0.3302360475063324,-5.915929794311523,-158,9999.0,0.5485363602638245,46,8491.0
5550,0.33035728335380554,-5.54453182220459,-68,9999.0,-0.17330706119537354,19,8491.0
5560,0.3304937183856964,-5.569098949432373,1,9999.0,0.7323960065841675,-80,8491.0
5570,0.3306397795677185,-2.8303351402282715,-6,9999.0,-0.925751805305481,-71,8491.0
5580,0.3294009566307068,-1.7456995248794556,-175,9999.0,3.820129632949829,337,8491.0
5590,0.32950717210769653,-3.6623518466949463,11,9999.0,2.135122299194336,55,8491.0
5600,0.32961228489875793,-1.3072699308395386,75,9999.0,3.2770116329193115,-29,8491.0
5610,0.3297176957130432,1.4230912923812866,-42,9999.0,-1.3892775774002075,-61,8491.0
5620,0.3291212320327759,0.698184072971344,-71,9999.0,-3.235380172729492,171,8491.0
5630,0.3292161524295807,-1.7575547695159912,-12,9999.0,-3.7109339237213135,-148,8491.0
5640,0.3293098509311676,-0.9269191026687622,11,9999.0,-7.5290656089782715,-234,8491.0
5650,0.3294179439544678,2.113966703414917,-152,9999.0,-4.567140579223633,62,8491.0
5660,0.33046096563339233,1.242676854133606,45,9999.0,-0.3292125463485718,60,8491.0
5670,0.3306397497653961,0.22201049327850342,110,9999.0,-2.834162950515747,-170,8491.0
5680,0.3308474123477936,-0.5479162335395813,-10,9999.0,-1.1951501369476318,-5,8491.0
5690,0.33107638359069824,-0.7067550420761108,-21,9999.0,-0.12839947640895844,21,8491.0
5700,0.33129286766052246,-0.10594096779823303,56,9999.0,-1.9791710376739502,-117,8491.0
5710,0.33095642924308777,-1.3263506889343262,-37,9999.0,-0.014750974252820015,-13,8491.0
5720,0.33114537596702576,-3.1905574798583984,-212,9999.0,-2.581871509552002,154,8491.0
5730,0.3313309848308563,-4.016871929168701,-53,9999.0,-3.092660903930664,-71,8491.0
5740,0.3314586877822876,-7.109234809875488,-53,9999.0,-0.6254714131355286,-85,8491.0
5750,0.32984477281570435,-4.3341522216796875,-82,9999.0,1.2542073726654053,36,8491.0
5760,0.3298799395561218,-4.575589656829834,0,9999.0,0.16454775631427765,-104,8491.0
5770,0.3299071490764618,-2.791640043258667,-53,9999.0,1.3534282445907593,-26,8491.0
5780,0.32990747690200806,-0.7083261013031006,-249,9999.0,-0.39229825139045715,228,8491.0
5790,0.32988783717155457,-0.686295747756958,84,9999.0,2.907864809036255,-121,8491.0
5800,0.32788756489753723,-3.713775634765625,1,9999.0,1.9706530570983887,-95,8491.0
5810,0.3276835083961487,0.3687676191329956,-23,9999.0,1.1290192604064941,36,8491.0
5820,0.3274395763874054,1.7049884796142578,58,9999.0,3.9370546340942383,-30,8491.0
5830,0.3272055983543396,4.04462194442749,55,9999.0,4.419626712799072,19,8491.0
5840,0.3274029791355133,3.7696285247802734,-89,9999.0,-0.7511066794395447,172,8491.0
5850,0.3271804749965668,2.823367118835449,80,9999.0,1.6839393377304077,-28,8491.0
5860,0.32694801688194275,-0.5606347322463989,27,9999.0,-3.5087270736694336,-108,8491.0
5870,0.32677415013313293,-0.5182173848152161,-40,9999.0,-1.166121244430542,45,8491.0
5880,0.3274959325790405,-1.4698299169540405,27,9999.0,-1.2931276559829712,-103,8491.0
5890,0.3273853659629822,-0.018587598577141762,15,9999.0,-2.509033679962158,-58,8491.0
5900,0.32726359367370605,-1.2783769369125366,-228,9999.0,0.0007042561192065477,153,8491.0
5910,0.32713162899017334,-3.3739984035491943,-9,9999.0,3.8546600341796875,-63,8491.0
5920,0.3270486891269684,-4.108180999755859,-44,9999.0,-0.9736807942390442,-59,8491.0
5930,0.32740315794944763,-4.882612228393555,-124,9999.0,0.02302989922463894,78,8491.0
5940,0.32739704847335815,-4.088655471801758,-10,9999.0,-1.111236810684204,-87,8491.0
5950,0.3274146616458893,-3.501790761947632,20,9999.0,-2.075481414794922,-190,8491.0
5960,0.3275013566017151,-0.4802870452404022,-104,9999.0,-2.871084213256836,64,8491.0
5970,0.3292919099330902,-3.247694969177246,-70,9999.0,-2.5347819328308105,39,8491.0
5980,0.329569548368454,0.0005550640635192394,-16,9999.0,-6.099630832672119,-79,8491.0
5990,0.3298664689064026,-0.45958346128463745,-36,9999.0,-1.4672703742980957,22,8491.0
6000,0.33013713359832764,0.8050138354301453,121,9999.0,-0.055921658873558044,-112,8491.0
6010,0.33050277829170227,0.7501897811889648,-3,9999.0,0.9008131623268127,48,8491.0
6020,0.33024862408638,1.537293791770935,-107,9999.0,-0.21720562875270844,247,8491.0
6030,0.33060067892074585,-0.04746098071336746,22,9999.0,4.965725421905518,89,8491.0
6040,0.3309836685657501,-1.6368497610092163,-11,9999.0,0.9504247307777405,-29,8491.0
6050,0.33136600255966187,-2.9818806648254395,-167,9999.0,1.2597119808197021,61,8491.0
6060,0.3306766748428345,-5.062873363494873,16,9999.0,4.333991050720215,-120,8491.0
6070,0.3310113847255707,-3.551745891571045,-14,9999.0,-1.5841351747512817,-92,8491.0
6080,0.33133015036582947,-2.6227760314941406,-253,9999.0,-0.6683078408241272,126,8491.0
6090,0.3316522240638733,-3.9832427501678467,-57,9999.0,-1.7313354015350342,-37,8491.0
6100,0.3331240117549896,-1.1230216026306152,-6,9999.0,-0.03593256697058678,-34,8491.0
6110,0.33351853489875793,1.6075184345245361,9,9999.0,0.25960490107536316,71,8491.0
6120,0.3338937759399414,4.629581928253174,152,9999.0,-0.3424878418445587,-104,8491.0
6130,0.3342527747154236,5.065898895263672,130,9999.0,2.445626735687256,-29,8491.0
6140,0.33461081981658936,6.0606184005737305,-81,9999.0,0.033456578850746155,134,8491.0
6150,0.33577361702919006,6.379904270172119,103,9999.0,3.1561570167541504,17,8491.0
6160,0.3361848294734955,5.8709635734558105,100,9999.0,3.8938305377960205,17,8491.0
6170,0.33667993545532227,4.908474445343018,80,9999.0,2.757080316543579,58,8491.0
6180,0.3370818793773651,3.5210275650024414,153,9999.0,2.430253267288208,-77,8491.0
6190,0.3372651934623718,4.364627361297607,-9,9999.0,2.3736050128936768,47,8491.0
6200,0.3375765383243561,0.48641860485076904,-28,9999.0,2.361264705657959,88,8491.0
6210,0.3379121720790863,1.639089584350586,109,9999.0,1.7871886491775513,-25,8491.0
6220,0.33819735050201416,2.883601427078247,42,9999.0,3.6431586742401123,83,8491.0
6230,0.3384530544281006,4.26309061050415,68,9999.0,1.37331223487854,-8,8491.0
6240,0.3392936885356903,4.395076274871826,108,9999.0,3.4504048824310303,-71,8491.0
6250,0.33954426646232605,4.156027317047119,-52,9999.0,-1.122158169746399,177,8491.0
6260,0.33974114060401917,1.9144121408462524,45,9999.0,-3.154212713241577,-6,8491.0
6270,0.3399029076099396,0.03335399553179741,41,9999.0,-2.5963966846466064,-23,8491.0
6280,0.34003356099128723,0.3609268367290497,14,9999.0,-1.9953051805496216,26,8491.0
6290,0.3401288688182831,-1.0510505437850952,93,9999.0,-0.2940314710140228,-98,8491.0
6300,0.3402225971221924,0.49959176778793335,-66,9999.0,-1.4392907619476318,118,8491.0
6310,0.34029731154441833,0.798601508140564,6,9999.0,-5.970315933227539,-28,8491.0
6320,0.3405982553958893,-2.8959949016571045,62,9999.0,-1.789048433303833,-15,8491.0
6330,0.34065788984298706,-1.353754997253418,25,9999.0,-0.031875818967819214,35,8491.0
6340,0.3406814634799957,1.2220677137374878,101,9999.0,-1.8093206882476807,-136,8491.0
6350,0.3406953811645508,3.0697453022003174,85,9999.0,-1.8628216981887817,-36,8491.0
6360,0.3407016694545746,0.6420600414276123,-97,9999.0,-1.3526697158813477,106,8491.0
6370,0.3408222198486328,0.45788276195526123,56,9999.0,0.5842767357826233,-1,8491.0
6380,0.3408413529396057,4.192331790924072,64,9999.0,0.5686484575271606,15,8491.0
6390,0.34083765745162964,3.296785593032837,50,9999.0,-3.1542646884918213,-28,8491.0
6400,0.3408050239086151,0.7410820722579956,133,9999.0,1.630397081375122,-128,8491.0
6410,0.3416304290294647,0.3768395781517029,-91,9999.0,3.1266324520111084,72,8491.0
6420,0.34163546562194824,-0.7250875234603882,-29,9999.0,1.4664849042892456,21,8491.0
6430,0.3416260778903961,-0.6063433885574341,3,9999.0,2.0879955291748047,-3,8491.0
6440,0.34161069989204407,0.5691341757774353,-78,9999.0,0.939028263092041,45,8491.0
6450,0.3415899872779846,-1.135040283203125,19,9999.0,1.6101775169372559,-162,8491.0
6460,0.3417072892189026,-1.4699922800064087,-36,9999.0,2.0803937911987305,-42,8491.0
6470,0.34167641401290894,-1.311147689819336,-98,9999.0,5.472186088562012,100,8491.0
6480,0.3416633605957031,-0.7929314374923706,-14,9999.0,4.894315719604492,74,8491.0
6490,0.3416385054588318,5.472760200500488,-68,9999.0,1.5932104587554932,93,8491.0
6500,0.34134796261787415,-0.3888586759567261,-45,9999.0,3.9488205909729004,158,8491.0
6510,0.34126341342926025,-4.733665466308594,35,9999.0,3.6459298133850098,-30,8491.0
6520,0.34116294980049133,-0.42010509967803955,7,9999.0,-0.656114399433136,-37,8491.0
6530,0.3410775363445282,-0.5482677221298218,-53,9999.0,-7.173478603363037,-12,8491.0
6540,0.3402300775051117,-0.6690763235092163,22,9999.0,-5.02565336227417,-125,8491.0
6550,0.34009838104248047,1.6366420984268188,-32,9999.0,-8.875653266906738,-57,8491.0
6560,0.3399534523487091,-0.9149286150932312,-78,9999.0,-3.441371202468872,9,8491.0
6570,0.33979201316833496,-0.4400250017642975,6,9999.0,-4.697378158569336,-98,8491.0
6580,0.3396022915840149,-0.10055072605609894,-68,9999.0,-0.5926027894020081,108,8491.0
6590,0.34162846207618713,0.33480343222618103,80,9999.0,1.9669464826583862,27,8491.0
6600,0.3415052592754364,0.2882586717605591,-17,9999.0,4.674455165863037,100,8491.0
6610,0.3413846790790558,0.19454741477966309,-76,9999.0,3.2546560764312744,203,8491.0
6620,0.3412722051143646,1.6538355350494385,147,9999.0,1.2440634965896606,-25,8491.0
6630,0.34225741028785706,-3.2824246883392334,104,9999.0,-1.0522981882095337,-174,8491.0
6640,0.34223073720932007,-0.17033593356609344,-16,9999.0,-6.309135913848877,-68,8491.0
6650,0.34217458963394165,-0.46423396468162537,40,9999.0,-2.7654972076416016,-105,8491.0
6660,0.34212562441825867,-1.7496737241744995,11,9999.0,-3.9907381534576416,-133,8491.0
6670,0.34206509590148926,-0.8217426538467407,-148,9999.0,-4.6605000495910645,85,8491.0
6680,0.3423576056957245,1.6492146253585815,-9,9999.0,-0.3658319115638733,-47,8491.0
6690,0.3423192501068115,2.7907745838165283,58,9999.0,-0.35928457975387573,-43,8491.0
6700,0.3422790765762329,1.7282969951629639,-35,9999.0,0.9482103586196899,108,8491.0
6710,0.34220361709594727,0.7734986543655396,45,9999.0,2.235246419906616,-5,8491.0
6720,0.34171977639198303,-2.4478342533111572,-50,9999.0,1.6985132694244385,-111,8491.0
6730,0.3416767418384552,-3.8904099464416504,-155,9999.0,2.1082074642181396,70,8491.0
6740,0.34163254499435425,-4.687020301818848,-66,9999.0,-0.1378089040517807,-32,8491.0
6750,0.3416212797164917,-4.876405715942383,-70,9999.0,1.4083497524261475,-58,8491.0
6760,0.34138667583465576,-4.939877033233643,-218,9999.0,-0.38530781865119934,128,8491.0
6770,0.3413636386394501,-6.11082649230957,-61,9999.0,-0.08227211982011795,-42,8491.0
6780,0.341298907995224,-3.510713815689087,-31,9999.0,-0.02312965877354145,-53,8491.0
6790,0.34119290113449097,-3.1043636798858643,-122,9999.0,0.3217167258262634,117,8491.0
6800,0.34113404154777527,-4.506352424621582,-58,9999.0,0.36285045742988586,12,8491.0
6810,0.3413918912410736,-8.010674476623535,8,9999.0,2.854116201400757,-114,8491.0
6820,0.341293603181839,-5.743155002593994,-167,9999.0,3.6599929332733154,67,8491.0
6830,0.34119805693626404,-4.130947589874268,-54,9999.0,0.5716995596885681,13,8491.0
6840,0.34112682938575745,-2.3667781352996826,62,9999.0,-0.19883857667446136,-177,8491.0
6850,0.3410273790359497,-3.643768310546875,-119,9999.0,-1.76865553855896,41,8491.0
6860,0.3409891724586487,-3.2020316123962402,-101,9999.0,-1.3379288911819458,-6,8491.0
6870,0.3409687280654907,-4.3678460121154785,-33,9999.0,-2.365766763687134,-74,8491.0
6880,0.34095868468284607,-2.668964147567749,-91,9999.0,-0.44291654229164124,51,8491.0
6890,0.34093478322029114,0.18969567120075226,-80,9999.0,-4.782456398010254,148,8491.0
6900,0.34252288937568665,0.5455129146575928,56,9999.0,-1.5498130321502686,-39,8491.0
6910,0.34257617592811584,0.5077556371688843,39,9999.0,4.500877857208252,59,8491.0
6920,0.3426366150379181,1.1634302139282227,-33,9999.0,2.8531265258789062,160,8491.0
6930,0.3426842987537384,0.9270502328872681,58,9999.0,4.910436630249023,20,8491.0
6940,0.3424372673034668,-0.24997177720069885,56,9999.0,4.7314910888671875,37,8491.0
6950,0.342485636472702,0.5471253395080566,-51,9999.0,1.8148576021194458,85,8491.0
6960,0.34251993894577026,0.219271719455719,54,9999.0,1.3077208995819092,-23,8491.0
6970,0.3425728976726532,1.3289538621902466,66,9999.0,-1.229771375656128,-94,8491.0
6980,0.3435586988925934,3.558802366256714,-63,9999.0,-1.0264755487442017,69,8491.0
6990,0.3437047600746155,-0.17526249587535858,-16,9999.0,0.3342895805835724,25,8491.0
7000,0.34385842084884644,-0.8957257270812988,-2,9999.0,-1.5025992393493652,-68,8491.0
7010,0.34400156140327454,-0.9377467036247253,-49,9999.0,-1.4856623411178589,32,8491.0
7020,0.34414419531822205,0.569294273853302,6,9999.0,-2.7500498294830322,-36,8491.0
7030,0.34503859281539917,0.8083986043930054,121,9999.0,-2.2699127197265625,-216,8491.0
7040,0.34523528814315796,0.13130848109722137,-3,9999.0,0.334791898727417,16,8491.0
7050,0.34542208909988403,2.282919406890869,12,9999.0,0.1228392943739891,-1,8491.0
7060,0.34559446573257446,1.6461158990859985,94,9999.0,1.4152613878250122,-94,8491.0
7070,0.34625306725502014,2.3002030849456787,-102,9999.0,0.35276004672050476,78,8491.0
7080,0.34643808007240295,0.7225892543792725,22,9999.0,-0.7002281546592712,27,8491.0
7090,0.34661954641342163,0.3862046003341675,86,9999.0,0.28327447175979614,-65,8491.0
7100,0.3467791974544525,0.829390287399292,-19,9999.0,0.4083557426929474,89,8491.0
7110,0.34689438343048096,1.3726609945297241,112,9999.0,1.3851537704467773,-12,8491.0
7120,0.34620022773742676,4.361125469207764,129,9999.0,1.310900092124939,-71,8491.0
7130,0.34620213508605957,5.760050296783447,-2,9999.0,-3.4182534217834473,12,8491.0
7140,0.3461727499961853,1.1974116563796997,34,9999.0,1.8025425672531128,-22,8491.0
7150,0.34611231088638306,1.873520851135254,-52,9999.0,-3.1346116065979004,-11,8491.0
7160,0.3464147746562958,3.4730265140533447,69,9999.0,-2.649324893951416,53,8491.0
7170,0.3463093936443329,4.270845413208008,47,9999.0,-0.15334370732307434,-72,8491.0
7180,0.34616419672966003,4.78901481628418,-10,9999.0,-2.282902240753174,55,8491.0
7190,0.3460320234298706,2.7814669609069824,71,9999.0,0.23001448810100555,71,8491.0
7200,0.3455469310283661,3.8050496578216553,-37,9999.0,-1.0008244514465332,69,8491.0
7210,0.345380961894989,1.2262433767318726,-29,9999.0,3.39182186126709,121,8491.0
7220,0.34525519609451294,0.835780143737793,126,9999.0,3.9868228435516357,28,8491.0
7230,0.34506046772003174,2.5715723037719727,33,9999.0,5.484840393066406,103,8491.0
7240,0.344876766204834,3.2296369075775146,73,9999.0,4.496330738067627,95,8491.0
7250,0.34590432047843933,3.814497232437134,163,9999.0,1.6693257093429565,-92,8491.0
7260,0.34577932953834534,2.5739967823028564,9,9999.0,0.17029409110546112,44,8491.0
7270,0.345642626285553,2.7053322792053223,4,9999.0,-2.0862009525299072,38,8491.0
7280,0.3455142080783844,1.6141786575317383,110,9999.0,-2.57015323638916,-57,8491.0
7290,0.34443578124046326,1.1914148330688477,-19,9999.0,-5.944431304931641,-10,8491.0
7300,0.34420955181121826,0.7350013256072998,14,9999.0,-4.790205001831055,-59,8491.0
7310,0.3439919650554657,-0.3219256103038788,105,9999.0,-8.832268714904785,-259,8491.0
7320,0.34378308057785034,-1.5699197053909302,-19,9999.0,-2.358175277709961,-1,8491.0
7330,0.34358882904052734,-1.2660375833511353,9,9999.0,1.1264302730560303,-25,8491.0
7340,0.3439827859401703,-1.346651554107666,10,9999.0,5.46437931060791,16,8491.0
7350,0.34388265013694763,-1.8252077102661133,-92,9999.0,7.670223236083984,156,8491.0
7360,0.3437720835208893,-0.5623581409454346,14,9999.0,1.91578209400177,-6,8491.0
7370,0.34366270899772644,-2.0582680702209473,6,9999.0,2.887038230895996,-74,8491.0
7380,0.3433285653591156,-3.0419044494628906,-159,9999.0,-0.8926226496696472,142,8491.0
7390,0.3432600498199463,-2.3446104526519775,-21,9999.0,-2.181534767150879,-46,8491.0
7400,0.34318652749061584,-2.004020929336548,144,9999.0,-3.370931386947632,-198,8491.0
7410,0.3430997431278229,-2.9198973178863525,-84,9999.0,-3.8027074337005615,-11,8491.0
7420,0.3429967761039734,-2.6322624683380127,-4,9999.0,-2.5920283794403076,-63,8491.0
7430,0.3429200351238251,-2.324471950531006,74,9999.0,-3.0033555030822754,-167,8491.0
7440,0.34282824397087097,-0.1876976191997528,-56,9999.0,-0.9693590402603149,61,8491.0
7450,0.34281110763549805,-2.6586086750030518,22,9999.0,3.5871810913085938,38,8491.0
7460,0.3427855968475342,-0.09011336416006088,40,9999.0,3.4418866634368896,4,8491.0
7470,0.34285879135131836,-0.0854099839925766,-123,9999.0,4.41811466217041,234,8491.0
7480,0.34284302592277527,-0.40837809443473816,-4,9999.0,6.1679229736328125,66,8491.0
7490,0.3428281545639038,0.16195955872535706,50,9999.0,2.9661037921905518,25,8491.0
7500,0.34281066060066223,-0.7007099986076355,-65,9999.0,2.8914053440093994,129,8491.0
7510,0.34249696135520935,-0.5994907021522522,-5,9999.0,-0.47686848044395447,-65,8491.0
7520,0.34245601296424866,-2.2326278686523438,49,9999.0,1.6482757329940796,-168,8491.0
7530,0.342413991689682,-1.7957308292388916,-78,9999.0,-6.230221748352051,-52,8491.0
7540,0.34236836433410645,-2.7920005321502686,-23,9999.0,3.8245761394500732,17,8491.0
7550,0.34231090545654297,-1.7607619762420654,-1,9999.0,2.6577651500701904,-35,8491.0
7560,0.34209495782852173,0.7510974407196045,-143,9999.0,0.5578057765960693,213,8491.0
7570,0.34197378158569336,-0.242850199341774,-23,9999.0,5.958835124969482,197,8491.0
7580,0.3418373465538025,2.8328559398651123,156,9999.0,0.07315384596586227,-63,8491.0
7590,0.3417092561721802,3.782655954360962,40,9999.0,1.5683531761169434,114,8491.0
7600,0.3425162136554718,2.7105486392974854,138,9999.0,-2.3712775707244873,-72,8491.0
7610,0.342340886592865,3.834530830383301,129,9999.0,-1.8279249668121338,-166,8491.0
7620,0.34212639927864075,3.1245298385620117,-4,9999.0,-3.384692907333374,-86,8491.0
7630,0.34188076853752136,-1.8690367937088013,5,9999.0,-2.9012651443481445,-92,8491.0
7640,0.34296736121177673,-0.39496275782585144,-53,9999.0,-0.10785181075334549,-27,8491.0
7650,0.34282732009887695,-3.052812099456787,-158,9999.0,0.08572307229042053,101,8491.0
7660,0.34268298745155334,-4.888998508453369,-50,9999.0,6.535204887390137,-7,8491.0
7670,0.34253740310668945,3.068239688873291,92,9999.0,4.616764545440674,-110,8491.0
7680,0.34243044257164,0.06541384756565094,4,9999.0,6.883777141571045,92,8491.0
7690,0.3417544662952423,0.07665452361106873,51,9999.0,2.753232002258301,-1,8491.0
7700,0.34162309765815735,0.8170002102851868,111,9999.0,0.035523366183042526,-167,8491.0
7710,0.3414844572544098,2.623776912689209,-6,9999.0,-3.3641068935394287,25,8491.0
7720,0.3413626253604889,1.5281974077224731,53,9999.0,-0.5853022336959839,59,8491.0
7730,0.3435427248477936,1.0960077047348022,-19,9999.0,-1.0933274030685425,-96,8491.0
7740,0.34353989362716675,1.549910068511963,-22,9999.0,-0.2874048948287964,55,8491.0
7750,0.34355083107948303,-0.6325117349624634,57,9999.0,0.8231902718544006,137,8491.0
7760,0.3435394763946533,1.273079752922058,3,9999.0,0.283957302570343,6,8491.0
7770,0.3435036242008209,0.5103257894515991,-27,9999.0,4.263177394866943,139,8491.0
7780,0.3440547287464142,1.5832983255386353,103,9999.0,2.9037585258483887,15,8491.0
7790,0.3440253734588623,0.9252844452857971,81,9999.0,4.044339179992676,0,8491.0
7800,0.34407469630241394,0.8609927296638489,-92,9999.0,-0.00914208497852087,98,8491.0
7810,0.3440764248371124,-1.3662270307540894,8,9999.0,2.207491159439087,13,8491.0
7820,0.34489089250564575,-2.2873380184173584,17,9999.0,1.0201301574707031,-93,8491.0
7830,0.34498390555381775,-2.323127269744873,-82,9999.0,-1.9416099786758423,-4,8491.0
7840,0.3450777232646942,-1.192803978919983,-66,9999.0,-7.00906229019165,43,8491.0
7850,0.3451676070690155,-2.5537009239196777,6,9999.0,-2.918240547180176,-51,8491.0
7860,0.34629786014556885,-3.3621561527252197,-97,9999.0,2.608628511428833,93,8491.0
7870,0.346400648355484,-2.496490240097046,-114,9999.0,2.839230537414551,129,8491.0
7880,0.3465765416622162,-4.337517738342285,-4,9999.0,8.397409439086914,108,8491.0
7890,0.34672996401786804,-4.270976543426514,-45,9999.0,7.741785049438477,120,8491.0
7900,0.34691789746284485,-1.5755070447921753,-93,9999.0,4.673880577087402,153,8491.0
7910,0.3479236960411072,0.21400733292102814,52,9999.0,1.9531826972961426,-34,8491.0
7920,0.34817108511924744,0.10757748037576675,157,9999.0,-2.542060136795044,-202,8491.0
7930,0.3484173119068146,-1.1097276210784912,-27,9999.0,3.765181541442871,56,8491.0
7940,0.3486443758010864,-1.0235892534255981,-31,9999.0,2.353297472000122,34,8491.0
7950,0.3505209982395172,-2.9707419872283936,40,9999.0,2.9123644828796387,-124,8491.0
7960,0.3508152365684509,-0.9317346215248108,-86,9999.0,2.4839165210723877,58,8491.0
7970,0.3510942757129669,1.853694200515747,-103,9999.0,2.8980469703674316,195,8491.0
7980,0.35134902596473694,-0.3080393075942993,39,9999.0,2.392256498336792,-12,8491.0
7990,0.3515816330909729,-0.20395317673683167,-45,9999.0,2.0929625034332275,5,8491.0
8000,0.35189342498779297,1.4261360168457031,-27,9999.0,-1.315041422843933,9,8491.0
8010,0.3520500659942627,1.4058371782302856,90,9999.0,-1.540349006652832,-209,8491.0
8020,0.35217222571372986,0.17946141958236694,-30,9999.0,-0.2498282790184021,-76,8491.0
8030,0.3522821068763733,1.3544501066207886,-162,9999.0,-5.030980587005615,1,8491.0
8040,0.35067591071128845,-1.561716914176941,-53,9999.0,0.013482227921485901,-41,8491.0
8050,0.3506232500076294,-2.1032400131225586,-72,9999.0,0.6855778694152832,16,8491.0
8060,0.3505544364452362,0.8539310097694397,-65,9999.0,1.0015126466751099,128,8491.0
8070,0.35043591260910034,-1.2466975450515747,64,9999.0,2.244718551635742,-62,8491.0
8080,0.35055890679359436,3.646635055541992,113,9999.0,4.45065975189209,-109,8491.0
8090,0.35038644075393677,1.5552922487258911,-36,9999.0,4.097453594207764,56,8491.0
8100,0.35020264983177185,0.3339962661266327,57,9999.0,5.893426895141602,1,8491.0
8110,0.34999603033065796,1.582772970199585,39,9999.0,0.1527194082736969,-41,8491.0
8120,0.3497959077358246,4.747779369354248,-47,9999.0,-3.121070623397827,110,8491.0
8130,0.3492499589920044,1.7193371057510376,47,9999.0,-0.10282271355390549,-4,8491.0
8140,0.3490200936794281,2.0477089881896973,129,9999.0,-3.498849868774414,-182,8491.0
8150,0.3488038182258606,2.081857442855835,-11,9999.0,-4.051992893218994,-29,8491.0
8160,0.3485720753669739,2.1226494312286377,54,9999.0,-0.7884109020233154,-7,8491.0
8170,0.3478025496006012,1.220994234085083,119,9999.0,-0.8377854228019714,-168,8491.0
8180,0.34755775332450867,0.5792186856269836,-51,9999.0,-1.3709498643875122,-52,8491.0
8190,0.34731507301330566,0.5868203043937683,-108,9999.0,-5.809691429138184,12,8491.0
8200,0.34708428382873535,-1.7031728029251099,13,9999.0,-0.45998233556747437,-28,8491.0
8210,0.3468743562698364,-2.283909320831299,-49,9999.0,0.9622393250465393,11,8491.0
8220,0.34798040986061096,-1.9954971075057983,-151,9999.0,-2.2306900024414062,124,8491.0
8230,0.34789377450942993,-3.195873498916626,-27,9999.0,-3.066110610961914,-77,8491.0
8240,0.34782642126083374,-2.2951531410217285,61,9999.0,-3.7267606258392334,-165,8491.0
8250,0.34776362776756287,-3.3450675010681152,-60,9999.0,-1.7042971849441528,-63,8491.0
8260,0.34781941771507263,1.9610191583633423,34,9999.0,-6.032567977905273,-122,8491.0
8270,0.3478001356124878,2.529068946838379,120,9999.0,-5.934983730316162,-236,8491.0
8280,0.3477695882320404,2.693901538848877,12,9999.0,-4.478558540344238,-63,8491.0
8290,0.3477548658847809,1.052209734916687,118,9999.0,-6.307394981384277,-25,8491.0
8300,0.34664860367774963,3.0257060527801514,83,9999.0,-3.111679792404175,-93,8491.0
8310,0.3466223478317261,3.080447196960449,-19,9999.0,0.7015851140022278,75,8491.0
8320,0.3465583026409149,1.6730873584747314,79,9999.0,0.8621112108230591,12,8491.0
8330,0.34645453095436096,1.26858389377594,168,9999.0,3.7486817836761475,-113,8491.0
8340,0.3463592827320099,-2.667973279953003,-44,9999.0,4.806842803955078,61,8491.0
8350,0.3457251787185669,-1.0130245685577393,-9,9999.0,0.7445970773696899,38,8491.0
8360,0.3456175625324249,-2.6713175773620605,11,9999.0,2.5771286487579346,-73,8491.0
8370,0.3455437123775482,-1.8982068300247192,-89,9999.0,0.015627587214112282,29,8491.0
8380,0.34544825553894043,-1.8892978429794312,-120,9999.0,-3.7350165843963623,104,8491.0
8390,0.3455943167209625,-0.6268947124481201,39,9999.0,-4.344148635864258,-145,8491.0
8400,0.34559258818626404,-0.5270921587944031,-18,9999.0,-10.274222373962402,-127,8491.0
8410,0.3455113470554352,0.056908413767814636,-46,9999.0,-6.710880279541016,-65,8491.0
8420,0.3454371988773346,-0.243051677942276,50,9999.0,-3.34102201461792,-184,8491.0
8430,0.3453953266143799,1.3922854661941528,36,9999.0,-1.0505046844482422,-155,8491.0
8440,0.34319552779197693,-0.27390536665916443,-121,9999.0,0.19166406989097595,65,8491.0
8450,0.3431224226951599,3.1423118114471436,59,9999.0,0.8083623051643372,-69,8491.0
8460,0.3430596888065338,3.6672887802124023,133,9999.0,2.579258441925049,-98,8491.0
8470,0.34298625588417053,4.346835136413574,-31,9999.0,3.1859989166259766,86,8491.0
8480,0.341732382774353,4.537281036376953,-30,9999.0,-3.3409066200256348,145,8491.0
8490,0.34164077043533325,4.69903039932251,149,9999.0,1.0520933866500854,-50,8491.0
8500,0.3415418267250061,4.592476844787598,76,9999.0,2.7594990730285645,24,8491.0
8510,0.3415210545063019,4.685657501220703,53,9999.0,0.013732504099607468,70,8491.0
8520,0.3424662947654724,4.979708671569824,146,9999.0,0.18574930727481842,-76,8491.0
8530,0.3425081968307495,6.38394832611084,103,9999.0,1.9645626544952393,-127,8491.0
8540,0.34251105785369873,0.16055966913700104,-58,9999.0,-1.2525594234466553,-5,8491.0
8550,0.342521995306015,-0.16541382670402527,16,9999.0,-0.300938218832016,17,8491.0
8560,0.3425198495388031,-0.2960623502731323,66,9999.0,-0.6783574223518372,-137,8491.0
8570,0.34187036752700806,0.6186054944992065,-98,9999.0,-1.7421553134918213,74,8491.0
8580,0.3418057858943939,-0.9750207662582397,-83,9999.0,-0.7875177264213562,121,8491.0
8590,0.34174200892448425,2.1486990451812744,81,9999.0,-4.158080577850342,-3,8491.0
8600,0.3416758179664612,-6.224557399749756,-115,9999.0,1.7394858598709106,120,8491.0
8610,0.3409850001335144,-3.234536647796631,-62,9999.0,4.211794376373291,125,8491.0
8620,0.34093666076660156,-0.9587101340293884,44,9999.0,6.202764511108398,37,8491.0
8630,0.34089577198028564,-0.7889111042022705,26,9999.0,7.743035793304443,-22,8491.0
8640,0.3408786356449127,0.260012686252594,-66,9999.0,8.222153663635254,155,8491.0
8650,0.34087076783180237,1.0899876356124878,-55,9999.0,5.090925693511963,154,8491.0
8660,0.34216564893722534,0.05530568212270737,52,9999.0,-1.382310152053833,2,8491.0
8670,0.3423217833042145,1.180294394493103,-16,9999.0,-6.005887031555176,-20,8491.0
8680,0.342481791973114,-0.6467333436012268,-64,9999.0,-7.663990497589111,-13,8491.0
8690,0.3426801860332489,-2.3126866817474365,53,9999.0,-4.558797359466553,-145,8491.0
8700,0.34341442584991455,-2.417340040206909,91,9999.0,-7.766852855682373,-241,8491.0
8710,0.34366750717163086,-2.520125150680542,-100,9999.0,-4.621469020843506,66,8491.0
8720,0.34389373660087585,-4.9507222175598145,-122,9999.0,2.6632955074310303,121,8491.0
8730,0.3440866768360138,-3.5914981365203857,1,9999.0,5.10404634475708,58,8491.0
8740,0.3429673910140991,-0.9682483673095703,-68,9999.0,8.086336135864258,226,8491.0
8750,0.343071848154068,-0.15406693518161774,-32,9999.0,9.146586418151855,266,8491.0
8760,0.3432293236255646,0.0024649507831782103,107,9999.0,11.121604919433594,91,8491.0
8770,0.3433726131916046,-0.9061223864555359,29,9999.0,13.400484085083008,-67,8491.0
8780,0.3435288071632385,-1.560797929763794,-69,9999.0,0.7828719019889832,-43,8491.0
8790,0.34470322728157043,0.6436143517494202,39,9999.0,-6.144603729248047,-102,8491.0
8800,0.3449081480503082,1.7944462299346924,82,9999.0,-7.230290412902832,-176,8491.0
8810,0.34507668018341064,3.0417487621307373,-43,9999.0,-7.5968918800354,-20,8491.0
8820,0.34519273042678833,1.5806910991668701,7,9999.0,-5.695535182952881,9,8491.0
8830,0.3443481922149658,2.784550189971924,52,9999.0,-4.680776119232178,-136,8491.0
8840,0.34436604380607605,0.2699311077594757,-17,9999.0,-0.15796279907226562,-5,8491.0
8850,0.34438616037368774,-0.8219467997550964,-56,9999.0,2.1969621181488037,105,8491.0
8860,0.34440839290618896,-1.2841200828552246,11,9999.0,4.242046356201172,-33,8491.0
8870,0.3444250822067261,-0.30399394035339355,55,9999.0,4.874694347381592,-81,8491.0
8880,0.3446805477142334,-0.04006523638963699,-109,9999.0,2.7915382385253906,68,8491.0
8890,0.34469208121299744,-2.3628334999084473,-154,9999.0,2.616678476333618,41,8491.0
8900,0.3446798622608185,0.1574058085680008,-13,9999.0,0.5376777052879333,-68,8491.0
8910,0.3446420133113861,-0.547823429107666,24,9999.0,2.245612621307373,-40,8491.0
8920,0.3459278345108032,2.606109619140625,114,9999.0,-2.9328134059906006,33,8491.0
8930,0.34596240520477295,4.185564994812012,122,9999.0,-3.3862147331237793,-153,8491.0
8940,0.34600773453712463,5.580666542053223,-1,9999.0,-0.12417367100715637,77,8491.0
8950,0.346055805683136,2.364877462387085,-7,9999.0,-5.101496696472168,10,8491.0
8960,0.347623348236084,1.6465208530426025,82,9999.0,-2.496506690979004,-83,8491.0
8970,0.3477073311805725,-0.5416954159736633,-43,9999.0,-2.2688632011413574,39,8491.0
8980,0.34780940413475037,-1.606921672821045,-61,9999.0,-2.7978053092956543,105,8491.0
8990,0.3479205369949341,-0.8808289766311646,17,9999.0,-4.747995853424072,-122,8491.0
9000,0.34800636768341064,-1.4287986755371094,-15,9999.0,-1.9562053680419922,-7,8491.0
9010,0.3472853899002075,-0.8333631157875061,-29,9999.0,0.7516140937805176,37,8491.0
9020,0.3473284840583801,1.1671696901321411,120,9999.0,2.3240292072296143,25,8491.0
9030,0.34735551476478577,2.7701423168182373,104,9999.0,2.6265766620635986,-76,8491.0
9040,0.3473779559135437,2.568176507949829,-60,9999.0,5.633397102355957,294,8491.0
9050,0.34802699089050293,1.2066048383712769,79,9999.0,6.158550262451172,82,8491.0
9060,0.3480512797832489,3.423828363418579,117,9999.0,0.9338237047195435,-16,8491.0
9070,0.3480541408061981,3.781130075454712,-36,9999.0,-2.2163610458374023,128,8491.0
9080,0.34805062413215637,4.906656742095947,13,9999.0,-10.757704734802246,62,8491.0
9090,0.34805524349212646,0.11911458522081375,124,9999.0,-5.435825347900391,-125,8491.0
9100,0.3488682210445404,-2.158036231994629,-76,9999.0,0.48700085282325745,82,8491.0
9110,0.34892863035202026,-2.082836627960205,-23,9999.0,1.9952483177185059,50,8491.0
9120,0.3489713966846466,-5.2695770263671875,90,9999.0,4.750000476837158,-103,8491.0
9130,0.3490089178085327,-3.2206368446350098,-81,9999.0,4.788520336151123,124,8491.0
9140,0.34980762004852295,-1.200803518295288,14,9999.0,3.1136910915374756,56,8491.0
9150,0.34982070326805115,-0.352743536233902,104,9999.0,2.5944108963012695,-109,8491.0
9160,0.3498198091983795,-1.780537486076355,-45,9999.0,1.7573442459106445,7,8491.0
9170,0.3498198390007019,0.76762455701828,-35,9999.0,-1.6071399450302124,26,8491.0
9180,0.3490941822528839,0.2947043180465698,43,9999.0,1.434643268585205,-39,8491.0
9190,0.3490378260612488,-0.32425177097320557,-60,9999.0,0.4045945405960083,85,8491.0
9200,0.34898585081100464,-3.0045435428619385,-124,9999.0,4.076631546020508,139,8491.0
9210,0.34894859790802,-2.053974151611328,22,9999.0,-0.1445305347442627,-47,8491.0
9220,0.3488970100879669,-2.8418304920196533,-81,9999.0,1.078239917755127,76,8491.0
9230,0.3484668433666229,-3.299610137939453,-70,9999.0,0.04726541042327881,86,8491.0
9240,0.3483913540840149,-3.368354558944702,101,9999.0,-1.6609907150268555,-133,8491.0
9250,0.34832602739334106,-1.3297139406204224,19,9999.0,-3.5345616340637207,-86,8491.0
9260,0.34823209047317505,-2.136789083480835,-31,9999.0,6.436924934387207,83,8491.0
9270,0.3484145700931549,0.07759815454483032,64,9999.0,1.805031657218933,-46,8491.0
9280,0.3483181893825531,-0.02306714653968811,3,9999.0,2.358893632888794,-13,8491.0
9290,0.34824052453041077,-2.348616600036621,-135,9999.0,5.659744739532471,239,8491.0
9300,0.3481695055961609,-1.7736276388168335,-26,9999.0,2.2457456588745117,71,8491.0
9310,0.34813204407691956,-4.985055446624756,-53,9999.0,2.2100625038146973,54,8491.0
9320,0.3463652431964874,-3.067434072494507,-157,9999.0,-1.9999771118164062,157,8491.0
9330,0.3462563157081604,-3.0685205459594727,-13,9999.0,-1.3850044012069702,-199,8491.0
9340,0.3461771607398987,-2.5587809085845947,20,9999.0,-2.4637508392333984,-126,8491.0
9350,0.346102774143219,-1.8359078168869019,-74,9999.0,-4.460206508636475,-36,8491.0
9360,0.3476349413394928,-0.9011867642402649,17,9999.0,-4.812258243560791,-152,8491.0
9370,0.3476722240447998,-1.1826748847961426,57,9999.0,-7.224941730499268,-321,8491.0
9380,0.3477155864238739,-1.4862140417099,-82,9999.0,-7.534397125244141,-54,8491.0
9390,0.3478407859802246,-1.0261952877044678,-15,9999.0,-2.451150417327881,-72,8491.0
9400,0.3467223644256592,1.2692091464996338,10,9999.0,1.0236241817474365,-79,8491.0
9410,0.3467373847961426,3.296034097671509,-158,9999.0,1.7925323247909546,225,8491.0
9420,0.34675344824790955,-2.8370330333709717,-36,9999.0,7.052143573760986,189,8491.0
9430,0.34676751494407654,0.4421069622039795,-44,9999.0,1.7258180379867554,88,8491.0
9440,0.3467576801776886,-1.1371427774429321,-76,9999.0,0.8843328952789307,199,8491.0
9450,0.3465101420879364,-1.2278573513031006,71,9999.0,-1.693780541419983,-48,8491.0
9460,0.34651899337768555,-1.0716389417648315,-24,9999.0,0.8975205421447754,40,8491.0
9470,0.3465241491794586,0.5851350426673889,15,9999.0,-1.3705309629440308,22,8491.0
9480,0.3465298116207123,2.161574363708496,-42,9999.0,-0.31843888759613037,-133,8491.0
9490,0.34669941663742065,2.294794797897339,34,9999.0,-3.6406056880950928,-64,8491.0
9500,0.3466513156890869,1.4268357753753662,71,9999.0,-5.340230941772461,-74,8491.0
9510,0.346571683883667,1.039970874786377,-57,9999.0,-2.989417552947998,-85,8491.0
9520,0.34647634625434875,2.123964309692383,23,9999.0,-3.863698720932007,22,8491.0
9530,0.3463868796825409,-0.18237167596817017,33,9999.0,6.232576847076416,58,8491.0
9540,0.344847172498703,0.8745856881141663,-32,9999.0,3.5677132606506348,156,8491.0
9550,0.3446333408355713,1.8505758047103882,124,9999.0,2.5683069229125977,-30,8491.0
9560,0.34442761540412903,0.10706698149442673,-39,9999.0,1.5968483686447144,-26,8491.0
9570,0.3441847264766693,-1.6964634656906128,-37,9999.0,0.22708189487457275,25,8491.0
9580,0.3438836336135864,-2.237370729446411,103,9999.0,0.9523587822914124,-133,8491.0
9590,0.3436654508113861,-3.2431938648223877,-101,9999.0,2.120683431625366,65,8491.0
9600,0.3434472382068634,-0.9734476804733276,-15,9999.0,-3.125232458114624,-57,8491.0
9610,0.34325382113456726,-1.8613733053207397,-30,9999.0,0.2935749292373657,-79,8491.0
9620,0.34225109219551086,-1.232024908065796,-137,9999.0,0.37203916907310486,141,8491.0
9630,0.34201371669769287,-5.169431209564209,-64,9999.0,0.9106687307357788,1,8491.0
9640,0.34175488352775574,-5.461088180541992,-94,9999.0,2.0902140140533447,40,8491.0
9650,0.3415038585662842,-1.6261496543884277,-124,9999.0,1.8425018787384033,185,8491.0
9660,0.3412386178970337,-2.290890693664551,44,9999.0,3.2466392517089844,-32,8491.0
9670,0.34132131934165955,-2.7544829845428467,-52,9999.0,0.34139034152030945,23,8491.0
9680,0.34124913811683655,-2.334141492843628,-60,9999.0,-0.8753003478050232,66,8491.0
9690,0.3410768508911133,-2.0727779865264893,75,9999.0,-1.3852494955062866,-157,8491.0
9700,0.3410869240760803,-7.468119144439697,-144,9999.0,7.736419677734375,32,8491.0
9710,0.341469943523407,-4.70953369140625,-66,9999.0,-1.5686384439468384,-26,8491.0
9720,0.3415360748767853,-6.902919292449951,-20,9999.0,-1.698563575744629,-168,8491.0
9730,0.341624915599823,-5.552750110626221,-156,9999.0,-3.7330727577209473,45,8491.0
9740,0.3417111933231354,-7.4119343757629395,-49,9999.0,0.903404712677002,-23,8491.0
9750,0.34186458587646484,-4.769601821899414,-58,9999.0,2.3217782974243164,-60,8491.0
9760,0.34204208850860596,-1.9233462810516357,-172,9999.0,1.7725017070770264,185,8491.0
9770,0.3421991467475891,-0.8881946802139282,-6,9999.0,1.4817030429840088,22,8491.0
9780,0.3423985540866852,-0.7614952921867371,-46,9999.0,1.8571140766143799,81,8491.0
9790,0.34262508153915405,0.574906587600708,6,9999.0,0.2448958307504654,104,8491.0
9800,0.34341710805892944,-2.3939261436462402,155,9999.0,3.9990179538726807,-96,8491.0
9810,0.34376153349876404,2.827725887298584,4,9999.0,0.269015371799469,59,8491.0
9820,0.3440752625465393,2.125596761703491,79,9999.0,1.7514675855636597,-10,8491.0
9830,0.34438037872314453,4.553799152374268,134,9999.0,-2.4953436851501465,-136,8491.0
9840,0.343225359916687,2.408050537109375,-71,9999.0,-2.734031915664673,116,8491.0
9850,0.3434630334377289,1.7657567262649536,31,9999.0,1.2849184274673462,-12,8491.0
9860,0.3436623513698578,1.9041657447814941,-23,9999.0,1.1294362545013428,96,8491.0
9870,0.34386852383613586,-0.1412394493818283,-4,9999.0,3.1218326091766357,80,8491.0
9880,0.3440815806388855,0.7990240454673767,61,9999.0,0.6210957765579224,-83,8491.0
9890,0.34628990292549133,-1.3172094821929932,-24,9999.0,1.0738437175750732,20,8491.0
9900,0.3466205596923828,-2.051544189453125,56,9999.0,-0.34896284341812134,-194,8491.0
9910,0.3469587564468384,-0.5948208570480347,-68,9999.0,-4.0368452072143555,-49,8491.0
9920,0.34730926156044006,-0.6282225251197815,-18,9999.0,-4.3493733406066895,-16,8491.0
9930,0.34870365262031555,2.524388074874878,10,9999.0,-9.30974006652832,-105,8491.0
9940,0.3490733504295349,1.3051395416259766,-94,9999.0,-2.139735698699951,140,8491.0
9950,0.34945937991142273,1.492666244506836,96,9999.0,3.4984569549560547,-17,8491.0
9960,0.3498455882072449,0.9248151183128357,1,9999.0,3.2914390563964844,137,8491.0
9970,0.35021650791168213,2.019148111343384,56,9999.0,5.067307472229004,26,8491.0
9980,0.35088613629341125,1.8088232278823853,48,9999.0,4.307314872741699,109,8491.0
9990,0.3512645363807678,3.657683849334717,-108,9999.0,6.532322406768799,205,8491.0
10000,0.35169658064842224,0.5250431895256042,14,9999.0,3.2771458625793457,83,8491.0
10010,0.3520735502243042,-0.10811645537614822,-32,9999.0,3.8335700035095215,112,8491.0
10020,0.35196810960769653,0.8692496418952942,102,9999.0,0.3575429320335388,-60,8491.0
10030,0.3522546887397766,-0.0609736442565918,44,9999.0,0.9993611574172974,-81,8491.0
10040,0.35252922773361206,3.8604249954223633,-35,9999.0,-3.841094493865967,98,8491.0
10050,0.3527720272541046,6.462895393371582,140,9999.0,-3.519249677658081,-121,8491.0
10060,0.35298243165016174,6.421422958374023,-7,9999.0,-5.468562126159668,100,8491.0
10070,0.35232216119766235,3.96789813041687,129,9999.0,-0.7610266804695129,-112,8491.0
10080,0.35246092081069946,4.342099666595459,18,9999.0,-0.7683029174804688,6,8491.0
10090,0.3525698482990265,2.081089735031128,73,9999.0,4.3354010581970215,12,8491.0
10100,0.35265687108039856,2.6060657501220703,-102,9999.0,3.764894485473633,293,8491.0
10110,0.3516846299171448,-1.1585619449615479,39,9999.0,8.9468994140625,28,8491.0
10120,0.3517608344554901,-0.7034845352172852,-38,9999.0,1.0802944898605347,73,8491.0
10130,0.35183438658714294,-2.2803642749786377,-3,9999.0,1.2450228929519653,-70,8491.0
10140,0.3519017994403839,-3.4598731994628906,-89,9999.0,0.4126896858215332,-62,8491.0
10150,0.3523816466331482,-4.6149139404296875,-118,9999.0,-2.596689224243164,10,8491.0
10160,0.3524707555770874,-2.787365436553955,-43,9999.0,-2.0372543334960938,-58,8491.0
10170,0.35256141424179077,1.4153703451156616,-19,9999.0,-5.473376274108887,-7,8491.0
10180,0.3526483178138733,2.4573311805725098,82,9999.0,-3.8874127864837646,-194,8491.0
10190,0.35274627804756165,3.941659927368164,42,9999.0,-1.1851779222488403,-24,8491.0
10200,0.3517443835735321,2.924114227294922,62,9999.0,0.10373575240373611,64,8491.0
10210,0.3518466055393219,5.313698768615723,113,9999.0,4.336466312408447,14,8491.0
10220,0.3519451916217804,3.2349164485931396,-85,9999.0,3.437333822250366,231,8491.0
10230,0.3520751893520355,3.5288968086242676,152,9999.0,4.7686662673950195,64,8491.0
10240,0.35217994451522827,0.08041134476661682,-20,9999.0,4.78273868560791,180,8491.0
10250,0.352323442697525,1.5078874826431274,131,9999.0,2.7134950160980225,-80,8491.0
10260,0.35248589515686035,-0.5933356285095215,-16,9999.0,0.7172306776046753,61,8491.0
10270,0.352611780166626,-1.5068109035491943,-18,9999.0,0.6791191101074219,25,8491.0
10280,0.3526926338672638,-0.6655397415161133,-36,9999.0,-1.208985447883606,13,8491.0
10290,0.352777898311615,0.18137164413928986,-50,9999.0,-4.668797969818115,-37,8491.0
10300,0.3528811037540436,1.1801542043685913,140,9999.0,-3.551001787185669,-166,8491.0
10310,0.35299769043922424,2.8923354148864746,10,9999.0,-0.5893101096153259,31,8491.0
10320,0.35303452610969543,2.2578022480010986,100,9999.0,5.57023811340332,21,8491.0
10330,0.35114023089408875,3.4780967235565186,-124,9999.0,8.752825736999512,340,8491.0
10340,0.35116299986839294,0.5073813199996948,40,9999.0,12.95905590057373,131,8491.0
10350,0.3511096239089966,-0.29911425709724426,-40,9999.0,10.549967765808105,170,8491.0
10360,0.3511181175708771,-0.4001940190792084,50,9999.0,8.368724822998047,-3,8491.0
10370,0.3495097756385803,-0.6433955430984497,-79,9999.0,3.4883792400360107,99,8491.0
10380,0.34941473603248596,-0.4813169240951538,-52,9999.0,1.2918225526809692,48,8491.0
10390,0.3493318557739258,-0.6793668866157532,3,9999.0,-3.3769783973693848,-96,8491.0
10400,0.3492567837238312,0.8593271970748901,-31,9999.0,-10.135557174682617,-96,8491.0
10410,0.34916168451309204,1.481791615486145,201,9999.0,-11.543148040771484,-350,8491.0
10420,0.3470447361469269,1.5002349615097046,-3,9999.0,-11.820231437683105,-111,8491.0
10430,0.34684810042381287,2.8970437049865723,119,9999.0,-8.191241264343262,-93,8491.0
10440,0.3464568257331848,4.30803108215332,-3,9999.0,-5.604736804962158,15,8491.0
10450,0.3464857339859009,3.4165573120117188,50,9999.0,0.7198962569236755,-9,8491.0
10460,0.3456413745880127,4.199775218963623,118,9999.0,3.519015312194824,29,8491.0
10470,0.3456404209136963,2.912102460861206,82,9999.0,5.953426361083984,63,8491.0
10480,0.3454314172267914,2.2326250076293945,64,9999.0,8.256380081176758,89,8491.0
10490,0.34544137120246887,0.8844301104545593,-117,9999.0,5.434412479400635,138,8491.0
10500,0.3444887101650238,0.5053417086601257,27,9999.0,1.6333508491516113,-12,8491.0
10510,0.3443911373615265,-0.08766783773899078,-50,9999.0,0.5379162430763245,66,8491.0
10520,0.3443007469177246,-0.5614893436431885,74,9999.0,-3.1117186546325684,-114,8491.0
10530,0.34421277046203613,-1.5481417179107666,14,9999.0,-4.590308666229248,-121,8491.0
10540,0.3441673517227173,-1.5208120346069336,-34,9999.0,-0.6811310052871704,-31,8491.0
10550,0.3433259129524231,-1.3251367807388306,-2,9999.0,-7.229061603546143,-146,8491.0
10560,0.34335681796073914,-3.6806304454803467,-211,9999.0,-5.452798366546631,81,8491.0
10570,0.3434302806854248,-3.41164493560791,-5,9999.0,-6.978809833526611,-171,8491.0
10580,0.34350743889808655,-2.3388471603393555,-25,9999.0,1.1114516258239746,36,8491.0
10590,0.343765527009964,-1.3838876485824585,-15,9999.0,-0.0971643328666687,-44,8491.0
10600,0.3439282476902008,-1.495341181755066,-32,9999.0,0.7170529365539551,32,8491.0
10610,0.3441118597984314,-2.3106470108032227,-100,9999.0,1.5502451658248901,66,8491.0
10620,0.34432756900787354,-2.031517744064331,-38,9999.0,-0.6158801913261414,6,8491.0
10630,0.34456461668014526,-4.736828804016113,-163,9999.0,0.5901837944984436,137,8491.0
10640,0.34448280930519104,-4.77855920791626,71,9999.0,-2.034980297088623,-165,8491.0
10650,0.3447524607181549,-0.8776363730430603,-73,9999.0,-3.3242268562316895,10,8491.0
10660,0.3449564576148987,-3.7305657863616943,-52,9999.0,-0.6662771701812744,-48,8491.0
10670,0.34516313672065735,-3.260922908782959,-128,9999.0,0.9125548005104065,174,8491.0
10680,0.346399188041687,-4.385397911071777,-55,9999.0,3.5730412006378174,57,8491.0
10690,0.34666159749031067,-1.9622312784194946,-106,9999.0,1.5565838813781738,9,8491.0
10700,0.34686723351478577,-3.6076791286468506,-51,9999.0,4.813374042510986,48,8491.0
10710,0.34703320264816284,-5.451357364654541,-145,9999.0,1.039648175239563,167,8491.0
10720,0.347501277923584,-4.549799919128418,-88,9999.0,0.9119846224784851,211,8491.0
10730,0.3476523756980896,-3.9667787551879883,-40,9999.0,-0.7657021284103394,-49,8491.0
10740,0.347774863243103,-2.066767692565918,-62,9999.0,-4.408729553222656,-49,8491.0
10750,0.3478531837463379,-0.2560794949531555,2,9999.0,-4.922196388244629,-103,8491.0
10760,0.34788572788238525,1.4697279930114746,-84,9999.0,-4.720478057861328,140,8491.0
10770,0.3499239385128021,-1.837761402130127,68,9999.0,-5.942892551422119,-172,8491.0
10780,0.349996954202652,-0.7685781121253967,5,9999.0,-0.5101228952407837,-34,8491.0
10790,0.3500159978866577,-0.9683325886726379,25,9999.0,-0.3065166771411896,-12,8491.0
10800,0.3499947190284729,-2.7511250972747803,-101,9999.0,3.7292768955230713,95,8491.0
10810,0.3499780595302582,-3.433194398880005,-111,9999.0,-0.14697140455245972,57,8491.0
10820,0.3499424457550049,-0.07008259743452072,160,9999.0,-0.40780720114707947,-224,8491.0
10830,0.3498761057853699,1.9145318269729614,-12,9999.0,1.0962225198745728,8,8491.0
10840,0.3497757911682129,0.6768001914024353,80,9999.0,0.045502785593271255,-91,8491.0
10850,0.349692702293396,1.2321091890335083,-98,9999.0,-0.515796959400177,122,8491.0
10860,0.34936287999153137,1.0131381750106812,20,9999.0,-0.6226966381072998,-17,8491.0
10870,0.34924042224884033,-0.04857536032795906,64,9999.0,0.07163070887327194,-41,8491.0
10880,0.34909695386886597,0.571201741695404,-8,9999.0,-0.5643621683120728,13,8491.0
10890,0.34900009632110596,1.002319574356079,84,9999.0,-0.6606517434120178,-87,8491.0
10900,0.3493345379829407,1.7397198677062988,-98,9999.0,-4.2547607421875,142,8491.0
10910,0.34918051958084106,1.479011058807373,64,9999.0,-4.639011859893799,-144,8491.0
10920,0.3490033745765686,-1.1484016180038452,-17,9999.0,-0.8904436826705933,-14,8491.0
10930,0.34884560108184814,-0.12131815403699875,77,9999.0,-0.6250132322311401,-58,8491.0
10940,0.3484429717063904,1.7882146835327148,56,9999.0,1.0219860076904297,-13,8491.0
10950,0.34828731417655945,1.084816813468933,-109,9999.0,1.9249144792556763,148,8491.0
10960,0.3481311798095703,3.0872251987457275,70,9999.0,1.349509596824646,-9,8491.0
10970,0.3479999005794525,2.5191614627838135,23,9999.0,4.190730571746826,98,8491.0
10980,0.3478781282901764,2.7181472778320312,169,9999.0,4.078002452850342,-74,8491.0
10990,0.34744107723236084,4.37131404876709,32,9999.0,1.730049729347229,47,8491.0
11000,0.3472432792186737,1.2120529413223267,-72,9999.0,3.8311429023742676,97,8491.0
11010,0.3470515012741089,-1.4480476379394531,7,9999.0,-4.4878153800964355,-116,8491.0
11020,0.3468453586101532,-1.951845407485962,-137,9999.0,-4.9913716316223145,47,8491.0
11030,0.3482733368873596,-2.8086538314819336,155,9999.0,-4.5117268562316895,-261,8491.0
11040,0.3481009602546692,1.8148870468139648,-7,9999.0,-4.456131935119629,-31,8491.0
11050,0.34793761372566223,2.1204941272735596,30,9999.0,-2.1922225952148438,-15,8491.0
11060,0.34780895709991455,2.9944634437561035,-36,9999.0,-0.6106445789337158,104,8491.0
11070,0.3476892113685608,2.268785238265991,34,9999.0,-0.39423733949661255,48,8491.0
11080,0.3481413722038269,3.387683153152466,142,9999.0,-0.1272037923336029,-19,8491.0
11090,0.34808844327926636,1.9337221384048462,16,9999.0,2.7316243648529053,87,8491.0
11100,0.34808042645454407,1.0345779657363892,57,9999.0,0.9794201850891113,-114,8491.0
11110,0.3480920195579529,2.234396457672119,-86,9999.0,-2.2215754985809326,69,8491.0
11120,0.3488388955593109,2.2293167114257812,66,9999.0,-4.749078273773193,-58,8491.0
11130,0.34890812635421753,0.707448422908783,6,9999.0,0.8122974634170532,39,8491.0
11140,0.3490171432495117,1.4002411365509033,63,9999.0,1.0664453506469727,-13,8491.0
11150,0.34914857149124146,0.37742865085601807,-4,9999.0,3.834338426589966,111,8491.0
11160,0.3495537042617798,-1.425445318222046,-76,9999.0,5.925685405731201,248,8491.0
11170,0.34971269965171814,-1.5785566568374634,-12,9999.0,4.526517391204834,108,8491.0
11180,0.3498557209968567,-2.703824758529663,-72,9999.0,6.201510429382324,128,8491.0
11190,0.3500012159347534,-3.6589436531066895,68,9999.0,3.2134385108947754,-137,8491.0
11200,0.35014212131500244,-3.8741166591644287,-159,9999.0,-0.03650790825486183,170,8491.0
11210,0.3505595326423645,-3.248992919921875,-64,9999.0,-0.10971250385046005,-37,8491.0
11220,0.35074135661125183,-2.2894515991210938,-47,9999.0,-4.759326457977295,-83,8491.0
11230,0.35093194246292114,-0.21826112270355225,36,9999.0,-6.837368965148926,-57,8491.0
11240,0.3511439263820648,1.4628018140792847,-85,9999.0,-7.333102703094482,79,8491.0
11250,0.3512175679206848,1.1141643524169922,128,9999.0,0.5597963333129883,-161,8491.0
11260,0.35148361325263977,3.2175300121307373,61,9999.0,1.2638888359069824,64,8491.0
11270,0.35172736644744873,6.774873733520508,114,9999.0,5.043288707733154,157,8491.0
11280,0.35198238492012024,7.6468095779418945,91,9999.0,6.667212963104248,156,8491.0
11290,0.35230115056037903,7.261693954467773,157,9999.0,6.995361804962158,69,8491.0
11300,0.35272589325904846,5.643208980560303,139,9999.0,6.711979389190674,50,8491.0
11310,0.35298535227775574,4.052247524261475,-56,9999.0,1.3823342323303223,122,8491.0
11320,0.35328054428100586,0.7276952266693115,126,9999.0,-1.162099003791809,-130,8491.0
11330,0.353556364774704,0.3619289994239807,22,9999.0,-5.923864841461182,-100,8491.0
11340,0.3531682789325714,-0.8332308530807495,18,9999.0,-7.541224002838135,-170,8491.0
11350,0.35336923599243164,-0.7409759163856506,-127,9999.0,-10.273591041564941,-44,8491.0
11360,0.3535026013851166,-0.30177730321884155,113,9999.0,-9.12387752532959,-303,8491.0
11370,0.353620320558548,0.3601030707359314,-69,9999.0,-9.042136192321777,-61,8491.0
11380,0.35307419300079346,-1.0340790748596191,-30,9999.0,-4.317027568817139,-46,8491.0
11390,0.3530643880367279,-1.3073217868804932,-56,9999.0,1.6712827682495117,57,8491.0
11400,0.35305553674697876,-1.2736592292785645,20,9999.0,4.697308540344238,1,8491.0
11410,0.35299795866012573,0.05738023668527603,-64,9999.0,5.998096942901611,148,8491.0
11420,0.35295426845550537,-0.24128209054470062,-45,9999.0,7.147579193115234,145,8491.0
11430,0.35255512595176697,2.6825084686279297,91,9999.0,5.63546895980835,8,8491.0
11440,0.35247498750686646,0.25586411356925964,3,9999.0,3.499436140060425,95,8491.0
11450,0.3523717522621155,0.463437020778656,20,9999.0,3.879819393157959,15,8491.0
11460,0.3522728979587555,0.4501049518585205,-55,9999.0,-0.603874683380127,58,8491.0
11470,0.3517419695854187,0.5997965335845947,114,9999.0,-3.8245973587036133,-188,8491.0
11480,0.351567804813385,2.7953410148620605,0,9999.0,-7.701960563659668,-58,8491.0
11490,0.3513694107532501,4.623100757598877,48,9999.0,-3.8134665489196777,19,8491.0
11500,0.35115155577659607,2.938746452331543,160,9999.0,-1.0198979377746582,-138,8491.0
11510,0.350935697555542,3.0895144939422607,18,9999.0,3.2807600498199463,102,8491.0
11520,0.35033082962036133,3.0754265785217285,70,9999.0,5.917404651641846,78,8491.0
11530,0.35005611181259155,2.757078170776367,-15,9999.0,6.357142448425293,183,8491.0
11540,0.34983083605766296,1.8487054109573364,87,9999.0,5.517847061157227,26,8491.0
11550,0.349635511636734,1.2407945394515991,28,9999.0,2.645023822784424,-52,8491.0
11560,0.3509119749069214,-1.2565573453903198,-182,9999.0,-0.9123803377151489,53,8491.0
11570,0.35083261132240295,-2.8758180141448975,19,9999.0,-2.89872670173645,-102,8491.0
11580,0.35076212882995605,-2.7901451587677,-57,9999.0,-3.1050641536712646,-53,8491.0
11590,0.35068953037261963,-1.4963244199752808,-1,9999.0,-7.1217522621154785,-132,8491.0
11600,0.3507642447948456,-1.101301670074463,-2,9999.0,-4.698857307434082,-109,8491.0
11610,0.35069429874420166,0.19655121862888336,-130,9999.0,-5.333536148071289,80,8491.0
11620,0.3506644070148468,0.19365093111991882,81,9999.0,-2.1330888271331787,-127,8491.0
11630,0.3506457507610321,0.3107524812221527,41,9999.0,-0.7524566054344177,-29,8491.0
11640,0.3506292700767517,1.35968017578125,28,9999.0,0.592401921749115,30,8491.0
11650,0.35038167238235474,2.1779279708862305,50,9999.0,2.359653949737549,27,8491.0
11660,0.35042622685432434,4.190805435180664,-31,9999.0,2.07808780670166,119,8491.0
11670,0.35051247477531433,2.922907829284668,131,9999.0,-0.940725564956665,-99,8491.0
11680,0.35064610838890076,3.318614959716797,23,9999.0,-3.4234094619750977,-38,8491.0
11690,0.3501551151275635,1.4961912631988525,17,9999.0,-3.966531276702881,-56,8491.0
11700,0.3503148853778839,0.5757169127464294,-60,9999.0,-2.6356289386749268,-30,8491.0
11710,0.3504648208618164,-0.07310238480567932,-70,9999.0,-3.2439541816711426,96,8491.0
11720,0.3505994975566864,-1.9072209596633911,121,9999.0,0.2606990337371826,-140,8491.0
11730,0.3507649302482605,1.1074265241622925,7,9999.0,-0.9528613686561584,45,8491.0
11740,0.3502674698829651,-0.3838704824447632,107,9999.0,3.294527530670166,75,8491.0
11750,0.35038992762565613,-3.193265199661255,-107,9999.0,3.9372057914733887,163,8491.0
11760,0.350493848323822,-4.576323986053467,-74,9999.0,2.267573356628418,47,8491.0
11770,0.3505605459213257,-6.195938587188721,-24,9999.0,5.221080303192139,-150,8491.0
11780,0.35198870301246643,-5.464538097381592,-139,9999.0,-4.088458061218262,122,8491.0
11790,0.35208573937416077,-4.979635238647461,-70,9999.0,4.021791934967041,-19,8491.0
11800,0.3521324098110199,-2.219144821166992,-159,9999.0,3.9294819831848145,167,8491.0
11810,0.3521591126918793,-0.1295756995677948,42,9999.0,2.5610740184783936,-47,8491.0
11820,0.35133737325668335,1.5499991178512573,-17,9999.0,4.047327995300293,115,8491.0
11830,0.35126712918281555,1.6609553098678589,-3,9999.0,6.889638900756836,116,8491.0
11840,0.3511502146720886,3.809919834136963,37,9999.0,5.49270486831665,55,8491.0
11850,0.3509812653064728,3.5101864337921143,104,9999.0,7.847856521606445,159,8491.0
11860,0.3508007228374481,2.9726343154907227,129,9999.0,4.751664638519287,-91,8491.0
11870,0.3503268361091614,-0.6704664826393127,31,9999.0,2.0031378269195557,65,8491.0
11880,0.3500802516937256,-1.4543603658676147,-36,9999.0,-2.146052360534668,-38,8491.0
11890,0.3499182462692261,-3.530245780944824,-58,9999.0,-1.3816215991973877,-63,8491.0
11900,0.34974831342697144,-3.236273765563965,-39,9999.0,-5.358806133270264,-30,8491.0
11910,0.3501183092594147,-2.2766778469085693,85,9999.0,-4.276195049285889,-185,8491.0
11920,0.34999531507492065,-2.891850233078003,-67,9999.0,-4.270500183105469,84,8491.0
11930,0.34986424446105957,-2.7392067909240723,-19,9999.0,-5.39625883102417,-20,8491.0
11940,0.3497232496738434,-1.5020947456359863,-20,9999.0,-2.4554007053375244,-77,8491.0
11950,0.349583238363266,-3.2716617584228516,-71,9999.0,-2.877690553665161,13,8491.0
11960,0.34885045886039734,-3.35770320892334,18,9999.0,-3.395599603652954,-139,8491.0
11970,0.34872958064079285,-3.410106897354126,-125,9999.0,1.6277717351913452,64,8491.0
11980,0.3486001193523407,-2.909806728363037,-95,9999.0,2.889554023742676,95,8491.0
11990,0.34848135709762573,-3.6649367809295654,37,9999.0,2.4991698265075684,-3,8491.0
12000,0.34860917925834656,-2.545600175857544,-40,9999.0,-0.14016422629356384,7,8491.0
12010,0.3484925925731659,-2.5124104022979736,53,9999.0,0.2617769241333008,-103,8491.0
12020,0.34841325879096985,-1.8694921731948853,-68,9999.0,0.032841991633176804,53,8491.0
12030,0.34830090403556824,-0.9309366345405579,-29,9999.0,-0.24110554158687592,92,8491.0
12040,0.3485177457332611,-1.8199955224990845,-15,9999.0,1.334943175315857,18,8491.0
12050,0.3484463095664978,-2.6345252990722656,-60,9999.0,2.709528684616089,46,8491.0
12060,0.3483715355396271,-2.389064073562622,85,9999.0,1.8360586166381836,-154,8491.0
12070,0.3483339846134186,-3.4407975673675537,-172,9999.0,1.0583478212356567,130,8491.0
12080,0.34832441806793213,-1.7556650638580322,0,9999.0,-2.324174404144287,-60,8491.0
12090,0.34703418612480164,-2.901921272277832,-36,9999.0,-2.1599106788635254,-32,8491.0
12100,0.3469816744327545,-2.614586114883423,-30,9999.0,-3.1035099029541016,-17,8491.0
12110,0.34696251153945923,-2.4951319694519043,-15,9999.0,-3.0111567974090576,-130,8491.0
12120,0.346955269575119,-4.224967002868652,-240,9999.0,-3.229128360748291,124,8491.0
12130,0.34734272956848145,-4.865326404571533,-10,9999.0,-3.7209155559539795,-116,8491.0
12140,0.3473232388496399,-3.934262990951538,-81,9999.0,-2.4126675128936768,-52,8491.0
12150,0.34733930230140686,-4.105382442474365,-44,9999.0,-2.240626335144043,-81,8491.0
12160,0.34737032651901245,-1.024993658065796,-99,9999.0,-1.8464339971542358,62,8491.0
12170,0.3473924398422241,-0.9191275238990784,-43,9999.0,-2.8612842559814453,52,8491.0
12180,0.3456517457962036,0.2467031031847,97,9999.0,3.725740909576416,-19,8491.0
12190,0.34561824798583984,4.096553802490234,40,9999.0,-1.103087067604065,76,8491.0
12200,0.34561991691589355,2.2996418476104736,104,9999.0,2.932410955429077,-5,8491.0
12210,0.3456416428089142,7.549009323120117,21,9999.0,2.323638916015625,159,8491.0
12220,0.34418657422065735,5.504750728607178,202,9999.0,3.0740699768066406,-71,8491.0
12230,0.3441182076931,4.402256965637207,10,9999.0,1.582883358001709,83,8491.0
12240,0.3441225290298462,2.420241355895996,17,9999.0,0.29884073138237,41,8491.0
12250,0.3441076874732971,2.179737091064453,44,9999.0,-4.405031204223633,-105,8491.0
12260,0.3447957932949066,1.3880738019943237,22,9999.0,-6.501138210296631,-84,8491.0
12270,0.34474170207977295,-0.6694186329841614,54,9999.0,-6.708759784698486,-220,8491.0
12280,0.344725102186203,-1.4401421546936035,-169,9999.0,-2.6079516410827637,139,8491.0
12290,0.34473916888237,-3.8002099990844727,-42,9999.0,-2.6216392517089844,-63,8491.0
12300,0.34473901987075806,-4.910767555236816,-123,9999.0,-1.3978614807128906,42,8491.0
12310,0.34483635425567627,-4.833410263061523,14,9999.0,-0.03143694996833801,-138,8491.0
12320,0.34483999013900757,-3.2256851196289062,-119,9999.0,-1.375692367553711,78,8491.0
12330,0.3449125289916992,-1.8149518966674805,-19,9999.0,3.4184863567352295,64,8491.0
12340,0.34502163529396057,0.057752687484025955,36,9999.0,2.204519510269165,-10,8491.0
12350,0.3446803689002991,1.7256478071212769,73,9999.0,-0.22993633151054382,42,8491.0
12360,0.34473124146461487,4.005757808685303,160,9999.0,3.0215914249420166,-93,8491.0
12370,0.34479156136512756,6.015273571014404,-71,9999.0,0.6806105375289917,169,8491.0
12380,0.3448416292667389,1.9558570384979248,135,9999.0,-0.6431315541267395,-120,8491.0
12390,0.344841331243515,4.005820274353027,78,9999.0,-1.3615670204162598,-37,8491.0
12400,0.3444805145263672,4.139902591705322,80,9999.0,-0.2531575858592987,-39,8491.0
12410,0.34445855021476746,3.4386680126190186,-20,9999.0,0.4014376997947693,18,8491.0
12420,0.3444466292858124,0.3441523611545563,-35,9999.0,1.243587613105774,50,8491.0
12430,0.3444094657897949,0.2607003152370453,-41,9999.0,-0.4558849334716797,-72,8491.0
12440,0.34460175037384033,-1.0327003002166748,-16,9999.0,-1.1162699460983276,37,8491.0
12450,0.34452757239341736,-0.5753704905509949,-98,9999.0,-4.323158264160156,87,8491.0
12460,0.34443002939224243,0.6611331701278687,39,9999.0,-3.9426486492156982,58,8491.0
12470,0.34430253505706787,-0.36913061141967773,-1,9999.0,0.924807071685791,-88,8491.0
12480,0.3448607325553894,0.6907976865768433,61,9999.0,1.732122540473938,27,8491.0
12490,0.3447491526603699,0.8117144703865051,-31,9999.0,6.356563091278076,158,8491.0
12500,0.34465864300727844,-0.21035923063755035,-22,9999.0,6.801918029785156,120,8491.0
12510,0.3446072041988373,0.5747895836830139,38,9999.0,7.492566108703613,20,8491.0
12520,0.34457629919052124,-0.6685009598731995,-22,9999.0,4.600518703460693,85,8491.0
12530,0.344711035490036,-2.3327956199645996,-20,9999.0,3.050706148147583,18,8491.0
12540,0.3446827530860901,-0.9923151135444641,-111,9999.0,0.6616635322570801,169,8491.0
12550,0.3446887135505676,-1.7942869663238525,98,9999.0,-2.4239163398742676,-126,8491.0
12560,0.34474289417266846,4.148857593536377,30,9999.0,-0.8164054751396179,-20,8491.0
12570,0.3448794484138489,7.117711067199707,132,9999.0,-7.123714923858643,-128,8491.0
12580,0.34491103887557983,7.891296863555908,44,9999.0,-5.6774139404296875,32,8491.0
12590,0.34492820501327515,8.365949630737305,203,9999.0,-2.225445032119751,-85,8491.0
12600,0.3449731767177582,7.263467788696289,118,9999.0,0.5964701175689697,63,8491.0
12610,0.34507131576538086,5.072357177734375,101,9999.0,5.5166778564453125,51,8491.0
12620,0.3471428155899048,2.8014514446258545,-27,9999.0,7.305393695831299,205,8491.0
12630,0.34733501076698303,-0.11839008331298828,38,9999.0,9.728606224060059,131,8491.0
12640,0.3474991023540497,-2.695061445236206,-66,9999.0,8.244011878967285,175,8491.0
12650,0.3476634919643402,-5.569554805755615,-33,9999.0,6.194399833679199,2,8491.0
12660,0.3475556969642639,-7.401218414306641,-134,9999.0,5.299118518829346,81,8491.0
12670,0.34773147106170654,-7.555125713348389,-142,9999.0,-1.44240403175354,79,8491.0
12680,0.3478813171386719,-4.771430969238281,-32,9999.0,-0.9199882745742798,-65,8491.0
12690,0.3480044901371002,-3.159679412841797,-33,9999.0,-1.7683560848236084,55,8491.0
12700,0.3484732210636139,-0.35593727231025696,117,9999.0,-1.3302295207977295,-169,8491.0
12710,0.3486514687538147,1.3947515487670898,-75,9999.0,-3.299288749694824,101,8491.0
12720,0.3487945795059204,5.6549391746521,128,9999.0,-0.1103380024433136,-18,8491.0
12730,0.3489053547382355,6.364658355712891,101,9999.0,0.40137550234794617,54,8491.0
12740,0.34899869561195374,4.948051452636719,156,9999.0,4.471484661102295,-58,8491.0
12750,0.34987854957580566,5.666276454925537,-5,9999.0,2.4528605937957764,132,8491.0
12760,0.3500281572341919,7.953956127166748,69,9999.0,-3.0454297065734863,31,8491.0
12770,0.350123792886734,3.8407511711120605,36,9999.0,-1.3801692724227905,41,8491.0
12780,0.350177139043808,1.6505744457244873,92,9999.0,-1.7733192443847656,-144,8491.0
12790,0.3498672544956207,-2.24135160446167,-63,9999.0,-5.328493118286133,-70,8491.0
12800,0.3499249219894409,-3.7754149436950684,-40,9999.0,-1.6963361501693726,-11,8491.0
12810,0.3500884175300598,-3.8482096195220947,-42,9999.0,-1.4597606658935547,-12,8491.0
12820,0.35012707114219666,-0.011776589788496494,69,9999.0,-1.4530738592147827,-151,8491.0
12830,0.35013365745544434,-0.5558649897575378,-22,9999.0,-0.06546574085950851,-24,8491.0
12840,0.35131797194480896,-1.0310966968536377,-63,9999.0,0.7261539697647095,129,8491.0
12850,0.351398229598999,-0.9248275756835938,38,9999.0,0.26829007267951965,-15,8491.0
12860,0.35149332880973816,2.0854384899139404,61,9999.0,3.224663734436035,88,8491.0
12870,0.3516406714916229,2.1865391731262207,102,9999.0,4.438218116760254,2,8491.0
12880,0.3501945436000824,1.6532948017120361,-49,9999.0,2.582749128341675,78,8491.0
12890,0.35013478994369507,1.3613390922546387,-2,9999.0,-0.2899305820465088,-17,8491.0
12900,0.3500467836856842,-3.7299981117248535,-64,9999.0,0.3414857089519501,-4,8491.0
12910,0.3500531315803528,-3.353874921798706,12,9999.0,-4.461807727813721,-158,8491.0
12920,0.3507850170135498,-3.2954964637756348,-137,9999.0,-3.590604305267334,47,8491.0
12930,0.35074394941329956,-4.1797194480896,-32,9999.0,-6.2124128341674805,-79,8491.0
12940,0.35078832507133484,-2.840223550796509,-71,9999.0,-3.124330759048462,40,8491.0
12950,0.3507164716720581,-1.8720059394836426,28,9999.0,-1.131032943725586,-65,8491.0
12960,0.35069844126701355,-3.0915608406066895,-116,9999.0,0.46307307481765747,102,8491.0
12970,0.35034850239753723,-2.5480666160583496,-48,9999.0,2.419128179550171,68,8491.0
12980,0.3502856194972992,-1.946090579032898,-89,9999.0,1.6506606340408325,55,8491.0
12990,0.3501993417739868,-0.23461578786373138,127,9999.0,0.19686999917030334,-175,8491.0
13000,0.35006117820739746,0.4695238173007965,-28,9999.0,0.639362096786499,10,8491.0
13010,0.34953662753105164,-0.3899165093898773,-2,9999.0,-3.6050941944122314,-26,8491.0
13020,0.34933504462242126,-0.935815155506134,9,9999.0,-2.3929672241210938,90,8491.0
13030,0.34913885593414307,-4.245715141296387,-149,9999.0,-8.123870849609375,-211,8491.0
13040,0.34896135330200195,-8.454895973205566,-140,9999.0,-0.7308875322341919,-22,8491.0
13050,0.34876877069473267,-4.423096179962158,-97,9999.0,-5.406269073486328,-37,8491.0
13060,0.3490563631057739,-5.579791069030762,-36,9999.0,-5.2523908615112305,-112,8491.0
13070,0.348897248506546,-3.690103769302368,-41,9999.0,-7.21836519241333,-163,8491.0
13080,0.3487902879714966,-3.627716302871704,-109,9999.0,-7.006164073944092,-1,8491.0
13090,0.34872332215309143,-3.769056558609009,-64,9999.0,-1.8563228845596313,-9,8491.0
13100,0.3487829864025116,-0.9356796741485596,-42,9999.0,1.0697399377822876,53,8491.0
13110,0.3486694395542145,-0.29055625200271606,76,9999.0,4.160841941833496,-45,8491.0
13120,0.3485221266746521,-1.0153695344924927,-21,9999.0,4.238700866699219,115,8491.0
13130,0.34839925169944763,2.4918012619018555,63,9999.0,7.191242218017578,100,8491.0
13140,0.3478125333786011,5.534993648529053,17,9999.0,4.319481372833252,207,8491.0
13150,0.34771987795829773,4.331255912780762,183,9999.0,3.108504295349121,-149,8491.0
13160,0.34763360023498535,4.587705612182617,-29,9999.0,0.577519953250885,90,8491.0
13170,0.34754815697669983,2.9950878620147705,27,9999.0,-0.3912683427333832,0,8491.0
13180,0.34748193621635437,-0.3529593050479889,-47,9999.0,-0.3015754520893097,58,8491.0
13190,0.34530362486839294,-1.8026124238967896,93,9999.0,2.960981607437134,-123,8491.0
13200,0.345170795917511,-1.267163872718811,-73,9999.0,0.6520370841026306,66,8491.0
13210,0.3450230658054352,-1.5282670259475708,-42,9999.0,-3.9036457538604736,-50,8491.0
13220,0.34485551714897156,-2.427579879760742,-80,9999.0,-4.1518683433532715,9,8491.0
13230,0.3448124825954437,-1.3232591152191162,63,9999.0,-2.159022092819214,-109,8491.0
13240,0.3446364402770996,-2.0224361419677734,-18,9999.0,-0.9325202703475952,17,8491.0
13250,0.3444904088973999,1.7835571765899658,34,9999.0,1.9153534173965454,23,8491.0
13260,0.34436318278312683,4.470183849334717,81,9999.0,1.672641396522522,48,8491.0
13270,0.34421199560165405,6.435257911682129,102,9999.0,1.516259789466858,62,8491.0
13280,0.34477564692497253,5.225502014160156,169,9999.0,4.783808708190918,-66,8491.0
13290,0.3447047770023346,4.817980766296387,-1,9999.0,1.68952476978302,66,8491.0
13300,0.3446667492389679,0.9499381184577942,-10,9999.0,-0.7429594397544861,-3,8491.0
13310,0.3446184992790222,-1.2109625339508057,-96,9999.0,-2.8101108074188232,39,8491.0
13320,0.3451322615146637,-3.8889899253845215,102,9999.0,-3.0830860137939453,-251,8491.0
13330,0.3451066017150879,-6.620430946350098,-160,9999.0,-0.6460995078086853,-8,8491.0
13340,0.34515219926834106,-7.351799488067627,-88,9999.0,1.2989909648895264,-44,8491.0
13350,0.3452327847480774,-6.541725158691406,-229,9999.0,1.3906304836273193,216,8491.0
13360,0.34406164288520813,-2.4459340572357178,59,9999.0,5.019996643066406,-41,8491.0
13370,0.34414389729499817,0.1343843787908554,29,9999.0,4.9570722579956055,67,8491.0
13380,0.3442060053348541,3.776017427444458,92,9999.0,5.373602390289307,26,8491.0
13390,0.34431806206703186,6.442261695861816,75,9999.0,3.8544907569885254,102,8491.0
13400,0.344431072473526,5.905698299407959,72,9999.0,1.9431376457214355,54,8491.0
13410,0.3439391553401947,4.946290969848633,159,9999.0,0.4711512625217438,-69,8491.0
13420,0.343954861164093,2.2883996963500977,-17,9999.0,-4.925845146179199,22,8491.0
13430,0.34396061301231384,1.7494271993637085,36,9999.0,-0.14450319111347198,-22,8491.0
13440,0.34401413798332214,0.20460006594657898,-77,9999.0,-0.036763910204172134,71,8491.0
13450,0.3436248004436493,-3.4601974487304688,99,9999.0,-1.2427408695220947,-238,8491.0
13460,0.343612402677536,-3.8188836574554443,-107,9999.0,5.3323163986206055,119,8491.0
13470,0.34357813000679016,-4.430349349975586,-24,9999.0,4.767791271209717,-2,8491.0
13480,0.34352394938468933,-4.472888946533203,-172,9999.0,7.034552574157715,339,8491.0
13490,0.3434653878211975,-5.8933587074279785,25,9999.0,6.342782497406006,59,8491.0
13500,0.34199315309524536,-1.797128438949585,-22,9999.0,5.680257320404053,118,8491.0
13510,0.3418580889701843,0.515192449092865,59,9999.0,6.262075901031494,66,8491.0
13520,0.3417750895023346,4.317529678344727,51,9999.0,3.410184860229492,73,8491.0
13530,0.341717392206192,6.9953293800354,121,9999.0,0.045049037784338,33,8491.0
13540,0.34259191155433655,9.28387451171875,284,9999.0,-1.4730165004730225,-215,8491.0
13550,0.342558890581131,9.059816360473633,48,9999.0,-6.007331848144531,93,8491.0
13560,0.34251946210861206,7.720322132110596,118,9999.0,-2.6099138259887695,-52,8491.0
13570,0.34245774149894714,4.246500015258789,17,9999.0,-3.414856195449829,46,8491.0
13580,0.343792587518692,1.5042152404785156,109,9999.0,-3.1811113357543945,-152,8491.0
13590,0.3438454270362854,0.4753482937812805,-45,9999.0,-5.932486057281494,-94,8491.0
13600,0.34386831521987915,-4.801549434661865,-58,9999.0,-4.066457271575928,-58,8491.0
13610,0.3439018428325653,-4.648196220397949,-133,9999.0,-5.493967533111572,-86,8491.0
13620,0.3439536392688751,-3.66705060005188,15,9999.0,-2.666506290435791,-92,8491.0
13630,0.3448021411895752,-4.680702209472656,-63,9999.0,-1.6081278324127197,-149,8491.0
13640,0.34487101435661316,-5.207398891448975,-87,9999.0,-1.3977925777435303,-35,8491.0
13650,0.3449043035507202,-3.033665418624878,-22,9999.0,0.42644694447517395,-21,8491.0
13660,0.3449118435382843,-0.8567103743553162,-102,9999.0,0.27178844809532166,171,8491.0
13670,0.3445501923561096,0.4250354468822479,100,9999.0,2.181220769882202,-62,8491.0
13680,0.3445087969303131,3.057879686355591,24,9999.0,0.9568687677383423,69,8491.0
13690,0.34447214007377625,3.6362433433532715,105,9999.0,-0.09294424951076508,-55,8491.0
13700,0.3444700241088867,5.016416072845459,68,9999.0,-1.5696977376937866,-7,8491.0
13710,0.3444841504096985,3.388718843460083,-32,9999.0,-0.10976783186197281,89,8491.0
13720,0.3442969024181366,0.7706612944602966,22,9999.0,-1.9505655765533447,-26,8491.0
13730,0.3442930281162262,0.46272963285446167,-88,9999.0,-1.6768512725830078,68,8491.0
13740,0.34429773688316345,-1.1750963926315308,102,9999.0,-0.8777101039886475,-115,8491.0
13750,0.3443169891834259,-2.4339048862457275,-100,9999.0,-3.6656110286712646,8,8491.0
13760,0.34338483214378357,-3.072650194168091,-41,9999.0,-0.1799369603395462,-46,8491.0
13770,0.34326863288879395,-3.6850595474243164,-107,9999.0,-0.12365267425775528,48,8491.0
13780,0.3431304395198822,-0.7629284858703613,-69,9999.0,1.287497639656067,164,8491.0
13790,0.34298160672187805,-1.1511019468307495,68,9999.0,0.6397920846939087,-33,8491.0
13800,0.34254539012908936,1.4709382057189941,50,9999.0,0.991222620010376,15,8491.0
13810,0.34239381551742554,1.0495774745941162,66,9999.0,0.9343586564064026,-98,8491.0
13820,0.342268705368042,1.3429495096206665,8,9999.0,-2.659961223602295,-78,8491.0
13830,0.34219005703926086,0.005121431779116392,-105,9999.0,-4.3592658042907715,54,8491.0
13840,0.3421616554260254,-0.14280752837657928,38,9999.0,-8.629534721374512,-209,8491.0
13850,0.3424317240715027,-2.614659070968628,-105,9999.0,-6.973549842834473,-29,8491.0
13860,0.342377245426178,-3.0403730869293213,14,9999.0,-6.600972652435303,-161,8491.0
13870,0.34231051802635193,-4.547232627868652,-72,9999.0,-3.0649874210357666,-87,8491.0
13880,0.34221333265304565,-6.235079765319824,-139,9999.0,-0.9805819392204285,29,8491.0
13890,0.3436717391014099,-7.699326515197754,-97,9999.0,-0.10112319886684418,-69,8491.0
13900,0.3437294661998749,-7.668208599090576,-273,9999.0,-0.14982084929943085,161,8491.0
13910,0.34373873472213745,-8.50828742980957,-138,9999.0,1.4782402515411377,13,8491.0
13920,0.34371137619018555,-8.452555656433105,-167,9999.0,-3.8491060733795166,-26,8491.0
13930,0.3437024652957916,-8.211834907531738,-128,9999.0,-2.7929255962371826,1,8491.0
13940,0.34378376603126526,-6.626861095428467,7,9999.0,-1.3831937313079834,-180,8491.0
13950,0.3437526226043701,-3.597227096557617,-117,9999.0,-2.380270004272461,23,8491.0
13960,0.3437473773956299,-1.0833766460418701,-15,9999.0,-2.446310043334961,15,8491.0
13970,0.343711256980896,1.4135156869888306,89,9999.0,-1.7648786306381226,-69,8491.0
13980,0.344965398311615,2.066118001937866,28,9999.0,-0.34270983934402466,69,8491.0
13990,0.34502094984054565,3.812342643737793,136,9999.0,5.2589335441589355,-40,8491.0
14000,0.3451196849346161,4.835117340087891,68,9999.0,5.364261150360107,53,8491.0
14010,0.3452477753162384,4.721030235290527,-82,9999.0,2.086108684539795,164,8491.0
14020,0.34641599655151367,1.9959622621536255,77,9999.0,4.659071922302246,13,8491.0
14030,0.34661659598350525,0.42045357823371887,18,9999.0,6.375471591949463,150,8491.0
14040,0.3468278646469116,2.276623249053955,100,9999.0,1.6560969352722168,-22,8491.0
14050,0.3470662832260132,2.670264959335327,93,9999.0,0.010155036114156246,-69,8491.0
14060,0.34729906916618347,3.506042242050171,-64,9999.0,-1.4405269622802734,137,8491.0
14070,0.3482266366481781,4.44832706451416,109,9999.0,-4.231118679046631,-79,8491.0
14080,0.34849172830581665,5.197301387786865,79,9999.0,-3.976855516433716,-28,8491.0
14090,0.3487590253353119,4.368361949920654,128,9999.0,-2.1737782955169678,-154,8491.0
14100,0.34895947575569153,3.829838752746582,42,9999.0,-1.9339600801467896,-122,8491.0
14110,0.3490837812423706,3.557558536529541,-55,9999.0,-3.317426919937134,46,8491.0
14120,0.3492644727230072,1.7426396608352661,-4,9999.0,-1.0691218376159668,13,8491.0
14130,0.3494139611721039,1.0113811492919922,-56,9999.0,1.8971564769744873,118,8491.0
14140,0.3495248556137085,-1.466029405593872,59,9999.0,0.112186960875988,-56,8491.0
14150,0.34963035583496094,-2.0407986640930176,-44,9999.0,5.822836399078369,124,8491.0
14160,0.3498890995979309,-2.192100763320923,-51,9999.0,7.961654186248779,69,8491.0
14170,0.3500029742717743,-1.75396728515625,-75,9999.0,6.958624839782715,287,8491.0
14180,0.35007384419441223,-0.3456430435180664,127,9999.0,5.125540256500244,66,8491.0
14190,0.3501313328742981,0.804265558719635,-42,9999.0,4.678063869476318,145,8491.0
14200,0.3496983051300049,2.3576996326446533,121,9999.0,-0.0357564315199852,-57,8491.0
14210,0.34968090057373047,3.832454204559326,1,9999.0,-0.8623560070991516,91,8491.0
