timestamp,kalman.stateZ,gyro.x,gyro.xRaw,gyro.xVariance,gyro.y,gyro.yRaw,gyro.yVariance
0,0.2616172134876251,0.1143537163734436,10,9999.0,-0.9538776278495789,-11,8491.0
10,0.26167479157447815,-0.01948513276875019,0,9999.0,-0.5258257985115051,-2,8491.0
20,0.26174435019493103,0.10012354701757431,1,9999.0,-0.12946924567222595,-7,8491.0
30,0.26304182410240173,-0.22507576644420624,-3,9999.0,0.07943405210971832,3,8491.0
40,0.2632535994052887,0.20032654702663422,-2,9999.0,-0.10306688398122787,12,8491.0
50,0.26339104771614075,-0.10863777250051498,-1,9999.0,0.30725207924842834,7,8491.0
60,0.26368603110313416,0.01883000321686268,5,9999.0,0.701612651348114,15,8491.0
70,0.2639436721801758,0.13086502254009247,4,9999.0,0.5544083118438721,13,8491.0
80,0.2633296549320221,0.015618025325238705,6,9999.0,0.6186279058456421,10,8491.0
90,0.26357388496398926,0.14129282534122467,5,9999.0,0.9019260406494141,18,8491.0
100,0.263696551322937,0.05816829577088356,4,9999.0,1.1748924255371094,25,8491.0
110,0.26389679312705994,-0.14384225010871887,-3,9999.0,1.1393436193466187,19,8491.0
120,0.2629946172237396,-0.11457257717847824,7,9999.0,1.5688085556030273,26,8491.0
130,0.2631393373012543,0.019671853631734848,1,9999.0,1.655930519104004,25,8491.0
140,0.26325723528862,0.29739201068878174,-2,9999.0,1.8471697568893433,34,8491.0
150,0.26333385705947876,-0.12980887293815613,4,9999.0,1.8841075897216797,32,8491.0
160,0.2634153664112091,-0.18137985467910767,6,9999.0,1.7758933305740356,29,8491.0
170,0.2632876932621002,0.08744219690561295,-1,9999.0,1.8873012065887451,30,8491.0
180,0.2633824646472931,-0.06502499431371689,2,9999.0,1.8644613027572632,27,8491.0
190,0.26346060633659363,-0.6587861180305481,-8,9999.0,1.318934440612793,25,8491.0
200,0.26354163885116577,-0.3168911933898926,15,9999.0,1.762680172920227,37,8491.0
210,0.26256635785102844,3.288508176803589,51,9999.0,0.43419745564460754,-26,8491.0
220,0.26263338327407837,0.0873832032084465,50,9999.0,0.37493661046028137,8,8491.0
230,0.26270732283592224,5.464193820953369,38,9999.0,-3.282280445098877,-12,8491.0
240,0.26279503107070923,9.912599563598633,87,9999.0,-5.026841163635254,-32,8491.0
250,0.2629324197769165,10.486702919006348,120,9999.0,-5.270671844482422,-47,8491.0
260,0.2609093189239502,9.87157154083252,162,9999.0,-6.183485507965088,-102,8491.0
270,0.26091843843460083,11.689284324645996,218,9999.0,-0.387148380279541,-48,8491.0
280,0.2609562277793884,10.008262634277344,109,9999.0,-1.7423477172851562,51,8491.0
290,0.26094669103622437,7.026933670043945,126,9999.0,1.4255445003509521,-56,8491.0
300,0.2609475553035736,5.737497806549072,77,9999.0,2.3888938426971436,15,8491.0
310,0.2609315514564514,3.607293128967285,-24,9999.0,3.185171365737915,196,8491.0
320,0.260918527841568,0.03254587948322296,82,9999.0,5.023324012756348,65,8491.0
330,0.2609297037124634,-1.4917140007019043,54,9999.0,6.285859107971191,-65,8491.0
340,0.26056915521621704,-1.8064028024673462,22,9999.0,5.4064412117004395,-86,8491.0
350,0.2605769634246826,-2.3294920921325684,2,9999.0,3.428664207458496,154,8491.0
360,0.2605753242969513,-1.0106265544891357,-12,9999.0,1.3107142448425293,-88,8491.0
370,0.260545551776886,-0.49174052476882935,-2,9999.0,0.789834201335907,156,8491.0
380,0.26054835319519043,-0.019708769395947456,24,9999.0,0.36756017804145813,17,8491.0
390,0.2620903253555298,2.0335028171539307,116,9999.0,-1.2746251821517944,-113,8491.0
400,0.262317031621933,0.831560492515564,165,9999.0,-2.1108286380767822,-165,8491.0
410,0.2625504732131958,3.5120739936828613,24,9999.0,-4.391639232635498,-116,8491.0
420,0.2628307640552521,3.6590099334716797,28,9999.0,-3.115163564682007,-171,8491.0
430,0.26406607031822205,1.351835012435913,144,9999.0,-2.2909061908721924,-78,8491.0
440,0.26455259323120117,0.4313676655292511,81,9999.0,-0.15987780690193176,83,8491.0
450,0.26498639583587646,-0.11502434313297272,-191,9999.0,2.3794705867767334,241,8491.0
460,0.26528400182724,-0.8518045544624329,-159,9999.0,4.456670761108398,254,8491.0
470,0.2655198574066162,-1.5202816724777222,-16,9999.0,10.446168899536133,109,8491.0
480,0.2659290134906769,-4.650935173034668,30,9999.0,10.483773231506348,151,8491.0
490,0.26604747772216797,-4.142022132873535,-105,9999.0,10.273846626281738,112,8491.0
500,0.26603204011917114,-2.776261806488037,-6,9999.0,7.683842658996582,120,8491.0
510,0.26588499546051025,-1.7300667762756348,-108,9999.0,7.42781400680542,246,8491.0
520,0.26451539993286133,0.5343369841575623,-40,9999.0,4.62490701675415,116,8491.0
530,0.26427558064460754,0.020566686987876892,138,9999.0,3.3864738941192627,-105,8491.0
540,0.2641119062900543,0.8265040516853333,42,9999.0,-0.528162956237793,-77,8491.0
550,0.2639954090118408,1.293662428855896,-80,9999.0,-2.4583871364593506,119,8491.0
560,0.26464495062828064,0.06712246686220169,75,9999.0,-2.182925224304199,-73,8491.0
570,0.2644850015640259,0.7810071110725403,29,9999.0,-3.5192949771881104,-143,8491.0
580,0.26448559761047363,1.0835188627243042,-7,9999.0,-3.635989189147949,25,8491.0
590,0.2640005350112915,1.120051383972168,2,9999.0,-2.8701539039611816,-55,8491.0
600,0.2640121281147003,0.8900030851364136,45,9999.0,-0.9665602445602417,-69,8491.0
610,0.2645760774612427,1.2284553050994873,40,9999.0,-0.9824149012565613,-24,8491.0
620,0.2645798623561859,0.3213088810443878,-122,9999.0,1.2583446502685547,176,8491.0
630,0.2641277313232422,-1.4450501203536987,93,9999.0,4.999959945678711,-49,8491.0
640,0.2636626660823822,-0.9378827810287476,-43,9999.0,5.32898473739624,147,8491.0
650,0.26463308930397034,-1.2916725873947144,-7,9999.0,5.475102424621582,78,8491.0
660,0.26426830887794495,-1.295823335647583,-17,9999.0,4.841619491577148,25,8491.0
670,0.263965904712677,-0.4423765242099762,27,9999.0,3.1909027099609375,105,8491.0
680,0.2635731101036072,0.1764654517173767,-82,9999.0,3.5765504837036133,74,8491.0
690,0.2635752260684967,0.30305349826812744,97,9999.0,-0.16398341953754425,-136,8491.0
700,0.2638311982154846,0.2573557496070862,-113,9999.0,-3.2630043029785156,105,8491.0
710,0.2638450264930725,-0.2261146903038025,112,9999.0,-4.44495964050293,-277,8491.0
720,0.2634594738483429,2.151463508605957,-37,9999.0,-8.376206398010254,-42,8491.0
730,0.26345184445381165,0.8399971127510071,71,9999.0,-7.978077411651611,-146,8491.0
740,0.2633456885814667,0.9965211749076843,38,9999.0,-7.7086286544799805,-164,8491.0
750,0.2633376121520996,-0.0714692547917366,-117,9999.0,-5.905675411224365,71,8491.0
760,0.26283934712409973,-1.205101728439331,91,9999.0,-1.567354679107666,-235,8491.0
770,0.2628389000892639,0.16988888382911682,-101,9999.0,2.797971725463867,227,8491.0
780,0.26381969451904297,-0.8556270599365234,63,9999.0,5.415576457977295,73,8491.0
790,0.2635456919670105,-1.3960258960723877,-71,9999.0,7.316150188446045,86,8491.0
800,0.26324334740638733,-0.5698279142379761,-45,9999.0,5.602153301239014,142,8491.0
810,0.2628664970397949,0.4893828332424164,118,9999.0,4.8085036277771,-6,8491.0
820,0.2625017762184143,0.7303001880645752,-106,9999.0,3.3575234413146973,231,8491.0
830,0.2640955150127411,-0.8774167895317078,128,9999.0,1.4239391088485718,-224,8491.0
840,0.26391053199768066,1.0300428867340088,-111,9999.0,-0.6502035856246948,104,8491.0
850,0.2637692093849182,1.3030645847320557,126,9999.0,-2.0728156566619873,-120,8491.0
860,0.26366642117500305,3.333405017852783,29,9999.0,-4.675054550170898,-58,8491.0
870,0.26451605558395386,2.8828368186950684,62,9999.0,-6.79918909072876,-135,8491.0
880,0.26447585225105286,3.0271952152252197,16,9999.0,-6.721813678741455,46,8491.0
890,0.2644137144088745,3.807574987411499,149,9999.0,-6.905907154083252,-171,8491.0
900,0.2642873227596283,0.654422402381897,-132,9999.0,-3.9455931186676025,1,8491.0
910,0.26560285687446594,-2.356630802154541,13,9999.0,-2.0758163928985596,-114,8491.0
920,0.2655496895313263,-3.601374387741089,-47,9999.0,1.3416181802749634,67,8491.0
930,0.26550570130348206,-3.2691729068756104,-81,9999.0,3.228837728500366,148,8491.0
940,0.2654874622821808,-3.9466171264648438,45,9999.0,5.631640911102295,111,8491.0
950,0.2654673755168915,-1.3906855583190918,-161,9999.0,5.513775825500488,257,8491.0
960,0.26684072613716125,-2.1913092136383057,42,9999.0,7.2827067375183105,231,8491.0
970,0.26681941747665405,1.3280789852142334,-14,9999.0,4.461642265319824,25,8491.0
980,0.2669260501861572,3.322636842727661,18,9999.0,1.087839961051941,-7,8491.0
990,0.2668846547603607,4.054293632507324,73,9999.0,-2.369684934616089,-23,8491.0
1000,0.2680549919605255,4.45844030380249,184,9999.0,-4.5114827156066895,-65,8491.0
1010,0.26814284920692444,4.54434871673584,98,9999.0,-4.464172840118408,-30,8491.0
1020,0.26826241612434387,3.333158016204834,-48,9999.0,-4.104061126708984,122,8491.0
1030,0.2683078348636627,0.8721364140510559,136,9999.0,0.2577105760574341,-208,8491.0
1040,0.26838117837905884,-0.2762417793273926,-105,9999.0,1.0816869735717773,27,8491.0
1050,0.2694489061832428,-1.1319282054901123,-45,9999.0,-1.2976161241531372,0,8491.0
1060,0.26957571506500244,-2.067981719970703,-113,9999.0,1.0174636840820312,137,8491.0
1070,0.2697330117225647,-4.188368320465088,93,9999.0,4.333964824676514,-111,8491.0
1080,0.26983189582824707,-2.221871852874756,-119,9999.0,0.6801099181175232,86,8491.0
1090,0.2699525058269501,-1.4687451124191284,-36,9999.0,5.127706050872803,86,8491.0
1100,0.27000510692596436,0.17796993255615234,16,9999.0,7.986580848693848,59,8491.0
1110,0.27010270953178406,1.5127668380737305,112,9999.0,5.845507621765137,-24,8491.0
1120,0.2702347934246063,0.37111520767211914,110,9999.0,1.0614550113677979,-114,8491.0
1130,0.2728220522403717,4.876466751098633,-68,9999.0,-5.228635311126709,187,8491.0
1140,0.27306464314460754,2.2896013259887695,119,9999.0,1.6552774906158447,-49,8491.0
1150,0.27331241965293884,2.1628010272979736,12,9999.0,1.7180631160736084,52,8491.0
1160,0.27360719442367554,1.6678438186645508,41,9999.0,0.7730208039283752,6,8491.0
1170,0.2739304304122925,1.1400234699249268,23,9999.0,-1.9804394245147705,-46,8491.0
1180,0.27456673979759216,0.5710413455963135,-75,9999.0,-2.585472822189331,109,8491.0
1190,0.27493950724601746,-2.3618292808532715,68,9999.0,-1.2020338773727417,-214,8491.0
1200,0.2754126489162445,-0.22447873651981354,-80,9999.0,-3.8226616382598877,72,8491.0
1210,0.2758938670158386,-2.115455389022827,-58,9999.0,0.6653806567192078,42,8491.0
1220,0.276991069316864,-5.132095813751221,-44,9999.0,6.385455131530762,119,8491.0
1230,0.27753955125808716,-4.919471263885498,-174,9999.0,6.964752197265625,326,8491.0
1240,0.27815186977386475,-7.883510589599609,65,9999.0,6.803543567657471,-39,8491.0
1250,0.27872467041015625,-0.09844174236059189,42,9999.0,0.686046302318573,32,8491.0
1260,0.27998360991477966,0.9809602499008179,22,9999.0,0.32011958956718445,103,8491.0
1270,0.2807718813419342,4.15688419342041,103,9999.0,3.932448625564575,44,8491.0
1280,0.28152862191200256,5.4942402839660645,17,9999.0,2.345883846282959,157,8491.0
1290,0.2823379933834076,5.962101459503174,163,9999.0,1.1601743698120117,-32,8491.0
1300,0.283145010471344,5.718447208404541,250,9999.0,2.945329427719116,-168,8491.0
1310,0.2835974097251892,5.570257186889648,-6,9999.0,-4.014217853546143,12,8491.0
1320,0.28445133566856384,3.032701015472412,56,9999.0,-0.9181059002876282,-44,8491.0
1330,0.28530168533325195,2.178922414779663,-51,9999.0,0.12825870513916016,51,8491.0
1340,0.28617915511131287,-1.2221348285675049,-152,9999.0,0.3598024547100067,208,8491.0
1350,0.2886350750923157,-6.9380269050598145,-136,9999.0,0.9898555874824524,-121,8491.0
1360,0.28972843289375305,-8.025248527526855,-161,9999.0,1.49013352394104,-84,8491.0
1370,0.29081740975379944,-8.235329627990723,-167,9999.0,-0.3557223677635193,38,8491.0
1380,0.2919348478317261,-7.815977573394775,-33,9999.0,-0.26037174463272095,-128,8491.0
1390,0.2931584119796753,-5.42262077331543,-201,9999.0,-1.5060009956359863,23,8491.0
1400,0.294618159532547,-1.901198148727417,-61,9999.0,-1.2795361280441284,11,8491.0
1410,0.29583480954170227,-1.980301856994629,154,9999.0,-4.69144868850708,-224,8491.0
1420,0.2970665991306305,-0.8021568059921265,-21,9999.0,-3.14821720123291,34,8491.0
1430,0.2983042597770691,2.8301517963409424,111,9999.0,1.713744878768921,-31,8491.0
1440,0.299290269613266,2.9284963607788086,59,9999.0,1.0917255878448486,59,8491.0
1450,0.3004768192768097,3.0663888454437256,19,9999.0,2.1262130737304688,208,8491.0
1460,0.30164265632629395,-0.13269253075122833,127,9999.0,1.572007417678833,-61,8491.0
1470,0.3028242588043213,1.147602915763855,61,9999.0,5.085097789764404,124,8491.0
1480,0.3031856417655945,-0.3118715286254883,34,9999.0,2.026442050933838,35,8491.0
1490,0.3041885495185852,-1.6169005632400513,-91,9999.0,-0.9251101613044739,57,8491.0
1500,0.30520468950271606,-3.4552154541015625,-36,9999.0,-4.557041645050049,-55,8491.0
1510,0.306295782327652,-3.7012524604797363,100,9999.0,-8.728261947631836,-333,8491.0
1520,0.30725887417793274,-5.154959678649902,-116,9999.0,-10.89009952545166,8,8491.0
1530,0.30695199966430664,-9.218685150146484,-184,9999.0,-6.015472888946533,-75,8491.0
1540,0.30757278203964233,-12.715017318725586,-157,9999.0,-1.335091233253479,134,8491.0
1550,0.3081651031970978,-11.305218696594238,-133,9999.0,1.946973204612732,-68,8491.0
1560,0.3087663948535919,-9.083755493164062,-372,9999.0,2.1468167304992676,279,8491.0
1570,0.30838465690612793,-8.049731254577637,-103,9999.0,6.504034996032715,11,8491.0
1580,0.30870184302330017,-7.294100761413574,-133,9999.0,7.8156046867370605,107,8491.0
1590,0.30893900990486145,-4.657104015350342,11,9999.0,7.337775707244873,31,8491.0
1600,0.3091523349285126,-1.7343848943710327,-40,9999.0,6.015629291534424,42,8491.0
1610,0.30936095118522644,1.0238664150238037,-158,9999.0,3.0026497840881348,254,8491.0
1620,0.3104955554008484,1.8040248155593872,163,9999.0,0.954659640789032,-120,8491.0
1630,0.31061914563179016,3.482309341430664,87,9999.0,-0.4900987446308136,-16,8491.0
1640,0.3107268810272217,6.007638454437256,81,9999.0,-4.806552886962891,33,8491.0
1650,0.3108326196670532,6.774320602416992,121,9999.0,-1.150029182434082,-80,8491.0
1660,0.3117210566997528,8.09304141998291,30,9999.0,-3.304422616958618,66,8491.0
1670,0.3118269145488739,5.925782680511475,79,9999.0,-3.008164882659912,-181,8491.0
1680,0.3119449317455292,0.6448042988777161,48,9999.0,8.44643783569336,-82,8491.0
1690,0.31204918026924133,1.4555453062057495,-141,9999.0,-5.432403564453125,-48,8491.0
1700,0.3143429458141327,-1.279373288154602,-2,9999.0,-2.842942953109741,-142,8491.0
1710,0.31451210379600525,-1.7276437282562256,-94,9999.0,-1.6034632921218872,1,8491.0
1720,0.31466010212898254,-0.5323224663734436,-44,9999.0,-2.432816982269287,57,8491.0
1730,0.3147931694984436,-3.6953654289245605,96,9999.0,1.3262065649032593,-179,8491.0
1740,0.31488099694252014,-0.8042713403701782,-56,9999.0,2.165576219558716,75,8491.0
1750,0.3153735101222992,-3.425863265991211,50,9999.0,6.07866907119751,192,8491.0
1760,0.31549254059791565,2.398895502090454,152,9999.0,3.494194746017456,-35,8491.0
1770,0.3155650794506073,5.618913173675537,19,9999.0,2.3823835849761963,183,8491.0
1780,0.3158072531223297,4.317688941955566,176,9999.0,-2.5638203620910645,-51,8491.0
1790,0.3156035542488098,8.039865493774414,299,9999.0,1.7403229475021362,-305,8491.0
1800,0.31574732065200806,3.3632893562316895,-71,9999.0,0.2447187751531601,70,8491.0
1810,0.3158969283103943,8.57228946685791,97,9999.0,-4.816349029541016,-63,8491.0
1820,0.31594711542129517,6.7426018714904785,124,9999.0,-4.344502925872803,-106,8491.0
1830,0.3167343735694885,5.508678436279297,22,9999.0,-3.4301223754882812,74,8491.0
1840,0.3169043958187103,5.0814032554626465,143,9999.0,-3.1263444423675537,-74,8491.0
1850,0.31702920794487,5.453756809234619,175,9999.0,1.0382397174835205,-134,8491.0
1860,0.3171473443508148,2.821481466293335,-48,9999.0,2.3278112411499023,175,8491.0
1870,0.3172540068626404,4.2778000831604,107,9999.0,-3.2134902477264404,62,8491.0
1880,0.31759434938430786,3.101017713546753,78,9999.0,0.7381432056427002,87,8491.0
1890,0.3176797330379486,2.5503811836242676,-33,9999.0,1.902854561805725,173,8491.0
1900,0.31775978207588196,-0.20671634376049042,146,9999.0,1.399314045906067,-62,8491.0
1910,0.31779974699020386,0.5526458621025085,-10,9999.0,4.564211368560791,24,8491.0
1920,0.31790104508399963,1.2486562728881836,-63,9999.0,0.9952058792114258,108,8491.0
1930,0.31789350509643555,-3.299036741256714,-41,9999.0,5.6430344581604,22,8491.0
1940,0.3179295063018799,-2.5837745666503906,-94,9999.0,1.676809549331665,89,8491.0
1950,0.31784752011299133,-0.9436452388763428,-59,9999.0,-1.9634125232696533,12,8491.0
1960,0.3177390992641449,-2.633138656616211,118,9999.0,-4.554211139678955,-324,8491.0
1970,0.31737005710601807,-5.9158034324646,-114,9999.0,-0.1709819734096527,-54,8491.0
1980,0.31729134917259216,-3.0467782020568848,-126,9999.0,-3.7986366748809814,-5,8491.0
1990,0.31709423661231995,-4.334916114807129,-9,9999.0,0.7160754799842834,-20,8491.0
2000,0.31765490770339966,0.007820811122655869,-65,9999.0,0.8722605109214783,122,8491.0
2010,0.3190234303474426,-1.5516220331192017,49,9999.0,1.8889715671539307,-55,8491.0
2020,0.31938600540161133,-1.4969843626022339,54,9999.0,4.156857490539551,-95,8491.0
2030,0.3194999396800995,-0.011267467401921749,0,9999.0,-1.6028954982757568,123,8491.0
2040,0.3195783793926239,0.5414811968803406,-41,9999.0,1.932913899421692,107,8491.0
2050,0.31958988308906555,-6.947676658630371,-74,9999.0,2.489182472229004,68,8491.0
2060,0.3182893991470337,-6.183747291564941,-185,9999.0,3.2997913360595703,202,8491.0
2070,0.31825149059295654,-5.608625888824463,45,9999.0,1.7490053176879883,-86,8491.0
2080,0.3182399272918701,-4.617739200592041,-14,9999.0,-1.7572047710418701,-60,8491.0
2090,0.318202942609787,1.5610719919204712,-295,9999.0,-5.960343360900879,252,8491.0
2100,0.3181079626083374,-0.38782644271850586,-4,9999.0,3.05643892288208,-2,8491.0
2110,0.31808578968048096,-3.543553352355957,45,9999.0,-4.309189796447754,-47,8491.0
2120,0.3180761933326721,-1.96710205078125,-35,9999.0,-1.2931417226791382,28,8491.0
2130,0.3181043267250061,-0.6199889779090881,58,9999.0,0.6321919560432434,-92,8491.0
2140,0.3169440031051636,1.8259456157684326,-10,9999.0,-0.41282516717910767,-27,8491.0
2150,0.31693124771118164,1.9208192825317383,-119,9999.0,-1.5272231101989746,251,8491.0
2160,0.31689774990081787,2.8663015365600586,119,9999.0,0.5635915398597717,-168,8491.0
2170,0.3168608546257019,2.0841903686523438,-57,9999.0,1.4280015230178833,-69,8491.0
2180,0.31680458784103394,1.494140386581421,37,9999.0,-3.8095598220825195,-75,8491.0
2190,0.3172210156917572,2.716420888900757,20,9999.0,-3.5019121170043945,-255,8491.0
2200,0.31713351607322693,2.5590732097625732,-37,9999.0,-3.2256691455841064,59,8491.0
2210,0.3170463740825653,2.344045639038086,222,9999.0,-3.524831771850586,-265,8491.0
2220,0.31695884466171265,2.901104211807251,-6,9999.0,-3.89023494720459,-29,8491.0
2230,0.3176981210708618,-3.386003017425537,-121,9999.0,-1.3979742527008057,31,8491.0
2240,0.3176763951778412,-2.5379233360290527,30,9999.0,0.8163686394691467,-71,8491.0
2250,0.31759724020957947,-1.315321683883667,-83,9999.0,-1.6309531927108765,120,8491.0
2260,0.31777459383010864,-0.09362087398767471,70,9999.0,1.7657426595687866,28,8491.0
2270,0.3186206519603729,1.9152958393096924,279,9999.0,-3.1833910942077637,-285,8491.0
2280,0.3186926543712616,2.0152924060821533,-69,9999.0,-3.8693761825561523,126,8491.0
2290,0.3187777101993561,3.558276414871216,-23,9999.0,5.649489402770996,81,8491.0
2300,0.31885194778442383,2.230437755584717,150,9999.0,4.22728157043457,-51,8491.0
2310,0.3189091384410858,6.293372631072998,39,9999.0,-0.6933853030204773,82,8491.0
2320,0.31894752383232117,7.484433650970459,183,9999.0,-0.5794882774353027,-45,8491.0
2330,0.31909218430519104,7.063535690307617,208,9999.0,-1.5714458227157593,-178,8491.0
2340,0.3191252648830414,8.239303588867188,30,9999.0,-0.07389431446790695,1,8491.0
2350,0.31917276978492737,6.57215690612793,70,9999.0,-2.1369292736053467,-56,8491.0
2360,0.31986916065216064,4.2512125968933105,128,9999.0,5.553083896636963,-66,8491.0
2370,0.3199366629123688,6.73956298828125,19,9999.0,1.6456793546676636,100,8491.0
2380,0.3200037479400635,3.352454900741577,74,9999.0,3.688427448272705,-74,8491.0
2390,0.3200627565383911,2.9127697944641113,27,9999.0,-0.3182198405265808,-81,8491.0
2400,0.32016438245773315,4.68263578414917,-142,9999.0,6.436044216156006,201,8491.0
2410,0.3202373683452606,-1.4756882190704346,-24,9999.0,1.7579665184020996,-4,8491.0
2420,0.32038164138793945,-4.819195747375488,-82,9999.0,0.3222511112689972,2,8491.0
2430,0.32049131393432617,-3.50636625289917,-92,9999.0,-0.3530128598213196,24,8491.0
2440,0.3205932676792145,-3.6246485710144043,15,9999.0,-4.251615524291992,-179,8491.0
2450,0.320019394159317,-1.323236346244812,-2,9999.0,-3.8452610969543457,-113,8491.0
2460,0.32005661725997925,3.574239492416382,-151,9999.0,-6.083282470703125,282,8491.0
2470,0.3200913965702057,-4.253716945648193,47,9999.0,-1.9135445356369019,-107,8491.0
2480,0.32010191679000854,-2.5808026790618896,-51,9999.0,3.227001190185547,67,8491.0
2490,0.3215472102165222,-1.7189910411834717,-25,9999.0,1.7852641344070435,-5,8491.0
2500,0.3215615153312683,-0.9296305179595947,58,9999.0,0.22708825767040253,-91,8491.0
2510,0.32157355546951294,0.6192821860313416,-4,9999.0,2.2140767574310303,59,8491.0
2520,0.32160893082618713,0.8066427111625671,-130,9999.0,0.8594244122505188,186,8491.0
2530,0.32165592908859253,-1.6391425132751465,65,9999.0,3.166022539138794,39,8491.0
2540,0.321445107460022,0.9448679089546204,-8,9999.0,3.5975468158721924,102,8491.0
2550,0.3215250074863434,-1.9930418729782104,-16,9999.0,5.948013782501221,162,8491.0
2560,0.3216647803783417,-1.1787545680999756,105,9999.0,7.248980522155762,-26,8491.0
2570,0.32176581025123596,-1.5022517442703247,-48,9999.0,3.691871166229248,55,8491.0
2580,0.32118144631385803,1.3827052116394043,-142,9999.0,0.08689627796411514,207,8491.0
2590,0.3213101029396057,-2.6308717727661133,15,9999.0,5.104288578033447,52,8491.0
2600,0.3213949203491211,-1.7202589511871338,-79,9999.0,1.5457007884979248,152,8491.0
2610,0.32143813371658325,-2.5860249996185303,-25,9999.0,4.801995277404785,52,8491.0
2620,0.32149210572242737,-5.096276760101318,38,9999.0,6.876486778259277,-79,8491.0
2630,0.321684867143631,-2.9583382606506348,-160,9999.0,2.971492052078247,189,8491.0
2640,0.3217028081417084,-3.562889814376831,-95,9999.0,-1.4557228088378906,2,8491.0
2650,0.32170817255973816,-3.032310962677002,30,9999.0,-0.005275000352412462,-74,8491.0
2660,0.3216763734817505,-3.499683141708374,-105,9999.0,-1.3519068956375122,-12,8491.0
2670,0.3209742307662964,-3.0686306953430176,6,9999.0,-3.9008350372314453,-123,8491.0
2680,0.3209148347377777,-3.437136173248291,17,9999.0,-7.265816688537598,-151,8491.0
2690,0.32085120677948,-5.478043556213379,-152,9999.0,3.7332963943481445,108,8491.0
2700,0.3207879066467285,-0.8225904107093811,-19,9999.0,-5.3140387535095215,-45,8491.0
2710,0.32047778367996216,1.301973581314087,30,9999.0,-6.085586071014404,-83,8491.0
2720,0.3204287886619568,-1.7926838397979736,-66,9999.0,0.2893978953361511,130,8491.0
2730,0.32040175795555115,-0.8075574040412903,114,9999.0,2.7658157348632812,-34,8491.0
2740,0.3203904330730438,0.5237694382667542,64,9999.0,4.252196311950684,54,8491.0
2750,0.3203619718551636,0.7337030172348022,-179,9999.0,5.849648475646973,288,8491.0
2760,0.3206011652946472,0.08656138926744461,13,9999.0,4.243378639221191,94,8491.0
2770,0.32058966159820557,0.4086270034313202,91,9999.0,1.1983698606491089,40,8491.0
2780,0.3205898106098175,3.1889803409576416,37,9999.0,-0.39394256472587585,159,8491.0
2790,0.32059580087661743,2.2870893478393555,112,9999.0,2.170280933380127,-119,8491.0
2800,0.32113972306251526,2.739625930786133,-84,9999.0,-0.2525176703929901,-130,8491.0
2810,0.32120731472969055,3.64003586769104,70,9999.0,-2.5923213958740234,6,8491.0
2820,0.32128262519836426,4.290004730224609,209,9999.0,-0.5652803778648376,47,8491.0
2830,0.3213420808315277,2.743201494216919,12,9999.0,-7.553434371948242,-189,8491.0
2840,0.32139259576797485,0.9499140977859497,4,9999.0,-3.2058732509613037,42,8491.0
2850,0.3216986656188965,0.5252971053123474,54,9999.0,-0.34759292006492615,-162,8491.0
2860,0.3217885196208954,1.6934771537780762,-132,9999.0,-3.48877215385437,66,8491.0
2870,0.3218764066696167,5.696151256561279,42,9999.0,0.5266070365905762,-41,8491.0
2880,0.3219548463821411,-0.8620492219924927,63,9999.0,5.914198875427246,-288,8491.0
2890,0.3212573528289795,-3.4079527854919434,-137,9999.0,8.330192565917969,174,8491.0
2900,0.3212287425994873,-3.321155071258545,-40,9999.0,3.380659818649292,12,8491.0
2910,0.3212219476699829,-3.643439292907715,-16,9999.0,4.573999881744385,-43,8491.0
2920,0.32123300433158875,-1.3749891519546509,-183,9999.0,0.42726194858551025,144,8491.0
2930,0.3215060234069824,0.7032805681228638,19,9999.0,-0.5141627788543701,-114,8491.0
2940,0.3215375542640686,4.387778282165527,268,9999.0,-1.5629009008407593,-332,8491.0
2950,0.3215698003768921,2.182138681411743,-23,9999.0,-0.9805687665939331,-96,8491.0
2960,0.3215973973274231,0.6377063393592834,42,9999.0,-0.9089663028717041,-69,8491.0
2970,0.32163792848587036,1.4137805700302124,61,9999.0,-3.1054346561431885,-155,8491.0
2980,0.3214239180088043,0.8883923888206482,-74,9999.0,-5.570289134979248,0,8491.0
2990,0.3214368224143982,1.0912692546844482,-27,9999.0,-6.784435272216797,-112,8491.0
3000,0.3213885724544525,1.3346855640411377,214,9999.0,-3.275777578353882,-356,8491.0
3010,0.32155293226242065,-0.6314246654510498,-24,9999.0,0.5028119683265686,-34,8491.0
3020,0.32348138093948364,-3.742549180984497,-106,9999.0,6.805075645446777,111,8491.0
3030,0.3235534429550171,-4.012892246246338,-28,9999.0,-1.1469292640686035,-92,8491.0
3040,0.3235990107059479,-4.081815719604492,-134,9999.0,-1.2991572618484497,75,8491.0
3050,0.3237989842891693,-0.15039852261543274,-39,9999.0,-4.080005645751953,-1,8491.0
3060,0.32161596417427063,2.442091941833496,268,9999.0,-1.0419762134552002,-113,8491.0
3070,0.32163289189338684,5.151216983795166,163,9999.0,-2.7641513347625732,-139,8491.0
3080,0.3216560482978821,7.399932384490967,-51,9999.0,-3.212555408477783,90,8491.0
3090,0.32169201970100403,5.086811065673828,142,9999.0,-2.392409563064575,-84,8491.0
3100,0.3217355012893677,8.792939186096191,180,9999.0,-2.2868313789367676,-113,8491.0
3110,0.3207237422466278,10.035555839538574,72,9999.0,-2.423200845718384,72,8491.0
3120,0.3207036256790161,5.677005767822266,183,9999.0,0.685033917427063,-76,8491.0
3130,0.3206709921360016,2.7370808124542236,110,9999.0,0.07142467051744461,-63,8491.0
3140,0.32064446806907654,-2.4175519943237305,-211,9999.0,0.5723828673362732,137,8491.0
3150,0.32195600867271423,-8.206353187561035,-94,9999.0,0.4323514997959137,-18,8491.0
3160,0.3219835162162781,-7.336941719055176,-99,9999.0,-0.14841611683368683,-49,8491.0
3170,0.3220030963420868,-7.385948657989502,-153,9999.0,-1.5841243267059326,91,8491.0
3180,0.32202452421188354,-5.092082500457764,-48,9999.0,-2.906611204147339,-8,8491.0
3190,0.3220788836479187,-3.38217830657959,154,9999.0,2.1753664016723633,-190,8491.0
3200,0.3214902877807617,-2.527223587036133,-42,9999.0,0.4182990789413452,98,8491.0
3210,0.32152897119522095,1.594502568244934,-274,9999.0,-9.332242012023926,317,8491.0
3220,0.32172971963882446,-4.6389641761779785,6,9999.0,6.373837947845459,145,8491.0
3230,0.3219307065010071,-3.2123496532440186,-35,9999.0,5.0522589683532715,118,8491.0
3240,0.32122600078582764,-0.984001874923706,-46,9999.0,3.1851539611816406,127,8491.0
3250,0.32128095626831055,-3.342782974243164,72,9999.0,2.360591411590576,-49,8491.0
3260,0.32130947709083557,-2.343172550201416,-53,9999.0,0.03286384791135788,19,8491.0
3270,0.3213333785533905,-4.926281452178955,-334,9999.0,1.7953510284423828,181,8491.0
3280,0.3213352859020233,-11.587401390075684,-207,9999.0,-0.8880081176757812,31,8491.0
3290,0.3215959072113037,-12.03449821472168,-169,9999.0,-5.111497402191162,-79,8491.0
3300,0.321570485830307,-12.098807334899902,-199,9999.0,-1.314233422279358,76,8491.0
3310,0.32182514667510986,-8.10872745513916,55,9999.0,2.6300477981567383,-75,8491.0
3320,0.3218842148780823,-1.8889732360839844,61,9999.0,0.001538995886221528,-98,8491.0
3330,0.3238348364830017,-3.728381633758545,-131,9999.0,2.0765748023986816,95,8491.0
3340,0.3239380121231079,-2.2878000736236572,-162,9999.0,1.9326545000076294,298,8491.0
3350,0.32405728101730347,-2.254805564880371,-58,9999.0,1.4939602613449097,142,8491.0
3360,0.3244306147098541,-9.244393348693848,-53,9999.0,5.799407482147217,-35,8491.0
3370,0.3229271173477173,-14.313800811767578,-329,9999.0,4.137279510498047,53,8491.0
3380,0.3231903612613678,-18.019866943359375,-277,9999.0,3.4447200298309326,42,8491.0
3390,0.3234221339225769,-16.500925064086914,-282,9999.0,0.25562435388565063,-63,8491.0
3400,0.3235207796096802,-13.956253051757812,-231,9999.0,-5.654051780700684,-52,8491.0
3410,0.32373982667922974,-11.329598426818848,-137,9999.0,-3.6275298595428467,-84,8491.0
3420,0.3224174678325653,-10.408222198486328,-180,9999.0,-4.331645965576172,-114,8491.0
3430,0.32249152660369873,-9.6056489944458,-258,9999.0,1.841849446296692,142,8491.0
3440,0.3226190507411957,-8.942094802856445,-144,9999.0,1.7080104351043701,91,8491.0
3450,0.322742760181427,-7.82783842086792,99,9999.0,2.995386838912964,-114,8491.0
3460,0.3220885097980499,-5.112318515777588,-46,9999.0,2.623812675476074,-172,8491.0
3470,0.3221801817417145,-0.1548299491405487,-108,9999.0,-3.4837217330932617,305,8491.0
3480,0.32224586606025696,4.757530212402344,155,9999.0,1.2704575061798096,26,8491.0
3490,0.3223087787628174,6.198225021362305,185,9999.0,1.964082956314087,5,8491.0
3500,0.32255080342292786,6.2871880531311035,32,9999.0,6.767558574676514,138,8491.0
3510,0.3225086033344269,6.504245758056641,107,9999.0,0.9869285225868225,39,8491.0
3520,0.32243096828460693,3.957069158554077,75,9999.0,2.9650352001190186,8,8491.0
3530,0.32233601808547974,-0.2190709263086319,-119,9999.0,2.650265693664551,108,8491.0
3540,0.32221701741218567,-4.586251735687256,-143,9999.0,-2.0528457164764404,35,8491.0
3550,0.3219788670539856,-7.842473983764648,16,9999.0,-1.3151341676712036,-169,8491.0
3560,0.32184550166130066,-7.922264099121094,-123,9999.0,-1.9354909658432007,-166,8491.0
3570,0.3216544985771179,-7.154019832611084,-112,9999.0,-3.924561023712158,139,8491.0
3580,0.32164686918258667,-7.614031791687012,-168,9999.0,-5.422124862670898,22,8491.0
3590,0.3220836818218231,0.18190394341945648,99,9999.0,1.1152740716934204,-160,8491.0
3600,0.3219451606273651,1.1532864570617676,-10,9999.0,3.1289610862731934,-10,8491.0
3610,0.32179221510887146,5.665532112121582,100,9999.0,0.8269201517105103,56,8491.0
3620,0.32160481810569763,6.306392669677734,107,9999.0,0.690251350402832,-64,8491.0
3630,0.32141584157943726,3.561448097229004,76,9999.0,-0.45237162709236145,-117,8491.0
3640,0.32023438811302185,3.670520305633545,-70,9999.0,-3.432854652404785,46,8491.0
3650,0.32004451751708984,3.0106637477874756,-70,9999.0,-6.553688049316406,59,8491.0
3660,0.3199002146720886,4.704044342041016,15,9999.0,4.868001461029053,-68,8491.0
3670,0.31976667046546936,7.725000858306885,145,9999.0,-12.203536987304688,-344,8491.0
3680,0.320139080286026,2.703594446182251,-47,9999.0,-4.6369171142578125,-2,8491.0
3690,0.3200334906578064,2.0350759029388428,55,9999.0,1.980665922164917,35,8491.0
3700,0.31994667649269104,0.7645552754402161,85,9999.0,7.148593902587891,7,8491.0
3710,0.31985563039779663,4.248945713043213,-43,9999.0,3.926147699356079,170,8491.0
3720,0.31984707713127136,4.061981678009033,9,9999.0,9.10265827178955,374,8491.0
3730,0.31978097558021545,6.958578586578369,130,9999.0,3.731411933898926,28,8491.0
3740,0.3197402060031891,2.9114341735839844,130,9999.0,3.1164755821228027,-226,8491.0
3750,0.31972238421440125,0.5481340289115906,-36,9999.0,-2.032876491546631,5,8491.0
3760,0.3197189271450043,2.5600640773773193,-100,9999.0,-3.097979784011841,108,8491.0
3770,0.3190418481826782,3.7910611629486084,106,9999.0,-9.24740219116211,-60,8491.0
3780,0.31904682517051697,8.091483116149902,131,9999.0,-6.0369062423706055,-98,8491.0
3790,0.31905850768089294,9.861303329467773,102,9999.0,-6.370153427124023,0,8491.0
3800,0.31909289956092834,9.72916316986084,217,9999.0,-5.287996768951416,-50,8491.0
3810,0.319509357213974,10.985259056091309,266,9999.0,-2.9107308387756348,-213,8491.0
3820,0.31968528032302856,10.13863754272461,137,9999.0,5.804704666137695,161,8491.0
3830,0.3199402987957001,8.877869606018066,-5,9999.0,3.3639426231384277,178,8491.0
3840,0.3201281428337097,4.79937744140625,78,9999.0,5.10759973526001,86,8491.0
3850,0.32036811113357544,3.9134933948516846,107,9999.0,5.153772830963135,-33,8491.0
3860,0.318819522857666,3.49825119972229,3,9999.0,4.420852184295654,181,8491.0
3870,0.31894442439079285,5.367231845855713,140,9999.0,5.131481647491455,166,8491.0
3880,0.3191111981868744,9.06524658203125,299,9999.0,-0.21698236465454102,-125,8491.0
3890,0.31918302178382874,12.841228485107422,278,9999.0,-3.351564645767212,-194,8491.0
3900,0.31881970167160034,9.18408203125,58,9999.0,-3.2102179527282715,64,8491.0
3910,0.3190428912639618,12.661654472351074,64,9999.0,-5.818492889404297,13,8491.0
3920,0.31918323040008545,10.002431869506836,240,9999.0,-3.7445008754730225,-178,8491.0
3930,0.3193201422691345,7.017232894897461,22,9999.0,-3.3283352851867676,21,8491.0
3940,0.3204120695590973,3.769473075866699,-20,9999.0,-0.18946103751659393,89,8491.0
3950,0.32068851590156555,1.0450425148010254,138,9999.0,6.855865478515625,-26,8491.0
3960,0.32094550132751465,3.0790998935699463,117,9999.0,5.40532922744751,-67,8491.0
3970,0.32103994488716125,3.6043481826782227,-32,9999.0,6.267158031463623,240,8491.0
3980,0.32115107774734497,11.363224029541016,70,9999.0,2.144839286804199,181,8491.0
3990,0.32205161452293396,7.149888038635254,201,9999.0,6.341287612915039,9,8491.0
4000,0.32214048504829407,9.536874771118164,130,9999.0,-0.1493501365184784,-125,8491.0
4010,0.32233744859695435,8.966218948364258,178,9999.0,-4.058088779449463,28,8491.0
4020,0.3225135803222656,9.05605411529541,213,9999.0,-4.034902095794678,-163,8491.0
4030,0.32358264923095703,7.729183673858643,59,9999.0,-3.429856300354004,-32,8491.0
4040,0.3238034248352051,3.143676996231079,-64,9999.0,-2.321479558944702,148,8491.0
4050,0.3240017890930176,-0.4213428199291229,62,9999.0,-5.417675018310547,-26,8491.0
4060,0.3242188096046448,-5.803579330444336,-2,9999.0,0.5306957364082336,-58,8491.0
4070,0.32447144389152527,-5.728143215179443,-137,9999.0,1.5918290615081787,100,8491.0
4080,0.325685054063797,-5.3512654304504395,-57,9999.0,3.1075141429901123,112,8491.0
4090,0.32596275210380554,-1.6089184284210205,21,9999.0,1.9180235862731934,-100,8491.0
4100,0.3262173533439636,-2.1413414478302,-19,9999.0,-3.4460411071777344,-105,8491.0
4110,0.3265300989151001,2.5373458862304688,-51,9999.0,-2.3178908824920654,124,8491.0
4120,0.32662642002105713,3.424424409866333,95,9999.0,-3.0359668731689453,-14,8491.0
4130,0.32693493366241455,-1.1798853874206543,103,9999.0,1.4778498411178589,-130,8491.0
4140,0.3271162509918213,0.6674017310142517,21,9999.0,2.575420379638672,46,8491.0
4150,0.3273872137069702,1.1341172456741333,-49,9999.0,3.066274642944336,155,8491.0
4160,0.32771047949790955,4.272528648376465,112,9999.0,2.4088008403778076,33,8491.0
4170,0.3280097544193268,7.246337890625,191,9999.0,-0.9473130702972412,-100,8491.0
4180,0.32820406556129456,4.802656650543213,53,9999.0,-1.7972536087036133,5,8491.0
4190,0.32840707898139954,8.110030174255371,76,9999.0,-5.106952667236328,1,8491.0
4200,0.3286558985710144,6.589457988739014,175,9999.0,-3.156667709350586,-164,8491.0
4210,0.32786715030670166,4.072209358215332,143,9999.0,-0.3368103802204132,-263,8491.0
4220,0.3280837833881378,5.692039489746094,-59,9999.0,-7.4545135498046875,-17,8491.0
4230,0.328274667263031,1.4135491847991943,-34,9999.0,-3.7422046661376953,8,8491.0
4240,0.32848092913627625,-3.3708417415618896,-2,9999.0,-0.12977613508701324,-37,8491.0
4250,0.3288319408893585,-3.584618091583252,-122,9999.0,3.373441457748413,140,8491.0
4260,0.3290080428123474,-1.6064702272415161,-104,9999.0,3.3834142684936523,173,8491.0
4270,0.32917553186416626,-2.94203782081604,108,9999.0,4.892752170562744,-59,8491.0
4280,0.3293168246746063,-4.384469032287598,-14,9999.0,4.10331392288208,-77,8491.0
4290,0.32807469367980957,-6.335864067077637,-210,9999.0,5.871763706207275,227,8491.0
4300,0.3280792832374573,-6.560383319854736,-66,9999.0,2.9403631687164307,44,8491.0
4310,0.32804977893829346,-3.7813096046447754,11,9999.0,-0.4167599081993103,-87,8491.0
4320,0.3279999792575836,-0.8062620162963867,-43,9999.0,-2.8289120197296143,47,8491.0
4330,0.3279173970222473,-1.6767535209655762,24,9999.0,-3.698681354522705,-73,8491.0
4340,0.3282458782196045,0.4743794798851013,84,9999.0,-7.066605567932129,-188,8491.0
4350,0.3281629681587219,0.38579297065734863,3,9999.0,-1.4974197149276733,67,8491.0
4360,0.32806888222694397,0.584238588809967,-45,9999.0,-4.021172046661377,160,8491.0
4370,0.32799234986305237,0.16489475965499878,-27,9999.0,1.0647352933883667,20,8491.0
4380,0.32833945751190186,-2.0815157890319824,-71,9999.0,1.3128379583358765,128,8491.0
4390,0.3283192217350006,-4.005716800689697,-108,9999.0,6.603634357452393,182,8491.0
4400,0.32831817865371704,-2.706047296524048,-14,9999.0,8.264443397521973,35,8491.0
4410,0.32831865549087524,-2.6357970237731934,9,9999.0,7.511980056762695,56,8491.0
4420,0.3283282220363617,-3.4998230934143066,-221,9999.0,2.805312395095825,206,8491.0
4430,0.3277909755706787,-6.780477523803711,-101,9999.0,2.4429380893707275,43,8491.0
4440,0.32781320810317993,-2.4420292377471924,163,9999.0,-0.5396283864974976,-201,8491.0
4450,0.3278515040874481,-0.15468208491802216,-85,9999.0,-6.8921003341674805,17,8491.0
4460,0.32787778973579407,-2.7810423374176025,-37,9999.0,4.103449821472168,159,8491.0
4470,0.3279503583908081,-0.878603994846344,95,9999.0,1.9917610883712769,-67,8491.0
4480,0.3280346095561981,3.0398833751678467,-10,9999.0,0.028537359088659286,59,8491.0
4490,0.3281377851963043,3.317399501800537,-24,9999.0,0.6954431533813477,159,8491.0
4500,0.3282450735569,3.4913642406463623,162,9999.0,0.47157448530197144,-67,8491.0
4510,0.32836630940437317,1.1533780097961426,87,9999.0,0.5745698809623718,-153,8491.0
4520,0.3283415138721466,-0.08856828510761261,-71,9999.0,-3.9477596282958984,116,8491.0
4530,0.32844078540802,-1.935605764389038,26,9999.0,0.8849989175796509,40,8491.0
4540,0.32862934470176697,-4.434946537017822,11,9999.0,-2.6631224155426025,-47,8491.0
4550,0.3287869989871979,-3.891042947769165,-139,9999.0,-0.7678437829017639,129,8491.0
4560,0.3302055895328522,-3.65987491607666,9,9999.0,1.246999740600586,36,8491.0
4570,0.3304644823074341,-3.4410104751586914,82,9999.0,0.5728600025177002,-180,8491.0
4580,0.3307025730609894,-3.732698440551758,-145,9999.0,6.960248947143555,146,8491.0
4590,0.33096563816070557,-3.6696410179138184,34,9999.0,1.6762408018112183,277,8491.0
4600,0.33152464032173157,-3.0744214057922363,-69,9999.0,-0.13585302233695984,-67,8491.0
4610,0.33179113268852234,-4.793011665344238,-153,9999.0,-0.9308540225028992,45,8491.0
4620,0.33204540610313416,-4.474644660949707,-26,9999.0,-4.015858173370361,-118,8491.0
4630,0.33229541778564453,-2.1312146186828613,-25,9999.0,-5.977728366851807,-124,8491.0
4640,0.33251461386680603,-1.9704217910766602,-149,9999.0,-6.702051639556885,16,8491.0
4650,0.332116037607193,-3.4487838745117188,-64,9999.0,-10.338886260986328,-16,8491.0
4660,0.33227524161338806,7.103275299072266,313,9999.0,-13.707314491271973,-412,8491.0
4670,0.3325154781341553,-0.8166711330413818,-31,9999.0,1.0023614168167114,-45,8491.0
4680,0.33268576860427856,2.763521909713745,31,9999.0,8.109760284423828,92,8491.0
4690,0.3321002721786499,2.520958185195923,137,9999.0,10.138263702392578,53,8491.0
4700,0.3322088420391083,4.727432727813721,-36,9999.0,9.15567398071289,243,8491.0
4710,0.33233046531677246,2.6573379039764404,-17,9999.0,5.936071395874023,279,8491.0
4720,0.33247900009155273,2.0832300186157227,146,9999.0,3.065772294998169,-60,8491.0
4730,0.3325817286968231,-1.4430071115493774,-19,9999.0,4.816280364990234,32,8491.0
4740,0.33202964067459106,-1.2245365381240845,-101,9999.0,0.5506242513656616,69,8491.0
4750,0.33209118247032166,-2.849693775177002,-32,9999.0,-1.945562481880188,-141,8491.0
4760,0.3321703374385834,-4.396817207336426,-64,9999.0,0.7466975450515747,-94,8491.0
4770,0.33222293853759766,-1.242751121520996,-161,9999.0,-1.8510210514068604,235,8491.0
4780,0.3321779668331146,2.334871292114258,97,9999.0,-0.8463752865791321,-2,8491.0
4790,0.33217474818229675,-2.199554204940796,62,9999.0,-4.1107330322265625,-232,8491.0
4800,0.3321296274662018,-2.126516580581665,-72,9999.0,-2.6696105003356934,41,8491.0
4810,0.3320682644844055,-2.721893787384033,3,9999.0,0.3505353331565857,-36,8491.0
4820,0.33242642879486084,-1.3134249448776245,69,9999.0,0.777662456035614,-67,8491.0
4830,0.3323466181755066,2.4194798469543457,7,9999.0,-0.5436193346977234,62,8491.0
4840,0.332270085811615,0.9948137998580933,-101,9999.0,1.756176471710205,179,8491.0
4850,0.33219099044799805,4.164175033569336,111,9999.0,5.963931083679199,-14,8491.0
4860,0.3321002423763275,-0.7013668417930603,-20,9999.0,4.68950891494751,88,8491.0
4870,0.3319820463657379,-0.4414261281490326,-93,9999.0,1.8653391599655151,185,8491.0
4880,0.3319111764431,-0.25370854139328003,69,9999.0,1.9551386833190918,49,8491.0
4890,0.33183085918426514,-1.1059134006500244,150,9999.0,-1.236310601234436,-333,8491.0
4900,0.33170732855796814,-1.151914119720459,-135,9999.0,2.338721752166748,13,8491.0
4910,0.33175429701805115,-2.813758373260498,-92,9999.0,-4.800897598266602,43,8491.0
4920,0.3316163718700409,-3.1423566341400146,10,9999.0,-3.1967198848724365,-130,8491.0
4930,0.3314412534236908,-2.5133466720581055,-90,9999.0,-2.0529446601867676,-37,8491.0
4940,0.33124005794525146,-1.3627980947494507,-172,9999.0,-4.693643093109131,112,8491.0
4950,0.3314141631126404,1.1782832145690918,23,9999.0,-3.0064148902893066,-38,8491.0
4960,0.3312300443649292,1.1214938163757324,122,9999.0,-3.3768513202667236,-271,8491.0
4970,0.33108654618263245,-2.2030177116394043,-101,9999.0,-2.824615001678467,89,8491.0
4980,0.33096933364868164,0.6047677397727966,11,9999.0,-1.265659213066101,97,8491.0
4990,0.33088377118110657,2.5974576473236084,112,9999.0,-2.6201436519622803,-110,8491.0
5000,0.33204519748687744,0.27995505928993225,40,9999.0,-6.142570495605469,-172,8491.0
5010,0.3320452868938446,0.30010026693344116,-57,9999.0,-3.8495280742645264,52,8491.0
5020,0.33208298683166504,2.187279462814331,-20,9999.0,0.29251477122306824,108,8491.0
5030,0.3321551978588104,1.796887755393982,103,9999.0,4.596797943115234,-39,8491.0
5040,0.33135101199150085,2.5163791179656982,-16,9999.0,-0.9284366369247437,82,8491.0
5050,0.3314187526702881,2.4816761016845703,-20,9999.0,6.232297897338867,281,8491.0
5060,0.33150380849838257,-0.5703808665275574,76,9999.0,6.799630641937256,183,8491.0
5070,0.3316272497177124,0.1817859262228012,107,9999.0,-1.7790453433990479,-97,8491.0
5080,0.3317696750164032,0.8643103241920471,-27,9999.0,-3.550980806350708,70,8491.0
5090,0.33118507266044617,-1.6346724033355713,30,9999.0,-2.9172170162200928,-66,8491.0
5100,0.33131054043769836,-4.0468034744262695,-2,9999.0,-5.68776798248291,-201,8491.0
5110,0.3314345180988312,-2.835792064666748,-239,9999.0,-4.66670560836792,99,8491.0
5120,0.3315626382827759,1.6769438982009888,-39,9999.0,-6.447767734527588,34,8491.0
5130,0.3314887285232544,-0.7550188899040222,57,9999.0,-6.3587188720703125,-119,8491.0
5140,0.33161836862564087,1.3590989112854004,4,9999.0,-4.108677387237549,-9,8491.0
5150,0.3317612111568451,1.8180290460586548,-25,9999.0,2.67813777923584,205,8491.0
5160,0.3319348990917206,1.7356301546096802,146,9999.0,4.5277886390686035,-7,8491.0
5170,0.33213427662849426,1.035400390625,-11,9999.0,-0.6872642636299133,-22,8491.0
5180,0.3331218361854553,1.1522910594940186,-172,9999.0,4.185553550720215,279,8491.0
5190,0.33339235186576843,-3.7149100303649902,39,9999.0,5.516859531402588,54,8491.0
5200,0.33365121483802795,-1.613468050956726,-19,9999.0,4.0642242431640625,-5,8491.0
5210,0.33397287130355835,-1.1183491945266724,-99,9999.0,-0.6588085293769836,118,8491.0
5220,0.3334690034389496,0.22118404507637024,156,9999.0,-3.148488759994507,24,8491.0
5230,0.333690345287323,2.626229763031006,14,9999.0,-6.225011825561523,-407,8491.0
5240,0.3338688910007477,5.004594802856445,-118,9999.0,-4.887409687042236,-188,8491.0
5250,0.3340267539024353,-0.1415739357471466,38,9999.0,-4.952886581420898,58,8491.0
5260,0.33453798294067383,1.7386374473571777,-45,9999.0,-5.417503833770752,-34,8491.0
5270,0.33463242650032043,0.2632869482040405,-69,9999.0,-4.159730911254883,82,8491.0
5280,0.33471500873565674,-0.5070536136627197,112,9999.0,-0.9135540723800659,-135,8491.0
5290,0.3347804844379425,-6.017627716064453,-49,9999.0,5.1523847579956055,24,8491.0
5300,0.3347971737384796,1.6823886632919312,-40,9999.0,4.299143314361572,115,8491.0
5310,0.33611971139907837,2.7421276569366455,71,9999.0,5.277578353881836,53,8491.0
5320,0.33617398142814636,5.818411350250244,58,9999.0,6.53572940826416,77,8491.0
5330,0.3361988961696625,6.333645343780518,-21,9999.0,3.056520700454712,204,8491.0
5340,0.33623531460762024,4.50001335144043,71,9999.0,3.9628355503082275,-57,8491.0
5350,0.3358224928379059,3.4099197387695312,133,9999.0,2.650381088256836,-208,8491.0
5360,0.33583295345306396,1.9279180765151978,-62,9999.0,0.42776426672935486,-12,8491.0
5370,0.33581751585006714,-0.10065045207738876,10,9999.0,-0.7963330149650574,-83,8491.0
5380,0.33579638600349426,0.4019591808319092,99,9999.0,-1.7417833805084229,-165,8491.0
5390,0.33664458990097046,0.5583615303039551,-101,9999.0,-4.810353755950928,33,8491.0
5400,0.33664795756340027,2.5343453884124756,-11,9999.0,-6.706281661987305,-52,8491.0
5410,0.33664408326148987,-0.6204129457473755,90,9999.0,0.872556209564209,-172,8491.0
5420,0.3365974724292755,-5.030023097991943,-111,9999.0,5.535243988037109,79,8491.0
5430,0.3365277349948883,-2.711636543273926,-55,9999.0,5.475849628448486,113,8491.0
5440,0.33629894256591797,-1.9405453205108643,90,9999.0,2.4107933044433594,-206,8491.0
5450,0.3362908959388733,-0.42156437039375305,-48,9999.0,5.98560905456543,97,8491.0
5460,0.3362864553928375,6.710515975952148,-49,9999.0,2.5685644149780273,180,8491.0
5470,0.33630335330963135,3.657766342163086,106,9999.0,3.2525808811187744,28,8491.0
5480,0.3365831971168518,3.556342124938965,34,9999.0,7.884371757507324,116,8491.0
5490,0.33654817938804626,4.671787261962891,13,9999.0,2.7656946182250977,178,8491.0
5500,0.3365711271762848,2.159763813018799,141,9999.0,6.507063865661621,-23,8491.0
5510,0.33655714988708496,1.843136191368103,47,9999.0,4.156468868255615,-64,8491.0
5520,0.3359096944332123,0.9048734307289124,-82,9999.0,4.88456392288208,177,8491.0
5530,0.33584725856781006,0.06370662897825241,72,9999.0,7.860212802886963,29,8491.0
5540,0.335849791765213,2.909210205078125,23,9999.0,7.289268970489502,25,8491.0
5550,0.33581775426864624,2.3993337154388428,-217,9999.0,7.04266357421875,336,8491.0
5560,0.3358127474784851,1.5417617559432983,25,9999.0,0.5500796437263489,31,8491.0
5570,0.33513176441192627,2.5615360736846924,98,9999.0,0.2681809067726135,-36,8491.0
5580,0.33517494797706604,0.32993483543395996,-51,9999.0,1.3482425212860107,115,8491.0
5590,0.33523935079574585,0.6820604801177979,50,9999.0,2.0735676288604736,-38,8491.0
5600,0.33533209562301636,1.1379029750823975,22,9999.0,3.2443621158599854,-123,8491.0
5610,0.3357085585594177,4.154504299163818,-86,9999.0,-0.24899686872959137,56,8491.0
5620,0.3358151316642761,-1.2482925653457642,7,9999.0,1.1152968406677246,16,8491.0
5630,0.3359355330467224,-2.8572702407836914,-55,9999.0,3.6337597370147705,-19,8491.0
5640,0.33604809641838074,-2.1380064487457275,-148,9999.0,0.6435247659683228,202,8491.0
5650,0.33570078015327454,0.5520005822181702,91,9999.0,-1.5317918062210083,-63,8491.0
5660,0.3358004689216614,-4.138411521911621,-31,9999.0,3.165726661682129,29,8491.0
5670,0.3359566628932953,-3.5354979038238525,-103,9999.0,5.956864356994629,132,8491.0
5680,0.33613327145576477,-3.051074981689453,57,9999.0,4.224393367767334,-7,8491.0
5690,0.3363206088542938,0.579528272151947,-14,9999.0,2.960599184036255,-4,8491.0
5700,0.3372046947479248,-1.0007096529006958,-81,9999.0,0.24379733204841614,126,8491.0
5710,0.3374464213848114,-2.988370656967163,26,9999.0,-2.685805082321167,-9,8491.0
5720,0.33765900135040283,-1.1646883487701416,-62,9999.0,3.048588514328003,90,8491.0
5730,0.33790895342826843,-3.244112014770508,-121,9999.0,4.273653030395508,186,8491.0
5740,0.33944573998451233,-3.2649013996124268,144,9999.0,7.992124080657959,-85,8491.0
5750,0.3397820293903351,-0.10027578473091125,-89,9999.0,6.411045551300049,148,8491.0
5760,0.3400963544845581,-1.0221080780029297,-78,9999.0,3.8121097087860107,74,8491.0
5770,0.34040090441703796,-2.6619949340820312,-9,9999.0,2.34051775932312,34,8491.0
5780,0.3407018482685089,-1.2559573650360107,-89,9999.0,-3.6775739192962646,151,8491.0
5790,0.34074512124061584,-1.270149827003479,-6,9999.0,0.7679510116577148,-30,8491.0
5800,0.3410688042640686,-0.1543388068675995,62,9999.0,-4.738513946533203,-90,8491.0
5810,0.3414476811885834,-1.105851650238037,-75,9999.0,-3.5536561012268066,4,8491.0
5820,0.34184369444847107,-0.916128933429718,57,9999.0,-2.6661014556884766,-112,8491.0
5830,0.343514084815979,1.207229495048523,-88,9999.0,-4.162219047546387,86,8491.0
5840,0.3439914286136627,0.09126265347003937,160,9999.0,-1.3532451391220093,60,8491.0
5850,0.3444759249687195,2.1743886470794678,-74,9999.0,0.8607689142227173,-23,8491.0
5860,0.34496229887008667,-0.3629000186920166,7,9999.0,0.09341759979724884,124,8491.0
5870,0.3448234498500824,0.8636605739593506,-58,9999.0,-0.030474869534373283,14,8491.0
5880,0.3451707065105438,-0.30432718992233276,-59,9999.0,1.2415971755981445,126,8491.0
5890,0.34550291299819946,0.3723655939102173,90,9999.0,-4.485180854797363,-69,8491.0
5900,0.3458111882209778,-0.44825586676597595,-52,9999.0,-2.9869656562805176,-64,8491.0
5910,0.3460719883441925,-0.28873977065086365,9,9999.0,-3.0478663444519043,-95,8491.0
5920,0.3450469970703125,-2.368619918823242,-104,9999.0,-2.370465040206909,-145,8491.0
5930,0.3451628088951111,-2.8318257331848145,-88,9999.0,-6.219815731048584,46,8491.0
5940,0.3452734649181366,-1.052196741104126,65,9999.0,0.0029932591132819653,-117,8491.0
5950,0.34536200761795044,-3.1430611610412598,-39,9999.0,-1.981672763824463,1,8491.0
5960,0.3448556959629059,1.2054603099822998,101,9999.0,-2.969331979751587,-173,8491.0
5970,0.34482795000076294,2.584702253341675,-30,9999.0,-3.0582480430603027,5,8491.0
5980,0.3448256254196167,5.2687296867370605,31,9999.0,-5.849828720092773,-37,8491.0
5990,0.34483176469802856,0.263698011636734,89,9999.0,-6.69904899597168,-263,8491.0
6000,0.3448132276535034,3.005169630050659,1,9999.0,-3.9886314868927,-46,8491.0
6010,0.34313035011291504,2.3511314392089844,109,9999.0,-2.365792751312256,-170,8491.0
6020,0.3429872393608093,1.268211007118225,-109,9999.0,-1.9185124635696411,-2,8491.0
6030,0.34285762906074524,-0.5756904482841492,-59,9999.0,-3.4431467056274414,-80,8491.0
6040,0.3426746726036072,1.2876113653182983,23,9999.0,-5.971042156219482,-152,8491.0
6050,0.3414134085178375,0.16534286737442017,-51,9999.0,-3.8994956016540527,29,8491.0
6060,0.3411906659603119,1.181253433227539,-33,9999.0,-2.082763910293579,-34,8491.0
6070,0.34094855189323425,0.39738428592681885,77,9999.0,-3.0341012477874756,-182,8491.0
6080,0.3406446874141693,-0.5395990610122681,-52,9999.0,-5.914336204528809,-40,8491.0
6090,0.3404647707939148,-1.3342424631118774,51,9999.0,-4.610943794250488,-120,8491.0
6100,0.3401497006416321,-2.529146909713745,-35,9999.0,0.43365103006362915,124,8491.0
6110,0.33981311321258545,-1.8839422464370728,-134,9999.0,-2.8515844345092773,82,8491.0
6120,0.33944404125213623,-3.4129717350006104,21,9999.0,2.2328295707702637,-46,8491.0
6130,0.33907684683799744,-3.113698959350586,-89,9999.0,-1.6661367416381836,69,8491.0
6140,0.33868443965911865,-3.228630304336548,-56,9999.0,-0.19406501948833466,105,8491.0
6150,0.33838769793510437,-3.3179996013641357,56,9999.0,2.492452621459961,-162,8491.0
6160,0.3381098806858063,-2.5080578327178955,-67,9999.0,-3.861877679824829,-46,8491.0
6170,0.3378429710865021,-3.010249614715576,-37,9999.0,-4.114810466766357,-34,8491.0
6180,0.33805596828460693,-2.419698715209961,63,9999.0,-5.5659403800964355,-228,8491.0
6190,0.3378152549266815,-2.6729397773742676,-19,9999.0,-6.3444600105285645,-163,8491.0
6200,0.3376712501049042,-4.559234619140625,-164,9999.0,-4.885024070739746,79,8491.0
6210,0.33753538131713867,-4.628432750701904,-3,9999.0,-2.1917612552642822,-137,8491.0
6220,0.3374353349208832,-5.959492206573486,-168,9999.0,0.9122222661972046,53,8491.0
6230,0.33720144629478455,-5.002064228057861,-163,9999.0,4.171662330627441,226,8491.0
6240,0.3371579051017761,-5.314416885375977,28,9999.0,-2.5146396160125732,-42,8491.0
6250,0.33708131313323975,-6.27271842956543,-105,9999.0,4.579543113708496,67,8491.0
6260,0.33699172735214233,-4.9236226081848145,-111,9999.0,3.8673741817474365,143,8491.0
6270,0.3376806080341339,-4.405411720275879,13,9999.0,1.7264916896820068,-27,8491.0
6280,0.3376196026802063,-2.610677719116211,1,9999.0,3.4335803985595703,-89,8491.0
6290,0.33760949969291687,-2.9421327114105225,-135,9999.0,-1.108674168586731,120,8491.0
6300,0.3375968933105469,-2.814382791519165,14,9999.0,-3.0734429359436035,-54,8491.0
6310,0.33974626660346985,-0.9257367849349976,30,9999.0,-4.698951721191406,-144,8491.0
6320,0.3398173749446869,1.4232310056686401,-55,9999.0,-3.711456775665283,56,8491.0
6330,0.3398928940296173,2.440484046936035,80,9999.0,-5.632675647735596,-38,8491.0
6340,0.339944064617157,3.7393434047698975,203,9999.0,-6.212247848510742,-407,8491.0
6350,0.33998578786849976,3.5696868896484375,-61,9999.0,2.696585178375244,100,8491.0
6360,0.341327041387558,1.6287699937820435,61,9999.0,4.259896278381348,85,8491.0
6370,0.34150978922843933,3.6280081272125244,113,9999.0,7.938106060028076,55,8491.0
6380,0.34173300862312317,2.7727699279785156,-138,9999.0,6.334977626800537,227,8491.0
6390,0.34197884798049927,-1.2434253692626953,51,9999.0,9.32505989074707,32,8491.0
6400,0.34469616413116455,2.504580020904541,111,9999.0,2.1939964294433594,-52,8491.0
6410,0.34507784247398376,1.547273874282837,-35,9999.0,0.40293797850608826,121,8491.0
6420,0.3454562723636627,-0.9243931174278259,43,9999.0,0.31941938400268555,-25,8491.0
6430,0.3458213806152344,0.9038291573524475,33,9999.0,-5.631348609924316,-162,8491.0
6440,0.3461569845676422,3.231661081314087,-120,9999.0,-4.620400428771973,103,8491.0
6450,0.34682250022888184,3.512937545776367,123,9999.0,-3.5163352489471436,-81,8491.0
6460,0.3471704125404358,0.18658286333084106,-38,9999.0,-7.0754899978637695,-66,8491.0
6470,0.34748655557632446,3.4125664234161377,97,9999.0,-4.871140956878662,-101,8491.0
6480,0.34776851534843445,5.037650108337402,-26,9999.0,-0.25049129128456116,93,8491.0
6490,0.3473115861415863,6.438599109649658,190,9999.0,-0.39974460005760193,-36,8491.0
6500,0.347530335187912,4.82670259475708,180,9999.0,6.168483257293701,63,8491.0
6510,0.34774142503738403,5.856108665466309,67,9999.0,5.638524055480957,108,8491.0
6520,0.34795013070106506,6.726606845855713,201,9999.0,2.6223034858703613,-150,8491.0
6530,0.3480515480041504,8.45394515991211,56,9999.0,1.0864477157592773,22,8491.0
6540,0.3476419746875763,9.090289115905762,113,9999.0,-4.6753458976745605,-55,8491.0
6550,0.34764909744262695,-1.0219855308532715,48,9999.0,-5.731997489929199,-185,8491.0
6560,0.34760013222694397,6.438120365142822,74,9999.0,-1.4425586462020874,-133,8491.0
6570,0.3475164771080017,4.280622482299805,144,9999.0,-5.1231303215026855,-295,8491.0
6580,0.3475918471813202,4.690328121185303,34,9999.0,-8.345759391784668,-133,8491.0
6590,0.3474660813808441,4.475437641143799,73,9999.0,-6.904592990875244,-62,8491.0
6600,0.34729060530662537,2.4151463508605957,59,9999.0,-5.501704692840576,-74,8491.0
6610,0.347123920917511,3.5332274436950684,-86,9999.0,-1.8574358224868774,221,8491.0
6620,0.34762418270111084,-4.927606582641602,127,9999.0,6.8421950340271,-1,8491.0
6630,0.3473576605319977,3.0906269550323486,-10,9999.0,5.837554931640625,250,8491.0
6640,0.34713101387023926,3.3277511596679688,123,9999.0,9.864067077636719,158,8491.0
6650,0.34689560532569885,7.582534313201904,144,9999.0,12.52511978149414,227,8491.0
6660,0.34670647978782654,3.8474082946777344,-55,9999.0,14.009462356567383,370,8491.0
6670,0.34781575202941895,-2.643427610397339,30,9999.0,8.184225082397461,75,8491.0
6680,0.3476526439189911,-2.30124568939209,-89,9999.0,0.5452150702476501,136,8491.0
6690,0.347454696893692,-6.041551113128662,-67,9999.0,-3.1578352451324463,108,8491.0
6700,0.3472103476524353,-3.3160414695739746,4,9999.0,-2.4985158443450928,-67,8491.0
6710,0.34560540318489075,-1.7442067861557007,-80,9999.0,-2.541722536087036,37,8491.0
6720,0.34494179487228394,-0.8477033972740173,74,9999.0,0.3483981788158417,-89,8491.0
6730,0.34494540095329285,1.0083210468292236,66,9999.0,-0.6598960757255554,-79,8491.0
6740,0.3442527651786804,1.721253752708435,-6,9999.0,2.7055468559265137,113,8491.0
6750,0.3441588282585144,0.8969239592552185,148,9999.0,1.8673605918884277,-145,8491.0
6760,0.34379473328590393,-0.6164926886558533,-102,9999.0,7.657179832458496,166,8491.0
6770,0.3434402644634247,2.444493055343628,5,9999.0,-2.2966644763946533,58,8491.0
6780,0.34306976199150085,1.179962396621704,42,9999.0,1.3909028768539429,-27,8491.0
6790,0.34269335865974426,-0.776267409324646,-133,9999.0,-3.4780337810516357,122,8491.0
6800,0.34100908041000366,0.1367977261543274,83,9999.0,3.422180414199829,-56,8491.0
6810,0.34056219458580017,-2.958573341369629,-42,9999.0,1.050824522972107,-22,8491.0
6820,0.34015411138534546,-1.8508307933807373,-107,9999.0,2.3465752601623535,146,8491.0
6830,0.3395216763019562,-6.137567043304443,-113,9999.0,4.848489761352539,-18,8491.0
6840,0.3404560089111328,-5.182267665863037,-178,9999.0,-0.43228474259376526,32,8491.0
6850,0.3399825692176819,-8.7642183303833,-193,9999.0,6.166625499725342,186,8491.0
6860,0.3400067090988159,-9.50987720489502,-33,9999.0,5.217895984649658,-117,8491.0
6870,0.3397146761417389,-11.448482513427734,-221,9999.0,3.817709445953369,68,8491.0
6880,0.3394632935523987,-10.3197603225708,-272,9999.0,0.5171560049057007,147,8491.0
6890,0.3392607271671295,-9.49290943145752,-79,9999.0,-1.7416014671325684,-95,8491.0
6900,0.3392656445503235,-6.6128339767456055,-126,9999.0,-4.489410400390625,-67,8491.0
6910,0.33925744891166687,-3.7351884841918945,-180,9999.0,-6.581375598907471,122,8491.0
6920,0.3392148017883301,-0.012570412829518318,76,9999.0,-4.350769996643066,-63,8491.0
6930,0.33967921137809753,-0.36962077021598816,-24,9999.0,-0.6734668016433716,65,8491.0
6940,0.3396241068840027,2.1471357345581055,30,9999.0,2.884505033493042,117,8491.0
6950,0.33968618512153625,-1.0574110746383667,81,9999.0,9.448612213134766,6,8491.0
6960,0.3396961987018585,-2.901357889175415,-104,9999.0,3.7206332683563232,78,8491.0
6970,0.3418358266353607,-4.422489166259766,-98,9999.0,1.545419692993164,15,8491.0
6980,0.34211021661758423,-5.618433952331543,12,9999.0,-6.803755760192871,-186,8491.0
6990,0.34232863783836365,-7.828290939331055,-248,9999.0,-2.10271954536438,-13,8491.0
7000,0.3427257835865021,-11.931403160095215,-172,9999.0,0.3698858916759491,-15,8491.0
7010,0.34308093786239624,-9.261299133300781,-125,9999.0,-1.54547917842865,24,8491.0
7020,0.34325945377349854,-6.498236656188965,-208,9999.0,-4.325341701507568,125,8491.0
7030,0.343555748462677,-8.754876136779785,-84,9999.0,-2.135026454925537,-65,8491.0
7040,0.343835711479187,-4.851696491241455,-101,9999.0,0.6955479383468628,87,8491.0
7050,0.3441388010978699,-2.120816946029663,21,9999.0,5.01059627532959,95,8491.0
7060,0.34389203786849976,0.36032041907310486,-29,9999.0,-1.2459596395492554,-190,8491.0
7070,0.34414154291152954,0.5386219620704651,81,9999.0,10.25843334197998,-45,8491.0
7080,0.3443211615085602,3.478158473968506,102,9999.0,7.139262676239014,-35,8491.0
7090,0.34447553753852844,2.017589807510376,-140,9999.0,2.2301342487335205,10,8491.0
7100,0.34547537565231323,-0.37941065430641174,-18,9999.0,3.3940465450286865,174,8491.0
7110,0.3456367254257202,-1.9324396848678589,-49,9999.0,-0.19630448520183563,9,8491.0
7120,0.3457467257976532,-3.084136486053467,-57,9999.0,-4.93682861328125,-61,8491.0
7130,0.34582778811454773,-4.43410587310791,29,9999.0,-10.375621795654297,-399,8491.0
7140,0.34582847356796265,-6.343998908996582,-205,9999.0,-16.846464157104492,-144,8491.0
7150,0.34624943137168884,-3.6309754848480225,-51,9999.0,-7.160480976104736,-63,8491.0
7160,0.346169114112854,-0.3887943625450134,-36,9999.0,-5.302252292633057,-67,8491.0
7170,0.34614071249961853,0.6244773864746094,-84,9999.0,-0.6312691569328308,172,8491.0
7180,0.34603151679039,-4.981575012207031,55,9999.0,9.261255264282227,152,8491.0
7190,0.34628912806510925,2.4060282707214355,31,9999.0,3.8767316341400146,118,8491.0
7200,0.3461002707481384,1.7336976528167725,34,9999.0,7.029725074768066,155,8491.0
7210,0.3458603620529175,1.9711467027664185,168,9999.0,6.795042514801025,-33,8491.0
7220,0.3455960750579834,0.08115474134683609,-35,9999.0,8.089214324951172,204,8491.0
7230,0.34628427028656006,3.696829319000244,67,9999.0,0.6907181739807129,128,8491.0
7240,0.3460584282875061,2.6859703063964844,107,9999.0,-4.578777313232422,-135,8491.0
7250,0.34581053256988525,2.4111380577087402,-35,9999.0,-8.651362419128418,-11,8491.0
7260,0.3455634117126465,4.213570594787598,112,9999.0,-8.471015930175781,-20,8491.0
7270,0.3453283905982971,6.029632568359375,266,9999.0,-7.603813648223877,-340,8491.0
7280,0.34776151180267334,6.9245147705078125,44,9999.0,-6.1324381828308105,-53,8491.0
7290,0.34765055775642395,5.510204792022705,78,9999.0,-4.058425426483154,-31,8491.0
7300,0.34757199883461,5.798389434814453,264,9999.0,4.796599388122559,-86,8491.0
7310,0.3475005328655243,7.038157939910889,19,9999.0,5.246546745300293,140,8491.0
7320,0.3476406931877136,4.150243282318115,96,9999.0,7.538416385650635,47,8491.0
7330,0.34755954146385193,4.279308795928955,153,9999.0,10.546161651611328,-4,8491.0
7340,0.3474983274936676,5.609240531921387,-9,9999.0,4.317317008972168,110,8491.0
7350,0.3474551737308502,1.741350531578064,109,9999.0,2.3219923973083496,28,8491.0
7360,0.34739089012145996,2.4721519947052,69,9999.0,-0.9163975715637207,-98,8491.0
7370,0.34796974062919617,1.3660632371902466,-42,9999.0,-2.4771156311035156,6,8491.0
7380,0.3478938341140747,-1.0562950372695923,-60,9999.0,-0.6341432332992554,-61,8491.0
7390,0.3478076159954071,-3.27695894241333,15,9999.0,0.3004729747772217,-91,8491.0
7400,0.34768587350845337,-1.864364743232727,-76,9999.0,1.119333028793335,142,8491.0
7410,0.3481005132198334,-1.4780210256576538,6,9999.0,3.4308953285217285,36,8491.0
7420,0.34800148010253906,1.4597710371017456,128,9999.0,5.2082133293151855,-100,8491.0
7430,0.3479039669036865,1.7452484369277954,-14,9999.0,2.1997733116149902,97,8491.0
7440,0.34780746698379517,2.091966390609741,80,9999.0,3.398707151412964,-30,8491.0
7450,0.34935271739959717,0.9085676670074463,61,9999.0,1.762026309967041,-59,8491.0
7460,0.3494034707546234,-0.4337034225463867,-110,9999.0,-2.7576944828033447,84,8491.0
7470,0.3494133949279785,-2.282651662826538,52,9999.0,-0.6225599050521851,-58,8491.0
7480,0.34941747784614563,2.462589979171753,38,9999.0,-5.375124931335449,-118,8491.0
7490,0.3494572341442108,3.1566085815429688,-57,9999.0,-4.171018600463867,73,8491.0
7500,0.3485060930252075,0.2978866994380951,32,9999.0,1.5957682132720947,-7,8491.0
7510,0.3484781086444855,3.2252306938171387,91,9999.0,-1.2461789846420288,-85,8491.0
7520,0.34843915700912476,4.177119731903076,-48,9999.0,-0.7264049649238586,96,8491.0
7530,0.34839171171188354,2.2767579555511475,65,9999.0,-0.1554492861032486,32,8491.0
7540,0.348571240901947,0.6950264573097229,66,9999.0,-0.3182902932167053,-169,8491.0
7550,0.34848707914352417,2.7970712184906006,-50,9999.0,-1.7923119068145752,13,8491.0
7560,0.3484506607055664,2.7296228408813477,91,9999.0,1.3267391920089722,-17,8491.0
7570,0.3483522832393646,3.7164835929870605,113,9999.0,0.9001783728599548,-87,8491.0
7580,0.34820711612701416,4.045575141906738,-43,9999.0,-0.9406129717826843,57,8491.0
7590,0.3485424220561981,4.239568710327148,80,9999.0,-3.745396375656128,-23,8491.0
7600,0.34849420189857483,6.281206130981445,164,9999.0,0.0947236642241478,-55,8491.0
7610,0.3484930694103241,7.07016134262085,50,9999.0,6.296313762664795,147,8491.0
7620,0.34850791096687317,7.629150867462158,158,9999.0,4.350780010223389,3,8491.0
7630,0.3487253487110138,9.616044044494629,208,9999.0,-1.1351040601730347,-189,8491.0
7640,0.3487665057182312,3.4242212772369385,-27,9999.0,1.0011738538742065,100,8491.0
7650,0.3488255441188812,4.243083477020264,70,9999.0,3.4163801670074463,-85,8491.0
7660,0.34889736771583557,3.9766733646392822,-80,9999.0,-0.6393454074859619,-24,8491.0
7670,0.34785234928131104,2.8205249309539795,-44,9999.0,-0.6162618398666382,80,8491.0
7680,0.34790661931037903,0.8524489402770996,12,9999.0,-0.16071660816669464,6,8491.0
7690,0.34802448749542236,0.24900281429290771,-33,9999.0,-4.185214042663574,-51,8491.0
7700,0.3480931222438812,-3.4248201847076416,48,9999.0,-2.5041425228118896,-256,8491.0
7710,0.3481702506542206,-5.461963176727295,-129,9999.0,-1.0762460231781006,-21,8491.0
7720,0.34858694672584534,-2.920978546142578,-17,9999.0,-1.9684441089630127,-37,8491.0
7730,0.3487044870853424,-2.1431527137756348,-77,9999.0,2.6856064796447754,63,8491.0
7740,0.34881827235221863,-1.5388078689575195,-115,9999.0,1.5873346328735352,208,8491.0
7750,0.34890055656433105,-0.5777793526649475,127,9999.0,4.097579002380371,-46,8491.0
7760,0.3490111827850342,0.6970996260643005,-1,9999.0,4.57806921005249,85,8491.0
7770,0.34912681579589844,0.21102632582187653,130,9999.0,1.8161418437957764,-31,8491.0
7780,0.3492201864719391,0.30565813183784485,-5,9999.0,1.615216851234436,83,8491.0
7790,0.3492819368839264,2.7101590633392334,-12,9999.0,-10.377032279968262,101,8491.0
7800,0.34771957993507385,-1.0712846517562866,17,9999.0,-0.8661642074584961,5,8491.0
7810,0.34771937131881714,-2.3469293117523193,-127,9999.0,0.8041388392448425,111,8491.0
7820,0.34773489832878113,-4.431812763214111,58,9999.0,-2.822746992111206,-171,8491.0
7830,0.3477688133716583,-3.0591657161712646,-114,9999.0,-0.34780725836753845,78,8491.0
7840,0.34776389598846436,0.04818638786673546,48,9999.0,-2.9165704250335693,-106,8491.0
7850,0.34667959809303284,-0.11145954579114914,-29,9999.0,-0.9360224008560181,10,8491.0
7860,0.346653014421463,0.874875545501709,-1,9999.0,-1.11566162109375,10,8491.0
7870,0.34662556648254395,-0.15647649765014648,130,9999.0,0.3668310046195984,-120,8491.0
7880,0.3465654253959656,0.9824018478393555,42,9999.0,-1.318210482597351,-44,8491.0
7890,0.3466781675815582,-1.5753240585327148,99,9999.0,4.179913520812988,-150,8491.0
7900,0.34660932421684265,-3.0761635303497314,-180,9999.0,6.268529415130615,156,8491.0
7910,0.3465336263179779,-1.9304510354995728,-67,9999.0,-0.23526719212532043,19,8491.0
7920,0.3464772701263428,-1.1596742868423462,-70,9999.0,-3.362164258956909,-22,8491.0
7930,0.3463486135005951,-1.9587438106536865,-14,9999.0,-3.2950429916381836,-14,8491.0
7940,0.34564104676246643,-3.0490081310272217,97,9999.0,-0.7381445169448853,-250,8491.0
7950,0.34553462266921997,-7.36115026473999,-84,9999.0,1.5061490535736084,93,8491.0
7960,0.3455025255680084,0.889178454875946,83,9999.0,0.2143605500459671,-13,8491.0
7970,0.34559208154678345,6.363255500793457,38,9999.0,1.2187268733978271,123,8491.0
7980,0.34416595101356506,7.789032459259033,197,9999.0,3.3862290382385254,4,8491.0
7990,0.3441290259361267,8.043524742126465,157,9999.0,9.106724739074707,65,8491.0
8000,0.3440732955932617,8.107451438903809,98,9999.0,5.839354991912842,104,8491.0
8010,0.34403929114341736,7.042901992797852,108,9999.0,2.9077560901641846,3,8491.0
8020,0.34435826539993286,4.4851155281066895,-12,9999.0,-1.3404831886291504,116,8491.0
8030,0.34427887201309204,2.3561174869537354,153,9999.0,-2.257695436477661,-126,8491.0
8040,0.34423568844795227,2.1321280002593994,15,9999.0,-3.2555336952209473,-24,8491.0
8050,0.3442418873310089,0.9816327095031738,64,9999.0,-0.8220247030258179,-78,8491.0
8060,0.3442727327346802,1.4451261758804321,-40,9999.0,-0.41404545307159424,83,8491.0
8070,0.3450111746788025,-0.03965633735060692,43,9999.0,1.9270492792129517,-20,8491.0
8080,0.3450882136821747,-0.7917642593383789,-21,9999.0,2.7228381633758545,-52,8491.0
8090,0.3451859951019287,-3.696977376937866,-54,9999.0,2.6662118434906006,4,8491.0
8100,0.34533292055130005,-5.283395290374756,-11,9999.0,2.90838360786438,-65,8491.0
8110,0.34493550658226013,-5.533724308013916,-250,9999.0,0.4361163079738617,177,8491.0
8120,0.3451114594936371,-1.2765114307403564,71,9999.0,-1.4602056741714478,-76,8491.0
8130,0.34528791904449463,-1.0141816139221191,-40,9999.0,2.905970335006714,121,8491.0
8140,0.3454567790031433,-0.6703516244888306,131,9999.0,3.300809860229492,-105,8491.0
8150,0.345632404088974,1.6053011417388916,-75,9999.0,1.2689646482467651,162,8491.0
8160,0.3451695740222931,1.4960881471633911,71,9999.0,2.564171552658081,-46,8491.0
8170,0.3453305661678314,2.0461409091949463,37,9999.0,1.679007649421692,57,8491.0
8180,0.3454935550689697,1.9713201522827148,102,9999.0,0.6491522192955017,-104,8491.0
8190,0.3455936908721924,1.8184585571289062,-57,9999.0,-2.818061351776123,44,8491.0
8200,0.34580036997795105,1.9234434366226196,52,9999.0,-4.451460838317871,-74,8491.0
8210,0.34590208530426025,1.364564299583435,-3,9999.0,-7.1126909255981445,-114,8491.0
8220,0.3460651636123657,-0.32267531752586365,69,9999.0,-4.429832935333252,-180,8491.0
8230,0.3462197482585907,-0.8400453925132751,-101,9999.0,-6.993513107299805,-61,8491.0
8240,0.34738126397132874,-2.2120189666748047,-29,9999.0,-3.0145885944366455,-26,8491.0
8250,0.347539484500885,-3.5068788528442383,-122,9999.0,-0.5954297780990601,96,8491.0
8260,0.3477342128753662,-3.5055387020111084,86,9999.0,2.988004446029663,-160,8491.0
8270,0.34788209199905396,-4.71769380569458,-169,9999.0,3.350234270095825,116,8491.0
8280,0.34804967045783997,-7.639848232269287,-111,9999.0,7.733068943023682,101,8491.0
8290,0.3485306203365326,-5.450351238250732,-195,9999.0,4.452387809753418,197,8491.0
8300,0.34870681166648865,-7.403890132904053,-120,9999.0,4.244691848754883,-85,8491.0
8310,0.34888121485710144,-6.77902889251709,-137,9999.0,3.322584390640259,36,8491.0
8320,0.3490513563156128,-4.03167200088501,-74,9999.0,-0.30632612109184265,-4,8491.0
8330,0.3491247892379761,-3.699427843093872,0,9999.0,-1.6478174924850464,-46,8491.0
8340,0.349234014749527,-2.3803396224975586,-12,9999.0,-1.0264358520507812,-72,8491.0
8350,0.34931713342666626,-2.8465564250946045,-115,9999.0,-3.1726388931274414,43,8491.0
8360,0.3493734896183014,-3.4561851024627686,-46,9999.0,-3.634875535964966,-101,8491.0
8370,0.3494338393211365,-2.7587077617645264,-33,9999.0,-1.995801568031311,-34,8491.0
8380,0.3485916256904602,-4.267848491668701,6,9999.0,-0.19760333001613617,-84,8491.0
8390,0.3486502766609192,-1.2282915115356445,-111,9999.0,-1.9391512870788574,75,8491.0
8400,0.3486952483654022,-0.9543079137802124,-11,9999.0,-1.758312702178955,42,8491.0
8410,0.3487739562988281,-0.8363936543464661,-7,9999.0,1.404361367225647,63,8491.0
8420,0.348512202501297,-2.5653703212738037,82,9999.0,4.8126115798950195,-65,8491.0
8430,0.34857696294784546,-0.7836188673973083,-109,9999.0,0.43714335560798645,70,8491.0
8440,0.348671555519104,-2.535173177719116,-36,9999.0,-2.161085844039917,-56,8491.0
8450,0.348796546459198,-2.2246274948120117,-71,9999.0,-0.4189375638961792,0,8491.0
8460,0.348593145608902,-1.1504511833190918,98,9999.0,-2.3282055854797363,-264,8491.0
8470,0.348701536655426,-0.6192724704742432,-109,9999.0,-5.352668285369873,-43,8491.0
8480,0.34878790378570557,-2.1417129039764404,-48,9999.0,-2.9699923992156982,-11,8491.0
8490,0.348877489566803,-1.147914171218872,-95,9999.0,-8.057258605957031,-32,8491.0
8500,0.3489527404308319,-0.4636114835739136,155,9999.0,-6.472732067108154,-227,8491.0
8510,0.34903010725975037,-0.8827695846557617,-56,9999.0,-4.382168769836426,49,8491.0
8520,0.34912917017936707,-1.7467937469482422,-37,9999.0,1.7012252807617188,61,8491.0
8530,0.34923601150512695,-1.0260847806930542,-79,9999.0,3.7473223209381104,143,8491.0
8540,0.34932711720466614,-4.930479049682617,17,9999.0,11.223919868469238,6,8491.0
8550,0.3496089279651642,-2.2741012573242188,-96,9999.0,7.560747146606445,109,8491.0
8560,0.34963953495025635,-3.6061460971832275,-63,9999.0,4.714676380157471,16,8491.0
8570,0.3496255874633789,-3.2738068103790283,-133,9999.0,0.6363118886947632,71,8491.0
8580,0.34961366653442383,-7.154018402099609,64,9999.0,-0.3251989483833313,-199,8491.0
8590,0.3508785367012024,-0.2737014889717102,-95,9999.0,-5.118346214294434,-20,8491.0
8600,0.35098016262054443,-0.9172699451446533,13,9999.0,-3.223414897918701,-117,8491.0
8610,0.3510974645614624,-0.3797132074832916,-104,9999.0,-6.313013076782227,90,8491.0
8620,0.3511557877063751,-0.22684310376644135,199,9999.0,-3.6263036727905273,-261,8491.0
8630,0.35123610496520996,2.537991523742676,-53,9999.0,-5.173969745635986,95,8491.0
8640,0.35119158029556274,1.212968349456787,38,9999.0,-3.1691770553588867,-63,8491.0
8650,0.3512742519378662,1.5077438354492188,-95,9999.0,-1.1797202825546265,152,8491.0
8660,0.3513805866241455,0.290619820356369,151,9999.0,3.6325464248657227,-132,8491.0
8670,0.35148128867149353,2.771461009979248,-39,9999.0,2.1087770462036133,117,8491.0
8680,0.3509831428527832,1.7993969917297363,55,9999.0,4.111755847930908,3,8491.0
8690,0.3510653078556061,1.5895415544509888,-70,9999.0,4.350959777832031,197,8491.0
8700,0.35113799571990967,-1.4101624488830566,125,9999.0,5.214269638061523,-119,8491.0
8710,0.35123369097709656,-0.8954594135284424,-78,9999.0,-1.7899473905563354,-31,8491.0
8720,0.3513943552970886,-3.5198557376861572,-15,9999.0,-1.1311575174331665,-118,8491.0
8730,0.35141825675964355,-1.6379358768463135,-174,9999.0,-6.433377265930176,113,8491.0
8740,0.3516574501991272,-3.2734267711639404,105,9999.0,-1.959411382675171,-167,8491.0
8750,0.3519248068332672,-1.1998401880264282,-76,9999.0,-6.831507205963135,-28,8491.0
8760,0.35216426849365234,-1.3860563039779663,10,9999.0,-2.682180404663086,-91,8491.0
8770,0.35102733969688416,0.9248452186584473,-109,9999.0,-3.142087697982788,117,8491.0
8780,0.3511664569377899,-0.037252042442560196,171,9999.0,3.0152246952056885,-200,8491.0
8790,0.3513236939907074,2.6213274002075195,-29,9999.0,3.2667219638824463,85,8491.0
8800,0.35148125886917114,4.877758979797363,63,9999.0,5.014614582061768,45,8491.0
8810,0.35139229893684387,6.137930393218994,-4,9999.0,4.355540752410889,167,8491.0
8820,0.35157325863838196,4.395593166351318,244,9999.0,1.603585958480835,-181,8491.0
8830,0.35173895955085754,1.5668225288391113,-77,9999.0,3.5744967460632324,193,8491.0
8840,0.35188737511634827,2.7005743980407715,46,9999.0,1.45453941822052,-80,8491.0
8850,0.3520095646381378,4.21830940246582,18,9999.0,-4.521256923675537,67,8491.0
8860,0.3512536287307739,3.1938209533691406,199,9999.0,-3.008211135864258,-188,8491.0
8870,0.35136690735816956,2.6865031719207764,-92,9999.0,-3.0820767879486084,171,8491.0
8880,0.35148659348487854,0.9923923015594482,77,9999.0,-0.08272827416658401,-25,8491.0
8890,0.3516187369823456,1.1492550373077393,39,9999.0,2.8176236152648926,111,8491.0
8900,0.35069283843040466,1.783202052116394,-84,9999.0,4.353765964508057,2,8491.0
8910,0.3507691025733948,1.0921369791030884,-70,9999.0,6.15708589553833,192,8491.0
8920,0.3507906496524811,-1.0506634712219238,-14,9999.0,5.285404682159424,-37,8491.0
8930,0.3507547378540039,-0.8375703692436218,35,9999.0,2.142115354537964,3,8491.0
8940,0.3506495952606201,-0.7932211756706238,-104,9999.0,2.7610843181610107,165,8491.0
8950,0.3495974838733673,-0.5133276581764221,117,9999.0,2.399428129196167,-135,8491.0
8960,0.3495236039161682,0.4085468053817749,-45,9999.0,2.769092321395874,48,8491.0
8970,0.3495410084724426,0.391335129737854,20,9999.0,1.1775832176208496,-2,8491.0
8980,0.3495948016643524,2.916368246078491,10,9999.0,-4.162461757659912,-21,8491.0
8990,0.35015779733657837,4.504092693328857,219,9999.0,-0.7466270327568054,-164,8491.0
9000,0.3502064347267151,5.92786979675293,-28,9999.0,-0.4434826970100403,209,8491.0
9010,0.35021939873695374,5.946420192718506,167,9999.0,4.133547306060791,-19,8491.0
9020,0.3501938581466675,4.763830661773682,76,9999.0,5.032912254333496,83,8491.0
9030,0.3489341139793396,3.517977237701416,128,9999.0,5.948474884033203,-13,8491.0
9040,0.348818302154541,4.8771443367004395,-73,9999.0,5.779323101043701,264,8491.0
9050,0.3488176167011261,4.284178256988525,236,9999.0,5.353085994720459,-90,8491.0
9060,0.34879815578460693,6.868977069854736,50,9999.0,2.7575485706329346,84,8491.0
9070,0.3487352430820465,6.01464319229126,97,9999.0,5.120934963226318,42,8491.0
9080,0.34797903895378113,5.8369622230529785,40,9999.0,0.6345136165618896,54,8491.0
9090,0.3478408455848694,4.595064163208008,244,9999.0,-1.0996301174163818,-167,8491.0
9100,0.34766635298728943,7.014482021331787,41,9999.0,-6.737326622009277,18,8491.0
9110,0.347500205039978,4.101320266723633,86,9999.0,-3.943359613418579,-10,8491.0
9120,0.3468291759490967,1.8232840299606323,16,9999.0,-2.244438648223877,49,8491.0
9130,0.3467113971710205,-0.3181370794773102,59,9999.0,2.4383628368377686,-34,8491.0
9140,0.3465918004512787,-0.5479583740234375,-68,9999.0,-1.6418651342391968,60,8491.0
9150,0.3464406132698059,-0.9446694254875183,-9,9999.0,2.593780517578125,45,8491.0
9160,0.34580498933792114,-0.34659910202026367,2,9999.0,1.5257712602615356,44,8491.0
9170,0.34562963247299194,-1.919609785079956,-28,9999.0,2.2685189247131348,32,8491.0
9180,0.34542137384414673,-2.724741220474243,-89,9999.0,0.9031391143798828,-1,8491.0
9190,0.34520384669303894,-4.122591018676758,-61,9999.0,2.329770088195801,-11,8491.0
9200,0.34502747654914856,-1.543144702911377,65,9999.0,-1.6609917879104614,-58,8491.0
9210,0.34414762258529663,-0.49827101826667786,-46,9999.0,-1.2088819742202759,-37,8491.0
9220,0.3439807593822479,0.9494621753692627,-36,9999.0,-4.496107578277588,-41,8491.0
9230,0.3438878059387207,1.6551915407180786,59,9999.0,-2.775104284286499,-82,8491.0
9240,0.3437267243862152,2.9443795680999756,84,9999.0,-1.9842556715011597,-36,8491.0
9250,0.3440806269645691,2.924431562423706,57,9999.0,-2.625837802886963,-58,8491.0
9260,0.3439241051673889,0.35334813594818115,-77,9999.0,-0.15770919620990753,70,8491.0
9270,0.3438085913658142,1.6289098262786865,33,9999.0,-4.5068230628967285,-67,8491.0
9280,0.34374135732650757,0.8582936525344849,25,9999.0,-3.6693637371063232,-22,8491.0
9290,0.34372833371162415,-0.026094501838088036,69,9999.0,-2.727407455444336,-112,8491.0
9300,0.34225958585739136,-0.009403184056282043,-46,9999.0,-0.6699861288070679,51,8491.0
9310,0.34217527508735657,0.29714444279670715,13,9999.0,0.8680751323699951,0,8491.0
9320,0.34205207228660583,-2.1525115966796875,-79,9999.0,0.8028210401535034,83,8491.0
9330,0.3419586718082428,-2.4766957759857178,81,9999.0,4.844543933868408,-121,8491.0
9340,0.34154295921325684,-1.380381464958191,-127,9999.0,0.6247087717056274,98,8491.0
9350,0.34149765968322754,-3.51303768157959,-56,9999.0,2.0222833156585693,2,8491.0
9360,0.34146276116371155,-3.0839955806732178,-152,9999.0,7.488034725189209,250,8491.0
9370,0.3414255380630493,-2.5681564807891846,77,9999.0,5.044984340667725,-117,8491.0
9380,0.34137117862701416,-3.7451279163360596,-83,9999.0,6.717718124389648,85,8491.0
9390,0.3427909314632416,-3.086930990219116,-11,9999.0,1.6318814754486084,3,8491.0
9400,0.3427983224391937,-1.0667704343795776,-64,9999.0,-1.9859063625335693,9,8491.0
9410,0.34279513359069824,0.25608643889427185,29,9999.0,-0.27127549052238464,-38,8491.0
9420,0.3427649438381195,-0.2325344681739807,183,9999.0,0.4694201946258545,-198,8491.0
9430,0.3415983021259308,-0.5770695805549622,-68,9999.0,-0.6488791108131409,96,8491.0
9440,0.34147030115127563,0.07170341163873672,60,9999.0,-1.9996904134750366,-83,8491.0
9450,0.3413882851600647,-0.553998589515686,-69,9999.0,-3.8114378452301025,45,8491.0
9460,0.34132370352745056,-1.558629035949707,50,9999.0,-5.126768589019775,-188,8491.0
9470,0.3411821722984314,-0.715480625629425,-6,9999.0,-1.3764431476593018,-23,8491.0
9480,0.34109726548194885,-3.4638607501983643,-90,9999.0,1.3536995649337769,163,8491.0
9490,0.34105008840560913,-5.17941951751709,-84,9999.0,4.679441928863525,51,8491.0
9500,0.34104055166244507,-6.5743794441223145,-189,9999.0,3.2731375694274902,177,8491.0
9510,0.34104788303375244,-7.036535263061523,6,9999.0,7.753221035003662,-62,8491.0
9520,0.3406504988670349,-5.881892204284668,-243,9999.0,4.795537948608398,133,8491.0
9530,0.34061703085899353,-4.572962760925293,14,9999.0,4.807241439819336,125,8491.0
9540,0.34060919284820557,-3.292728900909424,-18,9999.0,2.680368661880493,-34,8491.0
9550,0.34063586592674255,-0.6641504168510437,26,9999.0,-1.1882911920547485,-32,8491.0
9560,0.34117719531059265,1.1932506561279297,91,9999.0,-5.7519073486328125,-199,8491.0
9570,0.34119394421577454,1.1614081859588623,-96,9999.0,-8.974435806274414,-58,8491.0
9580,0.3411560356616974,2.9318161010742188,49,9999.0,-9.523568153381348,-197,8491.0
9590,0.3410923480987549,0.005439285654574633,177,9999.0,-9.359082221984863,-430,8491.0
9600,0.3417876958847046,1.9826905727386475,-49,9999.0,-8.297914505004883,-56,8491.0
9610,0.3417408764362335,-0.9967954754829407,9,9999.0,-2.8885598182678223,-24,8491.0
9620,0.34172675013542175,-0.8150980472564697,-41,9999.0,0.5388073921203613,22,8491.0
9630,0.3417153060436249,0.33692100644111633,-57,9999.0,2.5051074028015137,188,8491.0
9640,0.34170326590538025,-0.7253743410110474,163,9999.0,5.911076545715332,-28,8491.0
9650,0.34101253747940063,-0.3161064386367798,-9,9999.0,2.2482247352600098,113,8491.0
9660,0.34095898270606995,-0.39491117000579834,-6,9999.0,5.607135772705078,67,8491.0
9670,0.3409249484539032,-0.180620014667511,28,9999.0,0.17220079898834229,-58,8491.0
9680,0.3408680558204651,-0.09660065174102783,-54,9999.0,-3.1048054695129395,67,8491.0
9690,0.34163475036621094,-1.237721562385559,79,9999.0,-5.172273635864258,-144,8491.0
9700,0.34161871671676636,0.31942883133888245,98,9999.0,-7.697817802429199,-285,8491.0
9710,0.3415624499320984,1.9784752130508423,-115,9999.0,-12.41464900970459,98,8491.0
9720,0.34156307578086853,0.06808755546808243,58,9999.0,-7.020349502563477,-140,8491.0
9730,0.34164997935295105,3.4466567039489746,103,9999.0,0.6315711140632629,-3,8491.0
9740,0.3421951234340668,3.420928716659546,140,9999.0,4.154232978820801,115,8491.0
9750,0.3421788215637207,5.048412799835205,204,9999.0,8.513882637023926,67,8491.0
9760,0.3421104848384857,9.460245132446289,55,9999.0,6.2641825675964355,257,8491.0
9770,0.34205806255340576,6.950150489807129,139,9999.0,4.642465114593506,73,8491.0
9780,0.34234681725502014,5.952890872955322,380,9999.0,6.7490949630737305,-91,8491.0
9790,0.34228867292404175,6.386340618133545,84,9999.0,-3.414212465286255,37,8491.0
9800,0.34217870235443115,4.779227256774902,103,9999.0,-5.088989734649658,-37,8491.0
9810,0.34209945797920227,3.967400550842285,58,9999.0,-4.98216438293457,-75,8491.0
9820,0.34276679158210754,3.223080635070801,-30,9999.0,-4.441397666931152,102,8491.0
9830,0.34273362159729004,2.340392827987671,150,9999.0,-2.590928792953491,-126,8491.0
9840,0.3427427113056183,-1.5080678462982178,-13,9999.0,-2.039980411529541,20,8491.0
9850,0.3427487313747406,2.8570008277893066,-106,9999.0,3.3078527450561523,276,8491.0
9860,0.3427990972995758,4.17937707901001,110,9999.0,6.226115703582764,91,8491.0
9870,0.34327831864356995,6.025550842285156,79,9999.0,7.919379234313965,175,8491.0
9880,0.3433840572834015,7.9191484451293945,195,9999.0,2.00167179107666,5,8491.0
9890,0.34343910217285156,6.044129848480225,204,9999.0,1.0288183689117432,-165,8491.0
9900,0.34348857402801514,4.200332164764404,-26,9999.0,-7.065488815307617,13,8491.0
9910,0.34330591559410095,6.031381607055664,44,9999.0,-4.116578102111816,-67,8491.0
9920,0.3433006703853607,6.250950813293457,226,9999.0,-4.265201091766357,-229,8491.0
9930,0.3433074355125427,2.3669583797454834,-14,9999.0,-3.496185064315796,11,8491.0
9940,0.34332966804504395,0.05493166297674179,56,9999.0,0.32465261220932007,-12,8491.0
9950,0.34340745210647583,-2.1822569370269775,-31,9999.0,0.5335054993629456,49,8491.0
9960,0.3452913761138916,-2.477907180786133,-89,9999.0,3.0459494590759277,231,8491.0
9970,0.3454311192035675,-5.281887531280518,52,9999.0,7.659696102142334,-119,8491.0
9980,0.3455813527107239,-4.297133922576904,-54,9999.0,6.540452480316162,91,8491.0
9990,0.3457588851451874,-6.192195892333984,-69,9999.0,1.8530155420303345,62,8491.0
10000,0.3451068699359894,-3.9112977981567383,-44,9999.0,-2.163264274597168,-91,8491.0
10010,0.3451310396194458,-7.7734761238098145,-161,9999.0,-6.597756862640381,60,8491.0
10020,0.3451310098171234,-6.224730014801025,-7,9999.0,-7.5172905921936035,-144,8491.0
10030,0.34511083364486694,-5.313212871551514,21,9999.0,-8.264315605163574,-182,8491.0
10040,0.34503355622291565,-4.727428436279297,-200,9999.0,-6.973120212554932,136,8491.0
10050,0.34496912360191345,-0.6437335014343262,45,9999.0,-8.295004844665527,-49,8491.0
10060,0.3449823558330536,-0.16791819036006927,5,9999.0,-0.18493351340293884,54,8491.0
10070,0.3449363112449646,0.9063560366630554,20,9999.0,0.26657888293266296,66,8491.0
10080,0.34488335251808167,1.5534398555755615,144,9999.0,1.3179889917373657,-106,8491.0
10090,0.3460623025894165,1.2380987405776978,-58,9999.0,-1.3561290502548218,111,8491.0
10100,0.34605175256729126,-4.190334320068359,-60,9999.0,9.208442687988281,178,8491.0
10110,0.34602242708206177,-2.6213481426239014,-9,9999.0,2.8965864181518555,-15,8491.0
10120,0.34596845507621765,-1.2319884300231934,-15,9999.0,4.689248085021973,117,8491.0
10130,0.3467350900173187,-2.676482677459717,-13,9999.0,4.200439929962158,-45,8491.0
10140,0.3467147648334503,-1.459952473640442,-143,9999.0,2.959578275680542,-43,8491.0
10150,0.3466883897781372,-1.501562476158142,50,9999.0,1.2208197116851807,226,8491.0
10160,0.34666821360588074,-1.1892144680023193,96,9999.0,0.8059628009796143,-152,8491.0
10170,0.34664633870124817,-1.816701054573059,-185,9999.0,-0.12512648105621338,133,8491.0
10180,0.34753718972206116,-0.13586919009685516,-2,9999.0,4.637284755706787,104,8491.0
10190,0.3474869728088379,-2.0064570903778076,-36,9999.0,4.206456184387207,67,8491.0
10200,0.34742552042007446,-2.4040727615356445,-59,9999.0,5.26535177230835,124,8491.0
10210,0.3473575711250305,-4.1259355545043945,71,9999.0,6.831258773803711,-99,8491.0
10220,0.3483111262321472,-1.71308434009552,-70,9999.0,3.622727632522583,88,8491.0
10230,0.3482809364795685,0.18021422624588013,-145,9999.0,5.1150126457214355,350,8491.0
10240,0.34826013445854187,-0.36116909980773926,94,9999.0,-2.406625986099243,-108,8491.0
10250,0.3482569754123688,-0.7382192015647888,-1,9999.0,-2.5439720153808594,-19,8491.0
10260,0.34853026270866394,-0.8759556412696838,-124,9999.0,2.109964609146118,242,8491.0
10270,0.3485366106033325,-1.3484411239624023,13,9999.0,1.6581368446350098,60,8491.0
10280,0.34856703877449036,-0.5422945618629456,-30,9999.0,0.14155623316764832,33,8491.0
10290,0.34864240884780884,0.8954636454582214,37,9999.0,-3.9607458114624023,-144,8491.0
10300,0.348641574382782,-0.5762843489646912,92,9999.0,-2.159780740737915,-158,8491.0
10310,0.3463839888572693,-1.1108163595199585,-105,9999.0,-2.354687213897705,65,8491.0
10320,0.34623444080352783,-4.579529285430908,-105,9999.0,0.17916996777057648,128,8491.0
10330,0.34609678387641907,-3.137051820755005,200,9999.0,-0.3979782164096832,-190,8491.0
10340,0.34596285223960876,-3.5465712547302246,-111,9999.0,0.22643479704856873,49,8491.0
10350,0.34627363085746765,-2.2000234127044678,-9,9999.0,3.498460292816162,15,8491.0
10360,0.34609198570251465,-1.3922785520553589,-27,9999.0,1.120680570602417,-30,8491.0
10370,0.3458918035030365,0.12485194951295853,-48,9999.0,0.1593138724565506,58,8491.0
10380,0.34566035866737366,-1.6564825773239136,43,9999.0,4.687953948974609,-64,8491.0
10390,0.3452301323413849,0.24377377331256866,81,9999.0,1.1094751358032227,-136,8491.0
10400,0.34492307901382446,0.6968570947647095,-174,9999.0,2.6202495098114014,170,8491.0
10410,0.3445993661880493,-1.897302269935608,-59,9999.0,-0.575402021408081,-45,8491.0
10420,0.3442654311656952,-1.669129490852356,62,9999.0,6.5416154861450195,49,8491.0
10430,0.3439314365386963,0.3459721803665161,11,9999.0,-1.616736650466919,-58,8491.0
10440,0.34439563751220703,2.253692150115967,58,9999.0,-4.5098724365234375,-114,8491.0
10450,0.34405940771102905,2.6803581714630127,65,9999.0,-4.0932464599609375,-161,8491.0
10460,0.3437151312828064,5.46917200088501,-3,9999.0,-5.181337833404541,-47,8491.0
10470,0.3434309661388397,3.0021562576293945,65,9999.0,-5.619442462921143,-65,8491.0
10480,0.34267476201057434,0.2662244439125061,189,9999.0,2.2605032920837402,-197,8491.0
10490,0.342387318611145,-1.8649423122406006,-74,9999.0,3.547823905944824,86,8491.0
10500,0.3421172797679901,-3.6615326404571533,-74,9999.0,2.761267900466919,118,8491.0
10510,0.34187769889831543,-1.4815504550933838,-24,9999.0,2.5769994258880615,42,8491.0
10520,0.34163278341293335,-3.225806713104248,-50,9999.0,7.358125686645508,112,8491.0
10530,0.341165691614151,-1.0389600992202759,-53,9999.0,2.697448492050171,119,8491.0
10540,0.34092795848846436,0.9352515339851379,137,9999.0,3.271772861480713,-150,8491.0
10550,0.34072819352149963,1.494808316230774,47,9999.0,-1.2186076641082764,-98,8491.0
10560,0.3405577838420868,2.891151189804077,-98,9999.0,-2.3285233974456787,86,8491.0
10570,0.34100279211997986,1.6343021392822266,114,9999.0,-3.6113908290863037,30,8491.0
10580,0.34095078706741333,1.950369119644165,227,9999.0,-3.291881799697876,-121,8491.0
10590,0.34093189239501953,0.7878952622413635,7,9999.0,1.917187213897705,51,8491.0
10600,0.3409366309642792,-0.1439606249332428,-28,9999.0,3.324596643447876,124,8491.0
10610,0.3425638973712921,-0.2271941900253296,67,9999.0,2.481102466583252,17,8491.0
10620,0.34264621138572693,-0.6237367391586304,-29,9999.0,0.7446134090423584,57,8491.0
10630,0.3427444398403168,-1.8785083293914795,-139,9999.0,-1.5196319818496704,159,8491.0
10640,0.3428449332714081,-0.31584006547927856,129,9999.0,-0.40872126817703247,2,8491.0
10650,0.3429599404335022,1.1773548126220703,272,9999.0,2.5159335136413574,-151,8491.0
10660,0.34308692812919617,2.5451548099517822,-13,9999.0,-4.073141574859619,-34,8491.0
10670,0.34318429231643677,0.28362181782722473,21,9999.0,2.1437299251556396,24,8491.0
10680,0.3432847559452057,4.541285514831543,115,9999.0,-3.131779909133911,-166,8491.0
10690,0.3433496952056885,6.383514404296875,8,9999.0,-6.4548797607421875,-35,8491.0
10700,0.344438761472702,5.220132350921631,25,9999.0,-4.1653218269348145,2,8491.0
10710,0.34450793266296387,6.769039630889893,240,9999.0,-4.105775833129883,-218,8491.0
10720,0.34460240602493286,6.847808361053467,-24,9999.0,-0.17754122614860535,-74,8491.0
10730,0.34466972947120667,2.29408860206604,105,9999.0,4.803493499755859,189,8491.0
10740,0.34475940465927124,2.437272310256958,24,9999.0,5.65460729598999,23,8491.0
10750,0.34370365738868713,3.809292793273926,-38,9999.0,2.1101889610290527,186,8491.0
10760,0.34370237588882446,2.663097620010376,73,9999.0,2.9622256755828857,56,8491.0
10770,0.3437058627605438,4.229457855224609,179,9999.0,1.7909303903579712,-158,8491.0
10780,0.34369969367980957,1.0836057662963867,-60,9999.0,6.604842662811279,88,8491.0
10790,0.3430567979812622,1.2588661909103394,44,9999.0,-0.14225322008132935,-59,8491.0
10800,0.34306374192237854,2.6921465396881104,79,9999.0,-0.6588061451911926,-130,8491.0
10810,0.34303945302963257,1.3319474458694458,-44,9999.0,-1.7643314599990845,92,8491.0
10820,0.3430090546607971,5.209566116333008,115,9999.0,1.803359031677246,82,8491.0
10830,0.34339508414268494,7.526600360870361,304,9999.0,2.370220184326172,-54,8491.0
10840,0.3434164822101593,5.326961994171143,111,9999.0,-1.9854154586791992,-29,8491.0
10850,0.34339362382888794,4.615619659423828,57,9999.0,3.858388662338257,124,8491.0
10860,0.34334495663642883,6.316614627838135,137,9999.0,-4.330677032470703,-142,8491.0
10870,0.3432686924934387,5.9825758934021,2,9999.0,-2.6432628631591797,65,8491.0
10880,0.3438473641872406,3.102551221847534,-17,9999.0,-2.207458257675171,76,8491.0
10890,0.343781977891922,3.6402130126953125,146,9999.0,-3.7921030521392822,-187,8491.0
10900,0.34369605779647827,1.8429007530212402,-67,9999.0,-3.7488327026367188,-8,8491.0
10910,0.343572199344635,-2.2509708404541016,-94,9999.0,-1.9330846071243286,22,8491.0
10920,0.3443357050418854,-5.264553546905518,5,9999.0,-0.3533192276954651,-168,8491.0
10930,0.3442040681838989,-5.813977241516113,-169,9999.0,1.0404545068740845,44,8491.0
10940,0.3440591096878052,-3.002786874771118,-122,9999.0,-0.4001973867416382,46,8491.0
10950,0.3438991904258728,-3.300065279006958,18,9999.0,-1.1768076419830322,-53,8491.0
10960,0.3434511423110962,0.20605748891830444,-37,9999.0,4.233972072601318,117,8491.0
10970,0.3432978093624115,3.021064281463623,-24,9999.0,0.20215436816215515,116,8491.0
10980,0.343169629573822,0.02923956885933876,90,9999.0,-0.7996328473091125,-122,8491.0
10990,0.3430387079715729,2.0549709796905518,79,9999.0,2.81284236907959,-100,8491.0
11000,0.3428887724876404,1.3583928346633911,22,9999.0,-0.5641026496887207,49,8491.0
11010,0.34477177262306213,-1.8876844644546509,78,9999.0,-0.567578136920929,-108,8491.0
11020,0.34473639726638794,0.4379337728023529,-8,9999.0,1.6427249908447266,40,8491.0
11030,0.34471625089645386,-0.9378024935722351,-163,9999.0,1.5663292407989502,196,8491.0
11040,0.34470096230506897,0.6740676760673523,57,9999.0,1.0113307237625122,-74,8491.0
11050,0.3440104126930237,0.5200128555297852,-22,9999.0,0.33909139037132263,82,8491.0
11060,0.3439686596393585,0.3867758512496948,-24,9999.0,-0.12636661529541016,121,8491.0
11070,0.34390366077423096,-2.933387517929077,103,9999.0,-2.058393955230713,-196,8491.0
11080,0.343818724155426,-2.3769614696502686,-55,9999.0,1.41312575340271,43,8491.0
11090,0.343736469745636,-3.732471466064453,-73,9999.0,0.4560658931732178,69,8491.0
11100,0.3445396423339844,-2.457627058029175,34,9999.0,1.0298124551773071,-62,8491.0
11110,0.3444271981716156,-1.8846592903137207,-112,9999.0,-2.043606758117676,96,8491.0
11120,0.34429657459259033,-2.6595351696014404,-104,9999.0,-0.14874397218227386,28,8491.0
11130,0.34416839480400085,-3.658872604370117,75,9999.0,-2.6113040447235107,-124,8491.0
11140,0.3439405858516693,-1.4652855396270752,-87,9999.0,-1.407591462135315,60,8491.0
11150,0.3437381684780121,-3.0714120864868164,5,9999.0,-1.5191025733947754,-48,8491.0
11160,0.34355229139328003,-3.9310662746429443,-52,9999.0,0.8454468846321106,-6,8491.0
11170,0.34333091974258423,-4.595597267150879,-209,9999.0,2.236321449279785,160,8491.0
11180,0.34228625893592834,-3.2067761421203613,-106,9999.0,7.428657531738281,155,8491.0
11190,0.3420221507549286,-2.507821798324585,-64,9999.0,0.5108714699745178,44,8491.0
11200,0.34198081493377686,-4.2993974685668945,-128,9999.0,1.4540534019470215,153,8491.0
11210,0.34183698892593384,-7.6650519371032715,-28,9999.0,-0.6298701167106628,-119,8491.0
11220,0.34174060821533203,-6.046707630157471,-92,9999.0,5.483794212341309,-9,8491.0
11230,0.34217607975006104,-6.183638572692871,-197,9999.0,-1.0597240924835205,97,8491.0
11240,0.342121422290802,-6.856356143951416,-31,9999.0,-0.24734345078468323,-116,8491.0
11250,0.3420761823654175,-5.48250150680542,-113,9999.0,-0.9744097590446472,4,8491.0
11260,0.34206336736679077,-1.7632380723953247,-100,9999.0,-0.43096470832824707,154,8491.0
11270,0.3424571454524994,-3.4469473361968994,95,9999.0,0.5500385761260986,-138,8491.0
11280,0.3424835205078125,1.6314269304275513,42,9999.0,-2.3801608085632324,-16,8491.0
11290,0.3425048887729645,-0.4669343829154968,77,9999.0,1.3485352993011475,-16,8491.0
11300,0.3425595760345459,2.288261890411377,112,9999.0,3.3750574588775635,-48,8491.0
11310,0.3426322937011719,1.9004756212234497,-9,9999.0,2.088805675506592,73,8491.0
11320,0.34367069602012634,1.9911483526229858,-56,9999.0,1.2909629344940186,192,8491.0
11330,0.34381091594696045,0.6419399380683899,49,9999.0,3.8214497566223145,0,8491.0
11340,0.3439518213272095,-1.8450332880020142,-86,9999.0,3.606295585632324,134,8491.0
11350,0.3440920114517212,-3.9306068420410156,-53,9999.0,3.2988617420196533,117,8491.0
11360,0.3457132875919342,-2.189465284347534,-157,9999.0,-0.40466469526290894,-137,8491.0
11370,0.34600332379341125,-2.257337808609009,-81,9999.0,-2.6748921871185303,111,8491.0
11380,0.34636491537094116,-7.217718124389648,97,9999.0,-2.1030290126800537,-149,8491.0
11390,0.3466527760028839,-7.863366603851318,-190,9999.0,-3.1735854148864746,-26,8491.0
11400,0.34892064332962036,-11.177264213562012,-184,9999.0,-5.9064412117004395,-120,8491.0
11410,0.34934234619140625,-9.310659408569336,-233,9999.0,-4.801436901092529,-61,8491.0
11420,0.3496759235858917,-12.610474586486816,-299,9999.0,-4.507820129394531,44,8491.0
11430,0.3499726951122284,-8.691837310791016,18,9999.0,-7.521490573883057,-309,8491.0
11440,0.3502711355686188,-4.194490909576416,-122,9999.0,-3.1000566482543945,-18,8491.0
11450,0.34885314106941223,-1.1885966062545776,15,9999.0,3.0574960708618164,33,8491.0
11460,0.3491170108318329,0.8332031965255737,-19,9999.0,4.523561477661133,71,8491.0
11470,0.3493412733078003,4.476235389709473,-43,9999.0,4.20400857925415,143,8491.0
11480,0.34949779510498047,4.1537766456604,272,9999.0,5.309559345245361,-76,8491.0
11490,0.34865647554397583,5.4719624519348145,41,9999.0,0.6815099716186523,29,8491.0
11500,0.34871140122413635,5.014207363128662,69,9999.0,-2.6329803466796875,-33,8491.0
11510,0.34871935844421387,2.621480703353882,76,9999.0,-0.6696263551712036,-55,8491.0
11520,0.3487134277820587,3.233644962310791,33,9999.0,-3.2782301902770996,8,8491.0
11530,0.34844130277633667,0.9080387949943542,160,9999.0,-5.173498153686523,-292,8491.0
11540,0.3484443128108978,3.8143584728240967,-5,9999.0,-6.804678916931152,1,8491.0
11550,0.3484141230583191,1.999983787536621,55,9999.0,0.0960630550980568,-31,8491.0
11560,0.3483315706253052,1.3123650550842285,-21,9999.0,3.0759119987487793,104,8491.0
11570,0.34823596477508545,-0.016858825460076332,18,9999.0,4.673276424407959,94,8491.0
11580,0.3483988642692566,-2.404608964920044,115,9999.0,4.67617654800415,-197,8491.0
11590,0.3482365608215332,0.6900479197502136,-90,9999.0,-0.34847620129585266,184,8491.0
11600,0.34806546568870544,-0.03569874167442322,1,9999.0,5.402228355407715,65,8491.0
11610,0.3478446900844574,-0.2766526937484741,-32,9999.0,1.2571532726287842,95,8491.0
11620,0.3476799428462982,-0.5880754590034485,72,9999.0,-0.8339213132858276,-30,8491.0
11630,0.3474198877811432,-0.8586829304695129,116,9999.0,0.1319262832403183,-12,8491.0
11640,0.3471091687679291,3.207287549972534,-124,9999.0,1.865970492362976,96,8491.0
11650,0.34683215618133545,-0.29786399006843567,83,9999.0,-1.237963080406189,-65,8491.0
11660,0.3465583026409149,2.4800169467926025,7,9999.0,0.12958741188049316,68,8491.0
11670,0.345641165971756,4.648759365081787,172,9999.0,2.359347105026245,32,8491.0
11680,0.34532400965690613,5.421565055847168,165,9999.0,1.2026530504226685,-140,8491.0
11690,0.34501874446868896,6.394068717956543,-94,9999.0,2.879194736480713,215,8491.0
11700,0.3447617292404175,5.161798477172852,118,9999.0,1.8859283924102783,3,8491.0
11710,0.3454780876636505,3.4788310527801514,69,9999.0,1.534957766532898,14,8491.0
11720,0.34536170959472656,3.155031442642212,91,9999.0,-0.44228923320770264,-48,8491.0
11730,0.3452676832675934,2.428330183029175,122,9999.0,-3.7954676151275635,-203,8491.0
11740,0.34524109959602356,0.13281266391277313,-139,9999.0,-3.5068397521972656,78,8491.0
11750,0.34552663564682007,0.06748820841312408,-3,9999.0,-3.2077383995056152,-47,8491.0
11760,0.3455160856246948,-1.6907856464385986,-26,9999.0,-4.088747978210449,-72,8491.0
11770,0.3454684615135193,0.11338666081428528,-47,9999.0,-5.44658899307251,23,8491.0
11780,0.3454148769378662,-1.4743831157684326,109,9999.0,-2.4669432640075684,-202,8491.0
11790,0.3453904390335083,-2.9885857105255127,-166,9999.0,-0.9241413474082947,72,8491.0
11800,0.34398794174194336,-4.327983856201172,-41,9999.0,0.5769446492195129,-28,8491.0
11810,0.343883752822876,-2.230234384536743,-40,9999.0,1.2956321239471436,45,8491.0
11820,0.34380626678466797,-2.345620632171631,-60,9999.0,3.886573553085327,185,8491.0
11830,0.34376996755599976,0.5302270650863647,194,9999.0,5.593719482421875,-76,8491.0
11840,0.343432754278183,2.2066006660461426,-110,9999.0,7.211965560913086,217,8491.0
11850,0.3433469831943512,2.4353604316711426,40,9999.0,3.080448865890503,95,8491.0
11860,0.34332138299942017,3.647493600845337,173,9999.0,1.701310157775879,-105,8491.0
11870,0.34326446056365967,7.906177997589111,80,9999.0,-5.455264568328857,21,8491.0
11880,0.34318968653678894,8.490272521972656,215,9999.0,-3.562568426132202,-138,8491.0
11890,0.34386712312698364,7.4315924644470215,174,9999.0,-4.635897636413574,-151,8491.0
11900,0.3438783586025238,7.3694658279418945,-34,9999.0,-3.482813835144043,147,8491.0
11910,0.3439027667045593,4.846738815307617,103,9999.0,-0.22079253196716309,63,8491.0
11920,0.3439306318759918,0.6468425393104553,-30,9999.0,4.0623931884765625,136,8491.0
11930,0.3447606861591339,-2.2806332111358643,-22,9999.0,3.2951440811157227,19,8491.0
11940,0.34484609961509705,-3.0462210178375244,64,9999.0,-0.29021063446998596,-91,8491.0
11950,0.34496432542800903,-6.367870330810547,-153,9999.0,1.356247901916504,154,8491.0
11960,0.34504663944244385,-7.953774452209473,-38,9999.0,5.399716854095459,6,8491.0
11970,0.3451349139213562,-6.688903331756592,-171,9999.0,1.265923261642456,79,8491.0
11980,0.3451961278915405,-8.479310035705566,-28,9999.0,4.054890155792236,236,8491.0
11990,0.34533172845840454,-9.527472496032715,-32,9999.0,8.045328140258789,14,8491.0
12000,0.3454059958457947,-4.852193832397461,-122,9999.0,5.1100029945373535,117,8491.0
12010,0.3455308973789215,-2.838489294052124,19,9999.0,2.054178476333618,-59,8491.0
12020,0.3457963466644287,1.7203046083450317,-42,9999.0,-3.705090284347534,78,8491.0
12030,0.345840722322464,2.1763195991516113,48,9999.0,-5.930718421936035,14,8491.0
12040,0.3459027409553528,-0.11170431226491928,161,9999.0,1.3357754945755005,-200,8491.0
12050,0.3459634780883789,3.686478853225708,-61,9999.0,0.1716020703315735,150,8491.0
12060,0.34722545742988586,4.207641124725342,78,9999.0,6.896505832672119,78,8491.0
12070,0.34734389185905457,4.565718650817871,-32,9999.0,10.056370735168457,163,8491.0
12080,0.34744250774383545,7.023355007171631,-3,9999.0,8.277060508728027,283,8491.0
12090,0.34767016768455505,4.81451416015625,209,9999.0,7.438505172729492,-23,8491.0
12100,0.34780704975128174,4.127777099609375,45,9999.0,1.681924819946289,68,8491.0
12110,0.34800347685813904,2.253331184387207,31,9999.0,2.535342216491699,31,8491.0
12120,0.3480985760688782,-0.09671586006879807,25,9999.0,0.3525437116622925,-78,8491.0
12130,0.34821081161499023,-0.638624906539917,-176,9999.0,-3.8141930103302,108,8491.0
12140,0.3483107388019562,-1.1855385303497314,43,9999.0,-1.0317156314849854,-104,8491.0
12150,0.3470943868160248,-1.8499490022659302,125,9999.0,-3.6819281578063965,-242,8491.0
12160,0.3470979928970337,1.3423840999603271,-27,9999.0,3.3143725395202637,53,8491.0
12170,0.3470836281776428,0.0476505346596241,77,9999.0,0.4568129777908325,-110,8491.0
12180,0.34703609347343445,2.3876073360443115,-24,9999.0,0.27008819580078125,65,8491.0
12190,0.34776002168655396,2.384106397628784,24,9999.0,-4.645380020141602,48,8491.0
12200,0.3477446138858795,4.982541084289551,130,9999.0,0.846014678478241,-58,8491.0
12210,0.3477557301521301,3.7217588424682617,31,9999.0,3.8779542446136475,102,8491.0
12220,0.34777435660362244,3.903660297393799,112,9999.0,3.943185567855835,-61,8491.0
12230,0.3477846682071686,1.4183907508850098,40,9999.0,4.943191051483154,-16,8491.0
12240,0.34790217876434326,1.982458472251892,-119,9999.0,1.7808117866516113,170,8491.0
12250,0.34796786308288574,-1.74799644947052,37,9999.0,0.4252379834651947,7,8491.0
12260,0.34797123074531555,-2.9443981647491455,-52,9999.0,-1.3926459550857544,44,8491.0
12270,0.34792590141296387,-0.11846483498811722,-5,9999.0,-2.0130398273468018,6,8491.0
12280,0.3479139506816864,-1.457456350326538,122,9999.0,-2.5655438899993896,-232,8491.0
12290,0.3478601276874542,-0.9227097034454346,-88,9999.0,-2.211427927017212,20,8491.0
12300,0.34775713086128235,-3.9756579399108887,11,9999.0,-1.1031367778778076,-104,8491.0
12310,0.34766244888305664,-2.8321099281311035,-65,9999.0,-1.8796675205230713,-50,8491.0
12320,0.3475504517555237,-3.2608444690704346,-126,9999.0,-2.785820484161377,123,8491.0
12330,0.34765341877937317,-4.142940998077393,45,9999.0,-4.435912132263184,-122,8491.0
12340,0.34755855798721313,-6.457392692565918,-119,9999.0,2.936617374420166,35,8491.0
12350,0.3474247455596924,-4.223603248596191,-17,9999.0,1.2601065635681152,-18,8491.0
12360,0.347319632768631,-3.6867730617523193,1,9999.0,-0.30010610818862915,-118,8491.0
12370,0.3478650450706482,-2.877840518951416,-239,9999.0,0.19991648197174072,66,8491.0
12380,0.34772324562072754,-4.526498317718506,-20,9999.0,-0.5784853100776672,-6,8491.0
12390,0.347598135471344,-3.6872406005859375,-46,9999.0,-0.4558224380016327,23,8491.0
12400,0.34749266505241394,-1.5900981426239014,-52,9999.0,-2.9201736450195312,-24,8491.0
12410,0.34642738103866577,-0.9465653300285339,121,9999.0,2.5450267791748047,-159,8491.0
12420,0.34627360105514526,-1.4309719800949097,-124,9999.0,-0.7616729140281677,89,8491.0
12430,0.3461373746395111,-1.8553986549377441,-30,9999.0,3.004244089126587,32,8491.0
12440,0.3459828197956085,-3.69370174407959,-116,9999.0,1.7635406255722046,43,8491.0
12450,0.345773845911026,-6.452003002166748,-153,9999.0,2.170896530151367,142,8491.0
12460,0.346464604139328,-8.0698881149292,16,9999.0,1.8358571529388428,-274,8491.0
12470,0.34629297256469727,-9.943669319152832,-204,9999.0,-0.4318123757839203,-21,8491.0
12480,0.34615540504455566,-7.406397342681885,-83,9999.0,-1.7553622722625732,-44,8491.0
12490,0.34600353240966797,-4.638329029083252,-135,9999.0,-1.438033938407898,-63,8491.0
12500,0.3451041579246521,-3.5279576778411865,-73,9999.0,-4.58022403717041,24,8491.0
12510,0.345007061958313,1.064366340637207,94,9999.0,-6.567383766174316,-145,8491.0
12520,0.34492459893226624,2.0094668865203857,-38,9999.0,3.067028045654297,14,8491.0
12530,0.3448246717453003,1.7380931377410889,2,9999.0,2.9281911849975586,146,8491.0
12540,0.3446581959724426,2.6214406490325928,62,9999.0,0.8169222474098206,-5,8491.0
12550,0.346306174993515,2.313486337661743,-54,9999.0,-3.835244655609131,88,8491.0
12560,0.34624555706977844,1.3659446239471436,105,9999.0,-3.804042100906372,-71,8491.0
12570,0.34617364406585693,-0.3153530955314636,80,9999.0,-7.268067836761475,-164,8491.0
12580,0.34610792994499207,-1.468935489654541,32,9999.0,-7.606521129608154,83,8491.0
12590,0.3460065424442291,2.3185887336730957,13,9999.0,0.17423862218856812,11,8491.0
12600,0.34601283073425293,2.777550458908081,27,9999.0,2.565044641494751,152,8491.0
12610,0.34600162506103516,1.991437315940857,142,9999.0,3.1355056762695312,-93,8491.0
12620,0.34600043296813965,0.4588906764984131,-66,9999.0,2.5551064014434814,150,8491.0
12630,0.34600839018821716,2.1608216762542725,49,9999.0,5.153478622436523,122,8491.0
12640,0.3468325436115265,2.3905036449432373,59,9999.0,7.054884910583496,90,8491.0
12650,0.346831738948822,2.1351351737976074,-29,9999.0,1.5366013050079346,148,8491.0
12660,0.3468374013900757,1.7144780158996582,114,9999.0,-0.2968907356262207,-96,8491.0
12670,0.3468172252178192,2.107687473297119,46,9999.0,-2.7321228981018066,-136,8491.0
12680,0.34642845392227173,1.962087631225586,-95,9999.0,-6.281028747558594,41,8491.0
12690,0.3463220000267029,0.8929318189620972,64,9999.0,-8.188165664672852,-138,8491.0
12700,0.3462090790271759,-0.5097877979278564,-70,9999.0,-4.150442600250244,58,8491.0
12710,0.3461144268512726,-2.050572156906128,-10,9999.0,-1.7571735382080078,87,8491.0
12720,0.3452051877975464,-2.210437536239624,210,9999.0,7.624992847442627,-167,8491.0
12730,0.3450881838798523,-1.0302248001098633,-66,9999.0,2.147291660308838,31,8491.0
12740,0.34498289227485657,0.7265006303787231,30,9999.0,3.411191463470459,36,8491.0
12750,0.34488409757614136,2.401041030883789,63,9999.0,1.5927484035491943,-10,8491.0
12760,0.3447510898113251,4.066204071044922,-65,9999.0,2.982999801635742,265,8491.0
12770,0.3443147838115692,6.544211387634277,242,9999.0,-1.871024250984192,-86,8491.0
12780,0.34423840045928955,-0.8282047510147095,52,9999.0,0.5360874533653259,-29,8491.0
12790,0.3441407084465027,-2.0337564945220947,-55,9999.0,1.492759346961975,-5,8491.0
12800,0.34402063488960266,-0.8617774844169617,30,9999.0,2.566033363342285,0,8491.0
12810,0.34431084990501404,-0.6298409104347229,-39,9999.0,1.9124938249588013,19,8491.0
12820,0.344310462474823,3.7270028591156006,-119,9999.0,-3.773937225341797,110,8491.0
12830,0.3442324697971344,-2.6037230491638184,11,9999.0,0.5628615021705627,-71,8491.0
12840,0.34423255920410156,1.7082175016403198,38,9999.0,-2.0836610794067383,-76,8491.0
12850,0.3441716432571411,0.8016523122787476,-14,9999.0,-1.9614228010177612,31,8491.0
12860,0.3449031710624695,0.08745141327381134,91,9999.0,2.702644109725952,-95,8491.0
12870,0.3449305295944214,-0.5385208129882812,-60,9999.0,2.15836238861084,78,8491.0
12880,0.34492549300193787,1.4735883474349976,-198,9999.0,2.260849714279175,199,8491.0
12890,0.3449976444244385,-1.3933522701263428,-9,9999.0,3.429807186126709,46,8491.0
12900,0.34541836380958557,-2.9464261531829834,-53,9999.0,2.713172197341919,-153,8491.0
12910,0.3455813229084015,-0.32559916377067566,-87,9999.0,-3.2073795795440674,7,8491.0
12920,0.34558191895484924,-0.8139230012893677,24,9999.0,-3.262376546859741,-136,8491.0
12930,0.34563830494880676,-0.14383143186569214,-5,9999.0,-3.7458221912384033,-100,8491.0
12940,0.3450062572956085,1.5416128635406494,-166,9999.0,-3.750587224960327,179,8491.0
12950,0.3450092375278473,5.053046226501465,78,9999.0,1.98379647731781,-96,8491.0
12960,0.34491607546806335,-1.149220585823059,44,9999.0,-4.21425724029541,-151,8491.0
12970,0.3449166417121887,0.025796473026275635,-27,9999.0,-0.5101770162582397,-7,8491.0
12980,0.3448532819747925,-0.17706619203090668,62,9999.0,-1.3364439010620117,-107,8491.0
12990,0.344118595123291,0.3581472635269165,15,9999.0,0.1884627342224121,-52,8491.0
13000,0.3440098464488983,0.49719521403312683,-129,9999.0,-0.418480783700943,205,8491.0
13010,0.34400999546051025,-2.27809739112854,57,9999.0,-0.881633996963501,-31,8491.0
13020,0.3439498841762543,0.8456026911735535,45,9999.0,-5.817547798156738,-127,8491.0
13030,0.34435397386550903,1.9787700176239014,-6,9999.0,-5.81060266494751,16,8491.0
13040,0.3443319499492645,3.457159996032715,154,9999.0,-3.1344501972198486,-132,8491.0
13050,0.3443485498428345,2.3544936180114746,39,9999.0,-0.12657620012760162,-20,8491.0
13060,0.34437066316604614,1.2735832929611206,-79,9999.0,-5.463842868804932,86,8491.0
13070,0.3444038927555084,-0.8162171244621277,94,9999.0,-1.4163349866867065,-97,8491.0
13080,0.3434395492076874,1.6194175481796265,-59,9999.0,-1.0338925123214722,30,8491.0
13090,0.34341397881507874,-1.2060450315475464,-68,9999.0,1.5610536336898804,152,8491.0
13100,0.3433825373649597,3.6999945640563965,159,9999.0,-0.4943791925907135,-190,8491.0
13110,0.34340402483940125,3.0752251148223877,40,9999.0,-0.9386820197105408,-84,8491.0
13120,0.3432473838329315,2.9870285987854004,74,9999.0,-0.36588627099990845,1,8491.0
13130,0.34326037764549255,6.533238887786865,161,9999.0,-1.3419582843780518,-139,8491.0
13140,0.34327417612075806,6.616471290588379,61,9999.0,-2.574331283569336,43,8491.0
13150,0.3432895839214325,5.047093868255615,53,9999.0,2.46750807762146,58,8491.0
13160,0.3424384593963623,3.9123716354370117,141,9999.0,-1.356397032737732,17,8491.0
13170,0.34245386719703674,2.943113327026367,-38,9999.0,-1.3122916221618652,160,8491.0
13180,0.3424687087535858,0.6982049345970154,54,9999.0,-0.9987099766731262,-107,8491.0
13190,0.3424997627735138,2.4898133277893066,126,9999.0,-4.5935282707214355,-165,8491.0
13200,0.3425537347793579,-3.0207202434539795,-66,9999.0,-5.852205753326416,27,8491.0
13210,0.3447432816028595,-4.295551776885986,-3,9999.0,-0.24454237520694733,-68,8491.0
13220,0.3449236750602722,-4.004161834716797,-209,9999.0,-1.4499847888946533,-39,8491.0
13230,0.34510350227355957,-6.997744083404541,-33,9999.0,0.3902748227119446,217,8491.0
13240,0.3452531695365906,-2.9402670860290527,15,9999.0,5.119439125061035,38,8491.0
13250,0.3444536030292511,0.9385575652122498,-63,9999.0,5.2312541007995605,165,8491.0
13260,0.3445378243923187,-0.9535970091819763,69,9999.0,4.699743270874023,42,8491.0
13270,0.3445631265640259,0.9550901055335999,101,9999.0,4.616039276123047,-57,8491.0
13280,0.34456369280815125,3.412661552429199,-134,9999.0,-0.5739569664001465,82,8491.0
13290,0.34459343552589417,1.5625345706939697,24,9999.0,-3.365288496017456,-63,8491.0
13300,0.3443527817726135,1.7653851509094238,-12,9999.0,-1.2953524589538574,-17,8491.0
13310,0.3443792164325714,2.9782118797302246,-100,9999.0,1.2168365716934204,237,8491.0
13320,0.34435248374938965,2.385866641998291,118,9999.0,-2.1015610694885254,-176,8491.0
13330,0.34430310130119324,5.887332916259766,-9,9999.0,-1.9564958810806274,-6,8491.0
13340,0.3441723883152008,1.3554878234863281,-20,9999.0,-2.520578145980835,44,8491.0
13350,0.3440890610218048,-2.21399188041687,92,9999.0,1.1398204565048218,-175,8491.0
13360,0.3440401256084442,-2.7048919200897217,-51,9999.0,1.1873173713684082,23,8491.0
13370,0.34401342272758484,-3.2338500022888184,-16,9999.0,5.46876335144043,145,8491.0
13380,0.3443489074707031,0.0999179258942604,103,9999.0,4.296728610992432,-21,8491.0
13390,0.34428444504737854,0.6654431819915771,-33,9999.0,5.063347816467285,139,8491.0
13400,0.34420207142829895,-0.7299230694770813,-104,9999.0,5.336884021759033,225,8491.0
13410,0.34413087368011475,0.04762658104300499,37,9999.0,2.3973608016967773,-43,8491.0
13420,0.34408387541770935,-1.8696625232696533,-106,9999.0,5.313525199890137,113,8491.0
13430,0.34446483850479126,-2.74515700340271,-91,9999.0,3.144005060195923,153,8491.0
13440,0.3444870710372925,-2.896406412124634,26,9999.0,6.90449333190918,-11,8491.0
13450,0.3444804847240448,-1.055889368057251,-31,9999.0,-1.5411205291748047,10,8491.0
13460,0.34450894594192505,-1.5547937154769897,-41,9999.0,-0.4084847867488861,121,8491.0
13470,0.3455139100551605,0.2220132052898407,128,9999.0,-0.16398680210113525,-59,8491.0
13480,0.3456207513809204,0.6524361371994019,36,9999.0,-2.6018972396850586,-80,8491.0
13490,0.3457717001438141,1.9376286268234253,-88,9999.0,2.2806432247161865,230,8491.0
13500,0.3459292948246002,2.430534839630127,66,9999.0,2.9473226070404053,-18,8491.0
13510,0.3464372158050537,4.306302547454834,37,9999.0,4.2490363121032715,15,8491.0
13520,0.3466464579105377,2.5860612392425537,-208,9999.0,-5.580743312835693,112,8491.0
13530,0.34686583280563354,1.3414640426635742,71,9999.0,2.624859094619751,56,8491.0
13540,0.3470918536186218,2.592010259628296,22,9999.0,2.4334540367126465,76,8491.0
13550,0.34733229875564575,2.3714823722839355,14,9999.0,2.155512809753418,101,8491.0
13560,0.3461625874042511,-2.1107027530670166,104,9999.0,-1.7398133277893066,-85,8491.0
13570,0.34630364179611206,-0.26931333541870117,-31,9999.0,-1.8104896545410156,22,8491.0
13580,0.3464273512363434,-1.2896519899368286,38,9999.0,0.4119260013103485,-24,8491.0
13590,0.34656503796577454,-0.9581149816513062,-1,9999.0,-1.290052890777588,-128,8491.0
13600,0.3471951484680176,-1.292632818222046,-132,9999.0,1.4155683517456055,74,8491.0
13610,0.34732675552368164,-2.26517915725708,49,9999.0,3.3762106895446777,-91,8491.0
13620,0.3474719226360321,0.12802019715309143,-61,9999.0,-0.5517467260360718,60,8491.0
13630,0.3476358950138092,0.2919817864894867,-2,9999.0,-1.0227842330932617,2,8491.0
13640,0.3478347361087799,-0.4524574279785156,97,9999.0,-4.651486396789551,-153,8491.0
13650,0.3475828170776367,0.07818100601434708,10,9999.0,0.2796013653278351,37,8491.0
13660,0.3476683795452118,4.808886528015137,180,9999.0,-2.1188418865203857,-117,8491.0
13670,0.34773799777030945,4.089808940887451,7,9999.0,-5.696274280548096,-95,8491.0
13680,0.3477897644042969,2.1656031608581543,2,9999.0,1.0188933610916138,36,8491.0
13690,0.3482651114463806,0.6593057513237,53,9999.0,1.9400029182434082,-29,8491.0
13700,0.3482130467891693,-0.708896815776825,-182,9999.0,3.580568313598633,233,8491.0
13710,0.3481699824333191,0.9827180504798889,100,9999.0,-0.7474470138549805,60,8491.0
13720,0.3480912744998932,-0.9558004140853882,-82,9999.0,-6.624030590057373,-64,8491.0
13730,0.3479715585708618,-2.912640333175659,-6,9999.0,-3.6168055534362793,-111,8491.0
13740,0.34944188594818115,-1.4030864238739014,4,9999.0,-9.496830940246582,-138,8491.0
13750,0.3493961691856384,0.161794513463974,-71,9999.0,-4.623863697052002,-63,8491.0
13760,0.3494088351726532,-1.3078453540802002,23,9999.0,-2.846010684967041,-172,8491.0
13770,0.3494056165218353,-0.3090433180332184,21,9999.0,-1.509823203086853,127,8491.0
13780,0.3492308557033539,-3.354004383087158,80,9999.0,-3.7687313556671143,-102,8491.0
13790,0.3491842746734619,-1.5226984024047852,-60,9999.0,-1.4476218223571777,39,8491.0
13800,0.3491310477256775,-3.6419694423675537,49,9999.0,1.5870682001113892,-62,8491.0
13810,0.34909340739250183,-3.407949686050415,-149,9999.0,2.0870208740234375,-68,8491.0
13820,0.3478933572769165,-2.5490128993988037,12,9999.0,3.518156051635742,25,8491.0
13830,0.3477768898010254,-1.109477162361145,-71,9999.0,-1.2900949716567993,-86,8491.0
13840,0.3476391136646271,-1.257344126701355,-50,9999.0,-3.432884454727173,8,8491.0
13850,0.3474995493888855,-1.1613292694091797,87,9999.0,-4.122670650482178,-122,8491.0
13860,0.34736350178718567,-3.009967803955078,-74,9999.0,-1.1254810094833374,6,8491.0
13870,0.3483460247516632,-3.113917112350464,23,9999.0,-1.1318894624710083,-103,8491.0
13880,0.34825482964515686,-0.43869829177856445,-122,9999.0,-3.015094518661499,144,8491.0
13890,0.3481479287147522,1.7893787622451782,11,9999.0,3.2123029232025146,11,8491.0
13900,0.34806349873542786,-4.030203342437744,-105,9999.0,3.162970542907715,-24,8491.0
13910,0.34836792945861816,-4.427894592285156,-80,9999.0,-0.4219678044319153,71,8491.0
13920,0.34830790758132935,-4.250783443450928,171,9999.0,-1.2814276218414307,-248,8491.0
13930,0.34824422001838684,-2.6198437213897705,-103,9999.0,-2.871201515197754,13,8491.0
13940,0.34823641180992126,-0.9440353512763977,20,9999.0,-1.8194169998168945,-73,8491.0
13950,0.34851908683776855,2.0263562202453613,-25,9999.0,-2.9165232181549072,29,8491.0
13960,0.34855762124061584,2.2005889415740967,18,9999.0,-1.1782153844833374,72,8491.0
13970,0.3486137092113495,-1.853081464767456,31,9999.0,-0.054962486028671265,-17,8491.0
13980,0.34866589307785034,-1.5453706979751587,-65,9999.0,1.0736892223358154,75,8491.0
13990,0.34874895215034485,-3.093512773513794,105,9999.0,-0.30368679761886597,-176,8491.0
14000,0.34772005677223206,-1.760642409324646,-115,9999.0,-1.9218844175338745,45,8491.0
14010,0.34776219725608826,-1.6878573894500732,-15,9999.0,-3.5714035034179688,-52,8491.0
14020,0.3477657735347748,-0.13668197393417358,-37,9999.0,-3.252122640609741,-27,8491.0
14030,0.34776198863983154,0.29330870509147644,-127,9999.0,-4.421313762664795,31,8491.0
14040,0.34709301590919495,-2.020632266998291,149,9999.0,-1.6427868604660034,-236,8491.0
14050,0.34705936908721924,2.711458206176758,-6,9999.0,2.0557022094726562,92,8491.0
14060,0.34700801968574524,2.2078146934509277,84,9999.0,3.6808741092681885,-27,8491.0
14070,0.34696662425994873,-1.1123051643371582,2,9999.0,6.7268500328063965,85,8491.0
14080,0.3470352292060852,0.14736321568489075,-87,9999.0,3.7192156314849854,116,8491.0
14090,0.34660205245018005,-0.46631792187690735,49,9999.0,0.8741639852523804,26,8491.0
14100,0.3465249240398407,-0.47202542424201965,-104,9999.0,-0.27757614850997925,112,8491.0
14110,0.34641239047050476,-1.6996009349822998,6,9999.0,1.9224878549575806,-29,8491.0
14120,0.34627601504325867,-0.81162029504776,32,9999.0,-5.442898273468018,-171,8491.0
14130,0.3460627496242523,1.6938273906707764,-84,9999.0,-3.803711414337158,29,8491.0
14140,0.34588944911956787,-0.8376628160476685,56,9999.0,-2.759763240814209,-136,8491.0
14150,0.3456858992576599,-0.9335856437683105,-50,9999.0,-3.125725746154785,55,8491.0
14160,0.34550485014915466,-3.1169590950012207,13,9999.0,0.3530959486961365,33,8491.0
14170,0.3448379635810852,1.4593138694763184,93,9999.0,-0.7063800096511841,-80,8491.0
14180,0.3447030782699585,4.001502990722656,9,9999.0,2.9222381114959717,165,8491.0
14190,0.3444962501525879,4.661840438842773,235,9999.0,5.841846942901611,-90,8491.0
14200,0.34421101212501526,5.225065231323242,34,9999.0,3.6748194694519043,156,8491.0
14210,0.34416884183883667,5.409604549407959,41,9999.0,3.593280792236328,71,8491.0
