timestamp,kalman.stateZ,gyro.x,gyro.xRaw,gyro.xVariance,gyro.y,gyro.yRaw,gyro.yVariance
0,0.3285580277442932,-0.3275904655456543,1,7127.0,1.8073593378067017,33,9950.0
10,0.32709091901779175,-0.1582639366388321,-3,7127.0,1.8610013723373413,31,9950.0
20,0.3271661400794983,0.09555608034133911,8,7127.0,1.8899587392807007,28,9950.0
30,0.3272240161895752,-0.025303805246949196,11,7127.0,1.80363929271698,28,9950.0
40,0.32725805044174194,0.3807521462440491,8,7127.0,1.9431483745574951,25,9950.0
50,0.3266797959804535,-0.20815789699554443,1,7127.0,1.4786831140518188,25,9950.0
60,0.3266758918762207,-0.30448734760284424,-1,7127.0,1.4473907947540283,28,9950.0
70,0.32667356729507446,-0.09203815460205078,6,7127.0,1.0271998643875122,14,9950.0
80,0.3266751170158386,0.07349124550819397,2,7127.0,0.9656108617782593,14,9950.0
90,0.32555869221687317,0.1359904259443283,7,7127.0,0.4465424120426178,17,9950.0
100,0.3255327343940735,-0.3144809305667877,0,7127.0,0.054745107889175415,7,9950.0
110,0.325486421585083,-0.1298772096633911,-1,7127.0,-0.23863963782787323,-1,9950.0
120,0.32545730471611023,-0.1390533745288849,6,7127.0,-0.39456015825271606,-5,9950.0
130,0.3254221975803375,-0.06361463665962219,5,7127.0,-0.7757387757301331,-13,9950.0
140,0.3259328007698059,0.15900243818759918,7,7127.0,-0.8286252617835999,-16,9950.0
150,0.3259321451187134,-0.10450758039951324,-5,7127.0,-1.0886033773422241,-23,9950.0
160,0.3259296417236328,-0.3094494044780731,-2,7127.0,-1.2993485927581787,-21,9950.0
170,0.3259226083755493,-0.139714777469635,8,7127.0,-1.131622314453125,-23,9950.0
180,0.3262580335140228,0.1485167145729065,3,7127.0,-1.3126999139785767,-23,9950.0
190,0.3262713849544525,-0.131097674369812,6,7127.0,-1.266192078590393,-11,9950.0
200,0.32628491520881653,2.694866180419922,34,7127.0,-4.700960159301758,-99,9950.0
210,0.3263114392757416,1.7271144390106201,29,7127.0,-9.83178424835205,-180,9950.0
220,0.32635921239852905,3.099388360977173,61,7127.0,-17.91057777404785,-355,9950.0
230,0.325024276971817,1.981250286102295,38,7127.0,-28.481294631958008,-508,9950.0
240,0.32509317994117737,2.9160194396972656,2,7127.0,-40.3873176574707,-688,9950.0
250,0.3252188265323639,1.4967161417007446,21,7127.0,-49.955745697021484,-858,9950.0
260,0.3254704475402832,4.0318989753723145,5,7127.0,-57.82227325439453,-937,9950.0
270,0.32640108466148376,1.302756905555725,-24,7127.0,-55.12102508544922,-892,9950.0
280,0.32701748609542847,1.006540298461914,72,7127.0,-50.50829315185547,-794,9950.0
290,0.3272188901901245,1.720758318901062,111,7127.0,-39.32014083862305,-639,9950.0
300,0.32796216011047363,3.452970027923584,74,7127.0,-22.564027786254883,-421,9950.0
310,0.329826295375824,4.373303413391113,154,7127.0,-6.195288181304932,-196,9950.0
320,0.33051738142967224,7.0770769119262695,115,7127.0,9.291329383850098,153,9950.0
330,0.3312661945819855,6.8035383224487305,157,7127.0,20.93979835510254,214,9950.0
340,0.3323048949241638,7.912848949432373,138,7127.0,31.765684127807617,519,9950.0
350,0.333109587430954,3.0713164806365967,170,7127.0,34.4118537902832,493,9950.0
360,0.3347230553627014,-0.20791471004486084,41,7127.0,34.88616180419922,540,9950.0
370,0.3355013132095337,-0.7836416363716125,-65,7127.0,29.966535568237305,633,9950.0
380,0.3361714780330658,2.4108781814575195,-17,7127.0,19.841569900512695,431,9950.0
390,0.33675915002822876,-0.10637237876653671,-31,7127.0,7.40861177444458,153,9950.0
400,0.3361188769340515,-0.4759299159049988,54,7127.0,-4.822407245635986,-301,9950.0
410,0.33645325899124146,-0.1860433965921402,49,7127.0,-14.582554817199707,-529,9950.0
420,0.3366880416870117,-1.3823562860488892,20,7127.0,-21.75620460510254,-408,9950.0
430,0.33688613772392273,-0.9108885526657104,-28,7127.0,-30.00119400024414,-335,9950.0
440,0.3369980752468109,0.4259670376777649,19,7127.0,-28.273611068725586,-369,9950.0
450,0.3362963795661926,-2.5902490615844727,6,7127.0,-24.82196044921875,-305,9950.0
460,0.33643844723701477,-1.9824832677841187,-57,7127.0,-17.563194274902344,-202,9950.0
470,0.33661678433418274,-3.158409595489502,-24,7127.0,-6.713864803314209,-175,9950.0
480,0.3368833363056183,-1.2082207202911377,3,7127.0,2.7479567527770996,55,9950.0
490,0.3384215533733368,-0.28788167238235474,-17,7127.0,11.93211555480957,221,9950.0
500,0.33857235312461853,-0.6611745953559875,18,7127.0,19.45217514038086,412,9950.0
510,0.3387654721736908,-1.2192614078521729,-55,7127.0,22.58500099182129,523,9950.0
520,0.3389565050601959,-2.345705270767212,-43,7127.0,25.287532806396484,537,9950.0
530,0.3389632999897003,-0.9756456017494202,-42,7127.0,23.270124435424805,564,9950.0
540,0.33908191323280334,0.39880260825157166,-73,7127.0,17.262672424316406,322,9950.0
550,0.339147686958313,-0.3603512644767761,-16,7127.0,13.567906379699707,277,9950.0
560,0.3389735221862793,1.9893335103988647,-39,7127.0,5.197573661804199,80,9950.0
570,0.33933037519454956,2.0563266277313232,-3,7127.0,-1.8429886102676392,21,9950.0
580,0.3407505452632904,-0.8231140971183777,-109,7127.0,-9.749942779541016,-27,9950.0
590,0.34060269594192505,-0.29523488879203796,-47,7127.0,-15.890470504760742,-162,9950.0
600,0.3404250741004944,2.465231418609619,11,7127.0,-22.098331451416016,-198,9950.0
610,0.3402554988861084,3.244256019592285,-24,7127.0,-24.391359329223633,-348,9950.0
620,0.3388233780860901,2.449049234390259,-79,7127.0,-22.45738410949707,-315,9950.0
630,0.33849048614501953,3.215808868408203,51,7127.0,-19.431787490844727,-202,9950.0
640,0.33831846714019775,2.4113311767578125,-43,7127.0,-16.476303100585938,-103,9950.0
650,0.33815649151802063,1.3560948371887207,61,7127.0,-10.371114730834961,-2,9950.0
660,0.33814194798469543,2.040729522705078,-32,7127.0,-5.537429332733154,61,9950.0
670,0.3404098153114319,-1.082497477531433,27,7127.0,-0.7595499157905579,112,9950.0
680,0.34063053131103516,-0.8495374917984009,-34,7127.0,4.472771167755127,47,9950.0
690,0.34064003825187683,-0.846308171749115,-56,7127.0,6.773315906524658,200,9950.0
700,0.3406503200531006,-2.3770811557769775,-76,7127.0,7.7947235107421875,152,9950.0
710,0.341196745634079,-2.527059555053711,-103,7127.0,5.056335926055908,195,9950.0
720,0.34130942821502686,-4.004368305206299,0,7127.0,2.4716053009033203,204,9950.0
730,0.341438889503479,-0.312344491481781,-77,7127.0,0.08224949240684509,30,9950.0
740,0.34166595339775085,-1.417763352394104,67,7127.0,-2.375894069671631,-146,9950.0
750,0.3415115773677826,-0.15350006520748138,-92,7127.0,-5.0134992599487305,-76,9950.0
760,0.34177064895629883,-2.6626107692718506,-53,7127.0,-2.8916444778442383,-133,9950.0
770,0.3422601819038391,-0.6496420502662659,-107,7127.0,-4.199026584625244,-13,9950.0
780,0.3425949513912201,-2.725020408630371,-64,7127.0,-2.613466501235962,-117,9950.0
790,0.34304770827293396,1.5090190172195435,-45,7127.0,1.4708346128463745,-26,9950.0
800,0.34375,-1.4656851291656494,56,7127.0,3.785012722015381,-19,9950.0
810,0.3444153964519501,-1.0507434606552124,-44,7127.0,8.101317405700684,-31,9950.0
820,0.3451091945171356,-0.7579135894775391,66,7127.0,7.046167373657227,88,9950.0
830,0.3457655906677246,-0.8785908222198486,60,7127.0,10.113579750061035,25,9950.0
840,0.34435635805130005,0.6654871702194214,91,7127.0,9.784831047058105,148,9950.0
850,0.34487786889076233,-1.011868953704834,1,7127.0,9.800016403198242,12,9950.0
860,0.3454485535621643,-1.3533509969711304,20,7127.0,8.158881187438965,32,9950.0
870,0.34605154395103455,-1.9593994617462158,55,7127.0,7.082494735717773,-129,9950.0
880,0.34532788395881653,1.5379115343093872,78,7127.0,-0.09721618890762329,1,9950.0
890,0.345725417137146,0.6192197799682617,39,7127.0,0.2974995970726013,-155,9950.0
900,0.34598904848098755,2.946763277053833,143,7127.0,-2.2764089107513428,-49,9950.0
910,0.3461800813674927,0.20172779262065887,15,7127.0,-1.3383032083511353,-207,9950.0
920,0.3462753891944885,1.0984092950820923,89,7127.0,-3.9779186248779297,-185,9950.0
930,0.34465494751930237,0.7716349959373474,12,7127.0,-3.4739818572998047,-232,9950.0
940,0.3445691168308258,1.5292344093322754,64,7127.0,-6.612973213195801,-104,9950.0
950,0.34444525837898254,1.387851357460022,4,7127.0,-3.9068565368652344,-226,9950.0
960,0.3443261682987213,-2.2233896255493164,-27,7127.0,-6.367794513702393,-82,9950.0
970,0.34372854232788086,-2.7556264400482178,2,7127.0,-4.312039375305176,-325,9950.0
980,0.34349325299263,-3.392087936401367,-45,7127.0,-2.388029098510742,-85,9950.0
990,0.34320589900016785,-1.429018259048462,48,7127.0,-2.1267249584198,-200,9950.0
1000,0.3428243398666382,0.9254333972930908,-21,7127.0,-0.24124442040920258,-128,9950.0
1010,0.3424333333969116,2.1063077449798584,111,7127.0,-2.288364887237549,-109,9950.0
1020,0.3414468467235565,1.1451876163482666,5,7127.0,-2.745349407196045,-188,9950.0
1030,0.34101223945617676,-0.037262167781591415,28,7127.0,-1.3962465524673462,-102,9950.0
1040,0.34058186411857605,-1.5878812074661255,76,7127.0,-0.06648995727300644,-164,9950.0
1050,0.340112566947937,-3.2833120822906494,-63,7127.0,-2.902467727661133,-108,9950.0
1060,0.3401453495025635,-2.3133671283721924,38,7127.0,-1.398727297782898,-110,9950.0
1070,0.3396977484226227,-3.0015461444854736,13,7127.0,0.9209583401679993,-231,9950.0
1080,0.3392985463142395,-0.6910771727561951,118,7127.0,-3.714611291885376,72,9950.0
1090,0.3389309346675873,1.9847298860549927,161,7127.0,2.494248151779175,-7,9950.0
1100,0.34105589985847473,2.782803773880005,23,7127.0,2.3124399185180664,19,9950.0
1110,0.3408810794353485,2.9096121788024902,94,7127.0,2.971428394317627,55,9950.0
1120,0.3406934440135956,0.21696051955223083,-5,7127.0,2.2404961585998535,117,9950.0
1130,0.3404664397239685,0.8574442863464355,-112,7127.0,-0.5797281265258789,102,9950.0
1140,0.3402109146118164,-1.781921148300171,-16,7127.0,4.354198932647705,154,9950.0
1150,0.3412040174007416,-1.401892900466919,-112,7127.0,2.716414213180542,84,9950.0
1160,0.3411165475845337,-2.553989887237549,-74,7127.0,3.5145509243011475,268,9950.0
1170,0.3410278558731079,-2.792652130126953,-123,7127.0,2.655806064605713,169,9950.0
1180,0.34089362621307373,0.5414924621582031,-48,7127.0,5.423553466796875,146,9950.0
1190,0.3431493639945984,-0.226040318608284,-49,7127.0,5.496896743774414,211,9950.0
1200,0.34302476048469543,2.0740623474121094,106,7127.0,8.431706428527832,96,9950.0
1210,0.3428637981414795,-0.44878533482551575,12,7127.0,8.455336570739746,-96,9950.0
1220,0.3427000045776367,0.7791382074356079,86,7127.0,6.327051162719727,27,9950.0
1230,0.34253212809562683,-0.08371137827634811,117,7127.0,4.508810997009277,-9,9950.0
1240,0.34243854880332947,1.3642630577087402,14,7127.0,3.336472511291504,52,9950.0
1250,0.3422103226184845,-0.9381808638572693,42,7127.0,1.1290946006774902,66,9950.0
1260,0.3419193923473358,-1.6932737827301025,-89,7127.0,-3.3483786582946777,69,9950.0
1270,0.34157317876815796,-0.9219565391540527,-59,7127.0,-4.846761226654053,82,9950.0
1280,0.34200534224510193,-2.369392156600952,-86,7127.0,-2.2242603302001953,168,9950.0
1290,0.3418104350566864,1.233379602432251,-4,7127.0,-2.5362355709075928,-5,9950.0
1300,0.3415968716144562,1.1332308053970337,-24,7127.0,1.4844238758087158,10,9950.0
1310,0.3413841724395752,1.9952396154403687,105,7127.0,2.8227672576904297,-131,9950.0
1320,0.34378814697265625,0.5865386128425598,162,7127.0,3.574368476867676,-113,9950.0
1330,0.3435644805431366,7.131107807159424,88,7127.0,-0.11960125714540482,41,9950.0
1340,0.34324169158935547,1.4876534938812256,59,7127.0,0.4971386194229126,68,9950.0
1350,0.34309881925582886,-1.89565908908844,-98,7127.0,-4.272609710693359,-80,9950.0
1360,0.3427996337413788,-1.6326758861541748,-121,7127.0,-8.058425903320312,-12,9950.0
1370,0.3431149125099182,-3.5154476165771484,-111,7127.0,-4.666947364807129,73,9950.0
1380,0.34298011660575867,-1.87882661819458,-8,7127.0,-7.486165523529053,-164,9950.0
1390,0.3429184854030609,-0.3209875822067261,13,7127.0,-6.487675666809082,-77,9950.0
1400,0.3427713215351105,0.18584482371807098,80,7127.0,-5.798242568969727,-229,9950.0
1410,0.3442695140838623,2.390777111053467,173,7127.0,-5.52177095413208,-230,9950.0
1420,0.34421437978744507,2.182558059692383,35,7127.0,-2.5102710723876953,-54,9950.0
1430,0.3441413342952728,1.2205828428268433,-106,7127.0,0.28556978702545166,89,9950.0
1440,0.34409430623054504,0.7046201229095459,-4,7127.0,0.1473502665758133,91,9950.0
1450,0.34408673644065857,1.7466295957565308,-73,7127.0,2.963508129119873,-31,9950.0
1460,0.34480270743370056,-0.7266469597816467,-59,7127.0,0.6543635129928589,125,9950.0
1470,0.3447193205356598,-0.6153097748756409,23,7127.0,3.742743492126465,113,9950.0
1480,0.3445937931537628,-1.2428607940673828,97,7127.0,2.9724419116973877,-36,9950.0
1490,0.34446245431900024,-3.4963624477386475,23,7127.0,2.4508535861968994,-68,9950.0
1500,0.3453834056854248,-2.2955756187438965,75,7127.0,0.6864104866981506,10,9950.0
1510,0.34519922733306885,-0.09920978546142578,93,7127.0,-0.25462961196899414,-76,9950.0
1520,0.34498006105422974,0.9113433361053467,-56,7127.0,-4.215053558349609,-26,9950.0
1530,0.3447985053062439,1.737057089805603,-1,7127.0,-2.6674201488494873,145,9950.0
1540,0.3455469608306885,-0.0736473798751831,-81,7127.0,-2.7238881587982178,77,9950.0
1550,0.3455408811569214,-0.3332066237926483,-140,7127.0,-3.0852179527282715,-87,9950.0
1560,0.3456767499446869,-2.5678582191467285,-104,7127.0,3.160510301589966,56,9950.0
1570,0.34590402245521545,-4.029405117034912,27,7127.0,4.551390647888184,0,9950.0
1580,0.34608566761016846,-2.97465443611145,25,7127.0,4.084137916564941,-157,9950.0
1590,0.34654131531715393,-0.7023187279701233,-2,7127.0,1.068765640258789,72,9950.0
1600,0.34668105840682983,0.46661022305488586,182,7127.0,3.245896816253662,83,9950.0
1610,0.3467234969139099,1.7649788856506348,38,7127.0,3.807615041732788,9,9950.0
1620,0.34668946266174316,5.100252628326416,32,7127.0,0.7532501220703125,90,9950.0
1630,0.3471750020980835,3.001854181289673,51,7127.0,4.562129020690918,265,9950.0
1640,0.34721022844314575,2.389291763305664,-49,7127.0,4.101037979125977,64,9950.0
1650,0.3472347557544708,-0.4123850464820862,-75,7127.0,5.039891719818115,138,9950.0
1660,0.34728583693504333,-3.292736768722534,-24,7127.0,4.994337558746338,72,9950.0
1670,0.34736308455467224,-3.8918676376342773,-4,7127.0,2.242910385131836,-167,9950.0
1680,0.3465116024017334,-3.4960553646087646,11,7127.0,2.723137378692627,5,9950.0
1690,0.3465391993522644,-0.3985092043876648,110,7127.0,0.41444769501686096,-56,9950.0
1700,0.346535325050354,1.074569582939148,64,7127.0,1.9850407838821411,-105,9950.0
1710,0.3465956151485443,1.4227187633514404,8,7127.0,0.8452911972999573,4,9950.0
1720,0.345553457736969,-0.6378270387649536,68,7127.0,-3.3407142162323,97,9950.0
1730,0.3454486131668091,2.3498616218566895,-69,7127.0,-3.321193218231201,6,9950.0
1740,0.34524643421173096,1.8408604860305786,5,7127.0,-5.576302528381348,27,9950.0
1750,0.34499096870422363,1.392835021018982,-8,7127.0,-3.4314067363739014,51,9950.0
1760,0.34449803829193115,-0.16962486505508423,-50,7127.0,-2.528571844100952,-34,9950.0
1770,0.3442698121070862,-2.931795835494995,-95,7127.0,-2.5455892086029053,-80,9950.0
1780,0.3440128266811371,-0.5473491549491882,74,7127.0,0.1334809958934784,-42,9950.0
1790,0.3438325822353363,-2.6694424152374268,-6,7127.0,-0.7473563551902771,-224,9950.0
1800,0.343677818775177,-0.26449230313301086,47,7127.0,-1.6406797170639038,-96,9950.0
1810,0.34408387541770935,-0.45190268754959106,142,7127.0,-2.1843342781066895,-69,9950.0
1820,0.3439868092536926,0.3740544319152832,49,7127.0,-2.8415751457214355,13,9950.0
1830,0.3439369797706604,4.172937393188477,-40,7127.0,-1.027011752128601,117,9950.0
1840,0.3438323438167572,-0.2523476183414459,13,7127.0,-1.7649307250976562,41,9950.0
1850,0.3438383936882019,0.6935709118843079,-90,7127.0,0.18959060311317444,76,9950.0
1860,0.34376057982444763,-0.6678356528282166,-82,7127.0,2.271792411804199,231,9950.0
1870,0.3436013162136078,2.6483638286590576,-50,7127.0,1.599804401397705,160,9950.0
1880,0.34341228008270264,3.0830352306365967,-43,7127.0,3.0390217304229736,131,9950.0
1890,0.3432356119155884,-1.2342203855514526,-9,7127.0,5.241055011749268,93,9950.0
1900,0.3433660566806793,-0.42770686745643616,71,7127.0,1.624580979347229,-87,9950.0
1910,0.34326350688934326,-3.039881944656372,7,7127.0,3.9491994380950928,-54,9950.0
1920,0.3432648777961731,-3.3225088119506836,36,7127.0,2.523268222808838,49,9950.0
1930,0.34332147240638733,0.09024590998888016,4,7127.0,2.779224157333374,-33,9950.0
1940,0.34366288781166077,1.9379260540008545,-4,7127.0,2.4972572326660156,35,9950.0
1950,0.34388548135757446,4.582454204559326,53,7127.0,-0.9061114192008972,36,9950.0
1960,0.34406766295433044,0.9915921688079834,-28,7127.0,-0.34737151861190796,128,9950.0
1970,0.3442184031009674,2.3022477626800537,-117,7127.0,-3.74143385887146,9,9950.0
1980,0.34349218010902405,-2.1933400630950928,-83,7127.0,-2.111855983734131,119,9950.0
1990,0.34366297721862793,-4.425922870635986,-55,7127.0,-2.898176908493042,13,9950.0
2000,0.34373170137405396,-3.169062614440918,-105,7127.0,-0.17266255617141724,-27,9950.0
2010,0.34376540780067444,0.142677903175354,11,7127.0,1.9344402551651,55,9950.0
2020,0.34373894333839417,0.1936453878879547,80,7127.0,5.477469444274902,-110,9950.0
2030,0.3449649512767792,1.810210943222046,37,7127.0,7.501107215881348,13,9950.0
2040,0.344798743724823,2.7648186683654785,144,7127.0,5.006943225860596,-24,9950.0
2050,0.34454238414764404,-0.4144939184188843,102,7127.0,9.351058959960938,-19,9950.0
2060,0.3442099988460541,4.404836177825928,41,7127.0,4.968714714050293,69,9950.0
2070,0.3432655930519104,-0.8403137922286987,70,7127.0,5.792296409606934,-79,9950.0
2080,0.34299221634864807,-1.7906218767166138,-138,7127.0,2.2594566345214844,18,9950.0
2090,0.34275752305984497,-3.4805781841278076,-90,7127.0,0.9649956226348877,61,9950.0
2100,0.34262704849243164,-4.166205406188965,-163,7127.0,-2.8314249515533447,10,9950.0
2110,0.3424563705921173,-0.7005990743637085,-81,7127.0,-5.604765892028809,13,9950.0
2120,0.3440401256084442,1.6869592666625977,17,7127.0,-3.7737276554107666,75,9950.0
2130,0.3439188003540039,2.585578680038452,-73,7127.0,-7.084328651428223,0,9950.0
2140,0.3436807692050934,-0.5528279542922974,-60,7127.0,-4.025509357452393,-34,9950.0
2150,0.34336426854133606,1.214959979057312,105,7127.0,-5.139289855957031,-131,9950.0
2160,0.3430495858192444,-0.09586937725543976,-26,7127.0,1.1886171102523804,3,9950.0
2170,0.34286022186279297,-0.3336065113544464,83,7127.0,0.9269232153892517,6,9950.0
2180,0.3427254855632782,1.1558641195297241,93,7127.0,2.6308069229125977,-281,9950.0
2190,0.34261131286621094,-1.6618379354476929,18,7127.0,1.6789706945419312,-67,9950.0
2200,0.34462636709213257,4.627252578735352,138,7127.0,-1.7470331192016602,-25,9950.0
2210,0.3446822464466095,-0.9554997086524963,105,7127.0,3.1116907596588135,-84,9950.0
2220,0.34470945596694946,1.419264793395996,-79,7127.0,-1.5510954856872559,60,9950.0
2230,0.34475529193878174,-1.0908987522125244,7,7127.0,-2.2890658378601074,99,9950.0
2240,0.34478360414505005,0.7567964196205139,-61,7127.0,-2.4048666954040527,34,9950.0
2250,0.3444979190826416,-2.4589626789093018,-138,7127.0,-2.523401975631714,97,9950.0
2260,0.3445170223712921,-0.8460652828216553,-90,7127.0,-2.4245874881744385,122,9950.0
2270,0.3445832133293152,1.6253467798233032,21,7127.0,-3.3148279190063477,-129,9950.0
2280,0.3446970283985138,0.9976423382759094,-21,7127.0,0.08863870799541473,-43,9950.0
2290,0.34486544132232666,4.510526180267334,120,7127.0,-7.267646312713623,-128,9950.0
2300,0.3448309600353241,-1.4149713516235352,-14,7127.0,1.808412790298462,-60,9950.0
2310,0.3447307050228119,-1.3119162321090698,18,7127.0,2.8536150455474854,23,9950.0
2320,0.3445555865764618,-1.4851670265197754,101,7127.0,6.367064476013184,-119,9950.0
2330,0.3443315923213959,-1.913217544555664,34,7127.0,4.140868186950684,-8,9950.0
2340,0.3428368866443634,3.782320022583008,103,7127.0,3.384819984436035,181,9950.0
2350,0.34267890453338623,1.4052929878234863,103,7127.0,3.6840856075286865,-50,9950.0
2360,0.34249311685562134,-0.3870813548564911,-18,7127.0,6.325255393981934,27,9950.0
2370,0.3422028124332428,-2.7798497676849365,-6,7127.0,3.540029764175415,200,9950.0
2380,0.3423156440258026,-1.611892580986023,-140,7127.0,-0.8136134743690491,133,9950.0
2390,0.34190207719802856,-2.8245954513549805,-101,7127.0,-0.47669580578804016,149,9950.0
2400,0.341434508562088,-0.3170296847820282,-60,7127.0,1.3136636018753052,42,9950.0
2410,0.3410336971282959,1.4872840642929077,-49,7127.0,0.04217185825109482,54,9950.0
2420,0.3415244519710541,0.5850294828414917,5,7127.0,1.187737226486206,108,9950.0
2430,0.3410860598087311,2.5031344890594482,86,7127.0,-2.618314266204834,-162,9950.0
2440,0.3406721353530884,-0.6859142780303955,-18,7127.0,1.4787439107894897,-90,9950.0
2450,0.3402571976184845,4.027596473693848,160,7127.0,-1.234547734260559,-59,9950.0
2460,0.33976733684539795,-1.7653145790100098,48,7127.0,2.7401692867279053,-107,9950.0
2470,0.3417583107948303,-2.370952606201172,-67,7127.0,-0.15842270851135254,1,9950.0
2480,0.34143051505088806,-3.937197208404541,52,7127.0,1.1867806911468506,94,9950.0
2490,0.341142475605011,-3.3775722980499268,-29,7127.0,2.1894445419311523,145,9950.0
2500,0.3409311771392822,2.4061391353607178,-14,7127.0,0.7129300236701965,114,9950.0
2510,0.3420618176460266,1.994978427886963,-13,7127.0,2.1941943168640137,197,9950.0
2520,0.34195029735565186,2.9319019317626953,-18,7127.0,0.15312086045742035,52,9950.0
2530,0.34187623858451843,-0.6944410800933838,-105,7127.0,0.9745437502861023,46,9950.0
2540,0.34189683198928833,0.06392847746610641,22,7127.0,-0.8913200497627258,-100,9950.0
2550,0.3417055308818817,-0.7260262370109558,102,7127.0,-0.977500855922699,-92,9950.0
2560,0.34277501702308655,-1.2251522541046143,32,7127.0,-0.7636957168579102,-37,9950.0
2570,0.3426051139831543,-1.9090064764022827,85,7127.0,-0.15118929743766785,-300,9950.0
2580,0.34242844581604004,-2.0182485580444336,24,7127.0,-1.758001685142517,-116,9950.0
2590,0.3424106538295746,1.3708182573318481,5,7127.0,-2.463715076446533,26,9950.0
2600,0.3434874713420868,0.16775919497013092,80,7127.0,0.7143250703811646,-96,9950.0
2610,0.3436025381088257,2.141770839691162,-59,7127.0,-2.2169759273529053,19,9950.0
2620,0.343706339597702,-0.06262524425983429,82,7127.0,2.1459569931030273,110,9950.0
2630,0.34376201033592224,0.2933838963508606,-110,7127.0,2.5523269176483154,60,9950.0
2640,0.34382015466690063,0.06728728860616684,-169,7127.0,3.620973825454712,108,9950.0
2650,0.34373989701271057,1.1380952596664429,-75,7127.0,3.4896111488342285,148,9950.0
2660,0.34369224309921265,-0.004076509736478329,-65,7127.0,0.25544336438179016,66,9950.0
2670,0.3436032831668854,-1.4975385665893555,-129,7127.0,-0.29420337080955505,158,9950.0
2680,0.34338465332984924,2.9320356845855713,63,7127.0,1.8917412757873535,-29,9950.0
2690,0.3437372148036957,-0.6620810627937317,-68,7127.0,-1.5438098907470703,153,9950.0
2700,0.3433859944343567,0.8421227335929871,68,7127.0,-0.2551787793636322,65,9950.0
2710,0.3429639935493469,-1.339187502861023,12,7127.0,0.41182005405426025,-118,9950.0
2720,0.342520534992218,-3.0332963466644287,-25,7127.0,0.9589114189147949,-25,9950.0
2730,0.34246018528938293,0.2522318661212921,158,7127.0,0.6032499074935913,-208,9950.0
2740,0.34220677614212036,-0.8053297400474548,79,7127.0,2.718456983566284,35,9950.0
2750,0.34206029772758484,1.2656407356262207,87,7127.0,0.36309003829956055,7,9950.0
2760,0.34186938405036926,-0.7520574331283569,64,7127.0,4.815218448638916,-136,9950.0
2770,0.34163546562194824,3.11953067779541,-63,7127.0,-1.8937238454818726,96,9950.0
2780,0.3411368131637573,-1.7761869430541992,99,7127.0,1.0661615133285522,-72,9950.0
2790,0.34082791209220886,2.9774460792541504,-28,7127.0,-2.3924050331115723,66,9950.0
2800,0.34071892499923706,1.0889431238174438,40,7127.0,1.3451931476593018,-9,9950.0
2810,0.34055012464523315,-0.1249082162976265,-62,7127.0,0.5624343752861023,62,9950.0
2820,0.3398169279098511,0.7826799154281616,-20,7127.0,-4.340221405029297,161,9950.0
2830,0.3396395742893219,-0.5931578278541565,-91,7127.0,-4.0419769287109375,20,9950.0
2840,0.3394239544868469,1.1047922372817993,-78,7127.0,-4.039794921875,-56,9950.0
2850,0.33910784125328064,0.45186614990234375,-54,7127.0,-2.5663750171661377,97,9950.0
2860,0.34112444519996643,0.8220097422599792,24,7127.0,-3.987509250640869,-98,9950.0
2870,0.3409062623977661,-1.001701831817627,-50,7127.0,-1.4889190196990967,-139,9950.0
2880,0.34069544076919556,1.596879482269287,89,7127.0,-3.3814492225646973,-180,9950.0
2890,0.340559184551239,-1.2556686401367188,97,7127.0,0.14245551824569702,-175,9950.0
2900,0.3404045104980469,4.0567803382873535,77,7127.0,2.144531011581421,37,9950.0
2910,0.34154871106147766,3.28126859664917,31,7127.0,2.485957622528076,15,9950.0
2920,0.3413318693637848,-0.21862778067588806,7,7127.0,4.479651927947998,-71,9950.0
2930,0.34110382199287415,0.5926608443260193,47,7127.0,0.26116979122161865,146,9950.0
2940,0.34078437089920044,-4.37522029876709,81,7127.0,3.6221272945404053,28,9950.0
2950,0.34304794669151306,1.225792407989502,-65,7127.0,3.620041847229004,100,9950.0
2960,0.34288787841796875,-2.5117671489715576,-47,7127.0,4.718746662139893,113,9950.0
2970,0.34273064136505127,-2.3595805168151855,-120,7127.0,3.1824467182159424,102,9950.0
2980,0.3425668179988861,-1.8156331777572632,-50,7127.0,3.469895124435425,247,9950.0
2990,0.34259849786758423,-1.4106260538101196,-110,7127.0,3.6926164627075195,135,9950.0
3000,0.34322986006736755,1.09920072555542,-47,7127.0,0.27571234107017517,42,9950.0
3010,0.34304410219192505,1.7948333024978638,10,7127.0,4.339053630828857,173,9950.0
3020,0.3428395986557007,2.379115581512451,62,7127.0,4.060928821563721,25,9950.0
3030,0.34260186553001404,0.7409844994544983,-15,7127.0,5.609437465667725,11,9950.0
3040,0.3442462980747223,0.8859741687774658,79,7127.0,3.8802056312561035,2,9950.0
3050,0.3441790044307709,-1.8117305040359497,31,7127.0,4.9824371337890625,-91,9950.0
3060,0.3441147208213806,-1.4854562282562256,18,7127.0,4.72758674621582,77,9950.0
3070,0.34414908289909363,-2.0239980220794678,58,7127.0,4.367713451385498,-84,9950.0
3080,0.34412139654159546,-2.016697645187378,-41,7127.0,3.021667003631592,-5,9950.0
3090,0.3441937565803528,0.4149549901485443,143,7127.0,1.958768606185913,102,9950.0
3100,0.3443370461463928,1.0154696702957153,12,7127.0,1.0941208600997925,5,9950.0
3110,0.3444976508617401,3.7901036739349365,-12,7127.0,-0.8746477365493774,70,9950.0
3120,0.3446008265018463,1.118528127670288,40,7127.0,-3.173102617263794,-30,9950.0
3130,0.34516191482543945,2.050377130508423,-75,7127.0,-7.064542770385742,60,9950.0
3140,0.34510859847068787,-0.5562999248504639,-28,7127.0,-4.835555553436279,93,9950.0
3150,0.34512752294540405,1.673528790473938,-65,7127.0,-8.632230758666992,-75,9950.0
3160,0.34522947669029236,-2.840022563934326,-62,7127.0,-6.325387477874756,106,9950.0
3170,0.3455807566642761,-0.2436891794204712,61,7127.0,-4.55901575088501,42,9950.0
3180,0.34564828872680664,-1.12140953540802,-99,7127.0,-3.9464163780212402,68,9950.0
3190,0.3456518352031708,0.44217970967292786,37,7127.0,-3.514071226119995,28,9950.0
3200,0.34559521079063416,2.2676186561584473,100,7127.0,-2.801523208618164,-3,9950.0
3210,0.3455902636051178,0.3216460049152374,-4,7127.0,-0.14122183620929718,175,9950.0
3220,0.3441636562347412,0.6387742757797241,7,7127.0,-3.5539724826812744,-28,9950.0
3230,0.34419214725494385,-1.2791602611541748,-86,7127.0,-1.9492783546447754,117,9950.0
3240,0.3442522883415222,-0.030732998624444008,11,7127.0,-1.4293934106826782,-57,9950.0
3250,0.3442419171333313,-2.123244285583496,69,7127.0,-3.439185857772827,-65,9950.0
3260,0.34251877665519714,2.8633673191070557,58,7127.0,-2.021528959274292,-1,9950.0
3270,0.342447429895401,0.045195188373327255,-3,7127.0,-2.780385732650757,-33,9950.0
3280,0.3424129784107208,-1.6543644666671753,-16,7127.0,-1.561841368675232,41,9950.0
3290,0.3424546718597412,-0.6748092174530029,37,7127.0,-1.6803637742996216,-177,9950.0
3300,0.34188112616539,-1.008392095565796,-89,7127.0,-0.7169409394264221,1,9950.0
3310,0.3418271541595459,1.8374650478363037,117,7127.0,-2.2408857345581055,48,9950.0
3320,0.3418629765510559,0.11569753289222717,-32,7127.0,0.7064923048019409,36,9950.0
3330,0.34191322326660156,-0.47632402181625366,49,7127.0,2.6429262161254883,111,9950.0
3340,0.34191471338272095,-0.6612375378608704,31,7127.0,2.3588597774505615,117,9950.0
3350,0.34074386954307556,0.024307403713464737,24,7127.0,6.200998306274414,41,9950.0
3360,0.3406547009944916,-1.891770601272583,109,7127.0,4.824012279510498,43,9950.0
3370,0.3406211733818054,1.0224119424819946,51,7127.0,6.795170307159424,185,9950.0
3380,0.3405539393424988,2.101830244064331,118,7127.0,5.512882709503174,-33,9950.0
3390,0.3411039113998413,0.983367919921875,11,7127.0,7.608153820037842,136,9950.0
3400,0.3410893678665161,1.129077434539795,112,7127.0,5.401999473571777,-33,9950.0
3410,0.34104210138320923,-1.5834873914718628,40,7127.0,5.8531622886657715,-34,9950.0
3420,0.34091976284980774,0.9452840685844421,152,7127.0,-0.7410525679588318,-29,9950.0
3430,0.34067636728286743,-1.382407784461975,15,7127.0,2.7491445541381836,-55,9950.0
3440,0.34165120124816895,-0.8854742646217346,-38,7127.0,1.499741792678833,-48,9950.0
3450,0.34136924147605896,-2.3052711486816406,53,7127.0,3.322960615158081,-200,9950.0
3460,0.3410855233669281,1.093074083328247,57,7127.0,-0.9845490455627441,-10,9950.0
3470,0.3408307433128357,-1.820192813873291,98,7127.0,0.6383296847343445,-131,9950.0
3480,0.34030386805534363,3.5699427127838135,28,7127.0,-3.9612796306610107,-39,9950.0
3490,0.33986201882362366,-2.4780397415161133,60,7127.0,-0.06761002540588379,-107,9950.0
3500,0.3393809199333191,1.645530104637146,-49,7127.0,-2.757162094116211,-33,9950.0
3510,0.3388711214065552,-0.5101962089538574,-126,7127.0,-3.981179714202881,37,9950.0
3520,0.33895057439804077,0.4681868851184845,-96,7127.0,-3.827321767807007,33,9950.0
3530,0.3384236991405487,1.9465333223342896,-32,7127.0,-5.298286437988281,153,9950.0
3540,0.3378150165081024,1.9570821523666382,-5,7127.0,-2.464167833328247,-11,9950.0
3550,0.33708828687667847,1.927088737487793,-85,7127.0,-2.3329920768737793,46,9950.0
3560,0.33636707067489624,0.22008642554283142,-45,7127.0,-0.7002361416816711,126,9950.0
3570,0.33950960636138916,-0.04062396287918091,-71,7127.0,-0.491451233625412,64,9950.0
3580,0.33921387791633606,-1.9046692848205566,-94,7127.0,0.791503369808197,85,9950.0
3590,0.33906397223472595,1.963660478591919,42,7127.0,0.1692522019147873,-121,9950.0
3600,0.3387870490550995,0.022946054115891457,6,7127.0,-0.8321225047111511,41,9950.0
3610,0.33991697430610657,-0.43745169043540955,84,7127.0,0.8168755769729614,40,9950.0
3620,0.33983322978019714,0.0988977700471878,15,7127.0,1.4353599548339844,-193,9950.0
3630,0.339822918176651,-0.474579393863678,34,7127.0,-0.4153863191604614,-77,9950.0
3640,0.3398723006248474,-3.327723264694214,134,7127.0,1.2700830698013306,-138,9950.0
3650,0.3400581181049347,-0.5643149018287659,42,7127.0,0.400493323802948,13,9950.0
3660,0.3416999280452728,0.4681214690208435,144,7127.0,-1.849828839302063,-105,9950.0
3670,0.34185290336608887,-1.0767369270324707,19,7127.0,-1.7454628944396973,-132,9950.0
3680,0.342048317193985,-1.714684009552002,-10,7127.0,-1.8396594524383545,27,9950.0
3690,0.34221580624580383,-2.431701898574829,9,7127.0,-2.7746198177337646,-122,9950.0
3700,0.3431084454059601,3.181326150894165,74,7127.0,-1.8597155809402466,127,9950.0
3710,0.34317126870155334,-1.721409797668457,116,7127.0,0.6484193801879883,11,9950.0
3720,0.3431943356990814,2.2102015018463135,-62,7127.0,1.3050317764282227,23,9950.0
3730,0.343246191740036,-1.2816067934036255,18,7127.0,1.3156092166900635,21,9950.0
3740,0.3448250889778137,-0.4101114869117737,-88,7127.0,1.2498749494552612,70,9950.0
3750,0.3450023829936981,-0.834843099117279,-89,7127.0,1.2662760019302368,215,9950.0
3760,0.34503090381622314,-1.2784050703048706,-97,7127.0,3.5916168689727783,58,9950.0
3770,0.34501293301582336,0.3748103380203247,-166,7127.0,1.4255927801132202,121,9950.0
3780,0.3450382351875305,1.0970031023025513,-37,7127.0,1.4123327732086182,20,9950.0
3790,0.34384796023368835,-0.7013780474662781,-86,7127.0,0.09493115544319153,147,9950.0
3800,0.3437998592853546,-0.40371307730674744,-25,7127.0,0.9075918197631836,135,9950.0
3810,0.343763530254364,2.6431829929351807,-18,7127.0,0.5238367915153503,200,9950.0
3820,0.34372857213020325,0.9136766195297241,-66,7127.0,-0.6338693499565125,86,9950.0
3830,0.3426515758037567,2.922623872756958,-57,7127.0,-2.4122095108032227,-9,9950.0
3840,0.34263917803764343,-2.62790584564209,-98,7127.0,-0.5888469815254211,120,9950.0
3850,0.3425624966621399,-1.9316624402999878,-8,7127.0,1.3893523216247559,86,9950.0
3860,0.3425007164478302,-2.720907211303711,-15,7127.0,-1.6521462202072144,141,9950.0
3870,0.34249991178512573,-0.4095086455345154,61,7127.0,-1.7890545129776,80,9950.0
3880,0.34280458092689514,1.3783154487609863,-38,7127.0,-1.7893989086151123,143,9950.0
3890,0.34295737743377686,3.144522190093994,-22,7127.0,-2.8965208530426025,-35,9950.0
3900,0.34302568435668945,2.4411559104919434,-32,7127.0,2.309264898300171,190,9950.0
3910,0.34306663274765015,1.264415979385376,41,7127.0,3.8748371601104736,94,9950.0
3920,0.3427109718322754,-0.4961790442466736,-42,7127.0,-0.21276147663593292,140,9950.0
3930,0.3427797257900238,0.4969685673713684,-3,7127.0,0.15368478000164032,45,9950.0
3940,0.34282252192497253,-0.26302358508110046,-105,7127.0,-0.775938093662262,65,9950.0
3950,0.34290575981140137,2.905747413635254,57,7127.0,-1.5550951957702637,-44,9950.0
3960,0.34266525506973267,-1.7916274070739746,-103,7127.0,-4.095057964324951,88,9950.0
3970,0.34295544028282166,0.19790299236774445,5,7127.0,-1.882081151008606,32,9950.0
3980,0.34321823716163635,-0.9951551556587219,-42,7127.0,-3.645642042160034,25,9950.0
3990,0.3434053957462311,-0.2666333317756653,40,7127.0,-4.06373405456543,46,9950.0
4000,0.34362760186195374,1.542175531387329,-26,7127.0,-4.635313510894775,-50,9950.0
4010,0.3428157567977905,0.8674396872520447,27,7127.0,-3.4028496742248535,-8,9950.0
4020,0.34297800064086914,1.069413185119629,-39,7127.0,-3.4864425659179688,-4,9950.0
4030,0.3431859016418457,1.6563942432403564,-9,7127.0,-0.26991304755210876,-38,9950.0
4040,0.3434585928916931,-0.6816103458404541,-76,7127.0,0.27078986167907715,152,9950.0
4050,0.34267187118530273,-2.2758662700653076,-49,7127.0,1.5241248607635498,250,9950.0
4060,0.34295427799224854,-3.154825448989868,-91,7127.0,1.1595455408096313,142,9950.0
4070,0.34328189492225647,-2.5160720348358154,18,7127.0,3.103348970413208,175,9950.0
4080,0.3436480462551117,2.98453950881958,-61,7127.0,1.8327414989471436,89,9950.0
4090,0.343973308801651,2.864164113998413,-4,7127.0,5.284793853759766,-12,9950.0
4100,0.3423894941806793,4.947246074676514,21,7127.0,4.108113765716553,65,9950.0
4110,0.3426629304885864,0.4460485875606537,43,7127.0,3.6120471954345703,244,9950.0
4120,0.3430321514606476,-0.86943519115448,-63,7127.0,4.395810604095459,69,9950.0
4130,0.3434753715991974,-4.217284202575684,54,7127.0,4.361011981964111,235,9950.0
4140,0.34299489855766296,1.2656468152999878,-33,7127.0,3.3315536975860596,79,9950.0
4150,0.3435308337211609,-2.951724052429199,56,7127.0,3.8472511768341064,-48,9950.0
4160,0.3440503776073456,-1.3672460317611694,-21,7127.0,2.7121570110321045,39,9950.0
4170,0.3445572853088379,-2.4651756286621094,26,7127.0,-0.004183942452073097,-161,9950.0
4180,0.34384843707084656,0.016954215243458748,19,7127.0,0.07719385623931885,-4,9950.0
4190,0.3442426025867462,1.7493342161178589,82,7127.0,1.0294318199157715,23,9950.0
4200,0.34460145235061646,3.522989273071289,91,7127.0,-2.0647337436676025,-89,9950.0
4210,0.3449077904224396,0.6502072811126709,10,7127.0,-0.01448691077530384,-239,9950.0
4220,0.3451783061027527,1.0499814748764038,67,7127.0,-3.668971538543701,-44,9950.0
4230,0.343815416097641,1.1585031747817993,-56,7127.0,-0.16221469640731812,-190,9950.0
4240,0.34402212500572205,-1.2988313436508179,35,7127.0,-2.561145067214966,-62,9950.0
4250,0.3443112373352051,-1.3022915124893188,-51,7127.0,-0.3728642761707306,-102,9950.0
4260,0.3447311520576477,-0.741663932800293,28,7127.0,-1.390040636062622,-33,9950.0
4270,0.34373345971107483,0.3900581896305084,-65,7127.0,-0.940092146396637,-74,9950.0
4280,0.3441143035888672,0.5597856640815735,62,7127.0,-2.8393938541412354,-108,9950.0
4290,0.34452006220817566,-0.8331560492515564,-79,7127.0,-3.7886598110198975,19,9950.0
4300,0.34494736790657043,2.1622862815856934,62,7127.0,-3.10860276222229,-91,9950.0
4310,0.34404802322387695,-1.089097023010254,-75,7127.0,-3.258594036102295,114,9950.0
4320,0.34429827332496643,-0.8543150424957275,-8,7127.0,-2.995514392852783,-34,9950.0
4330,0.3444783091545105,-0.9613592624664307,-20,7127.0,-3.792112112045288,158,9950.0
4340,0.3445994257926941,0.22125576436519623,-44,7127.0,-3.9189655780792236,43,9950.0
4350,0.34471097588539124,-2.064882755279541,12,7127.0,-4.1536712646484375,134,9950.0
4360,0.34256216883659363,1.7752792835235596,-24,7127.0,-2.4234883785247803,46,9950.0
4370,0.3426440358161926,-0.1722511649131775,2,7127.0,-0.9502538442611694,-11,9950.0
4380,0.3427630066871643,1.6283762454986572,-2,7127.0,1.1496092081069946,-5,9950.0
4390,0.3428558111190796,-1.9072939157485962,35,7127.0,2.233820915222168,-40,9950.0
4400,0.3425745666027069,-0.4973188042640686,-14,7127.0,3.2557482719421387,-77,9950.0
4410,0.34269094467163086,-0.9282817840576172,-16,7127.0,3.7746903896331787,-73,9950.0
4420,0.3428378105163574,0.4541356563568115,-25,7127.0,3.0258595943450928,-112,9950.0
4430,0.3430156409740448,1.099953293800354,132,7127.0,2.2886998653411865,-88,9950.0
4440,0.34323686361312866,0.6005905270576477,46,7127.0,3.026639223098755,17,9950.0
4450,0.3442162275314331,-0.019854743033647537,83,7127.0,3.0515260696411133,20,9950.0
4460,0.3445495069026947,-0.19371150434017181,-45,7127.0,3.1867971420288086,95,9950.0
4470,0.34492573142051697,-1.2713301181793213,6,7127.0,3.297844171524048,-56,9950.0
4480,0.34534192085266113,-1.8514808416366577,-48,7127.0,3.3305156230926514,155,9950.0
4490,0.3435516059398651,-0.21243757009506226,27,7127.0,0.0957438200712204,-34,9950.0
4500,0.34375903010368347,0.7323945760726929,16,7127.0,-0.4229702949523926,64,9950.0
4510,0.34390267729759216,3.506178855895996,90,7127.0,-1.5709196329116821,20,9950.0
4520,0.34390372037887573,2.4619429111480713,55,7127.0,0.925858199596405,55,9950.0
4530,0.34307774901390076,1.555081844329834,-40,7127.0,-1.2533786296844482,106,9950.0
4540,0.34288403391838074,0.26895591616630554,-14,7127.0,-0.4380442500114441,64,9950.0
4550,0.34260424971580505,0.08917657285928726,-42,7127.0,0.09543514996767044,144,9950.0
4560,0.34226322174072266,-1.1090301275253296,-16,7127.0,1.0248172283172607,151,9950.0
4570,0.3419090807437897,-1.7533842325210571,-44,7127.0,1.4687680006027222,120,9950.0
4580,0.3408145308494568,0.01116308756172657,39,7127.0,1.116316795349121,134,9950.0
4590,0.34045717120170593,1.5223039388656616,36,7127.0,0.966047465801239,149,9950.0
4600,0.3401375114917755,1.5585029125213623,3,7127.0,1.473669171333313,-3,9950.0
4610,0.3398188054561615,1.1810482740402222,1,7127.0,0.6208714842796326,-116,9950.0
4620,0.33892685174942017,-0.46558770537376404,-19,7127.0,2.990022659301758,-25,9950.0
4630,0.33871904015541077,-1.9391003847122192,-1,7127.0,1.3825223445892334,-126,9950.0
4640,0.3385879695415497,-1.4624238014221191,-76,7127.0,0.0772486999630928,-97,9950.0
4650,0.3383828401565552,-0.5178107619285583,10,7127.0,-1.901480793952942,-202,9950.0
4660,0.33818718791007996,0.08227407932281494,-36,7127.0,-1.325989007949829,-8,9950.0
4670,0.3383629322052002,0.17104974389076233,91,7127.0,-1.7884453535079956,-204,9950.0
4680,0.3382050395011902,4.109821319580078,53,7127.0,-2.744598865509033,-2,9950.0
4690,0.337928831577301,1.6798995733261108,134,7127.0,-1.3021327257156372,-109,9950.0
4700,0.3377871513366699,0.4545377492904663,-25,7127.0,-0.7361025810241699,-3,9950.0
4710,0.3384816646575928,-2.320807456970215,37,7127.0,0.34442007541656494,-151,9950.0
4720,0.338338702917099,-3.355213165283203,-61,7127.0,-0.5414343476295471,-79,9950.0
4730,0.338217169046402,-3.876154661178589,50,7127.0,-1.1401411294937134,-249,9950.0
4740,0.3381184935569763,-1.5907257795333862,-44,7127.0,-2.543273448944092,-82,9950.0
4750,0.33920323848724365,-0.3284469246864319,87,7127.0,-1.6451704502105713,-274,9950.0
4760,0.33928412199020386,2.334103584289551,95,7127.0,-4.063694000244141,14,9950.0
4770,0.33945366740226746,1.5811495780944824,98,7127.0,-1.5996158123016357,-178,9950.0
4780,0.33970317244529724,2.753319501876831,-6,7127.0,-2.294804334640503,-42,9950.0
4790,0.33976083993911743,-0.9145550727844238,3,7127.0,-1.5820562839508057,-116,9950.0
4800,0.34024518728256226,-2.623821258544922,-63,7127.0,1.118630290031433,20,9950.0
4810,0.34020569920539856,-3.2776999473571777,-13,7127.0,-0.05506207048892975,-48,9950.0
4820,0.34010329842567444,-3.390798807144165,-99,7127.0,2.164949655532837,125,9950.0
4830,0.33996912837028503,0.025208713486790657,6,7127.0,2.2759225368499756,-28,9950.0
4840,0.33988016843795776,1.9624004364013672,-5,7127.0,4.670318603515625,227,9950.0
4850,0.339777410030365,1.8972665071487427,5,7127.0,4.136988639831543,113,9950.0
4860,0.3396662771701813,0.8816436529159546,-18,7127.0,4.122706890106201,245,9950.0
4870,0.33957889676094055,0.8855451345443726,-21,7127.0,1.2655500173568726,112,9950.0
4880,0.3395535349845886,-2.1441917419433594,-66,7127.0,-1.31621253490448,185,9950.0
4890,0.3389054536819458,1.0309104919433594,4,7127.0,-3.000675916671753,50,9950.0
4900,0.33881258964538574,-0.642862856388092,5,7127.0,-0.8789973855018616,142,9950.0
4910,0.3386920392513275,2.501924514770508,16,7127.0,1.2923985719680786,-1,9950.0
4920,0.33848637342453003,0.415121465921402,58,7127.0,0.7022318840026855,115,9950.0
4930,0.33969366550445557,0.7198582291603088,-45,7127.0,1.29941987991333,46,9950.0
4940,0.33960723876953125,0.25314509868621826,61,7127.0,2.554048776626587,86,9950.0
4950,0.3395053744316101,0.2018224596977234,-92,7127.0,2.5022332668304443,143,9950.0
4960,0.3393968343734741,-3.1795432567596436,64,7127.0,1.8535356521606445,23,9950.0
4970,0.33998459577560425,0.11526759713888168,0,7127.0,-1.0535235404968262,65,9950.0
4980,0.3399159610271454,-1.5012924671173096,26,7127.0,1.200290560722351,-110,9950.0
4990,0.3398728370666504,2.779742479324341,39,7127.0,2.5689547061920166,17,9950.0
5000,0.3399522602558136,0.44694092869758606,84,7127.0,1.6840736865997314,-115,9950.0
5010,0.3400615155696869,3.1036858558654785,46,7127.0,0.09142230451107025,-42,9950.0
5020,0.34055912494659424,1.999841570854187,82,7127.0,0.9482669234275818,-162,9950.0
5030,0.34072697162628174,0.21522922813892365,31,7127.0,-2.3102097511291504,-83,9950.0
5040,0.34092092514038086,-4.215426445007324,-29,7127.0,-1.818105697631836,-222,9950.0
5050,0.3410992920398712,0.554637610912323,109,7127.0,-6.751173973083496,-24,9950.0
5060,0.34077581763267517,-2.4353692531585693,-58,7127.0,-3.3728995323181152,-170,9950.0
5070,0.34083184599876404,0.3679548501968384,59,7127.0,-4.333769798278809,-128,9950.0
5080,0.3408507704734802,0.49143263697624207,-37,7127.0,-4.792695045471191,-138,9950.0
5090,0.34085074067115784,2.2062301635742188,98,7127.0,-2.4717135429382324,-72,9950.0
5100,0.34078970551490784,0.954332709312439,45,7127.0,-3.0688998699188232,20,9950.0
5110,0.3411630690097809,0.07580533623695374,20,7127.0,-1.7273802757263184,-63,9950.0
5120,0.34098222851753235,-2.7924654483795166,-103,7127.0,-1.5960657596588135,137,9950.0
5130,0.34078389406204224,0.3748190104961395,-1,7127.0,0.4995484948158264,4,9950.0
5140,0.340584933757782,-2.036317825317383,-27,7127.0,1.7456132173538208,152,9950.0
5150,0.3413935899734497,-0.541401743888855,27,7127.0,2.012495756149292,59,9950.0
5160,0.3413439095020294,1.0355212688446045,3,7127.0,4.568628787994385,147,9950.0
5170,0.34135937690734863,0.9585980176925659,-21,7127.0,4.428443908691406,73,9950.0
5180,0.3414299786090851,0.28452205657958984,-7,7127.0,3.9270310401916504,71,9950.0
5190,0.34162065386772156,-0.4609526991844177,-41,7127.0,0.808556079864502,-3,9950.0
5200,0.34082356095314026,-1.9901894330978394,-69,7127.0,0.32685670256614685,-13,9950.0
5210,0.3411916196346283,0.172545924782753,8,7127.0,0.39645707607269287,-65,9950.0
5220,0.34164154529571533,-2.7944557666778564,32,7127.0,0.8213483691215515,-74,9950.0
5230,0.34207281470298767,0.9111176133155823,-25,7127.0,0.516863226890564,-42,9950.0
5240,0.3413282036781311,1.3115005493164062,86,7127.0,1.0140652656555176,-120,9950.0
5250,0.34167730808258057,0.2764647305011749,-10,7127.0,2.721578598022461,35,9950.0
5260,0.34202516078948975,-0.4806727170944214,38,7127.0,3.10113525390625,-70,9950.0
5270,0.34228891134262085,-1.182862639427185,4,7127.0,2.2453768253326416,101,9950.0
5280,0.34077200293540955,-1.037306547164917,-38,7127.0,3.108658790588379,191,9950.0
5290,0.3407372236251831,1.4358428716659546,30,7127.0,1.845911979675293,32,9950.0
5300,0.3405837118625641,1.0347115993499756,-27,7127.0,2.994744300842285,86,9950.0
5310,0.3403482735157013,2.160740613937378,49,7127.0,1.4109729528427124,-6,9950.0
5320,0.3400401175022125,2.9316437244415283,-22,7127.0,2.493542432785034,135,9950.0
5330,0.3405592143535614,3.7173726558685303,13,7127.0,0.8136945366859436,-28,9950.0
5340,0.34017112851142883,2.247112512588501,47,7127.0,1.597823977470398,-186,9950.0
5350,0.3396880626678467,2.7111868858337402,-31,7127.0,0.2656087875366211,-15,9950.0
5360,0.33912721276283264,-0.3447469174861908,50,7127.0,-0.6719081401824951,-118,9950.0
5370,0.3384738564491272,0.17639167606830597,-24,7127.0,-1.848787784576416,-4,9950.0
5380,0.33779650926589966,-2.0073366165161133,-89,7127.0,-2.903238296508789,-39,9950.0
5390,0.33709195256233215,-1.7901065349578857,15,7127.0,-3.8717949390411377,-17,9950.0
5400,0.33644336462020874,-0.886742353439331,7,7127.0,-3.665041923522949,59,9950.0
5410,0.3357779085636139,0.17296305298805237,17,7127.0,-3.5218749046325684,16,9950.0
5420,0.3352831304073334,1.8482158184051514,-8,7127.0,-4.266576290130615,66,9950.0
5430,0.3349120020866394,2.5208799839019775,0,7127.0,-3.1999728679656982,19,9950.0
5440,0.33472904562950134,0.9454699754714966,-88,7127.0,-1.6559388637542725,105,9950.0
5450,0.3345303535461426,-0.44691115617752075,-22,7127.0,-1.9054306745529175,0,9950.0
5460,0.33581602573394775,-2.696439027786255,-92,7127.0,-0.0962408110499382,124,9950.0
5470,0.3358980119228363,-1.557727575302124,-27,7127.0,1.7816413640975952,14,9950.0
5480,0.3360539376735687,-0.13761165738105774,-20,7127.0,1.4372256994247437,167,9950.0
5490,0.33620697259902954,0.1750948429107666,-29,7127.0,3.057288408279419,68,9950.0
5500,0.3385779857635498,0.6640629172325134,-34,7127.0,1.2860772609710693,142,9950.0
5510,0.3387851119041443,0.610625147819519,43,7127.0,2.0914723873138428,94,9950.0
5520,0.3389418125152588,0.6274051070213318,74,7127.0,1.9977223873138428,53,9950.0
5530,0.33904924988746643,-1.1447670459747314,50,7127.0,4.2752203941345215,61,9950.0
5540,0.3391827940940857,-1.2641745805740356,26,7127.0,3.230947971343994,-41,9950.0
5550,0.3386904299259186,-1.1308367252349854,-25,7127.0,2.8941123485565186,-53,9950.0
5560,0.33860865235328674,0.021301647648215294,54,7127.0,1.2299023866653442,-131,9950.0
5570,0.33848971128463745,2.8653852939605713,44,7127.0,2.2671570777893066,-81,9950.0
5580,0.3383080065250397,3.710584878921509,142,7127.0,1.439873456954956,-155,9950.0
5590,0.33917436003685,4.492490768432617,55,7127.0,1.072005271911621,-15,9950.0
5600,0.33906447887420654,-0.4464973509311676,-10,7127.0,-1.9301440715789795,-50,9950.0
5610,0.33898940682411194,-1.667172908782959,-48,7127.0,-3.044816732406616,77,9950.0
5620,0.33894631266593933,-3.9392447471618652,-94,7127.0,-4.231943130493164,-6,9950.0
5630,0.33971959352493286,-4.578063011169434,-58,7127.0,-5.083884239196777,89,9950.0
5640,0.3397458493709564,-1.8726239204406738,-78,7127.0,-5.990117073059082,47,9950.0
5650,0.339680016040802,0.37224170565605164,111,7127.0,-4.7433929443359375,-12,9950.0
5660,0.3394978642463684,7.525489807128906,54,7127.0,-2.8876116275787354,-14,9950.0
5670,0.3392344117164612,3.8980393409729004,95,7127.0,-0.7061464190483093,-155,9950.0
5680,0.33877837657928467,5.572149276733398,83,7127.0,0.1689823567867279,-25,9950.0
5690,0.33830609917640686,4.866828918457031,71,7127.0,0.42990684509277344,-193,9950.0
5700,0.3377133309841156,10.3308744430542,245,7127.0,-0.6633780598640442,-16,9950.0
5710,0.3369346559047699,15.747638702392578,241,7127.0,-0.6313915848731995,-106,9950.0
5720,0.33550161123275757,18.463998794555664,350,7127.0,-1.2883597612380981,55,9950.0
5730,0.3340606987476349,20.173717498779297,254,7127.0,-1.7541831731796265,-49,9950.0
5740,0.33225035667419434,8.33870792388916,31,7127.0,-5.553918838500977,60,9950.0
5750,0.33030834794044495,2.233354330062866,-11,7127.0,-5.202208995819092,-62,9950.0
5760,0.3281802535057068,0.9673720002174377,-19,7127.0,-6.364394187927246,-68,9950.0
5770,0.32592281699180603,-6.915506362915039,-76,7127.0,-4.7341461181640625,-155,9950.0
5780,0.3235589265823364,-15.56177806854248,-333,7127.0,-2.90993332862854,-155,9950.0
5790,0.3210781514644623,-25.188716888427734,-379,7127.0,3.718428134918213,-32,9950.0
5800,0.31882229447364807,-28.501129150390625,-402,7127.0,7.9230732917785645,37,9950.0
5810,0.31776517629623413,-20.325349807739258,-347,7127.0,15.260644912719727,244,9950.0
5820,0.3159177899360657,-15.768068313598633,-206,7127.0,18.551658630371094,314,9950.0
5830,0.3142315149307251,-13.407187461853027,-235,7127.0,24.350746154785156,192,9950.0
5840,0.31268271803855896,-3.6717140674591064,43,7127.0,23.799453735351562,391,9950.0
5850,0.31241345405578613,5.244946002960205,327,7127.0,27.62619400024414,340,9950.0
5860,0.3120577931404114,6.155455589294434,103,7127.0,25.87379264831543,513,9950.0
5870,0.3124099373817444,-0.8564651608467102,-11,7127.0,22.06476402282715,355,9950.0
5880,0.31288570165634155,0.6306104063987732,-76,7127.0,13.418112754821777,284,9950.0
5890,0.3137659728527069,1.958972454071045,32,7127.0,6.797080993652344,225,9950.0
5900,0.31425970792770386,4.060606002807617,-20,7127.0,-2.0936975479125977,-147,9950.0
5910,0.3153453767299652,3.013991355895996,94,7127.0,-7.179915428161621,-197,9950.0
5920,0.316265732049942,3.8045201301574707,110,7127.0,-14.561994552612305,-358,9950.0
5930,0.31712034344673157,7.290041923522949,179,7127.0,-18.45244598388672,-334,9950.0
5940,0.31707316637039185,6.482626438140869,105,7127.0,-20.62320327758789,-515,9950.0
5950,0.3179492950439453,5.622225284576416,125,7127.0,-22.494653701782227,-494,9950.0
5960,0.3186988830566406,3.5029094219207764,21,7127.0,-22.86585807800293,-272,9950.0
5970,0.3192457854747772,1.583702802658081,55,7127.0,-22.852771759033203,-339,9950.0
5980,0.319538414478302,-2.0751233100891113,-38,7127.0,-19.330495834350586,-122,9950.0
5990,0.3210906982421875,-0.09799814969301224,13,7127.0,-14.864435195922852,-136,9950.0
6000,0.3209867775440216,4.106092929840088,49,7127.0,-13.331022262573242,-61,9950.0
6010,0.3210679888725281,5.737092018127441,97,7127.0,-9.683966636657715,-139,9950.0
6020,0.320806086063385,4.426528453826904,29,7127.0,-1.3947701454162598,-42,9950.0
6030,0.3194790780544281,-1.4993075132369995,58,7127.0,3.057861566543579,-53,9950.0
6040,0.3193119466304779,3.447805643081665,71,7127.0,7.2333807945251465,-17,9950.0
6050,0.3191470801830292,11.00899887084961,280,7127.0,8.857903480529785,-19,9950.0
6060,0.31893739104270935,12.98892593383789,131,7127.0,9.203046798706055,46,9950.0
6070,0.31870514154434204,11.362810134887695,181,7127.0,5.117609024047852,137,9950.0
6080,0.3184826672077179,5.526512145996094,-5,7127.0,1.8357634544372559,142,9950.0
6090,0.31829243898391724,1.2066503763198853,33,7127.0,0.6948027014732361,157,9950.0
6100,0.31821006536483765,-4.794854164123535,-191,7127.0,-1.8694891929626465,62,9950.0
6110,0.3182629346847534,-16.76384735107422,-282,7127.0,0.861704409122467,53,9950.0
6120,0.32018524408340454,-24.301952362060547,-415,7127.0,4.9932026863098145,22,9950.0
6130,0.3209313452243805,-30.48774528503418,-475,7127.0,11.135499954223633,134,9950.0
6140,0.3220151960849762,-34.00999450683594,-539,7127.0,15.629987716674805,164,9950.0
6150,0.32323727011680603,-26.699899673461914,-303,7127.0,16.1750545501709,180,9950.0
6160,0.324280709028244,-14.96167278289795,-138,7127.0,18.009309768676758,293,9950.0
6170,0.3254722058773041,-6.894077777862549,-55,7127.0,14.675104141235352,18,9950.0
6180,0.3262157738208771,1.7848191261291504,121,7127.0,5.262472629547119,17,9950.0
6190,0.3267142176628113,12.474377632141113,249,7127.0,-2.155043363571167,-173,9950.0
6200,0.3269946873188019,25.00098419189453,515,7127.0,-11.850408554077148,-405,9950.0
6210,0.32713374495506287,27.470129013061523,472,7127.0,-20.409317016601562,-455,9950.0
6220,0.32652971148490906,22.360584259033203,327,7127.0,-27.44378662109375,-570,9950.0
6230,0.326613187789917,20.004968643188477,339,7127.0,-35.93156051635742,-629,9950.0
6240,0.32505834102630615,12.773077964782715,116,7127.0,-40.054718017578125,-512,9950.0
6250,0.32559165358543396,6.293159484863281,103,7127.0,-37.57323455810547,-540,9950.0
6260,0.32454076409339905,3.572794198989868,-3,7127.0,-33.30253601074219,-397,9950.0
6270,0.32313984632492065,1.2878955602645874,61,7127.0,-24.934341430664062,-496,9950.0
6280,0.3214154541492462,-1.295138955116272,-77,7127.0,-15.503692626953125,-299,9950.0
6290,0.3202109932899475,-4.095502853393555,-46,7127.0,-8.662590026855469,-90,9950.0
6300,0.31824445724487305,-4.8981781005859375,-116,7127.0,-3.4626152515411377,-3,9950.0
6310,0.31630557775497437,-3.3809616565704346,-27,7127.0,2.080751895904541,179,9950.0
6320,0.3140580654144287,5.344481468200684,106,7127.0,9.130057334899902,214,9950.0
6330,0.31232404708862305,10.519657135009766,120,7127.0,17.247392654418945,473,9950.0
6340,0.3101619780063629,6.978716850280762,172,7127.0,23.29387092590332,337,9950.0
6350,0.3085786700248718,5.804194927215576,19,7127.0,28.582225799560547,374,9950.0
6360,0.3069755733013153,0.6685899496078491,1,7127.0,31.100372314453125,455,9950.0
6370,0.3055450916290283,-3.0923659801483154,-9,7127.0,30.781448364257812,256,9950.0
6380,0.30469515919685364,-9.22097396850586,-196,7127.0,26.126968383789062,426,9950.0
6390,0.30402013659477234,-16.277631759643555,-70,7127.0,20.678625106811523,331,9950.0
6400,0.3035183846950531,-19.47419548034668,-354,7127.0,19.3416690826416,336,9950.0
6410,0.3032841980457306,-16.527114868164062,-268,7127.0,17.0645809173584,359,9950.0
6420,0.30419841408729553,-15.269411087036133,-307,7127.0,16.81809425354004,318,9950.0
6430,0.3042304813861847,-12.69572639465332,-200,7127.0,13.033968925476074,482,9950.0
6440,0.3043563663959503,-10.784845352172852,-257,7127.0,8.39746379852295,119,9950.0
6450,0.3044612407684326,-7.037006378173828,-170,7127.0,6.555179595947266,184,9950.0
6460,0.30468422174453735,1.777995228767395,5,7127.0,7.5154032707214355,83,9950.0
6470,0.3059084713459015,5.400524139404297,95,7127.0,6.010121822357178,171,9950.0
6480,0.3060237169265747,13.837666511535645,267,7127.0,2.7688822746276855,-56,9950.0
6490,0.3062199652194977,15.900676727294922,289,7127.0,3.745961904525757,25,9950.0
6500,0.3063241243362427,16.327260971069336,313,7127.0,2.092625856399536,-122,9950.0
6510,0.30737853050231934,15.100841522216797,215,7127.0,3.6421313285827637,31,9950.0
6520,0.3075067400932312,9.653251647949219,182,7127.0,1.749375820159912,-16,9950.0
6530,0.3075209856033325,6.73626708984375,76,7127.0,2.416396141052246,176,9950.0
6540,0.3075014650821686,4.089397430419922,76,7127.0,1.1711598634719849,13,9950.0
6550,0.307297021150589,2.9314804077148438,-17,7127.0,0.5929722189903259,163,9950.0
6560,0.30719316005706787,2.289518117904663,69,7127.0,3.3712313175201416,41,9950.0
6570,0.30690905451774597,3.9002976417541504,35,7127.0,4.2208943367004395,241,9950.0
6580,0.3065415024757385,6.301686763763428,123,7127.0,6.163540363311768,60,9950.0
6590,0.30581507086753845,9.152297019958496,82,7127.0,3.161284923553467,139,9950.0
6600,0.3075529932975769,9.866189956665039,201,7127.0,3.758101463317871,30,9950.0
6610,0.30712470412254333,9.275397300720215,54,7127.0,5.605311870574951,12,9950.0
6620,0.3065012991428375,4.866568088531494,76,7127.0,4.672791481018066,-69,9950.0
6630,0.3055216670036316,7.044033527374268,86,7127.0,2.4295966625213623,-103,9950.0
6640,0.3037152886390686,3.128368616104126,-23,7127.0,2.052656888961792,-14,9950.0
6650,0.30246034264564514,-0.07458873093128204,14,7127.0,6.6032633781433105,-122,9950.0
6660,0.3013719916343689,-7.32889986038208,-103,7127.0,9.383522033691406,98,9950.0
6670,0.3002372086048126,-13.008296012878418,-245,7127.0,12.75695514678955,266,9950.0
6680,0.29912444949150085,-19.291061401367188,-340,7127.0,17.195096969604492,282,9950.0
6690,0.2975150942802429,-19.998050689697266,-341,7127.0,21.85092544555664,442,9950.0
6700,0.2961616516113281,-15.645153045654297,-188,7127.0,23.47437286376953,282,9950.0
6710,0.2948671877384186,-11.588574409484863,-240,7127.0,25.1519775390625,319,9950.0
6720,0.29361769556999207,-3.9929959774017334,-6,7127.0,19.686981201171875,245,9950.0
6730,0.29097816348075867,-4.78333044052124,-54,7127.0,18.79496955871582,212,9950.0
6740,0.2894216775894165,-2.2023396492004395,39,7127.0,9.465109825134277,149,9950.0
6750,0.2879267930984497,-3.6314828395843506,-61,7127.0,10.457366943359375,-28,9950.0
6760,0.2862958312034607,-2.635178804397583,73,7127.0,5.589854717254639,60,9950.0
6770,0.2848369777202606,-3.9898464679718018,-71,7127.0,4.384479999542236,113,9950.0
6780,0.2822413742542267,-0.1762438863515854,-15,7127.0,4.077390670776367,161,9950.0
6790,0.28084316849708557,3.1136631965637207,-34,7127.0,3.2563843727111816,73,9950.0
6800,0.2794853448867798,2.0955958366394043,-55,7127.0,3.2960917949676514,240,9950.0
6810,0.2782687544822693,1.3359036445617676,113,7127.0,0.42932334542274475,-53,9950.0
6820,0.27662691473960876,1.6859487295150757,-29,7127.0,-2.311185598373413,-90,9950.0
6830,0.27567368745803833,13.173643112182617,310,7127.0,-8.364618301391602,-185,9950.0
6840,0.2749232351779938,15.550503730773926,365,7127.0,-5.045100212097168,-174,9950.0
6850,0.27429521083831787,17.841739654541016,409,7127.0,-2.526662588119507,-116,9950.0
6860,0.27215439081192017,15.583885192871094,261,7127.0,-3.728854179382324,-160,9950.0
6870,0.2713676393032074,16.91602325439453,196,7127.0,-8.224693298339844,12,9950.0
6880,0.2705111801624298,5.615188121795654,41,7127.0,-11.639318466186523,-183,9950.0
6890,0.2698569595813751,3.282076835632324,-88,7127.0,-20.061351776123047,-189,9950.0
6900,0.2690373361110687,-4.316835403442383,-60,7127.0,-21.43680763244629,-232,9950.0
6910,0.26763471961021423,-5.0380377769470215,-155,7127.0,-24.571727752685547,-401,9950.0
6920,0.26673224568367004,-10.007638931274414,-256,7127.0,-24.562335968017578,-236,9950.0
6930,0.26580896973609924,-12.665632247924805,-258,7127.0,-19.547990798950195,-161,9950.0
6940,0.26487216353416443,-11.766651153564453,-227,7127.0,-16.576984405517578,-271,9950.0
6950,0.2630388140678406,-12.615748405456543,-272,7127.0,-10.254335403442383,-284,9950.0
6960,0.2616937458515167,-5.094285488128662,3,7127.0,-4.097930431365967,-117,9950.0
6970,0.2608080208301544,-1.4933818578720093,112,7127.0,-0.9388067722320557,-135,9950.0
6980,0.25998127460479736,5.444248676300049,148,7127.0,6.728124141693115,143,9950.0
6990,0.259025514125824,12.09906005859375,366,7127.0,10.064746856689453,352,9950.0
7000,0.25980082154273987,13.700841903686523,213,7127.0,15.317403793334961,332,9950.0
7010,0.25885331630706787,14.738235473632812,155,7127.0,16.584190368652344,397,9950.0
7020,0.2580033540725708,12.077616691589355,156,7127.0,18.09432601928711,320,9950.0
7030,0.2574909031391144,8.351410865783691,22,7127.0,12.345698356628418,239,9950.0
7040,0.25696083903312683,3.5408430099487305,5,7127.0,11.430770874023438,183,9950.0
7050,0.2563701272010803,3.240283250808716,72,7127.0,3.8219263553619385,-47,9950.0
7060,0.25582069158554077,-1.7691532373428345,-48,7127.0,-2.654496908187866,-124,9950.0
7070,0.25537028908729553,-2.340489149093628,62,7127.0,-9.974259376525879,-223,9950.0
7080,0.2556334435939789,-6.99772834777832,-97,7127.0,-10.826809883117676,-234,9950.0
7090,0.25510385632514954,-7.802272796630859,-143,7127.0,-8.832141876220703,-63,9950.0
7100,0.2543429732322693,-6.558266639709473,-115,7127.0,-9.218196868896484,37,9950.0
7110,0.2535591125488281,-1.2811239957809448,-160,7127.0,-6.401094913482666,26,9950.0
7120,0.2525157928466797,-2.969971179962158,-72,7127.0,0.8030810356140137,216,9950.0
7130,0.25257408618927,-1.2387559413909912,-45,7127.0,5.292405128479004,60,9950.0
7140,0.25164008140563965,-1.448341965675354,-139,7127.0,6.261366367340088,35,9950.0
7150,0.25050002336502075,1.7796630859375,96,7127.0,9.854277610778809,77,9950.0
7160,0.24957287311553955,0.9725674390792847,115,7127.0,7.090539932250977,14,9950.0
7170,0.2486206293106079,3.120065689086914,109,7127.0,6.557926654815674,134,9950.0
7180,0.24749691784381866,6.144740104675293,171,7127.0,9.20986557006836,145,9950.0
7190,0.24660858511924744,6.977541923522949,132,7127.0,7.462071418762207,212,9950.0
7200,0.2455005794763565,11.986207962036133,141,7127.0,7.297913074493408,275,9950.0
7210,0.24392500519752502,12.237557411193848,161,7127.0,8.030516624450684,202,9950.0
7220,0.24374042451381683,15.521050453186035,159,7127.0,3.399533748626709,75,9950.0
7230,0.24219830334186554,11.521344184875488,116,7127.0,5.74884033203125,34,9950.0
7240,0.2407064437866211,8.771641731262207,195,7127.0,7.023143291473389,211,9950.0
7250,0.23891380429267883,9.680917739868164,240,7127.0,8.681666374206543,69,9950.0
7260,0.23926758766174316,2.6246750354766846,138,7127.0,14.23390007019043,45,9950.0
7270,0.23818089067935944,0.11476517468690872,-28,7127.0,16.14671516418457,156,9950.0
7280,0.23726260662078857,-1.924275517463684,-64,7127.0,14.90140151977539,182,9950.0
7290,0.23581117391586304,-5.416027069091797,-47,7127.0,14.74636459350586,119,9950.0
7300,0.2350528985261917,-3.713385820388794,-143,7127.0,12.034917831420898,310,9950.0
7310,0.23416312038898468,-4.820184230804443,-171,7127.0,13.795928001403809,406,9950.0
7320,0.23327243328094482,-3.8221628665924072,-137,7127.0,16.521135330200195,370,9950.0
7330,0.23159869015216827,-5.039011001586914,-59,7127.0,13.506786346435547,230,9950.0
7340,0.23156169056892395,-3.6299328804016113,7,7127.0,15.682790756225586,48,9950.0
7350,0.2318432778120041,-2.5883331298828125,-18,7127.0,19.313997268676758,330,9950.0
7360,0.2310517281293869,0.8970484733581543,3,7127.0,16.072246551513672,405,9950.0
7370,0.23038186132907867,-1.8293944597244263,-61,7127.0,16.9869441986084,317,9950.0
7380,0.2299308180809021,-0.9524725675582886,86,7127.0,17.57685089111328,225,9950.0
7390,0.2300463765859604,0.7552486062049866,18,7127.0,16.904603958129883,81,9950.0
7400,0.22965949773788452,5.795715808868408,178,7127.0,13.735005378723145,274,9950.0
7410,0.2292199283838272,9.258816719055176,181,7127.0,11.699361801147461,257,9950.0
7420,0.22923961281776428,13.37371826171875,180,7127.0,14.311905860900879,232,9950.0
7430,0.229474276304245,14.454739570617676,120,7127.0,9.792190551757812,217,9950.0
7440,0.22937750816345215,13.394392013549805,261,7127.0,5.296680927276611,140,9950.0
7450,0.2295088917016983,11.29780387878418,265,7127.0,7.1396942138671875,-127,9950.0
7460,0.2295026034116745,9.104344367980957,228,7127.0,2.3050458431243896,-76,9950.0
7470,0.2296907603740692,13.768003463745117,238,7127.0,-7.878757476806641,-70,9950.0
7480,0.23275434970855713,9.610365867614746,212,7127.0,-5.1181840896606445,-30,9950.0
7490,0.2329547256231308,3.6392831802368164,-14,7127.0,-4.989157676696777,-65,9950.0
7500,0.2329092174768448,0.6759975552558899,-130,7127.0,-7.493680953979492,-55,9950.0
7510,0.23342888057231903,-7.475472450256348,-164,7127.0,-7.675894737243652,88,9950.0
7520,0.23026728630065918,-7.5479021072387695,-230,7127.0,-4.561800479888916,120,9950.0
7530,0.23035843670368195,-5.707749843597412,-174,7127.0,-3.046687364578247,-2,9950.0
7540,0.230098158121109,-5.639064788818359,-162,7127.0,-0.6089097857475281,142,9950.0
7550,0.23030447959899902,-6.138933181762695,-108,7127.0,3.705331325531006,164,9950.0
7560,0.2277722954750061,-6.212475776672363,-82,7127.0,7.230258464813232,41,9950.0
7570,0.22759103775024414,-6.146701335906982,-96,7127.0,7.477807521820068,145,9950.0
7580,0.22712893784046173,-5.94118070602417,-98,7127.0,11.786174774169922,125,9950.0
7590,0.22681152820587158,-6.945770263671875,-18,7127.0,7.742913722991943,92,9950.0
7600,0.22631105780601501,-7.804274082183838,-13,7127.0,8.150108337402344,-18,9950.0
7610,0.22606085240840912,-6.646237373352051,-36,7127.0,9.608370780944824,135,9950.0
7620,0.2254372388124466,-0.3123997747898102,-6,7127.0,4.740298271179199,45,9950.0
7630,0.22525940835475922,-0.4617561995983124,-22,7127.0,0.14625334739685059,101,9950.0
7640,0.22506055235862732,2.517408609390259,-61,7127.0,-0.9164428114891052,99,9950.0
7650,0.22402623295783997,3.8313119411468506,63,7127.0,-0.6913952827453613,97,9950.0
7660,0.223739355802536,6.5939741134643555,92,7127.0,-0.7645890712738037,-11,9950.0
7670,0.22337497770786285,9.33608341217041,90,7127.0,-3.4642345905303955,-163,9950.0
7680,0.22307807207107544,6.865573883056641,97,7127.0,-2.313544988632202,-251,9950.0
7690,0.22268809378147125,8.100712776184082,175,7127.0,-11.333829879760742,-197,9950.0
7700,0.22258278727531433,3.4886136054992676,189,7127.0,-5.23630952835083,-326,9950.0
7710,0.22201162576675415,3.317847490310669,69,7127.0,-10.86545467376709,-185,9950.0
7720,0.22148701548576355,2.71463680267334,128,7127.0,-9.814517974853516,-131,9950.0
7730,0.22104094922542572,-2.959696054458618,54,7127.0,-8.879291534423828,-250,9950.0
7740,0.2206183820962906,-2.395298957824707,-191,7127.0,-13.043959617614746,-161,9950.0
7750,0.2201872020959854,-3.849522113800049,-199,7127.0,-16.583154678344727,-244,9950.0
7760,0.21970131993293762,-3.4037017822265625,-116,7127.0,-15.099027633666992,-52,9950.0
7770,0.21918721497058868,-5.6539130210876465,-148,7127.0,-12.562418937683105,-146,9950.0
7780,0.2191217839717865,-2.9354023933410645,-147,7127.0,-16.310867309570312,-219,9950.0
7790,0.21853746473789215,-5.695677280426025,-125,7127.0,-13.749813079833984,-143,9950.0
7800,0.21792621910572052,-5.222660541534424,-106,7127.0,-9.631978034973145,-141,9950.0
7810,0.21742430329322815,-3.460754156112671,38,7127.0,-7.116791248321533,-82,9950.0
7820,0.21683189272880554,-3.199902296066284,3,7127.0,-4.106905460357666,-195,9950.0
7830,0.21743141114711761,-7.7911505699157715,-12,7127.0,0.5557063221931458,-110,9950.0
7840,0.21683213114738464,-2.6185739040374756,63,7127.0,3.289686679840088,68,9950.0
7850,0.21621523797512054,-0.5432383418083191,47,7127.0,1.150447130203247,-140,9950.0
7860,0.21546567976474762,-3.5879430770874023,-17,7127.0,0.003845273284241557,-57,9950.0
7870,0.21717864274978638,2.014838218688965,-123,7127.0,-1.9886624813079834,32,9950.0
7880,0.2165650725364685,1.2488280534744263,-58,7127.0,-1.5414541959762573,123,9950.0
7890,0.21600432693958282,1.4047932624816895,-27,7127.0,0.28681978583335876,-36,9950.0
7900,0.21542157232761383,1.5827301740646362,76,7127.0,1.842142105102539,20,9950.0
7910,0.21629014611244202,1.3725297451019287,126,7127.0,1.3377015590667725,-22,9950.0
7920,0.21552880108356476,2.0138134956359863,34,7127.0,4.1407647132873535,-61,9950.0
7930,0.21532633900642395,2.7488410472869873,92,7127.0,5.868046760559082,52,9950.0
7940,0.21501249074935913,3.274049758911133,13,7127.0,6.231740474700928,-57,9950.0
7950,0.2144215703010559,-0.7609033584594727,75,7127.0,6.277416706085205,135,9950.0
7960,0.21651875972747803,0.7175711989402771,-71,7127.0,9.086718559265137,181,9950.0
7970,0.21662861108779907,-0.2134198695421219,-75,7127.0,5.513311386108398,256,9950.0
7980,0.21627114713191986,-1.7808493375778198,-79,7127.0,4.76795768737793,213,9950.0
7990,0.21553254127502441,-0.4999719262123108,31,7127.0,6.648032188415527,203,9950.0
8000,0.217889666557312,-0.08861768245697021,-47,7127.0,7.232448101043701,74,9950.0
8010,0.21747738122940063,-2.587170124053955,-73,7127.0,10.89583969116211,92,9950.0
8020,0.21733975410461426,-0.8278124332427979,78,7127.0,10.805609703063965,104,9950.0
8030,0.21648111939430237,2.0215392112731934,164,7127.0,8.534274101257324,87,9950.0
8040,0.21494506299495697,1.5400114059448242,152,7127.0,14.489158630371094,109,9950.0
8050,0.21890805661678314,6.240602493286133,25,7127.0,13.437878608703613,214,9950.0
8060,0.21831980347633362,6.8833746910095215,-50,7127.0,14.80123233795166,409,9950.0
8070,0.21743884682655334,2.4829916954040527,-70,7127.0,16.43682289123535,407,9950.0
8080,0.21709807217121124,-1.1854156255722046,-109,7127.0,14.979547500610352,419,9950.0
8090,0.2182532250881195,-2.8246521949768066,-132,7127.0,14.720111846923828,297,9950.0
8100,0.21847163140773773,-1.5810655355453491,-138,7127.0,14.553521156311035,243,9950.0
8110,0.21786367893218994,-3.558081865310669,19,7127.0,11.048097610473633,91,9950.0
8120,0.21756061911582947,-2.4296159744262695,7,7127.0,8.592361450195312,134,9950.0
8130,0.21864591538906097,-0.7182166576385498,127,7127.0,11.552350044250488,70,9950.0
8140,0.2186528742313385,1.1358044147491455,174,7127.0,7.199761390686035,-43,9950.0
8150,0.21812011301517487,5.36479377746582,184,7127.0,4.77747106552124,-8,9950.0
8160,0.21701592206954956,4.744856357574463,24,7127.0,5.982921123504639,174,9950.0
8170,0.21726933121681213,5.063448429107666,23,7127.0,5.461363315582275,237,9950.0
8180,0.2181999385356903,4.2384352684021,0,7127.0,8.620133399963379,281,9950.0
8190,0.21755194664001465,4.511728286743164,36,7127.0,4.967836856842041,237,9950.0
8200,0.21697133779525757,4.022593975067139,25,7127.0,9.776917457580566,134,9950.0
8210,0.21728697419166565,4.2386555671691895,23,7127.0,6.111824989318848,-7,9950.0
8220,0.216421976685524,1.356605887413025,-23,7127.0,8.077348709106445,-6,9950.0
8230,0.21592821180820465,0.8884568214416504,96,7127.0,8.49308967590332,-14,9950.0
8240,0.216313898563385,1.7458336353302002,134,7127.0,4.756474494934082,53,9950.0
8250,0.21638721227645874,-1.6045100688934326,88,7127.0,8.677423477172852,133,9950.0
8260,0.21583892405033112,-1.9738706350326538,-104,7127.0,7.2659735679626465,246,9950.0
8270,0.21479563415050507,-3.098234176635742,-107,7127.0,13.578601837158203,295,9950.0
8280,0.21454116702079773,0.003939567133784294,-133,7127.0,10.52769660949707,273,9950.0
8290,0.21400339901447296,-1.3484057188034058,-94,7127.0,8.011900901794434,95,9950.0
8300,0.2137460857629776,-4.754956245422363,2,7127.0,13.130001068115234,127,9950.0
8310,0.21375785768032074,-1.505604863166809,62,7127.0,13.221166610717773,102,9950.0
8320,0.21298235654830933,-0.18980802595615387,184,7127.0,7.6974406242370605,142,9950.0
8330,0.21399196982383728,4.160384654998779,161,7127.0,7.037280082702637,130,9950.0
8340,0.21416927874088287,8.885247230529785,-3,7127.0,8.59554672241211,112,9950.0
8350,0.2125924825668335,8.183904647827148,136,7127.0,9.134031295776367,195,9950.0
8360,0.21232235431671143,12.047740936279297,171,7127.0,7.412698268890381,147,9950.0
8370,0.21304768323898315,10.263947486877441,204,7127.0,7.808940887451172,142,9950.0
8380,0.21355435252189636,5.075566291809082,85,7127.0,5.5942206382751465,-9,9950.0
8390,0.21365466713905334,-2.617159605026245,63,7127.0,4.153081893920898,-93,9950.0
8400,0.21228115260601044,-8.3158540725708,-34,7127.0,1.0824339389801025,-133,9950.0
8410,0.2125757783651352,-4.722620964050293,-106,7127.0,-2.0313658714294434,64,9950.0
8420,0.21244578063488007,-4.109111785888672,-59,7127.0,-1.1370749473571777,-13,9950.0
8430,0.21244844794273376,-3.630523681640625,-9,7127.0,-0.6648604869842529,55,9950.0
8440,0.21013997495174408,-2.4340784549713135,-43,7127.0,-3.041954278945923,-68,9950.0
8450,0.20994584262371063,-1.2640883922576904,-67,7127.0,-3.113414764404297,-20,9950.0
8460,0.2098636031150818,-4.652892112731934,-142,7127.0,-3.774778127670288,9,9950.0
8470,0.20950891077518463,-8.734292030334473,-173,7127.0,-2.1903114318847656,13,9950.0
8480,0.2093762904405594,-5.990798473358154,-173,7127.0,-0.7236740589141846,66,9950.0
8490,0.20945614576339722,-7.400971412658691,-108,7127.0,-1.978597640991211,-62,9950.0
8500,0.20913435518741608,-9.261006355285645,-94,7127.0,-0.5676755905151367,-86,9950.0
8510,0.2086987942457199,-9.720843315124512,-63,7127.0,-3.090059518814087,-238,9950.0
8520,0.2081453651189804,-8.216574668884277,-9,7127.0,-1.7465596199035645,-137,9950.0
8530,0.20856700837612152,-3.054290771484375,-64,7127.0,-5.533769607543945,-134,9950.0
8540,0.20838336646556854,-4.385726451873779,-104,7127.0,-3.330244541168213,-91,9950.0
8550,0.20828793942928314,-8.873174667358398,-144,7127.0,-0.15386702120304108,-113,9950.0
8560,0.20816607773303986,-9.897112846374512,-163,7127.0,0.3411637544631958,-1,9950.0
8570,0.20660971105098724,-12.215105056762695,-301,7127.0,2.200083017349243,101,9950.0
8580,0.2064526230096817,-11.155675888061523,-285,7127.0,1.9394205808639526,137,9950.0
8590,0.20605647563934326,-7.529313087463379,-121,7127.0,1.1298454999923706,85,9950.0
8600,0.20587307214736938,0.32006850838661194,15,7127.0,-1.3721883296966553,137,9950.0
8610,0.20540885627269745,15.549814224243164,254,7127.0,-1.6063570976257324,95,9950.0
8620,0.20600661635398865,13.362228393554688,242,7127.0,4.587275505065918,1,9950.0
8630,0.20600736141204834,6.882109642028809,176,7127.0,1.5162190198898315,-146,9950.0
8640,0.2060425579547882,-3.768827438354492,62,7127.0,-0.017900003120303154,-104,9950.0
8650,0.206156924366951,-5.952245235443115,-7,7127.0,-4.651498317718506,-164,9950.0
8660,0.20534667372703552,-13.247175216674805,-169,7127.0,-7.869979381561279,-116,9950.0
8670,0.2053476721048355,-14.925873756408691,-167,7127.0,-5.120556831359863,-258,9950.0
8680,0.20527614653110504,-16.065902709960938,-332,7127.0,-14.475632667541504,-128,9950.0
8690,0.2052573710680008,-14.072054862976074,-384,7127.0,-10.85606861114502,-85,9950.0
8700,0.20564042031764984,-10.235421180725098,-194,7127.0,-10.04150104522705,-42,9950.0
8710,0.20920872688293457,-8.197084426879883,-207,7127.0,-4.602382659912109,1,9950.0
8720,0.20975488424301147,-4.412102699279785,-102,7127.0,-2.1948769092559814,7,9950.0
8730,0.21004411578178406,-4.63656759262085,-38,7127.0,4.32121467590332,-14,9950.0
8740,0.210659459233284,1.4140523672103882,112,7127.0,4.466296672821045,76,9950.0
8750,0.21164090931415558,2.3236234188079834,156,7127.0,5.264712810516357,58,9950.0
8760,0.21281886100769043,5.45106840133667,159,7127.0,3.1542859077453613,81,9950.0
8770,0.21269842982292175,1.8991992473602295,57,7127.0,4.41045618057251,182,9950.0
8780,0.2152460515499115,-0.8402422070503235,-87,7127.0,5.604240417480469,149,9950.0
8790,0.21706923842430115,-4.129494667053223,-128,7127.0,-5.29622745513916,-12,9950.0
8800,0.21772627532482147,-4.681136608123779,-249,7127.0,-6.523962020874023,-83,9950.0
8810,0.21826410293579102,-6.884823322296143,-149,7127.0,-6.3894195556640625,-59,9950.0
8820,0.2187645137310028,-10.062345504760742,-111,7127.0,-8.762598037719727,-256,9950.0
8830,0.2192501425743103,-10.400519371032715,-33,7127.0,-10.553594589233398,-138,9950.0
8840,0.22060532867908478,-7.113802909851074,29,7127.0,-9.896602630615234,-256,9950.0
8850,0.2208206206560135,-4.635947227478027,-11,7127.0,-11.126392364501953,-195,9950.0
8860,0.2208845168352127,-2.053323745727539,-16,7127.0,-6.632576942443848,-65,9950.0
8870,0.22106768190860748,6.477249622344971,-16,7127.0,-6.549421310424805,-23,9950.0
8880,0.21720409393310547,9.884057998657227,35,7127.0,-4.569874286651611,-1,9950.0
8890,0.21722561120986938,8.524317741394043,128,7127.0,2.8141965866088867,84,9950.0
8900,0.21722282469272614,7.6044697761535645,193,7127.0,8.730405807495117,-25,9950.0
8910,0.21726197004318237,7.168655872344971,215,7127.0,8.55073070526123,34,9950.0
8920,0.2185753732919693,7.962776184082031,157,7127.0,11.776325225830078,257,9950.0
8930,0.21854953467845917,4.661952972412109,86,7127.0,8.045496940612793,132,9950.0
8940,0.21863915026187897,4.111246109008789,27,7127.0,5.564062595367432,208,9950.0
8950,0.2187824547290802,4.9281325340271,78,7127.0,3.750880718231201,17,9950.0
8960,0.21897347271442413,5.591883182525635,147,7127.0,-0.0114241698756814,-106,9950.0
8970,0.21949632465839386,7.66373348236084,255,7127.0,-5.837145805358887,-38,9950.0
8980,0.21975493431091309,6.5990447998046875,51,7127.0,-5.971650123596191,-27,9950.0
8990,0.22013477981090546,3.919318199157715,-56,7127.0,-5.274651050567627,-48,9950.0
9000,0.22054558992385864,1.2582719326019287,3,7127.0,-2.8891985416412354,-130,9950.0
9010,0.2257346659898758,-1.0416713953018188,47,7127.0,-3.432041645050049,-232,9950.0
9020,0.22640499472618103,0.9803416728973389,24,7127.0,-6.966664791107178,-21,9950.0
9030,0.2276374250650406,1.8206264972686768,-27,7127.0,-3.174154043197632,57,9950.0
9040,0.2283368706703186,4.210023880004883,-14,7127.0,-2.1870548725128174,-6,9950.0
9050,0.22956639528274536,2.5918478965759277,148,7127.0,4.376634120941162,19,9950.0
9060,0.23008739948272705,4.19848108291626,152,7127.0,4.894221305847168,-16,9950.0
9070,0.23107196390628815,5.250377655029297,191,7127.0,7.150943756103516,79,9950.0
9080,0.23219817876815796,8.56299877166748,154,7127.0,3.432112693786621,234,9950.0
9090,0.23322580754756927,9.465798377990723,165,7127.0,9.015313148498535,290,9950.0
9100,0.23285184800624847,9.460334777832031,104,7127.0,5.5307393074035645,88,9950.0
9110,0.23355883359909058,9.792381286621094,232,7127.0,9.888848304748535,120,9950.0
9120,0.2340930551290512,9.634160041809082,220,7127.0,3.2426600456237793,58,9950.0
9130,0.2349986582994461,7.651625156402588,213,7127.0,1.0800888538360596,-32,9950.0
9140,0.23729731142520905,8.148743629455566,79,7127.0,-0.8147597908973694,56,9950.0
9150,0.2379564791917801,8.166253089904785,36,7127.0,-0.8637334108352661,157,9950.0
9160,0.23873600363731384,6.103171348571777,31,7127.0,1.3354277610778809,42,9950.0
9170,0.23949670791625977,7.890859603881836,32,7127.0,0.36220094561576843,-17,9950.0
9180,0.24008145928382874,4.704983711242676,80,7127.0,9.560758590698242,52,9950.0
9190,0.24161143600940704,3.551002264022827,177,7127.0,11.796813011169434,164,9950.0
9200,0.24200506508350372,4.031786918640137,101,7127.0,11.25013542175293,55,9950.0
9210,0.24244359135627747,4.194849491119385,89,7127.0,10.253419876098633,86,9950.0
9220,0.24291285872459412,3.130885124206543,-85,7127.0,8.631307601928711,155,9950.0
9230,0.24395306408405304,3.698272943496704,-117,7127.0,2.763608932495117,106,9950.0
9240,0.24445044994354248,1.9838467836380005,-56,7127.0,1.0597273111343384,144,9950.0
9250,0.24497970938682556,-0.5485625267028809,-94,7127.0,0.11665347218513489,125,9950.0
9260,0.24527056515216827,-4.1700334548950195,-41,7127.0,4.085763454437256,161,9950.0
9270,0.24563813209533691,-7.433565616607666,-174,7127.0,2.830798864364624,105,9950.0
9280,0.2457973212003708,-9.369226455688477,-212,7127.0,2.1732733249664307,35,9950.0
9290,0.24578499794006348,-11.624551773071289,-149,7127.0,6.851840496063232,81,9950.0
9300,0.24566338956356049,-8.0498046875,-125,7127.0,4.5081939697265625,-72,9950.0
9310,0.2455231249332428,-5.638364315032959,60,7127.0,4.3569464683532715,44,9950.0
9320,0.24471262097358704,-4.156463623046875,29,7127.0,8.290379524230957,81,9950.0
9330,0.24450843036174774,-1.3273448944091797,93,7127.0,10.092300415039062,204,9950.0
9340,0.24432609975337982,1.9517788887023926,66,7127.0,7.399936676025391,146,9950.0
9350,0.24405908584594727,1.557631015777588,9,7127.0,3.8390989303588867,212,9950.0
9360,0.24617156386375427,2.0642623901367188,6,7127.0,2.0201632976531982,123,9950.0
9370,0.24599221348762512,4.134843826293945,39,7127.0,0.23546873033046722,109,9950.0
9380,0.2458147406578064,4.3659586906433105,-76,7127.0,-1.9735839366912842,50,9950.0
9390,0.24530182778835297,1.8330711126327515,41,7127.0,-1.5736042261123657,-1,9950.0
9400,0.24557119607925415,-2.471266508102417,-7,7127.0,-5.881804466247559,-110,9950.0
9410,0.24664153158664703,-6.730325222015381,-74,7127.0,-7.418848991394043,-197,9950.0
9420,0.24665933847427368,-8.695063591003418,-110,7127.0,-7.7781982421875,-135,9950.0
9430,0.246743842959404,-12.737808227539062,-171,7127.0,-8.695526123046875,-42,9950.0
9440,0.2468317151069641,-15.731077194213867,-210,7127.0,-3.551805257797241,-57,9950.0
9450,0.2501000761985779,-14.657543182373047,-111,7127.0,-3.160991668701172,-76,9950.0
9460,0.25040170550346375,-11.503470420837402,-105,7127.0,2.249803304672241,2,9950.0
9470,0.250485897064209,-9.389361381530762,-55,7127.0,7.384626865386963,104,9950.0
9480,0.2512463927268982,-9.710360527038574,-13,7127.0,6.014523029327393,-1,9950.0
9490,0.2530573606491089,-6.7442121505737305,8,7127.0,4.721869468688965,-42,9950.0
9500,0.2535589337348938,-6.270138740539551,-8,7127.0,2.566577196121216,-150,9950.0
9510,0.25401920080184937,-4.4017438888549805,-77,7127.0,-0.9825424551963806,-50,9950.0
9520,0.2544446587562561,-2.9636569023132324,-50,7127.0,-5.83960485458374,-60,9950.0
9530,0.25479283928871155,-1.5792094469070435,-105,7127.0,-10.302395820617676,-38,9950.0
9540,0.2570383846759796,-5.136202335357666,-193,7127.0,-8.685050010681152,-98,9950.0
9550,0.2575085759162903,-7.59191370010376,-248,7127.0,-11.538000106811523,-119,9950.0
9560,0.2579669654369354,-9.979257583618164,-258,7127.0,-10.439875602722168,-15,9950.0
9570,0.25812965631484985,-11.451516151428223,-232,7127.0,-5.054968357086182,-57,9950.0
9580,0.2610825300216675,-9.609526634216309,-200,7127.0,-5.6290764808654785,60,9950.0
9590,0.26145482063293457,-6.3503899574279785,-209,7127.0,-1.6810001134872437,106,9950.0
9600,0.2617608606815338,-5.122521877288818,-190,7127.0,3.0143368244171143,160,9950.0
9610,0.2620023190975189,-2.8331356048583984,-122,7127.0,8.23558521270752,253,9950.0
9620,0.26558932662010193,0.1079433411359787,-113,7127.0,7.501964569091797,206,9950.0
9630,0.26596948504447937,3.835872173309326,39,7127.0,5.800386905670166,151,9950.0
9640,0.26671475172042847,7.5513691902160645,188,7127.0,5.323419570922852,89,9950.0
9650,0.26739048957824707,5.515603065490723,61,7127.0,6.713009357452393,108,9950.0
9660,0.2677094042301178,4.332090854644775,102,7127.0,1.4456924200057983,-145,9950.0
9670,0.2704252600669861,1.8343214988708496,104,7127.0,0.5615936517715454,-88,9950.0
9680,0.27093037962913513,1.3378288745880127,-26,7127.0,-5.09109354019165,-237,9950.0
9690,0.2713770270347595,1.4665992259979248,88,7127.0,-5.233983039855957,-109,9950.0
9700,0.2718953788280487,-2.4742860794067383,29,7127.0,-7.866705417633057,-230,9950.0
9710,0.27497944235801697,-2.833767890930176,1,7127.0,-7.610631465911865,-168,9950.0
9720,0.2753898799419403,-1.4571069478988647,-63,7127.0,-9.483516693115234,-191,9950.0
9730,0.27571386098861694,-2.7782089710235596,-26,7127.0,-2.5272278785705566,-27,9950.0
9740,0.27602311968803406,0.8784472942352295,-31,7127.0,-7.3399481773376465,21,9950.0
9750,0.27632102370262146,3.530534029006958,34,7127.0,-6.112549781799316,71,9950.0
9760,0.2789737582206726,6.169300556182861,32,7127.0,-2.665391445159912,101,9950.0
9770,0.27941787242889404,4.43520450592041,-46,7127.0,5.7535786628723145,147,9950.0
9780,0.2798677086830139,6.539538860321045,13,7127.0,3.7889904975891113,224,9950.0
9790,0.2803006172180176,7.733048439025879,-17,7127.0,-0.48707816004753113,166,9950.0
9800,0.2833044230937958,8.161816596984863,65,7127.0,-6.789992332458496,133,9950.0
9810,0.2839938998222351,3.3866705894470215,42,7127.0,-1.1759092807769775,109,9950.0
9820,0.2847505211830139,3.06935453414917,-66,7127.0,-2.570021152496338,-28,9950.0
9830,0.2856915295124054,0.1986837089061737,-9,7127.0,-4.260249614715576,10,9950.0
9840,0.286493182182312,0.09158658236265182,27,7127.0,-2.089569330215454,-77,9950.0
9850,0.28986087441444397,5.095204830169678,65,7127.0,-4.826797962188721,50,9950.0
9860,0.290820449590683,4.395029544830322,67,7127.0,-4.593311309814453,35,9950.0
9870,0.2919235825538635,9.975096702575684,140,7127.0,-6.202142238616943,-42,9950.0
9880,0.2931518852710724,11.905783653259277,146,7127.0,-8.947258949279785,-58,9950.0
9890,0.29667314887046814,13.214086532592773,207,7127.0,-8.56625747680664,-46,9950.0
9900,0.29837092757225037,13.676549911499023,193,7127.0,-9.331615447998047,-98,9950.0
9910,0.3011419475078583,11.564021110534668,166,7127.0,-8.471714973449707,-82,9950.0
9920,0.3026444911956787,7.081045150756836,85,7127.0,-4.7476277351379395,-93,9950.0
9930,0.30330073833465576,2.1548657417297363,36,7127.0,-1.1161571741104126,-100,9950.0
9940,0.3046708106994629,-0.13297991454601288,-50,7127.0,-1.335172176361084,-68,9950.0
9950,0.30594950914382935,-0.49608364701271057,-36,7127.0,-3.24106502532959,-96,9950.0
9960,0.30712002515792847,-2.0568716526031494,-24,7127.0,-6.067165851593018,-180,9950.0
9970,0.30815622210502625,-1.2940747737884521,5,7127.0,-7.800465106964111,-285,9950.0
9980,0.30750441551208496,-1.3851349353790283,-5,7127.0,-7.739761829376221,-52,9950.0
9990,0.3083854019641876,-1.2280477285385132,-11,7127.0,-9.792076110839844,-34,9950.0
10000,0.3091929256916046,0.025223037227988243,-26,7127.0,-9.523686408996582,16,9950.0
10010,0.30986109375953674,0.5826436877250671,35,7127.0,-7.9644694328308105,-73,9950.0
10020,0.30833205580711365,4.161524772644043,102,7127.0,-7.831460475921631,-83,9950.0
10030,0.3086892366409302,3.1731865406036377,54,7127.0,-3.4907643795013428,-159,9950.0
10040,0.30900728702545166,2.8287034034729004,67,7127.0,0.624103844165802,-33,9950.0
10050,0.30940571427345276,2.6824698448181152,56,7127.0,2.228930950164795,-21,9950.0
10060,0.30867522954940796,2.6090030670166016,42,7127.0,2.654148817062378,78,9950.0
10070,0.3087761700153351,0.09742022305727005,20,7127.0,8.320820808410645,192,9950.0
10080,0.30882981419563293,-0.19680200517177582,-5,7127.0,7.391336917877197,274,9950.0
10090,0.30881673097610474,-0.3065870404243469,-48,7127.0,7.301801681518555,231,9950.0
10100,0.30877238512039185,0.19528506696224213,-22,7127.0,3.2793784141540527,182,9950.0
10110,0.30787140130996704,-2.6619062423706055,-59,7127.0,6.072856426239014,144,9950.0
10120,0.30763259530067444,-2.286400318145752,-17,7127.0,5.74751615524292,91,9950.0
10130,0.3074982166290283,-3.9293506145477295,-81,7127.0,8.157134056091309,114,9950.0
10140,0.3073281943798065,-2.63545823097229,-59,7127.0,4.373006343841553,38,9950.0
10150,0.3059508502483368,-3.330423355102539,-104,7127.0,1.5979093313217163,91,9950.0
10160,0.30566224455833435,-2.5821726322174072,-102,7127.0,1.8333683013916016,56,9950.0
10170,0.30537793040275574,-2.470855712890625,-89,7127.0,2.0924336910247803,129,9950.0
10180,0.30511218309402466,-0.47003626823425293,-47,7127.0,4.042890548706055,55,9950.0
10190,0.3048795461654663,-1.9893664121627808,-111,7127.0,3.058828115463257,107,9950.0
10200,0.30390483140945435,-2.325382947921753,-87,7127.0,2.7476935386657715,132,9950.0
10210,0.3037102520465851,-3.295154571533203,-122,7127.0,3.40722393989563,104,9950.0
10220,0.3035658001899719,-6.833815574645996,-164,7127.0,6.200079441070557,169,9950.0
10230,0.3034133017063141,-7.498745918273926,-192,7127.0,4.805209159851074,136,9950.0
10240,0.30407804250717163,-7.567403793334961,-105,7127.0,5.030429840087891,182,9950.0
10250,0.30411916971206665,-5.044860363006592,-154,7127.0,3.813051223754883,167,9950.0
10260,0.30422401428222656,-6.663923740386963,-228,7127.0,4.652408123016357,135,9950.0
10270,0.3045329451560974,-5.409084320068359,-134,7127.0,3.624622344970703,60,9950.0
10280,0.3052350580692291,-8.788508415222168,-137,7127.0,4.806889057159424,34,9950.0
10290,0.30554553866386414,-5.6953630447387695,-16,7127.0,3.513329029083252,-102,9950.0
10300,0.3059179186820984,-3.858544111251831,24,7127.0,5.067530155181885,-101,9950.0
10310,0.306290864944458,-4.3816819190979,57,7127.0,3.746366024017334,-174,9950.0
10320,0.30668947100639343,0.08707062155008316,100,7127.0,4.4544172286987305,-99,9950.0
10330,0.30611878633499146,1.3735007047653198,160,7127.0,3.5693159103393555,47,9950.0
10340,0.30669015645980835,4.035785675048828,155,7127.0,4.056626319885254,8,9950.0
10350,0.3072693347930908,1.9146509170532227,109,7127.0,3.7110252380371094,55,9950.0
10360,0.307884156703949,3.3750925064086914,-34,7127.0,2.1335206031799316,51,9950.0
10370,0.30782371759414673,3.1544992923736572,4,7127.0,0.5162560939788818,87,9950.0
10380,0.3082641661167145,3.2498841285705566,39,7127.0,0.10255380719900131,53,9950.0
10390,0.3086933493614197,4.5247273445129395,52,7127.0,-0.38514044880867004,31,9950.0
10400,0.3091180920600891,5.047034740447998,32,7127.0,-1.6106023788452148,-55,9950.0
10410,0.309546560049057,3.6563143730163574,-2,7127.0,-2.289351463317871,23,9950.0
10420,0.3089228868484497,3.0374069213867188,32,7127.0,-2.068408489227295,-2,9950.0
10430,0.30933189392089844,-0.4459390938282013,16,7127.0,0.2427516132593155,54,9950.0
10440,0.30981263518333435,-1.0178368091583252,-8,7127.0,-0.33677202463150024,-41,9950.0
10450,0.3102674186229706,-0.8858533501625061,-27,7127.0,-0.36291059851646423,-64,9950.0
10460,0.30941933393478394,0.7483771443367004,-44,7127.0,-2.021134614944458,-24,9950.0
10470,0.3097754716873169,-1.0356210470199585,-52,7127.0,-0.868013322353363,-70,9950.0
10480,0.31021225452423096,1.059761881828308,-26,7127.0,-3.8135719299316406,-19,9950.0
10490,0.3107311725616455,1.802411675453186,-17,7127.0,1.6943926811218262,-64,9950.0
10500,0.31033992767333984,2.8530781269073486,-20,7127.0,0.1526678055524826,-73,9950.0
10510,0.3107834458351135,4.619580268859863,12,7127.0,-3.9683756828308105,-170,9950.0
10520,0.3112297058105469,4.593269348144531,82,7127.0,-2.512571096420288,-166,9950.0
10530,0.3117355704307556,0.8102884292602539,54,7127.0,0.5522866249084473,-41,9950.0
10540,0.31228065490722656,2.129945755004883,6,7127.0,0.6192140579223633,-66,9950.0
10550,0.3119049370288849,-0.013219892978668213,34,7127.0,1.036224126815796,-49,9950.0
10560,0.3124586045742035,0.265519917011261,-23,7127.0,-2.2737367153167725,-81,9950.0
10570,0.3130125403404236,0.4800700843334198,-52,7127.0,-2.7820825576782227,-49,9950.0
10580,0.3135569393634796,0.37435850501060486,37,7127.0,-2.696707248687744,-74,9950.0
10590,0.31289127469062805,0.5809516906738281,21,7127.0,-1.374206781387329,-121,9950.0
10600,0.3133711814880371,-1.2151203155517578,17,7127.0,0.7096150517463684,-140,9950.0
10610,0.31386563181877136,-0.45102840662002563,-66,7127.0,0.5256714224815369,-35,9950.0
10620,0.31432101130485535,-0.011348813772201538,77,7127.0,1.559975266456604,-69,9950.0
10630,0.3147565722465515,0.12073218822479248,46,7127.0,-1.030120849609375,-48,9950.0
10640,0.31488779187202454,1.0461727380752563,41,7127.0,-0.35978949069976807,52,9950.0
10650,0.3152880370616913,0.20795534551143646,77,7127.0,2.475586414337158,55,9950.0
10660,0.31569597125053406,3.1326348781585693,-6,7127.0,1.8880101442337036,6,9950.0
10670,0.3160465657711029,1.9646705389022827,75,7127.0,3.2542316913604736,-53,9950.0
10680,0.317111074924469,3.882964849472046,48,7127.0,0.2056601196527481,27,9950.0
10690,0.3174625635147095,1.8897364139556885,85,7127.0,2.4195640087127686,64,9950.0
10700,0.3178083896636963,1.2518171072006226,53,7127.0,2.0570430755615234,-2,9950.0
10710,0.31819576025009155,-0.45420899987220764,-32,7127.0,1.404544711112976,24,9950.0
10720,0.31913095712661743,-2.165513753890991,3,7127.0,2.1429812908172607,-66,9950.0
10730,0.3194849491119385,-1.4772825241088867,6,7127.0,-0.5924379229545593,-5,9950.0
10740,0.31981411576271057,1.4956436157226562,12,7127.0,-0.2250286191701889,-27,9950.0
10750,0.3201752007007599,0.4644409418106079,-21,7127.0,2.1930294036865234,80,9950.0
10760,0.32061025500297546,2.6671488285064697,-33,7127.0,2.8795113563537598,103,9950.0
10770,0.32038629055023193,2.956979274749756,43,7127.0,4.351380348205566,74,9950.0
10780,0.3207085430622101,3.0376265048980713,31,7127.0,1.0652642250061035,99,9950.0
10790,0.32100895047187805,4.026031017303467,-3,7127.0,-1.6729092597961426,51,9950.0
10800,0.32129064202308655,3.806980848312378,30,7127.0,1.351701259613037,-10,9950.0
10810,0.3213997483253479,2.3108201026916504,-32,7127.0,-0.3161725401878357,6,9950.0
10820,0.3218252956867218,-0.5964092016220093,-69,7127.0,-0.1938304305076599,61,9950.0
10830,0.3222395181655884,-2.284071922302246,-86,7127.0,0.27849578857421875,49,9950.0
10840,0.3226237893104553,-1.2945359945297241,-84,7127.0,-0.1413174867630005,43,9950.0
10850,0.32300159335136414,-1.1287856101989746,-27,7127.0,-1.9034463167190552,88,9950.0
10860,0.322593092918396,-2.359942674636841,-102,7127.0,-1.7739434242248535,30,9950.0
10870,0.32298699021339417,-2.3356316089630127,-106,7127.0,-1.9629508256912231,138,9950.0
10880,0.32333019375801086,-0.8717033863067627,-64,7127.0,-0.8278033137321472,64,9950.0
10890,0.3236531615257263,-2.739825963973999,-106,7127.0,-1.3354445695877075,-42,9950.0
10900,0.32456010580062866,-2.2156293392181396,-94,7127.0,0.8320874571800232,87,9950.0
10910,0.3249358832836151,-3.2936007976531982,-139,7127.0,0.06006716936826706,73,9950.0
10920,0.3254077434539795,-4.961021423339844,-159,7127.0,-0.542006254196167,88,9950.0
10930,0.3258485496044159,-4.520415306091309,-94,7127.0,1.7076629400253296,106,9950.0
10940,0.3266063332557678,-0.9623062014579773,-98,7127.0,-1.0629838705062866,123,9950.0
10950,0.3271391987800598,-0.4144821763038635,-91,7127.0,-2.5560343265533447,32,9950.0
10960,0.32767948508262634,0.028987595811486244,-66,7127.0,0.6540271043777466,99,9950.0
10970,0.3282473087310791,1.0625797510147095,-36,7127.0,-0.22371962666511536,42,9950.0
10980,0.3287413716316223,3.0354065895080566,9,7127.0,0.6794447302818298,58,9950.0
10990,0.3303566873073578,2.3529603481292725,0,7127.0,0.15895187854766846,101,9950.0
11000,0.33106839656829834,2.308514356613159,-37,7127.0,-1.7362236976623535,45,9950.0
11010,0.3318416476249695,1.9989423751831055,-57,7127.0,-3.4270339012145996,38,9950.0
11020,0.3325825035572052,3.1952033042907715,-12,7127.0,-5.642482757568359,65,9950.0
11030,0.33190447092056274,2.012014150619507,-19,7127.0,-9.236994743347168,4,9950.0
11040,0.33257800340652466,2.7324154376983643,-26,7127.0,-7.449131965637207,-81,9950.0
11050,0.33327388763427734,2.1730380058288574,-53,7127.0,-7.502362251281738,-20,9950.0
11060,0.33400699496269226,-0.37617745995521545,-61,7127.0,-9.38116455078125,-126,9950.0
11070,0.3347209692001343,-0.9448854923248291,3,7127.0,-6.495466232299805,-64,9950.0
11080,0.3355441093444824,-0.8298603296279907,-42,7127.0,-2.6655988693237305,55,9950.0
11090,0.3362739086151123,-0.5351454615592957,-28,7127.0,-1.634326696395874,-16,9950.0
11100,0.3370653986930847,-0.7330676913261414,4,7127.0,1.907265305519104,-102,9950.0
11110,0.337872177362442,0.03431227430701256,-12,7127.0,3.792236328125,53,9950.0
11120,0.33742547035217285,-2.939408540725708,-7,7127.0,6.848865032196045,19,9950.0
11130,0.3381699025630951,-2.877298593521118,1,7127.0,7.619093894958496,88,9950.0
11140,0.33876946568489075,-1.9604533910751343,-61,7127.0,3.491342544555664,12,9950.0
11150,0.3394308090209961,-5.012753963470459,-40,7127.0,1.8361852169036865,-40,9950.0
11160,0.3388281762599945,-4.378479957580566,-38,7127.0,1.3531746864318848,24,9950.0
11170,0.3393178880214691,-4.811047077178955,-18,7127.0,-0.435945600271225,-42,9950.0
11180,0.339774489402771,-2.2966082096099854,-17,7127.0,-2.4470632076263428,8,9950.0
11190,0.340192973613739,-0.9620144963264465,-2,7127.0,-3.4338724613189697,25,9950.0
11200,0.3405694365501404,-0.4937307834625244,-9,7127.0,-4.9241108894348145,-20,9950.0
11210,0.340284526348114,0.3352203965187073,13,7127.0,-2.2742919921875,60,9950.0
11220,0.3405848741531372,0.6867337822914124,-29,7127.0,-3.4664666652679443,113,9950.0
11230,0.3408665657043457,0.39974984526634216,-2,7127.0,-0.08256689459085464,74,9950.0
11240,0.3411194086074829,0.997405469417572,11,7127.0,0.797279417514801,172,9950.0
11250,0.3408851623535156,2.5760445594787598,-31,7127.0,5.434374809265137,203,9950.0
11260,0.3410273790359497,1.1530739068984985,8,7127.0,5.1135663986206055,144,9950.0
11270,0.34113410115242004,0.25896134972572327,-21,7127.0,6.274804592132568,194,9950.0
11280,0.3412163555622101,0.9028291702270508,-11,7127.0,5.634608268737793,122,9950.0
11290,0.34118562936782837,-0.1104193776845932,-57,7127.0,1.1782145500183105,98,9950.0
11300,0.34124478697776794,1.9006861448287964,-37,7127.0,0.5973902344703674,110,9950.0
11310,0.34130486845970154,1.3405494689941406,-71,7127.0,-0.4190925061702728,124,9950.0
11320,0.3413260281085968,-0.47324612736701965,-106,7127.0,0.9118913412094116,95,9950.0
11330,0.3412919342517853,-0.32526397705078125,-55,7127.0,1.2280502319335938,117,9950.0
11340,0.3415292203426361,-0.15348608791828156,-78,7127.0,0.006135407369583845,91,9950.0
11350,0.34142687916755676,-1.6431196928024292,-76,7127.0,2.093080997467041,104,9950.0
11360,0.3415559232234955,-0.008264487609267235,-77,7127.0,3.7160730361938477,140,9950.0
11370,0.3414963483810425,-1.2094483375549316,-67,7127.0,2.0211994647979736,163,9950.0
11380,0.3423033058643341,-2.1586053371429443,-103,7127.0,5.021299362182617,168,9950.0
11390,0.3422126770019531,-2.884273052215576,-115,7127.0,1.6312428712844849,59,9950.0
11400,0.3421419560909271,-6.970074653625488,-149,7127.0,1.677870750427246,100,9950.0
11410,0.3420969247817993,-8.772272109985352,-222,7127.0,0.8404979705810547,113,9950.0
11420,0.34205031394958496,-10.216550827026367,-193,7127.0,-0.3212641775608063,32,9950.0
11430,0.34395021200180054,-8.306205749511719,-140,7127.0,-3.670027732849121,14,9950.0
11440,0.34393808245658875,-7.298443794250488,-115,7127.0,-7.332887172698975,-28,9950.0
11450,0.3438306450843811,-6.7891526222229,-80,7127.0,-7.222387313842773,-112,9950.0
11460,0.34368449449539185,-4.348657131195068,-12,7127.0,-4.113483905792236,-42,9950.0
11470,0.3456830680370331,-0.305746465921402,38,7127.0,-0.9528093934059143,-43,9950.0
11480,0.34563907980918884,-0.7012993693351746,19,7127.0,3.1596837043762207,44,9950.0
11490,0.3455231487751007,-0.2719009220600128,22,7127.0,7.796203136444092,98,9950.0
11500,0.3454115092754364,-0.21816496551036835,41,7127.0,10.008066177368164,51,9950.0
11510,0.346747487783432,-0.5000686645507812,60,7127.0,9.956080436706543,124,9950.0
11520,0.34671416878700256,3.0592172145843506,92,7127.0,4.7581562995910645,19,9950.0
11530,0.346721887588501,0.6111037135124207,59,7127.0,2.6186463832855225,-54,9950.0
11540,0.3467893600463867,0.476468950510025,140,7127.0,-1.8461450338363647,-175,9950.0
11550,0.34687986969947815,1.4347355365753174,-7,7127.0,-3.782682180404663,-145,9950.0
11560,0.3506498634815216,-0.3563218116760254,73,7127.0,-5.850903034210205,-189,9950.0
11570,0.3509329855442047,1.1505266427993774,63,7127.0,-7.581962585449219,-137,9950.0
11580,0.3512495756149292,0.662482738494873,34,7127.0,-2.6668949127197266,-137,9950.0
11590,0.3515695333480835,1.7385956048965454,51,7127.0,-3.302872657775879,-98,9950.0
11600,0.3552996516227722,2.967273235321045,47,7127.0,-2.101935625076294,-18,9950.0
11610,0.35591810941696167,4.684720993041992,29,7127.0,-1.5007706880569458,-61,9950.0
11620,0.3565260171890259,4.237507343292236,107,7127.0,3.039358139038086,-74,9950.0
11630,0.35714781284332275,3.35075044631958,107,7127.0,3.5708727836608887,-33,9950.0
11640,0.35778751969337463,3.536947727203369,52,7127.0,2.5477631092071533,-32,9950.0
11650,0.36194273829460144,4.478304386138916,86,7127.0,3.61997389793396,-22,9950.0
11660,0.362831175327301,3.0259618759155273,86,7127.0,1.048282504081726,-60,9950.0
11670,0.3637166917324066,1.682849645614624,39,7127.0,0.5706294775009155,-111,9950.0
11680,0.3646131157875061,0.8405971527099609,29,7127.0,-3.4308524131774902,-206,9950.0
11690,0.3672347664833069,-1.0846668481826782,47,7127.0,-2.706543445587158,-143,9950.0
11700,0.36816659569740295,-1.4613103866577148,54,7127.0,-5.5548810958862305,-93,9950.0
11710,0.3690890371799469,0.6789795756340027,11,7127.0,-3.1777989864349365,-40,9950.0
11720,0.3699977397918701,3.2534193992614746,98,7127.0,-7.021689414978027,-130,9950.0
11730,0.3729655146598816,7.043277263641357,91,7127.0,-6.157137393951416,-18,9950.0
11740,0.37396571040153503,6.361230850219727,102,7127.0,-1.9377295970916748,26,9950.0
11750,0.37491220235824585,6.7384138107299805,103,7127.0,-1.2614853382110596,82,9950.0
11760,0.37588754296302795,5.492729663848877,109,7127.0,1.5196890830993652,82,9950.0
11770,0.3767208755016327,3.919473171234131,55,7127.0,1.4246987104415894,58,9950.0
11780,0.3789154887199402,4.969645023345947,142,7127.0,1.0643553733825684,-84,9950.0
11790,0.3797391951084137,5.525064945220947,174,7127.0,-0.031627144664525986,-87,9950.0
11800,0.38052743673324585,6.7805562019348145,114,7127.0,-3.399909496307373,-13,9950.0
11810,0.3812812268733978,3.915607452392578,58,7127.0,-4.788424491882324,-45,9950.0
11820,0.38334694504737854,3.067098617553711,66,7127.0,-5.843110084533691,14,9950.0
11830,0.38393592834472656,2.0359232425689697,28,7127.0,-7.24232292175293,-122,9950.0
11840,0.38454121351242065,-0.8306892514228821,-22,7127.0,-5.428774833679199,-184,9950.0
11850,0.38500794768333435,-2.2682878971099854,-47,7127.0,-6.779185771942139,-146,9950.0
11860,0.38536661863327026,-1.0020010471343994,-18,7127.0,-10.78990364074707,-230,9950.0
11870,0.3872806429862976,-3.833570718765259,-62,7127.0,-8.609383583068848,-119,9950.0
11880,0.38774698972702026,-4.295657634735107,-81,7127.0,-13.000316619873047,-63,9950.0
11890,0.38815757632255554,-4.176722526550293,-117,7127.0,-6.387050628662109,10,9950.0
11900,0.3885093033313751,-4.335594654083252,-53,7127.0,-3.2157485485076904,-111,9950.0
11910,0.3870326280593872,-2.9478797912597656,-40,7127.0,0.8692220449447632,-77,9950.0
11920,0.3872743546962738,-2.8208835124969482,-43,7127.0,4.933272838592529,11,9950.0
11930,0.38742414116859436,-1.4323092699050903,-8,7127.0,7.439748764038086,85,9950.0
11940,0.38751471042633057,-0.6799396276473999,-6,7127.0,5.385326862335205,160,9950.0
11950,0.3889147937297821,-0.9289355874061584,-8,7127.0,1.9930413961410522,208,9950.0
11960,0.3890385329723358,-3.432340145111084,-95,7127.0,4.058624267578125,154,9950.0
11970,0.3891124725341797,-3.6376969814300537,-85,7127.0,-2.389399766921997,-68,9950.0
11980,0.3891444206237793,-4.42330265045166,-41,7127.0,-2.336625337600708,-118,9950.0
11990,0.38911500573158264,-4.3414130210876465,-80,7127.0,-3.2021846771240234,-98,9950.0
12000,0.3889736235141754,-5.6885175704956055,-53,7127.0,0.15793609619140625,-135,9950.0
12010,0.38882240653038025,-4.653957843780518,-85,7127.0,1.0773447751998901,-76,9950.0
12020,0.3886425793170929,-4.603349685668945,-28,7127.0,0.7250851392745972,51,9950.0
12030,0.3884519040584564,-2.973313570022583,-39,7127.0,5.107713222503662,135,9950.0
12040,0.3876775801181793,-3.2822799682617188,-38,7127.0,5.251863956451416,155,9950.0
12050,0.38745853304862976,-1.7901674509048462,-57,7127.0,5.5083465576171875,230,9950.0
12060,0.3872625231742859,-2.1389644145965576,-59,7127.0,3.946620225906372,135,9950.0
12070,0.3870760202407837,-1.3395746946334839,-47,7127.0,5.74432373046875,145,9950.0
12080,0.38685891032218933,-0.5521056652069092,1,7127.0,6.006354331970215,178,9950.0
12090,0.38540202379226685,0.11464293301105499,31,7127.0,5.470637798309326,143,9950.0
12100,0.3849983215332031,1.7059941291809082,-33,7127.0,4.944173336029053,90,9950.0
12110,0.38462817668914795,-0.8155566453933716,-36,7127.0,2.5789198875427246,0,9950.0
12120,0.38422757387161255,-1.9044243097305298,-65,7127.0,-0.73387211561203,-36,9950.0
12130,0.38532623648643494,-4.257364273071289,-85,7127.0,1.25462007522583,16,9950.0
12140,0.3849397897720337,-1.8496521711349487,-39,7127.0,-3.01983642578125,-87,9950.0
12150,0.38458943367004395,-0.8652552962303162,-34,7127.0,-4.428706169128418,-112,9950.0
12160,0.3842683434486389,-1.386751651763916,3,7127.0,2.501194477081299,-17,9950.0
12170,0.38478946685791016,-2.6292903423309326,-33,7127.0,4.129358291625977,35,9950.0
12180,0.3845631182193756,-1.9202641248703003,-39,7127.0,5.908143997192383,46,9950.0
12190,0.3843596577644348,-0.6285439729690552,42,7127.0,6.738989353179932,14,9950.0
12200,0.3841398358345032,-2.429405689239502,0,7127.0,12.927746772766113,102,9950.0
12210,0.3839073181152344,-1.6878552436828613,26,7127.0,14.604480743408203,136,9950.0
12220,0.3833065927028656,-2.7908430099487305,-51,7127.0,13.391521453857422,86,9950.0
12230,0.38305824995040894,-1.897419810295105,-10,7127.0,8.876371383666992,18,9950.0
12240,0.3828674256801605,-4.095110893249512,15,7127.0,4.479529857635498,-33,9950.0
12250,0.38271594047546387,-6.084259033203125,-31,7127.0,5.370849609375,-29,9950.0
12260,0.3830569386482239,-4.194156646728516,-15,7127.0,-2.228417158126831,-99,9950.0
12270,0.38292744755744934,-2.979336738586426,-38,7127.0,-2.7171518802642822,-186,9950.0
12280,0.3828064203262329,-0.11128794401884079,50,7127.0,-7.289083957672119,-206,9950.0
12290,0.3827584683895111,0.32462388277053833,51,7127.0,-7.6690874099731445,-209,9950.0
12300,0.3827355206012726,1.3945001363754272,101,7127.0,-5.195705413818359,-165,9950.0
12310,0.3828277885913849,3.044900417327881,62,7127.0,-5.050479888916016,-74,9950.0
12320,0.382870614528656,3.877110481262207,78,7127.0,-0.38780683279037476,-26,9950.0
12330,0.38300517201423645,2.5796523094177246,61,7127.0,2.160588502883911,121,9950.0
12340,0.383177787065506,1.6513545513153076,41,7127.0,3.8493151664733887,159,9950.0
12350,0.3840550482273102,1.1998573541641235,5,7127.0,5.090199947357178,148,9950.0
12360,0.38421016931533813,1.1050975322723389,-3,7127.0,6.8654046058654785,174,9950.0
12370,0.38434267044067383,0.7730893492698669,-18,7127.0,2.5008749961853027,121,9950.0
12380,0.38446855545043945,1.7332812547683716,8,7127.0,1.2164009809494019,136,9950.0
12390,0.3845899701118469,2.0258524417877197,-47,7127.0,-2.0569350719451904,139,9950.0
12400,0.3852827847003937,2.1096174716949463,7,7127.0,-1.4910304546356201,46,9950.0
12410,0.38537654280662537,1.7925595045089722,26,7127.0,-3.5930802822113037,-55,9950.0
12420,0.38545361161231995,2.0503499507904053,-5,7127.0,-4.772685527801514,-147,9950.0
12430,0.3855101764202118,3.751145362854004,28,7127.0,-7.48256254196167,-208,9950.0
12440,0.38694047927856445,2.4073739051818848,44,7127.0,-6.240880489349365,-159,9950.0
12450,0.38700297474861145,3.1283092498779297,81,7127.0,-1.1907507181167603,-93,9950.0
12460,0.38708722591400146,4.899004936218262,69,7127.0,-1.0405924320220947,-76,9950.0
12470,0.38712072372436523,4.525640964508057,56,7127.0,0.9729697704315186,-114,9950.0
12480,0.3878720700740814,4.4686431884765625,115,7127.0,3.6988162994384766,1,9950.0
12490,0.387882798910141,3.704824924468994,84,7127.0,3.4350321292877197,121,9950.0
12500,0.3878520131111145,1.292620301246643,-2,7127.0,0.28082141280174255,89,9950.0
12510,0.3878243565559387,0.6338580250740051,34,7127.0,2.1596200466156006,47,9950.0
12520,0.3877626061439514,1.0019408464431763,-4,7127.0,-1.7769320011138916,-81,9950.0
12530,0.3882206082344055,-0.613604724407196,-19,7127.0,-4.347054481506348,36,9950.0
12540,0.38822391629219055,-0.836367666721344,28,7127.0,-3.3323440551757812,33,9950.0
12550,0.3882479667663574,0.8842535614967346,-31,7127.0,-3.8349757194519043,0,9950.0
12560,0.38824889063835144,-0.2542206048965454,-20,7127.0,-2.3118414878845215,33,9950.0
12570,0.3901228904724121,1.4215288162231445,6,7127.0,0.02863561362028122,2,9950.0
12580,0.39019981026649475,2.9258737564086914,34,7127.0,-1.6969947814941406,-57,9950.0
12590,0.39028286933898926,2.065415382385254,30,7127.0,1.1774684190750122,-55,9950.0
12600,0.3903771936893463,3.0137085914611816,80,7127.0,2.2811949253082275,-98,9950.0
12610,0.38992905616760254,2.9772286415100098,95,7127.0,1.1335475444793701,-61,9950.0
12620,0.389946311712265,1.799473762512207,23,7127.0,4.250077247619629,-25,9950.0
12630,0.3899165689945221,-0.054797202348709106,-18,7127.0,2.454040765762329,-37,9950.0
12640,0.38987958431243896,-0.8841912150382996,1,7127.0,-0.3674298822879791,-26,9950.0
12650,0.3898845911026001,-2.245065689086914,-32,7127.0,-1.6101747751235962,27,9950.0
12660,0.3919779658317566,0.9941103458404541,-34,7127.0,-3.113483190536499,31,9950.0
12670,0.39208245277404785,-0.5606833100318909,-12,7127.0,-3.881155490875244,48,9950.0
12680,0.3921993374824524,-2.784003257751465,-60,7127.0,-2.5774662494659424,-25,9950.0
12690,0.3922998905181885,-2.1759586334228516,-42,7127.0,-2.8995747566223145,11,9950.0
12700,0.3925793766975403,-3.41257905960083,-41,7127.0,-1.8128676414489746,0,9950.0
12710,0.39270949363708496,-0.6495652794837952,6,7127.0,-0.14995107054710388,-52,9950.0
12720,0.3927111327648163,1.0233209133148193,-7,7127.0,0.9036673903465271,-99,9950.0
12730,0.3927696943283081,0.9381794929504395,51,7127.0,-0.2936839163303375,-167,9950.0
12740,0.3927721083164215,2.3729703426361084,56,7127.0,-1.0565391778945923,-99,9950.0
12750,0.3944447338581085,1.0702588558197021,39,7127.0,0.6744754910469055,-42,9950.0
12760,0.3945056200027466,0.8335855603218079,14,7127.0,-2.4396724700927734,-43,9950.0
12770,0.39453965425491333,0.17357337474822998,33,7127.0,-0.6128106713294983,51,9950.0
12780,0.39458099007606506,0.03396992385387421,-28,7127.0,-0.563359797000885,55,9950.0
12790,0.3951534628868103,-1.0780025720596313,-55,7127.0,-1.017832636833191,89,9950.0
12800,0.39523249864578247,-1.6258902549743652,-41,7127.0,-3.323533058166504,-48,9950.0
12810,0.3953191339969635,-2.035604238510132,-32,7127.0,-2.088474988937378,-51,9950.0
12820,0.3954407274723053,-0.17919513583183289,27,7127.0,-0.4188304841518402,-35,9950.0
12830,0.3967690169811249,1.0052392482757568,25,7127.0,1.9047746658325195,-26,9950.0
12840,0.3969462215900421,3.066744565963745,28,7127.0,0.7380775809288025,-57,9950.0
12850,0.39694321155548096,2.3616018295288086,38,7127.0,2.650726079940796,-27,9950.0
12860,0.3970012962818146,0.9870021343231201,19,7127.0,0.19756409525871277,24,9950.0
12870,0.39700788259506226,0.35169026255607605,-19,7127.0,2.551213026046753,102,9950.0
12880,0.3973941504955292,0.8770914077758789,-16,7127.0,0.8971875309944153,99,9950.0
12890,0.3973939120769501,0.24955646693706512,26,7127.0,-1.1451975107192993,17,9950.0
12900,0.3974054157733917,0.11074253916740417,-14,7127.0,-2.678849697113037,29,9950.0
12910,0.39739978313446045,-1.0876588821411133,-10,7127.0,-0.7645392417907715,-1,9950.0
12920,0.3987698554992676,-0.7187619805335999,-24,7127.0,-2.645934581756592,-124,9950.0
12930,0.39876773953437805,0.3088822364807129,-10,7127.0,-0.8716786503791809,-177,9950.0
12940,0.3987179398536682,-3.4006459712982178,-35,7127.0,1.173236608505249,-115,9950.0
12950,0.3986480236053467,-0.8225875496864319,-28,7127.0,-6.2971320152282715,122,9950.0
12960,0.3985508382320404,-0.9408237934112549,-15,7127.0,3.842076063156128,146,9950.0
12970,0.39950400590896606,-1.1179611682891846,-56,7127.0,1.9645925760269165,142,9950.0
12980,0.399507999420166,-1.421048879623413,-29,7127.0,3.7320668697357178,125,9950.0
12990,0.3995107412338257,-3.466549873352051,-47,7127.0,3.1052944660186768,67,9950.0
13000,0.39948299527168274,-3.388076066970825,-57,7127.0,2.9240758419036865,-2,9950.0
13010,0.40044763684272766,-2.9439377784729004,-10,7127.0,1.981201410293579,-54,9950.0
13020,0.40040022134780884,-1.5425993204116821,29,7127.0,1.644530177116394,-125,9950.0
13030,0.40028709173202515,-1.5692112445831299,11,7127.0,-3.4168100357055664,-170,9950.0
13040,0.4001201391220093,0.14205530285835266,-21,7127.0,-3.153384208679199,31,9950.0
13050,0.39920470118522644,-0.5554473996162415,-6,7127.0,0.6000592112541199,11,9950.0
13060,0.39900368452072144,0.5699700713157654,3,7127.0,1.5080348253250122,125,9950.0
13070,0.39878952503204346,-0.6530148983001709,-13,7127.0,4.26741886138916,153,9950.0
13080,0.398581862449646,0.5272396206855774,14,7127.0,3.500136137008667,172,9950.0
13090,0.39837178587913513,2.230811834335327,-12,7127.0,5.243120193481445,103,9950.0
13100,0.3988967835903168,0.7813414335250854,11,7127.0,4.828557014465332,-54,9950.0
13110,0.3987498879432678,0.030936947092413902,27,7127.0,2.9394896030426025,-52,9950.0
13120,0.3985908031463623,-1.1157283782958984,-15,7127.0,1.881371021270752,-66,9950.0
13130,0.3983958661556244,-1.840639352798462,-60,7127.0,-1.5116734504699707,-68,9950.0
13140,0.398868590593338,-2.8327324390411377,-26,7127.0,-0.40518563985824585,6,9950.0
13150,0.3986535370349884,-2.8855626583099365,-46,7127.0,-1.7481472492218018,-87,9950.0
13160,0.3984120190143585,-3.476362943649292,-24,7127.0,-0.8820521235466003,112,9950.0
13170,0.39817845821380615,-2.1703007221221924,-77,7127.0,-2.710468292236328,108,9950.0
13180,0.39792224764823914,-2.315675973892212,-76,7127.0,1.154241919517517,69,9950.0
13190,0.39860644936561584,-3.5958473682403564,-38,7127.0,1.207255482673645,-39,9950.0
13200,0.39841943979263306,-1.5469094514846802,-48,7127.0,3.400045871734619,22,9950.0
13210,0.3982352912425995,-4.394326686859131,-85,7127.0,5.799801349639893,27,9950.0
13220,0.39807257056236267,-2.788831949234009,-60,7127.0,5.4112772941589355,30,9950.0
13230,0.399088978767395,-3.771153688430786,-75,7127.0,3.4773690700531006,-97,9950.0
13240,0.3990466296672821,-4.102856636047363,-30,7127.0,-0.6961219310760498,-117,9950.0
13250,0.3989831209182739,-1.5666325092315674,-78,7127.0,-2.888368606567383,-23,9950.0
13260,0.3988949656486511,-2.1867735385894775,-26,7127.0,2.559436559677124,-6,9950.0
13270,0.3999975025653839,-2.6012463569641113,16,7127.0,3.249485492706299,13,9950.0
13280,0.39989975094795227,-0.7229607105255127,-3,7127.0,4.4028849601745605,79,9950.0
13290,0.39986270666122437,-0.7179093956947327,21,7127.0,6.881535053253174,164,9950.0
13300,0.3998071849346161,-1.5283957719802856,-15,7127.0,6.566105842590332,238,9950.0
13310,0.399748295545578,-1.6118686199188232,-39,7127.0,4.638841152191162,157,9950.0
13320,0.40022870898246765,-3.0814757347106934,-95,7127.0,1.3669955730438232,106,9950.0
13330,0.40023887157440186,-4.32581090927124,-71,7127.0,-3.1167869567871094,65,9950.0
13340,0.4002557396888733,-5.243044376373291,-115,7127.0,-1.9138615131378174,113,9950.0
13350,0.4002675414085388,-3.573276996612549,-62,7127.0,-2.131685256958008,70,9950.0
13360,0.40053388476371765,-1.9224536418914795,-56,7127.0,2.2883362770080566,137,9950.0
13370,0.40051329135894775,-0.009381047450006008,-16,7127.0,0.20330992341041565,6,9950.0
13380,0.4005585312843323,2.600121259689331,42,7127.0,-0.06403804570436478,44,9950.0
13390,0.4005664885044098,7.271749496459961,131,7127.0,-1.3919869661331177,37,9950.0
13400,0.40059787034988403,11.568864822387695,122,7127.0,-0.684491753578186,5,9950.0
13410,0.4000435471534729,11.964229583740234,155,7127.0,-0.31487607955932617,-61,9950.0
13420,0.40009498596191406,8.797608375549316,107,7127.0,-2.4598941802978516,-17,9950.0
13430,0.40017691254615784,4.737199783325195,34,7127.0,-3.320207118988037,-107,9950.0
13440,0.40022245049476624,2.992187261581421,80,7127.0,-4.388325214385986,-148,9950.0
13450,0.4001273512840271,2.1322126388549805,26,7127.0,-1.3404548168182373,-120,9950.0
13460,0.40008223056793213,0.9677761197090149,33,7127.0,2.25938081741333,-13,9950.0
13470,0.4000195860862732,0.2377071976661682,-15,7127.0,5.728661060333252,-2,9950.0
13480,0.39991655945777893,-0.8582871556282043,9,7127.0,5.106402397155762,27,9950.0
13490,0.4014020264148712,-1.2844163179397583,-32,7127.0,5.280479431152344,38,9950.0
13500,0.4013670086860657,-3.2272088527679443,43,7127.0,2.284494161605835,-42,9950.0
13510,0.4013046324253082,-2.9103715419769287,5,7127.0,6.398591995239258,-12,9950.0
13520,0.40118613839149475,-1.325418472290039,9,7127.0,-0.21093769371509552,-2,9950.0
13530,0.4010458290576935,1.8744416236877441,75,7127.0,-2.8853542804718018,-18,9950.0
13540,0.40294501185417175,3.3088345527648926,95,7127.0,-2.7564926147460938,-86,9950.0
13550,0.4028218388557434,5.439960956573486,132,7127.0,-2.0443973541259766,-87,9950.0
13560,0.40265604853630066,6.151511192321777,87,7127.0,-4.464657783508301,-25,9950.0
13570,0.40247842669487,5.118648052215576,67,7127.0,-4.29359245300293,44,9950.0
13580,0.40179333090782166,3.877089738845825,77,7127.0,-4.1066484451293945,57,9950.0
13590,0.40156590938568115,3.070753335952759,13,7127.0,-5.023590564727783,31,9950.0
13600,0.4013161361217499,2.459453582763672,-15,7127.0,-5.158894062042236,41,9950.0
13610,0.4010303020477295,0.7123908400535583,-53,7127.0,-4.413187503814697,47,9950.0
13620,0.4007314145565033,-0.7176572680473328,-36,7127.0,-3.7363979816436768,30,9950.0
13630,0.4017631411552429,-2.7114031314849854,-76,7127.0,-1.6043998003005981,58,9950.0
13640,0.4016132950782776,-3.5335893630981445,-62,7127.0,1.2893918752670288,75,9950.0
13650,0.40142473578453064,-3.8123645782470703,-67,7127.0,2.744340181350708,97,9950.0
13660,0.40125036239624023,-1.1897820234298706,-2,7127.0,1.9732145071029663,-9,9950.0
13670,0.4026375412940979,0.08675307780504227,-21,7127.0,1.429080605506897,-12,9950.0
13680,0.40255096554756165,1.3420625925064087,-18,7127.0,-0.6716071367263794,64,9950.0
13690,0.4024779796600342,2.519632577896118,33,7127.0,-2.8250229358673096,-63,9950.0
13700,0.4023737907409668,2.2561540603637695,76,7127.0,-0.9642049074172974,-60,9950.0
13710,0.4025181233882904,2.0622589588165283,61,7127.0,-0.7528696656227112,-111,9950.0
13720,0.40235674381256104,1.574373483657837,45,7127.0,0.9088900685310364,-51,9950.0
13730,0.4022195041179657,1.5849518775939941,36,7127.0,-1.6529711484909058,-83,9950.0
13740,0.40210023522377014,1.5177921056747437,72,7127.0,0.1483243852853775,-66,9950.0
13750,0.4019377827644348,0.2500222325325012,54,7127.0,4.897825241088867,-36,9950.0
13760,0.40182259678840637,-0.055287472903728485,1,7127.0,3.534332036972046,72,9950.0
13770,0.4015161097049713,0.2527562379837036,-18,7127.0,5.275077819824219,46,9950.0
13780,0.4011618196964264,-1.683681845664978,15,7127.0,1.9685839414596558,127,9950.0
13790,0.4008362889289856,-1.2437291145324707,25,7127.0,-1.2384898662567139,-6,9950.0
13800,0.40109631419181824,-0.1746145784854889,-49,7127.0,3.702502727508545,77,9950.0
13810,0.40082746744155884,1.621252417564392,29,7127.0,2.136991262435913,76,9950.0
13820,0.4005281329154968,1.7674851417541504,26,7127.0,1.7631686925888062,132,9950.0
13830,0.4002358615398407,0.11761479824781418,-2,7127.0,6.788543224334717,130,9950.0
13840,0.39995720982551575,1.9196195602416992,-65,7127.0,4.010926723480225,137,9950.0
13850,0.39967796206474304,2.1538524627685547,1,7127.0,2.91268253326416,104,9950.0
13860,0.39940139651298523,0.8549991846084595,-36,7127.0,1.1718189716339111,45,9950.0
13870,0.3990838825702667,1.3764011859893799,4,7127.0,0.3328777849674225,77,9950.0
13880,0.3987528085708618,2.2566142082214355,64,7127.0,0.8982348442077637,50,9950.0
13890,0.4002133011817932,2.6035852432250977,9,7127.0,-1.8327162265777588,135,9950.0
13900,0.3999637961387634,0.6326586008071899,40,7127.0,1.8048797845840454,-14,9950.0
13910,0.3997131884098053,1.0138475894927979,13,7127.0,1.1511950492858887,29,9950.0
13920,0.3995005488395691,1.8939825296401978,-39,7127.0,-2.7312002182006836,92,9950.0
13930,0.39995983242988586,-1.8915224075317383,-32,7127.0,1.3383866548538208,105,9950.0
13940,0.3998242914676666,-1.8820531368255615,-16,7127.0,1.359522819519043,-70,9950.0
13950,0.3996943235397339,-1.93321692943573,12,7127.0,0.2327713966369629,-26,9950.0
13960,0.39958837628364563,-2.25070858001709,-9,7127.0,3.80391526222229,-21,9950.0
13970,0.3995268940925598,-1.844469428062439,-21,7127.0,0.9567179679870605,-81,9950.0
13980,0.4000810384750366,-2.8654677867889404,-34,7127.0,-1.2954754829406738,-126,9950.0
13990,0.4000752568244934,-0.8521654009819031,13,7127.0,-4.049078464508057,-174,9950.0
14000,0.4000459611415863,-0.6234501004219055,11,7127.0,-1.4746309518814087,-141,9950.0
14010,0.3999498784542084,-0.8504223227500916,-19,7127.0,-5.163405418395996,-60,9950.0
14020,0.40176793932914734,-0.42621147632598877,-15,7127.0,-5.5645318031311035,-46,9950.0
14030,0.40166720747947693,-0.41613948345184326,-24,7127.0,-3.5677618980407715,28,9950.0
14040,0.40155029296875,-2.2274532318115234,-34,7127.0,-0.036672819405794144,155,9950.0
14050,0.40141284465789795,-0.5535233616828918,-55,7127.0,0.6975188851356506,125,9950.0
14060,0.4012334942817688,-1.9222748279571533,-29,7127.0,0.40889042615890503,91,9950.0
14070,0.4013251066207886,-1.3576713800430298,-69,7127.0,4.571043968200684,98,9950.0
14080,0.4011456370353699,-2.251485824584961,-38,7127.0,3.631098985671997,10,9950.0
14090,0.40097054839134216,-2.4559922218322754,-20,7127.0,2.801938772201538,35,9950.0
14100,0.40079596638679504,-2.446563720703125,-4,7127.0,2.0774877071380615,-29,9950.0
14110,0.40237531065940857,-0.8697527647018433,-22,7127.0,-1.455572485923767,-108,9950.0
14120,0.402393639087677,-2.147531032562256,8,7127.0,-0.2553984224796295,-160,9950.0
14130,0.4023965895175934,-0.734083354473114,20,7127.0,-4.573545932769775,-77,9950.0
14140,0.40234261751174927,-1.619806170463562,-21,7127.0,-0.3262157738208771,7,9950.0
14150,0.40218812227249146,-1.0508211851119995,-16,7127.0,-2.5635013580322266,-46,9950.0
14160,0.40209823846817017,-3.8161754608154297,-59,7127.0,-1.604752540588379,26,9950.0
14170,0.4019700586795807,-3.441554307937622,-70,7127.0,-2.6238620281219482,68,9950.0
14180,0.40181589126586914,-4.429443359375,-40,7127.0,-2.4382970333099365,63,9950.0
14190,0.4016299545764923,-4.506048679351807,-46,7127.0,1.676734209060669,76,9950.0
14200,0.4016404151916504,-3.0119805335998535,-77,7127.0,4.0850114822387695,46,9950.0
14210,0.4014098346233368,-1.1777185201644897,-36,7127.0,0.7952331900596619,-10,9950.0
14220,0.40116915106773376,-0.8506159782409668,1,7127.0,2.5781683921813965,14,9950.0
