timestamp,kalman.stateZ,gyro.x,gyro.xRaw,gyro.xVariance,gyro.y,gyro.yRaw,gyro.yVariance
0,0.27438420057296753,-0.003547082655131817,3,8124.0,3.355424642562866,50,9909.0
10,0.27442628145217896,-0.09595530480146408,6,8124.0,3.3784830570220947,55,9909.0
20,0.2744487524032593,-0.011483795940876007,-2,8124.0,3.001455783843994,55,9909.0
30,0.27449774742126465,-0.06685113906860352,-1,8124.0,2.993340015411377,52,9909.0
40,0.27451077103614807,-0.06601128727197647,-3,8124.0,2.8030457496643066,46,9909.0
50,0.2738872468471527,-0.2202211618423462,0,8124.0,2.874154567718506,44,9909.0
60,0.2738697826862335,-0.1365818977355957,3,8124.0,2.5467560291290283,42,9909.0
70,0.273853600025177,-0.09376303106546402,2,8124.0,2.229482650756836,40,9909.0
80,0.27384868264198303,0.21979089081287384,1,8124.0,2.0123238563537598,30,9909.0
90,0.2726653516292572,0.10930056124925613,-3,8124.0,1.969293475151062,31,9909.0
100,0.27260085940361023,0.09414287656545639,2,8124.0,1.6363155841827393,26,9909.0
110,0.2725297808647156,0.06544393301010132,4,8124.0,1.1920232772827148,11,9909.0
120,0.27245843410491943,0.07781799882650375,3,8124.0,1.0000423192977905,8,9909.0
130,0.27239423990249634,-0.2124921977519989,-1,8124.0,0.6844033598899841,12,9909.0
140,0.27211692929267883,0.14991508424282074,7,8124.0,0.19933390617370605,-3,9909.0
150,0.27201440930366516,-0.0077824098989367485,5,8124.0,-0.03998327627778053,-6,9909.0
160,0.2724865972995758,-0.09413472563028336,2,8124.0,-0.43424198031425476,-9,9909.0
170,0.27256274223327637,-0.002323658438399434,2,8124.0,-0.7547784447669983,-16,9909.0
180,0.27297887206077576,0.25023120641708374,5,8124.0,-1.5960670709609985,-31,9909.0
190,0.2729664444923401,0.4823837876319885,8,8124.0,-2.4402503967285156,-41,9909.0
200,0.2729717195034027,1.3641256093978882,29,8124.0,-3.7997970581054688,-59,9909.0
210,0.27298954129219055,1.7745709419250488,17,8124.0,-4.004462242126465,-55,9909.0
220,0.2737964987754822,2.8821756839752197,78,8124.0,-5.908472061157227,-126,9909.0
230,0.2738586664199829,1.6408889293670654,53,8124.0,-5.927092552185059,-119,9909.0
240,0.2739243507385254,5.693609714508057,45,8124.0,-9.450545310974121,-112,9909.0
250,0.2740009129047394,7.3044023513793945,85,8124.0,-10.621333122253418,-124,9909.0
260,0.2740895450115204,7.130214691162109,89,8124.0,-11.046056747436523,-134,9909.0
270,0.27366548776626587,7.657520294189453,94,8124.0,-10.35568618774414,-122,9909.0
280,0.27381134033203125,7.208863735198975,64,8124.0,-9.052154541015625,-85,9909.0
290,0.2738662660121918,6.598690986633301,29,8124.0,-9.431811332702637,-94,9909.0
300,0.27392321825027466,6.881336212158203,97,8124.0,-2.763197183609009,-28,9909.0
310,0.27317237854003906,4.7874884605407715,131,8124.0,0.9101178646087646,7,9909.0
320,0.27316099405288696,2.5599653720855713,26,8124.0,1.3775033950805664,40,9909.0
330,0.27315863966941833,1.0972927808761597,-24,8124.0,3.8899621963500977,7,9909.0
340,0.27316075563430786,-0.9699967503547668,15,8124.0,3.7881393432617188,127,9909.0
350,0.2731841504573822,0.32804256677627563,-33,8124.0,4.886931896209717,49,9909.0
360,0.2719128429889679,0.02615061216056347,38,8124.0,4.607909202575684,80,9909.0
370,0.27187246084213257,0.3055621087551117,-14,8124.0,4.179226875305176,61,9909.0
380,0.27183088660240173,1.3002688884735107,47,8124.0,2.9707579612731934,31,9909.0
390,0.2717902362346649,2.299025297164917,33,8124.0,0.8837430477142334,29,9909.0
400,0.2726590633392334,2.590914249420166,79,8124.0,-1.3001997470855713,-46,9909.0
410,0.27269622683525085,3.462139368057251,15,8124.0,-2.739541530609131,-91,9909.0
420,0.2727455198764801,3.452766180038452,35,8124.0,-5.290553092956543,-10,9909.0
430,0.27280092239379883,1.9101917743682861,74,8124.0,-5.949141979217529,-121,9909.0
440,0.27369967103004456,1.0826183557510376,17,8124.0,-4.711639881134033,-225,9909.0
450,0.27382832765579224,0.5352001190185547,-36,8124.0,-4.674188137054443,-74,9909.0
460,0.273957222700119,-0.4532201290130615,-66,8124.0,-4.9927778244018555,85,9909.0
470,0.2741583585739136,-1.2648804187774658,-43,8124.0,-3.5573089122772217,1,9909.0
480,0.2743334472179413,-2.4465694427490234,10,8124.0,-0.19470922648906708,-62,9909.0
490,0.2743658125400543,-2.9266679286956787,0,8124.0,1.8924472332000732,-34,9909.0
500,0.274521142244339,-1.762858510017395,-26,8124.0,2.9393091201782227,57,9909.0
510,0.27468961477279663,-1.5493290424346924,-28,8124.0,3.9024453163146973,121,9909.0
520,0.2748943567276001,-0.5367628335952759,-28,8124.0,4.838580131530762,154,9909.0
530,0.2758508026599884,-0.11449851840734482,-5,8124.0,6.6425251960754395,104,9909.0
540,0.27605968713760376,0.8558892607688904,15,8124.0,5.3771867752075195,106,9909.0
550,0.27624717354774475,1.5492889881134033,56,8124.0,4.918533802032471,136,9909.0
560,0.2764480710029602,2.1659927368164062,90,8124.0,1.8379923105239868,104,9909.0
570,0.2766304314136505,2.0085103511810303,136,8124.0,2.863579273223877,63,9909.0
580,0.2757805585861206,1.1915730237960815,35,8124.0,0.629220724105835,7,9909.0
590,0.2759251594543457,0.4562746286392212,44,8124.0,-0.8956162929534912,-37,9909.0
600,0.276030033826828,-0.5561017990112305,42,8124.0,-4.149554252624512,-49,9909.0
610,0.27608734369277954,1.6676539182662964,-18,8124.0,-0.15269826352596283,-115,9909.0
620,0.2748675048351288,0.10206404328346252,-77,8124.0,-2.1490988731384277,-102,9909.0
630,0.27472826838493347,-0.025091545656323433,-114,8124.0,-3.126084804534912,51,9909.0
640,0.27459898591041565,0.9069775938987732,-110,8124.0,-0.4992533326148987,78,9909.0
650,0.274517685174942,0.538601279258728,-30,8124.0,-2.3591537475585938,113,9909.0
660,0.27427196502685547,-0.4396848678588867,-15,8124.0,-1.8500828742980957,96,9909.0
670,0.27420687675476074,-0.694448709487915,54,8124.0,-1.1078447103500366,34,9909.0
680,0.27417391538619995,-1.058789610862732,55,8124.0,0.9128862619400024,-18,9909.0
690,0.2741831839084625,0.4466225802898407,137,8124.0,0.13409776985645294,-121,9909.0
700,0.27417951822280884,0.0380481481552124,131,8124.0,2.7011005878448486,-179,9909.0
710,0.27488866448402405,-0.5114893317222595,118,8124.0,3.15873384475708,-219,9909.0
720,0.2749449610710144,-1.5860865116119385,58,8124.0,3.958693265914917,-204,9909.0
730,0.27496835589408875,-2.1863040924072266,-34,8124.0,2.8274362087249756,-200,9909.0
740,0.27495723962783813,-2.255959987640381,-54,8124.0,2.545517921447754,-137,9909.0
750,0.27416110038757324,-2.8313283920288086,-84,8124.0,1.3902159929275513,-32,9909.0
760,0.2741507291793823,-2.433046579360962,-107,8124.0,-0.6579722762107849,84,9909.0
770,0.2741798758506775,-1.6523826122283936,6,8124.0,-2.39215087890625,101,9909.0
780,0.27423012256622314,-0.2565886378288269,-56,8124.0,-2.5196423530578613,128,9909.0
790,0.2743670642375946,-0.42919450998306274,-20,8124.0,-1.5346089601516724,135,9909.0
800,0.2752161920070648,1.9147181510925293,-74,8124.0,-3.0225307941436768,121,9909.0
810,0.275509238243103,4.482885360717773,-7,8124.0,-0.45050305128097534,27,9909.0
820,0.2758435010910034,1.5915271043777466,-14,8124.0,0.9828783273696899,-78,9909.0
830,0.2761616110801697,0.36814171075820923,94,8124.0,0.4748682379722595,-94,9909.0
840,0.27680352330207825,3.035142183303833,-13,8124.0,0.9231991171836853,56,9909.0
850,0.27711591124534607,0.2639005482196808,-78,8124.0,-0.06877624243497849,108,9909.0
860,0.27743399143218994,-0.7594318389892578,-114,8124.0,0.09658896923065186,176,9909.0
870,0.27776196599006653,-0.9870872497558594,-110,8124.0,-0.1327325701713562,134,9909.0
880,0.27844923734664917,0.3803786039352417,-104,8124.0,-2.9663031101226807,189,9909.0
890,0.2787703275680542,-0.831820547580719,-128,8124.0,-1.7892003059387207,191,9909.0
900,0.27908697724342346,-1.032293438911438,-71,8124.0,-1.347191572189331,208,9909.0
910,0.2794378101825714,-0.8644150495529175,-21,8124.0,-2.499462842941284,187,9909.0
920,0.2797635793685913,-0.9745222926139832,106,8124.0,-1.2686424255371094,105,9909.0
930,0.2772653102874756,0.007157052867114544,136,8124.0,-1.0326588153839111,-6,9909.0
940,0.27738404273986816,1.4470314979553223,143,8124.0,-1.7144052982330322,-69,9909.0
950,0.2774762213230133,1.036598801612854,67,8124.0,0.5295584797859192,-132,9909.0
960,0.2775087356567383,-0.4232717454433441,34,8124.0,1.2320150136947632,-220,9909.0
970,0.2765260338783264,-0.3195700943470001,42,8124.0,2.5524649620056152,-127,9909.0
980,0.27652695775032043,-1.5379666090011597,-39,8124.0,2.6541945934295654,25,9909.0
990,0.27653932571411133,-1.5258136987686157,-54,8124.0,2.600165367126465,143,9909.0
1000,0.27655085921287537,1.07002854347229,34,8124.0,4.737468242645264,103,9909.0
1010,0.2765294909477234,-0.24086038768291473,39,8124.0,2.3282759189605713,41,9909.0
1020,0.27546951174736023,-1.6173478364944458,-5,8124.0,3.1174330711364746,-58,9909.0
1030,0.27538418769836426,1.0629478693008423,105,8124.0,2.9107537269592285,-104,9909.0
1040,0.27540257573127747,-0.23865318298339844,167,8124.0,-0.5718594193458557,-53,9909.0
1050,0.27557212114334106,0.775745153427124,170,8124.0,-3.8403613567352295,-167,9909.0
1060,0.2756294310092926,0.5149089097976685,150,8124.0,-1.2270945310592651,-207,9909.0
1070,0.2759722173213959,3.292025566101074,157,8124.0,-3.72294020652771,-281,9909.0
1080,0.2762846052646637,3.114623546600342,186,8124.0,-3.732697010040283,-275,9909.0
1090,0.2765692174434662,4.451319217681885,147,8124.0,-6.748411655426025,-269,9909.0
1100,0.2765375077724457,1.373529314994812,126,8124.0,-4.099806785583496,-242,9909.0
1110,0.27691227197647095,0.7968441247940063,111,8124.0,-3.1552000045776367,-194,9909.0
1120,0.2771819233894348,-1.3352540731430054,76,8124.0,-1.1437946557998657,-97,9909.0
1130,0.2774442732334137,-4.3891754150390625,33,8124.0,1.4064059257507324,-39,9909.0
1140,0.27769821882247925,-6.189572811126709,-21,8124.0,4.471385478973389,10,9909.0
1150,0.2768600881099701,-4.834409713745117,-61,8124.0,6.183682918548584,-41,9909.0
1160,0.277070015668869,-6.821868896484375,-99,8124.0,4.45952844619751,-4,9909.0
1170,0.27721887826919556,-2.0791962146759033,-53,8124.0,6.726100921630859,49,9909.0
1180,0.27728208899497986,-1.875864028930664,-7,8124.0,6.377664089202881,-2,9909.0
1190,0.2757679522037506,0.49201494455337524,-33,8124.0,6.327940940856934,-52,9909.0
1200,0.2759164869785309,2.5209391117095947,109,8124.0,2.9035449028015137,-44,9909.0
1210,0.27599412202835083,3.203640937805176,160,8124.0,3.959543228149414,-134,9909.0
1220,0.276073157787323,3.7560901641845703,166,8124.0,1.4673362970352173,-253,9909.0
1230,0.27574172616004944,4.452390193939209,153,8124.0,-0.4911385178565979,-223,9909.0
1240,0.2758195698261261,3.666978359222412,169,8124.0,-3.0763630867004395,-76,9909.0
1250,0.2758710980415344,3.9761030673980713,131,8124.0,-5.576254844665527,20,9909.0
1260,0.2759385108947754,2.3785524368286133,9,8124.0,-5.865093231201172,24,9909.0
1270,0.2760418653488159,-0.19951553642749786,-71,8124.0,-4.673814296722412,28,9909.0
1280,0.27578243613243103,-3.379040479660034,-120,8124.0,-4.338098049163818,11,9909.0
1290,0.27590450644493103,-4.326252460479736,-139,8124.0,-3.3123531341552734,38,9909.0
1300,0.2759737968444824,-5.895421028137207,-95,8124.0,-2.417619466781616,87,9909.0
1310,0.27618423104286194,-4.663508892059326,-104,8124.0,3.4291014671325684,-33,9909.0
1320,0.27753597497940063,-1.1193935871124268,-30,8124.0,4.135300159454346,-87,9909.0
1330,0.2779744267463684,-0.28434860706329346,172,8124.0,4.379875659942627,-102,9909.0
1340,0.278298556804657,1.4548120498657227,161,8124.0,5.625121593475342,11,9909.0
1350,0.27852296829223633,2.9138636589050293,85,8124.0,3.0827558040618896,197,9909.0
1360,0.2786821722984314,4.204109191894531,-18,8124.0,2.305598497390747,232,9909.0
1370,0.27853864431381226,4.281134605407715,1,8124.0,1.5127685070037842,3,9909.0
1380,0.2785837948322296,3.5529332160949707,86,8124.0,0.35349977016448975,-185,9909.0
1390,0.2786180078983307,2.0892128944396973,94,8124.0,-2.239325761795044,-33,9909.0
1400,0.2786547839641571,-1.0807511806488037,-6,8124.0,-2.1347620487213135,-15,9909.0
1410,0.27840477228164673,-1.2255747318267822,-58,8124.0,-4.760993003845215,-71,9909.0
1420,0.2783055901527405,-2.4330177307128906,-58,8124.0,-5.1721673011779785,48,9909.0
1430,0.27817103266716003,-2.595391273498535,-153,8124.0,-4.344033241271973,-41,9909.0
1440,0.2780416011810303,-2.332828998565674,-96,8124.0,-1.2337524890899658,-116,9909.0
1450,0.2779639959335327,-2.683908700942993,59,8124.0,-0.04989408701658249,-149,9909.0
1460,0.2784348428249359,-4.141366481781006,31,8124.0,1.0331847667694092,79,9909.0
1470,0.2785983383655548,-2.6697840690612793,-110,8124.0,1.918535828590393,158,9909.0
1480,0.27881771326065063,0.17512261867523193,-23,8124.0,2.4672586917877197,85,9909.0
1490,0.2790960967540741,0.6566739678382874,52,8124.0,4.900637626647949,-84,9909.0
1500,0.27817997336387634,1.7238072156906128,75,8124.0,5.2627644538879395,120,9909.0
1510,0.2785455882549286,3.1379361152648926,84,8124.0,3.6867945194244385,87,9909.0
1520,0.27894964814186096,3.499852180480957,92,8124.0,3.1321511268615723,28,9909.0
1530,0.27932170033454895,2.482962131500244,41,8124.0,1.4396616220474243,81,9909.0
1540,0.27854615449905396,2.226780891418457,-65,8124.0,-0.7170677781105042,-45,9909.0
1550,0.27873295545578003,0.34836438298225403,33,8124.0,-2.0301270484924316,-55,9909.0
1560,0.27897241711616516,-2.2130274772644043,97,8124.0,0.1916808933019638,-241,9909.0
1570,0.27933815121650696,-1.7621464729309082,18,8124.0,-1.9177464246749878,-80,9909.0
1580,0.27980536222457886,-2.6511199474334717,-39,8124.0,-1.6979061365127563,53,9909.0
1590,0.2787664830684662,-2.8799021244049072,-76,8124.0,-0.3238063156604767,150,9909.0
1600,0.2792420983314514,-2.9492666721343994,-52,8124.0,0.42810460925102234,-82,9909.0
1610,0.279780775308609,-1.983848214149475,13,8124.0,0.4750928282737732,-87,9909.0
1620,0.2804063558578491,0.5338175892829895,29,8124.0,-0.7468719482421875,21,9909.0
1630,0.2789135277271271,0.777418851852417,26,8124.0,-0.50589519739151,7,9909.0
1640,0.2793678939342499,-0.22555074095726013,71,8124.0,-0.32970279455184937,-38,9909.0
1650,0.2797393500804901,1.9935922622680664,-73,8124.0,0.12733158469200134,161,9909.0
1660,0.28008922934532166,3.0906882286071777,-26,8124.0,0.9555458426475525,49,9909.0
1670,0.27913057804107666,-1.0042744874954224,-11,8124.0,1.7193928956985474,-182,9909.0
1680,0.27962273359298706,0.36187252402305603,140,8124.0,-0.5104992389678955,-85,9909.0
1690,0.2801942825317383,-1.0868819952011108,44,8124.0,0.3718341588973999,23,9909.0
1700,0.28076645731925964,-1.034232258796692,-65,8124.0,0.40602752566337585,203,9909.0
1710,0.28134068846702576,-1.0995509624481201,-71,8124.0,1.067040205001831,47,9909.0
1720,0.28018614649772644,-1.68538236618042,11,8124.0,0.8146854639053345,-117,9909.0
1730,0.2806054353713989,0.7366250157356262,89,8124.0,-1.7523523569107056,-80,9909.0
1740,0.28090959787368774,0.41124427318573,55,8124.0,-0.5551284551620483,14,9909.0
1750,0.2811673879623413,2.964562177658081,72,8124.0,-2.3535757064819336,-27,9909.0
1760,0.2794761657714844,2.115896701812744,14,8124.0,-2.756117582321167,13,9909.0
1770,0.2798468768596649,2.3387227058410645,50,8124.0,-3.3877010345458984,44,9909.0
1780,0.28032487630844116,0.4380556046962738,-88,8124.0,-1.2355529069900513,-116,9909.0
1790,0.28082403540611267,-0.6094895601272583,58,8124.0,-2.131516933441162,-182,9909.0
1800,0.27996766567230225,-1.3938429355621338,106,8124.0,-2.863152503967285,-184,9909.0
1810,0.2802385091781616,-2.5967466831207275,19,8124.0,-3.997277021408081,34,9909.0
1820,0.28050678968429565,-1.8405205011367798,-139,8124.0,-2.5341999530792236,137,9909.0
1830,0.2806914746761322,-2.9115846157073975,-75,8124.0,-1.7212257385253906,10,9909.0
1840,0.2808179557323456,-2.3719160556793213,-23,8124.0,-0.7043214440345764,-188,9909.0
1850,0.2794201374053955,-1.8954116106033325,14,8124.0,-0.05636283755302429,8,9909.0
1860,0.2795301377773285,-0.0497279092669487,30,8124.0,0.28474318981170654,1,9909.0
1870,0.27976274490356445,0.7443342208862305,41,8124.0,-0.14484485983848572,11,9909.0
1880,0.2800729274749756,2.00504994392395,79,8124.0,0.3508674204349518,131,9909.0
1890,0.27955639362335205,3.073122978210449,-15,8124.0,1.2497167587280273,51,9909.0
1900,0.2797052264213562,3.5486276149749756,28,8124.0,1.8117717504501343,-172,9909.0
1910,0.2797296345233917,5.71312141418457,162,8124.0,0.7691475749015808,-99,9909.0
1920,0.2797600030899048,2.474966526031494,93,8124.0,0.11586719751358032,57,9909.0
1930,0.27986860275268555,1.7774126529693604,-104,8124.0,0.3495561182498932,195,9909.0
1940,0.2783849239349365,0.11544033885002136,-39,8124.0,0.8064281940460205,-29,9909.0
1950,0.2784501612186432,-1.672268271446228,14,8124.0,-0.17361824214458466,-156,9909.0
1960,0.27850306034088135,-2.4795031547546387,21,8124.0,-1.2823197841644287,28,9909.0
1970,0.27861306071281433,-2.8863120079040527,-79,8124.0,-1.391185998916626,-13,9909.0
1980,0.27857837080955505,-2.871084690093994,-85,8124.0,-3.5794150829315186,11,9909.0
1990,0.27887997031211853,-0.9410207867622375,-93,8124.0,-4.682824611663818,22,9909.0
2000,0.279193639755249,-1.561993956565857,-37,8124.0,-1.277622938156128,-177,9909.0
2010,0.2794182300567627,-0.8982961177825928,106,8124.0,0.3267172574996948,-101,9909.0
2020,0.2789064049720764,2.621636390686035,107,8124.0,0.3591180741786957,106,9909.0
2030,0.2788931131362915,3.721752405166626,-73,8124.0,1.5631831884384155,142,9909.0
2040,0.27884218096733093,2.9470951557159424,20,8124.0,3.9228639602661133,-26,9909.0
2050,0.27875950932502747,2.3452346324920654,100,8124.0,5.097491264343262,-80,9909.0
2060,0.2786249816417694,1.4290703535079956,54,8124.0,4.577073097229004,175,9909.0
2070,0.27813461422920227,0.8451974987983704,-56,8124.0,2.912830114364624,112,9909.0
2080,0.27782779932022095,-1.1529666185379028,-39,8124.0,3.4668118953704834,-21,9909.0
2090,0.2775653302669525,-2.5645875930786133,-67,8124.0,3.2652852535247803,35,9909.0
2100,0.27733808755874634,-1.6920592784881592,35,8124.0,-1.2844295501708984,-114,9909.0
2110,0.27787157893180847,-1.5871849060058594,-28,8124.0,-2.664874315261841,95,9909.0
2120,0.27788737416267395,-0.7707985639572144,-62,8124.0,-5.929182052612305,-96,9909.0
2130,0.27801576256752014,0.29584386944770813,5,8124.0,-3.636341094970703,-227,9909.0
2140,0.27819788455963135,-0.42774972319602966,121,8124.0,-2.027965784072876,-103,9909.0
2150,0.2783801853656769,-0.7676901817321777,-28,8124.0,-2.1778979301452637,156,9909.0
2160,0.27839428186416626,0.6154419183731079,-63,8124.0,0.1735660433769226,6,9909.0
2170,0.278628408908844,0.7910780310630798,109,8124.0,1.8559385538101196,-121,9909.0
2180,0.2789054811000824,0.6871940493583679,42,8124.0,3.797811985015869,156,9909.0
2190,0.2792646288871765,1.3791052103042603,39,8124.0,3.250584602355957,151,9909.0
2200,0.27839136123657227,0.7229548096656799,-37,8124.0,5.182647228240967,78,9909.0
2210,0.2788645923137665,2.1819558143615723,6,8124.0,3.022613525390625,150,9909.0
2220,0.279427707195282,-0.6584925651550293,25,8124.0,6.024829864501953,-98,9909.0
2230,0.28001224994659424,-0.9848638772964478,120,8124.0,4.00350284576416,8,9909.0
2240,0.2805545926094055,0.002201556460931897,-21,8124.0,2.2233972549438477,189,9909.0
2250,0.2803768217563629,-0.03285844996571541,-143,8124.0,2.389364004135132,65,9909.0
2260,0.2807281017303467,-1.634853482246399,0,8124.0,2.520298480987549,-127,9909.0
2270,0.28098487854003906,-0.8238483667373657,100,8124.0,-1.2862180471420288,-43,9909.0
2280,0.2812032699584961,0.4007916748523712,-75,8124.0,-0.6833785772323608,164,9909.0
2290,0.2796875834465027,-0.15481846034526825,-39,8124.0,-0.26932674646377563,-78,9909.0
2300,0.2797151803970337,0.010542641393840313,39,8124.0,-1.3973886966705322,-99,9909.0
2310,0.2796696126461029,0.220763698220253,20,8124.0,-1.8830232620239258,13,9909.0
2320,0.2795361280441284,-0.573198139667511,-16,8124.0,1.1680165529251099,-17,9909.0
2330,0.27870845794677734,0.22924095392227173,32,8124.0,-2.7932753562927246,16,9909.0
2340,0.2784278094768524,0.9856798052787781,-50,8124.0,-0.3025321662425995,-112,9909.0
2350,0.2782079577445984,2.23525071144104,115,8124.0,-1.3918956518173218,-65,9909.0
2360,0.27815940976142883,3.1378767490386963,38,8124.0,-2.771806240081787,138,9909.0
2370,0.27825161814689636,1.37685227394104,-109,8124.0,0.4387311637401581,5,9909.0
2380,0.2775023579597473,-0.8646363019943237,78,8124.0,1.5152522325515747,-121,9909.0
2390,0.27767762541770935,-2.042325258255005,2,8124.0,1.2566382884979248,73,9909.0
2400,0.27785050868988037,-1.0300158262252808,-84,8124.0,0.8403039574623108,107,9909.0
2410,0.27799680829048157,-1.2240456342697144,-27,8124.0,1.5482186079025269,-115,9909.0
2420,0.277740478515625,-0.2548258602619171,64,8124.0,-0.7755080461502075,18,9909.0
2430,0.27783820033073425,1.5796021223068237,-4,8124.0,-2.1519720554351807,10,9909.0
2440,0.2779542803764343,0.025728758424520493,-2,8124.0,0.21724660694599152,32,9909.0
2450,0.2779555320739746,0.20501676201820374,-15,8124.0,1.0350242853164673,-41,9909.0
2460,0.27832379937171936,-1.5023232698440552,80,8124.0,1.4017881155014038,-73,9909.0
2470,0.2783251106739044,1.0917388200759888,19,8124.0,-1.309364676475525,136,9909.0
2480,0.27926111221313477,1.441390872001648,-76,8124.0,-2.1044366359710693,-103,9909.0
2490,0.2792624831199646,-1.0583659410476685,109,8124.0,-0.7974127531051636,-109,9909.0
2500,0.28061914443969727,-1.653579831123352,-32,8124.0,-2.8631434440612793,106,9909.0
2510,0.2795891761779785,-1.9041204452514648,-112,8124.0,-1.1834962368011475,-3,9909.0
2520,0.2808922529220581,-1.7144442796707153,18,8124.0,-1.6485933065414429,-172,9909.0
2530,0.280890554189682,-1.2621885538101196,24,8124.0,-2.788081407546997,3,9909.0
2540,0.28151413798332214,0.03345981240272522,-42,8124.0,-1.3809503316879272,25,9909.0
2550,0.2801906168460846,0.4545274078845978,-12,8124.0,0.14519715309143066,-1,9909.0
2560,0.2807537913322449,0.7510037422180176,16,8124.0,0.4773664176464081,-15,9909.0
2570,0.28134387731552124,2.9480443000793457,24,8124.0,-0.24364322423934937,-47,9909.0
2580,0.2820001542568207,1.9880273342132568,31,8124.0,0.15784046053886414,215,9909.0
2590,0.28369566798210144,1.9781010150909424,-98,8124.0,1.2111984491348267,49,9909.0
2600,0.28142082691192627,-0.6680618524551392,49,8124.0,2.4045939445495605,-113,9909.0
2610,0.2831996977329254,-0.8106584548950195,84,8124.0,0.454115092754364,-32,9909.0
2620,0.2831999361515045,-0.17128655314445496,-45,8124.0,-0.6340955495834351,186,9909.0
2630,0.28496992588043213,-0.4632638692855835,-88,8124.0,-1.363976240158081,-67,9909.0
2640,0.2811259627342224,-0.8983595371246338,56,8124.0,-1.6686675548553467,-147,9909.0
2650,0.28184229135513306,-0.7474691271781921,19,8124.0,-2.98374342918396,6,9909.0
2660,0.28261590003967285,-0.0933661162853241,-20,8124.0,-3.645798444747925,-62,9909.0
2670,0.2834300994873047,0.7729278206825256,-6,8124.0,-3.3892061710357666,2,9909.0
2680,0.28148648142814636,1.2757601737976074,48,8124.0,-2.895446300506592,-83,9909.0
2690,0.28199997544288635,2.309607744216919,22,8124.0,-1.5853701829910278,-68,9909.0
2700,0.28234735131263733,1.23447847366333,159,8124.0,-0.5408114790916443,17,9909.0
2710,0.2825172543525696,1.232670783996582,-121,8124.0,-0.3286283016204834,192,9909.0
2720,0.28253838419914246,1.306862235069275,-85,8124.0,0.22925695776939392,4,9909.0
2730,0.28107473254203796,-0.01912017911672592,55,8124.0,1.996111512184143,-160,9909.0
2740,0.2809428870677948,-1.7957707643508911,34,8124.0,1.8411574363708496,82,9909.0
2750,0.2808202803134918,-0.13375845551490784,-109,8124.0,-1.1442341804504395,107,9909.0
2760,0.2806641757488251,-0.027791012078523636,1,8124.0,-0.8629453778266907,-147,9909.0
2770,0.2791213095188141,0.5632405281066895,79,8124.0,-1.5585421323776245,19,9909.0
2780,0.27881914377212524,-0.10527461022138596,-34,8124.0,-2.3591558933258057,-53,9909.0
2790,0.2785189151763916,-0.007970849052071571,15,8124.0,-1.0090503692626953,2,9909.0
2800,0.2782641053199768,2.3122198581695557,16,8124.0,-3.44438099861145,-132,9909.0
2810,0.2780841290950775,1.9658715724945068,139,8124.0,-1.768648624420166,-64,9909.0
2820,0.2771851718425751,2.448652982711792,170,8124.0,-2.4141652584075928,-52,9909.0
2830,0.2771678864955902,1.7547352313995361,-61,8124.0,-1.9908874034881592,87,9909.0
2840,0.2772527039051056,-0.42762529850006104,83,8124.0,1.5196744203567505,-117,9909.0
2850,0.27737268805503845,-1.2033979892730713,61,8124.0,1.0080959796905518,64,9909.0
2860,0.2765413224697113,-0.3641306757926941,-84,8124.0,2.6954729557037354,131,9909.0
2870,0.27662110328674316,-1.0101008415222168,4,8124.0,3.2119102478027344,-84,9909.0
2880,0.27663496136665344,-0.9389636516571045,15,8124.0,3.4075961112976074,134,9909.0
2890,0.27659744024276733,0.33334970474243164,-27,8124.0,3.0166380405426025,52,9909.0
2900,0.2778114080429077,-0.47188347578048706,-40,8124.0,1.7387486696243286,29,9909.0
2910,0.27769243717193604,-1.0175228118896484,32,8124.0,0.7007186412811279,-64,9909.0
2920,0.2774885296821594,-0.41420042514801025,-17,8124.0,0.4951235055923462,132,9909.0
2930,0.27718913555145264,0.8464869856834412,-80,8124.0,-0.15032798051834106,-84,9909.0
2940,0.2767866849899292,0.1955241858959198,134,8124.0,-0.7296991348266602,-76,9909.0
2950,0.27617478370666504,1.5452378988265991,-23,8124.0,-1.7441116571426392,49,9909.0
2960,0.275607705116272,0.7782182097434998,32,8124.0,-0.9980812072753906,-152,9909.0
2970,0.27505752444267273,0.3715634047985077,28,8124.0,-1.288088321685791,49,9909.0
2980,0.2745518088340759,0.11853887140750885,-17,8124.0,-0.1651010811328888,-12,9909.0
2990,0.2766980528831482,0.3197988271713257,-9,8124.0,2.272261619567871,51,9909.0
3000,0.276375949382782,1.2754061222076416,78,8124.0,0.5328493118286133,-66,9909.0
3010,0.2760915458202362,1.916059970855713,-8,8124.0,1.3058291673660278,143,9909.0
3020,0.2758147418498993,0.5394007563591003,48,8124.0,2.5787434577941895,-142,9909.0
3030,0.2755172848701477,0.07353661954402924,47,8124.0,3.167985677719116,188,9909.0
3040,0.27628910541534424,0.27517756819725037,-76,8124.0,3.9545230865478516,-40,9909.0
3050,0.2759608030319214,-0.8150994181632996,78,8124.0,4.293663501739502,55,9909.0
3060,0.27560946345329285,-0.29567816853523254,-38,8124.0,2.072964668273926,84,9909.0
3070,0.2752736806869507,-0.00028168794233351946,-26,8124.0,2.334212303161621,-30,9909.0
3080,0.2777203917503357,0.820319652557373,82,8124.0,0.5378990769386292,53,9909.0
3090,0.2776682674884796,1.1066316366195679,-87,8124.0,-0.06456366926431656,89,9909.0
3100,0.277549147605896,0.39136189222335815,63,8124.0,2.4579126834869385,-127,9909.0
3110,0.27736544609069824,-0.15659324824810028,1,8124.0,0.5330936908721924,191,9909.0
3120,0.2778208553791046,-0.3566310405731201,-83,8124.0,1.6729483604431152,-112,9909.0
3130,0.2775643467903137,-0.9316391348838806,69,8124.0,0.02097976952791214,72,9909.0
3140,0.277330607175827,0.937770664691925,-22,8124.0,-1.25188410282135,-28,9909.0
3150,0.27708595991134644,-0.3634243607521057,-16,8124.0,1.5376274585723877,16,9909.0
3160,0.27681589126586914,0.9948037266731262,64,8124.0,0.07390199601650238,-36,9909.0
3170,0.2771044373512268,2.185868740081787,-31,8124.0,1.9996463060379028,116,9909.0
3180,0.27683115005493164,1.5846155881881714,111,8124.0,2.5528011322021484,-51,9909.0
3190,0.2764434218406677,1.4683260917663574,-11,8124.0,2.2438905239105225,138,9909.0
3200,0.2759564220905304,-2.111818552017212,-56,8124.0,3.714742422103882,-31,9909.0
3210,0.27603963017463684,-1.2795947790145874,-53,8124.0,0.4844849109649658,85,9909.0
3220,0.2755252718925476,-2.7649319171905518,-74,8124.0,0.3984900414943695,-15,9909.0
3230,0.2749827206134796,-2.026500940322876,-25,8124.0,-1.5459926128387451,-53,9909.0
3240,0.27438223361968994,0.3376751244068146,28,8124.0,-4.607690334320068,29,9909.0
3250,0.27372342348098755,-0.020632676780223846,-93,8124.0,-3.3405213356018066,-123,9909.0
3260,0.27665597200393677,0.3422768712043762,90,8124.0,-4.005819797515869,-41,9909.0
3270,0.2762239873409271,0.38494330644607544,-93,8124.0,-1.2023842334747314,-65,9909.0
3280,0.27580997347831726,1.3089191913604736,129,8124.0,0.011973388493061066,-6,9909.0
3290,0.2753714323043823,3.300373077392578,20,8124.0,-1.347238540649414,-31,9909.0
3300,0.2753349542617798,2.8268511295318604,61,8124.0,0.19083073735237122,-32,9909.0
3310,0.2748638987541199,2.4254038333892822,117,8124.0,-0.13491079211235046,46,9909.0
3320,0.2743909955024719,1.1038447618484497,-129,8124.0,0.11288070678710938,3,9909.0
3330,0.27396002411842346,-0.05439915508031845,109,8124.0,1.628260612487793,-10,9909.0
3340,0.27641475200653076,-0.4970153570175171,-114,8124.0,0.09783180803060532,81,9909.0
3350,0.27620989084243774,-1.1730232238769531,36,8124.0,0.5563936829566956,-54,9909.0
3360,0.27600759267807007,-2.3422985076904297,-54,8124.0,2.0310885906219482,119,9909.0
3370,0.27580076456069946,-1.6466039419174194,-90,8124.0,1.8202933073043823,12,9909.0
3380,0.27567097544670105,-2.245189666748047,94,8124.0,3.8122265338897705,9,9909.0
3390,0.2761613726615906,-0.8408142924308777,-98,8124.0,2.2684671878814697,69,9909.0
3400,0.2761247754096985,-0.5908718109130859,98,8124.0,1.2078241109848022,23,9909.0
3410,0.27605071663856506,-0.9025041460990906,-100,8124.0,3.130476951599121,55,9909.0
3420,0.2759535610675812,0.5469717979431152,109,8124.0,0.12473694980144501,-42,9909.0
3430,0.27782949805259705,1.0326907634735107,15,8124.0,-0.7728980183601379,23,9909.0
3440,0.2777720093727112,1.1504613161087036,-14,8124.0,-2.347890615463257,-40,9909.0
3450,0.27766817808151245,1.7134374380111694,7,8124.0,-1.9416583776474,-160,9909.0
3460,0.27748772501945496,1.4336148500442505,66,8124.0,-3.1845126152038574,103,9909.0
3470,0.27727165818214417,0.582317054271698,-67,8124.0,-1.6649858951568604,-85,9909.0
3480,0.2794603109359741,0.6938374638557434,92,8124.0,-4.578934192657471,7,9909.0
3490,0.2794298231601715,-1.6209248304367065,-56,8124.0,-0.3753245174884796,-49,9909.0
3500,0.2793675661087036,-1.7505964040756226,-35,8124.0,0.7301807999610901,43,9909.0
3510,0.27926531434059143,-1.6973508596420288,-29,8124.0,0.4144016206264496,6,9909.0
3520,0.2802669107913971,-1.9552572965621948,-83,8124.0,1.2084323167800903,-65,9909.0
3530,0.2803441286087036,-1.0388206243515015,66,8124.0,-1.3054704666137695,111,9909.0
3540,0.2804979681968689,0.3925565481185913,-143,8124.0,-0.7352210879325867,-49,9909.0
3550,0.28066763281822205,-0.39047902822494507,99,8124.0,-0.6173719763755798,-24,9909.0
3560,0.2801593840122223,0.37157174944877625,-34,8124.0,-0.957385778427124,2,9909.0
3570,0.280308336019516,0.5699756741523743,6,8124.0,0.7663024663925171,-38,9909.0
3580,0.2804929316043854,0.6667842864990234,51,8124.0,0.41686999797821045,69,9909.0
3590,0.2807391285896301,1.888566017150879,-52,8124.0,1.6070737838745117,-28,9909.0
3600,0.280983567237854,1.1654999256134033,161,8124.0,-0.4019809067249298,-42,9909.0
3610,0.2803168296813965,1.8069759607315063,-99,8124.0,-0.4423636198043823,114,9909.0
3620,0.2804345190525055,0.1949334591627121,70,8124.0,0.2732526957988739,-132,9909.0
3630,0.280563622713089,0.7995510697364807,-15,8124.0,-0.9747712016105652,21,9909.0
3640,0.2806766629219055,-0.48655471205711365,14,8124.0,0.42464661598205566,4,9909.0
3650,0.2808632552623749,-0.015154118649661541,35,8124.0,-1.4801504611968994,-77,9909.0
3660,0.2809421420097351,0.9757111072540283,-75,8124.0,-2.180711030960083,65,9909.0
3670,0.280971884727478,-1.4391158819198608,56,8124.0,-0.6558486819267273,-126,9909.0
3680,0.2809295058250427,0.3892979919910431,-53,8124.0,-2.920379877090454,130,9909.0
3690,0.2808394134044647,-1.6843386888504028,-32,8124.0,0.12011687457561493,-150,9909.0
3700,0.28079038858413696,-0.7511610388755798,-15,8124.0,-0.20369745790958405,51,9909.0
3710,0.28077512979507446,0.6226614117622375,-7,8124.0,-0.500114381313324,-27,9909.0
3720,0.2806258201599121,1.5809788703918457,29,8124.0,-1.0031381845474243,-48,9909.0
3730,0.2804190516471863,4.0068182945251465,32,8124.0,-0.9226124286651611,54,9909.0
3740,0.2805280387401581,1.9458755254745483,78,8124.0,0.020591624081134796,-175,9909.0
3750,0.2804103195667267,1.604738473892212,8,8124.0,0.3581579923629761,272,9909.0
3760,0.2803475856781006,0.8354602456092834,-71,8124.0,1.661547064781189,-102,9909.0
3770,0.28030750155448914,1.6318681240081787,43,8124.0,-1.3587266206741333,25,9909.0
3780,0.2813347578048706,1.179624080657959,9,8124.0,-2.2995691299438477,21,9909.0
3790,0.2814285457134247,-0.36390194296836853,-13,8124.0,-0.2781680226325989,-51,9909.0
3800,0.2815556824207306,0.029217669740319252,-29,8124.0,0.6397207379341125,85,9909.0
3810,0.2816968858242035,0.2657405138015747,63,8124.0,-0.8617097735404968,-126,9909.0
3820,0.28191491961479187,-0.7948732972145081,-23,8124.0,0.4141082763671875,190,9909.0
3830,0.2808542251586914,-1.069169044494629,16,8124.0,-1.1423841714859009,-138,9909.0
3840,0.28089967370033264,-0.5555721521377563,-7,8124.0,-2.602587938308716,97,9909.0
3850,0.28095388412475586,-0.127763569355011,13,8124.0,-0.79733806848526,-62,9909.0
3860,0.2809731066226959,0.4658575654029846,66,8124.0,-1.4437230825424194,-55,9909.0
3870,0.2809644639492035,3.1049416065216064,-31,8124.0,-1.9237741231918335,95,9909.0
3880,0.2808760106563568,2.74018931388855,114,8124.0,-1.061033010482788,-80,9909.0
3890,0.28078481554985046,3.3530054092407227,-24,8124.0,-1.8298726081848145,46,9909.0
3900,0.2807435989379883,3.3723936080932617,116,8124.0,2.1886355876922607,-52,9909.0
3910,0.28008389472961426,0.7634790539741516,-98,8124.0,0.7363591194152832,94,9909.0
3920,0.28004682064056396,0.19592736661434174,27,8124.0,-0.2685261070728302,-98,9909.0
3930,0.28000929951667786,0.8468499779701233,50,8124.0,-1.097700834274292,57,9909.0
3940,0.28002241253852844,0.49474629759788513,-59,8124.0,-0.3840821385383606,13,9909.0
3950,0.2800326347351074,0.05076463520526886,114,8124.0,2.449007272720337,35,9909.0
3960,0.2801509201526642,0.4850970506668091,-140,8124.0,1.252357840538025,-5,9909.0
3970,0.2800978720188141,-5.043126583099365,76,8124.0,5.745864391326904,32,9909.0
3980,0.28001871705055237,-2.337750196456909,-114,8124.0,3.7289466857910156,-48,9909.0
3990,0.2799023687839508,-1.5688515901565552,-3,8124.0,0.3543663024902344,30,9909.0
4000,0.27947044372558594,-0.8605964779853821,-38,8124.0,-3.4472475051879883,30,9909.0
4010,0.27929216623306274,0.013822147622704506,-2,8124.0,-2.4492104053497314,-150,9909.0
4020,0.27910858392715454,-0.5833495259284973,20,8124.0,-4.807499885559082,54,9909.0
4030,0.27896201610565186,1.5890858173370361,87,8124.0,-2.2924044132232666,-133,9909.0
4040,0.2788729965686798,-0.42747077345848083,77,8124.0,-2.1185641288757324,131,9909.0
4050,0.2796986997127533,0.19997921586036682,-81,8124.0,-1.019544243812561,-101,9909.0
4060,0.2797122597694397,-1.8799082040786743,19,8124.0,1.521828293800354,63,9909.0
4070,0.279727578163147,-3.955448865890503,-45,8124.0,4.7159552574157715,28,9909.0
4080,0.27970436215400696,-1.6793307065963745,35,8124.0,2.1832339763641357,-53,9909.0
4090,0.28014102578163147,0.5387626886367798,-66,8124.0,2.4145736694335938,125,9909.0
4100,0.2800212800502777,0.40681302547454834,122,8124.0,1.6331799030303955,-7,9909.0
4110,0.2799191176891327,-0.5055410861968994,-147,8124.0,2.1226630210876465,49,9909.0
4120,0.27981939911842346,0.7647077441215515,138,8124.0,1.1291309595108032,22,9909.0
4130,0.2809549570083618,1.2885093688964844,-38,8124.0,-0.18262596428394318,-8,9909.0
4140,0.2809355556964874,-0.11987952888011932,20,8124.0,0.5665456056594849,-28,9909.0
4150,0.2809726893901825,-1.1853172779083252,17,8124.0,1.1669167280197144,76,9909.0
4160,0.2810044586658478,-0.12090201675891876,68,8124.0,-1.351812720298767,-64,9909.0
4170,0.2809770405292511,-0.5168920755386353,-131,8124.0,0.9272162318229675,172,9909.0
4180,0.2821456789970398,-2.2294349670410156,48,8124.0,0.7172077894210815,-88,9909.0
4190,0.282186359167099,-3.5556724071502686,-130,8124.0,6.644958972930908,92,9909.0
4200,0.2822217345237732,-1.9847815036773682,22,8124.0,0.5938880443572998,81,9909.0
4210,0.2822642922401428,-1.5839262008666992,-101,8124.0,0.2096061259508133,72,9909.0
4220,0.28259503841400146,-1.1591236591339111,-33,8124.0,0.6015070080757141,-90,9909.0
4230,0.28269529342651367,-0.37463903427124023,-33,8124.0,2.042010545730591,150,9909.0
4240,0.2827792167663574,-0.3998395800590515,122,8124.0,1.4029942750930786,-92,9909.0
4250,0.28281113505363464,1.6913509368896484,-87,8124.0,1.3356822729110718,113,9909.0
4260,0.2828235328197479,-0.36161524057388306,115,8124.0,-1.537682294845581,-12,9909.0
4270,0.28249654173851013,1.986400842666626,-60,8124.0,-0.7018615007400513,31,9909.0
4280,0.28250035643577576,0.7632980346679688,28,8124.0,1.4774235486984253,0,9909.0
4290,0.2825300395488739,1.2425827980041504,37,8124.0,0.24983714520931244,44,9909.0
4300,0.2825886011123657,1.9255560636520386,89,8124.0,0.9187909960746765,-71,9909.0
4310,0.2816060781478882,1.0102912187576294,-95,8124.0,1.8096396923065186,213,9909.0
4320,0.2815845310688019,-0.837134063243866,92,8124.0,0.3207154870033264,19,9909.0
4330,0.28153857588768005,-1.9738448858261108,-191,8124.0,5.5040130615234375,24,9909.0
4340,0.28147920966148376,-3.7112081050872803,76,8124.0,1.2983733415603638,18,9909.0
4350,0.2824520468711853,-0.5392059087753296,-21,8124.0,1.4081883430480957,56,9909.0
4360,0.2824685871601105,0.3665171265602112,17,8124.0,-0.4549490809440613,-14,9909.0
4370,0.2824843227863312,1.510237693786621,-37,8124.0,-1.276554822921753,34,9909.0
4380,0.28248628973960876,2.568902015686035,127,8124.0,-2.889556646347046,-68,9909.0
4390,0.28241705894470215,2.5038180351257324,-75,8124.0,-1.3449472188949585,-57,9909.0
4400,0.282169371843338,2.744321823120117,161,8124.0,-0.9140480756759644,110,9909.0
4410,0.28214356303215027,0.5507373809814453,-40,8124.0,0.6642308235168457,-130,9909.0
4420,0.2820858359336853,0.8511145710945129,3,8124.0,0.8043051958084106,94,9909.0
4430,0.28203490376472473,0.7557598352432251,-4,8124.0,1.0956424474716187,23,9909.0
4440,0.2827953100204468,1.2318084239959717,50,8124.0,0.306056946516037,2,9909.0
4450,0.2828170359134674,-0.03322504833340645,-4,8124.0,1.1063427925109863,-141,9909.0
4460,0.2828023433685303,-0.15571732819080353,65,8124.0,1.0904991626739502,184,9909.0
4470,0.2827668786048889,-1.1618918180465698,23,8124.0,4.5049028396606445,-69,9909.0
4480,0.28282129764556885,-1.4093893766403198,-178,8124.0,-0.8365854024887085,145,9909.0
4490,0.2834126055240631,-2.0453078746795654,78,8124.0,-0.9302800297737122,-36,9909.0
4500,0.28346338868141174,-1.07896888256073,-56,8124.0,-1.9551570415496826,-77,9909.0
4510,0.28353554010391235,0.10043353587388992,26,8124.0,-2.7752788066864014,-98,9909.0
4520,0.28355154395103455,0.36396342515945435,-56,8124.0,-3.6461451053619385,4,9909.0
4530,0.28455764055252075,-1.07601797580719,84,8124.0,1.0649679899215698,-29,9909.0
4540,0.28462061285972595,0.7829143404960632,-85,8124.0,-2.9569523334503174,-99,9909.0
4550,0.28468620777130127,-0.0439191609621048,-24,8124.0,1.8422842025756836,226,9909.0
4560,0.2847358286380768,-0.930694043636322,-40,8124.0,2.0362138748168945,-94,9909.0
4570,0.2860834300518036,-2.0548276901245117,-56,8124.0,1.4007664918899536,-23,9909.0
4580,0.2861552834510803,-1.421000361442566,62,8124.0,0.6905069947242737,-37,9909.0
4590,0.2862287163734436,0.4170955419540405,35,8124.0,-1.21628737449646,44,9909.0
4600,0.28630533814430237,1.3461377620697021,60,8124.0,-2.4578442573547363,-180,9909.0
4610,0.2863864600658417,0.6595048308372498,-129,8124.0,-3.390230655670166,75,9909.0
4620,0.2846320569515228,-0.9517509937286377,88,8124.0,1.1378053426742554,-20,9909.0
4630,0.28454169631004333,-3.7252261638641357,-155,8124.0,-2.9710545539855957,-83,9909.0
4640,0.28441932797431946,-1.188645839691162,-8,8124.0,-1.1565359830856323,-21,9909.0
4650,0.28428199887275696,-1.4183897972106934,-5,8124.0,0.3336954414844513,30,9909.0
4660,0.2844889461994171,-0.5378962755203247,54,8124.0,2.5053813457489014,36,9909.0
4670,0.2843778729438782,1.3580431938171387,-57,8124.0,2.682541608810425,183,9909.0
4680,0.2842858135700226,1.7252461910247803,64,8124.0,3.28775691986084,-98,9909.0
4690,0.28415030241012573,2.4168152809143066,4,8124.0,-0.11243954300880432,36,9909.0
4700,0.28400376439094543,3.1312217712402344,100,8124.0,0.14037460088729858,113,9909.0
4710,0.28466489911079407,1.3597484827041626,-2,8124.0,1.360058307647705,-58,9909.0
4720,0.2846090793609619,1.7670215368270874,14,8124.0,2.4168148040771484,87,9909.0
4730,0.2846015393733978,0.6775133609771729,-23,8124.0,2.1627652645111084,-19,9909.0
4740,0.2846265435218811,-0.8318578600883484,62,8124.0,0.022229745984077454,100,9909.0
4750,0.2847881615161896,-0.6301860809326172,30,8124.0,0.4758149981498718,-149,9909.0
4760,0.28483039140701294,-1.182963490486145,-128,8124.0,0.4013305604457855,104,9909.0
4770,0.2848915159702301,-3.662048101425171,50,8124.0,2.988823175430298,65,9909.0
4780,0.28495362401008606,-3.383518934249878,-78,8124.0,1.0971012115478516,-87,9909.0
4790,0.28537893295288086,-1.6812620162963867,9,8124.0,-0.18103432655334473,0,9909.0
4800,0.2854131758213043,-0.7984287142753601,-34,8124.0,-2.041289806365967,-63,9909.0
4810,0.2854469120502472,-1.3082430362701416,37,8124.0,0.11037741601467133,174,9909.0
4820,0.2854696214199066,-1.0535997152328491,-20,8124.0,-2.026339530944824,-137,9909.0
4830,0.2855154573917389,1.0980063676834106,-142,8124.0,-0.9252832531929016,93,9909.0
4840,0.2861146628856659,1.3467648029327393,146,8124.0,-0.011413497850298882,-17,9909.0
4850,0.28615570068359375,2.4642841815948486,-45,8124.0,-2.3891773223876953,-123,9909.0
4860,0.286202609539032,1.2075932025909424,12,8124.0,1.4951530694961548,54,9909.0
4870,0.286278635263443,1.3728787899017334,-18,8124.0,2.111692190170288,49,9909.0
4880,0.28736740350723267,-0.5941744446754456,56,8124.0,2.2892448902130127,165,9909.0
4890,0.28744062781333923,-0.12311742454767227,-29,8124.0,2.8756556510925293,-140,9909.0
4900,0.2875014841556549,-1.2807223796844482,-43,8124.0,2.383769989013672,117,9909.0
4910,0.2875717580318451,-1.3162386417388916,189,8124.0,5.123260021209717,2,9909.0
4920,0.2875782549381256,-0.5417203903198242,-111,8124.0,0.7714946269989014,-6,9909.0
4930,0.287722647190094,-0.7971898317337036,-26,8124.0,0.6373180747032166,69,9909.0
4940,0.28778567910194397,2.882686138153076,31,8124.0,1.1675336360931396,-32,9909.0
4950,0.2878057360649109,5.427918910980225,149,8124.0,-3.781409502029419,-3,9909.0
4960,0.28776898980140686,5.828636169433594,152,8124.0,3.5149712562561035,-123,9909.0
4970,0.28943219780921936,6.5702805519104,43,8124.0,1.5457968711853027,73,9909.0
4980,0.2893950641155243,6.138913154602051,256,8124.0,3.64986515045166,109,9909.0
4990,0.2893841862678528,5.6495819091796875,13,8124.0,7.457841396331787,-80,9909.0
5000,0.2893434762954712,5.2597856521606445,83,8124.0,2.0976803302764893,80,9909.0
5010,0.2888083755970001,3.75704026222229,79,8124.0,2.4231081008911133,30,9909.0
5020,0.28875449299812317,2.7218780517578125,73,8124.0,-0.5282517075538635,95,9909.0
5030,0.28875279426574707,0.9581275582313538,111,8124.0,-4.059453010559082,-84,9909.0
5040,0.2887544333934784,-0.42020729184150696,-206,8124.0,-2.0446527004241943,-78,9909.0
5050,0.2887006402015686,-0.9063374400138855,12,8124.0,-7.667638301849365,208,9909.0
5060,0.28875017166137695,-1.3505773544311523,-32,8124.0,-5.063753128051758,-165,9909.0
5070,0.2887552082538605,0.06680607050657272,-20,8124.0,-0.5254018306732178,-33,9909.0
5080,0.2886850833892822,-0.5956026315689087,46,8124.0,-0.8367549180984497,-50,9909.0
5090,0.2886943221092224,1.358954906463623,-14,8124.0,1.7560515403747559,63,9909.0
5100,0.289175808429718,1.391940951347351,108,8124.0,1.8796595335006714,143,9909.0
5110,0.28917935490608215,1.3508673906326294,-4,8124.0,3.873645305633545,-146,9909.0
5120,0.28918954730033875,2.492600202560425,-38,8124.0,4.8211212158203125,84,9909.0
5130,0.2892133295536041,2.6866695880889893,149,8124.0,1.0633258819580078,32,9909.0
5140,0.2894290089607239,-0.03263203799724579,27,8124.0,3.6654183864593506,-8,9909.0
5150,0.29050564765930176,-2.3324015140533447,26,8124.0,2.83091402053833,89,9909.0
5160,0.290606290102005,-0.13619720935821533,-77,8124.0,-2.1928913593292236,-119,9909.0
5170,0.2906826138496399,-1.658342957496643,-135,8124.0,-4.163318634033203,39,9909.0
5180,0.29071474075317383,-3.3842644691467285,68,8124.0,-7.595175266265869,-67,9909.0
5190,0.29126209020614624,-1.020388126373291,-83,8124.0,-11.837489128112793,-381,9909.0
5200,0.29136717319488525,-5.788496971130371,-102,8124.0,-6.6964521408081055,-54,9909.0
5210,0.29137131571769714,-4.053254127502441,-33,8124.0,-2.038166046142578,-61,9909.0
5220,0.29151660203933716,-3.517002820968628,-35,8124.0,-0.2147742062807083,90,9909.0
5230,0.29168277978897095,-0.9834116101264954,103,8124.0,3.6263959407806396,-8,9909.0
5240,0.29167309403419495,-0.776589572429657,-158,8124.0,1.6747239828109741,-53,9909.0
5250,0.29165583848953247,-1.5611337423324585,-6,8124.0,1.6985067129135132,321,9909.0
5260,0.2915964722633362,0.2856420874595642,25,8124.0,1.4535458087921143,-158,9909.0
5270,0.2915022075176239,-0.6481882333755493,-69,8124.0,-2.8740925788879395,7,9909.0
5280,0.2904185354709625,-2.493901014328003,12,8124.0,3.1946396827697754,5,9909.0
5290,0.29029151797294617,-2.4764292240142822,-76,8124.0,0.7117053270339966,-25,9909.0
5300,0.2902008891105652,-1.691521167755127,44,8124.0,-0.19218191504478455,183,9909.0
5310,0.2901129424571991,0.3953477144241333,-170,8124.0,-0.5779799818992615,-206,9909.0
5320,0.2912045419216156,-1.1407324075698853,35,8124.0,-2.685333013534546,80,9909.0
5330,0.29117467999458313,-1.549223780632019,110,8124.0,1.0006463527679443,-113,9909.0
5340,0.29114824533462524,2.4623119831085205,26,8124.0,-2.8398332595825195,-22,9909.0
5350,0.2911228835582733,3.5587029457092285,104,8124.0,1.9272063970565796,34,9909.0
5360,0.2911224663257599,1.9341877698898315,-35,8124.0,9.128974914550781,-50,9909.0
5370,0.29225143790245056,2.950956106185913,7,8124.0,2.0751097202301025,176,9909.0
5380,0.29227888584136963,-2.821328639984131,145,8124.0,2.322782039642334,72,9909.0
5390,0.29232314229011536,0.2961338460445404,-109,8124.0,5.500903606414795,-86,9909.0
5400,0.2923879325389862,-0.9066354632377625,-25,8124.0,0.8455515503883362,67,9909.0
5410,0.2934947907924652,-1.1355781555175781,-9,8124.0,2.695887804031372,-103,9909.0
5420,0.293628454208374,0.2234809845685959,-41,8124.0,-3.475263833999634,-1,9909.0
5430,0.29376325011253357,-1.2875397205352783,130,8124.0,-1.9479478597640991,78,9909.0
5440,0.29394376277923584,0.438516765832901,-9,8124.0,-5.06484842300415,-214,9909.0
5450,0.2940944731235504,0.7411258220672607,-104,8124.0,1.3511765003204346,59,9909.0
5460,0.2943043112754822,1.5007606744766235,62,8124.0,-3.5763156414031982,183,9909.0
5470,0.29453176259994507,0.8030798435211182,-28,8124.0,0.4549724757671356,-20,9909.0
5480,0.29478248953819275,-0.9860373735427856,0,8124.0,4.392856121063232,182,9909.0
5490,0.29501551389694214,0.2720702588558197,41,8124.0,3.9210870265960693,-20,9909.0
5500,0.29522550106048584,-1.4032479524612427,-198,8124.0,9.749584197998047,64,9909.0
5510,0.295536071062088,-7.022219181060791,-33,8124.0,4.466244697570801,184,9909.0
5520,0.2957502007484436,-3.109508991241455,-35,8124.0,3.639167308807373,21,9909.0
5530,0.29598143696784973,-1.9460793733596802,-47,8124.0,3.62176513671875,83,9909.0
5540,0.2956644892692566,-2.273637533187866,-7,8124.0,2.9622910022735596,25,9909.0
5550,0.29574504494667053,0.42336589097976685,-78,8124.0,0.25548768043518066,-159,9909.0
5560,0.29582735896110535,1.0507135391235352,-44,8124.0,1.6721632480621338,207,9909.0
5570,0.29598182439804077,-0.41395047307014465,212,8124.0,2.7153818607330322,-24,9909.0
5580,0.29607445001602173,1.2543892860412598,50,8124.0,1.9444971084594727,-111,9909.0
5590,0.2977965176105499,2.0570104122161865,45,8124.0,6.618286609649658,174,9909.0
5600,0.2979777455329895,-0.2913684546947479,0,8124.0,8.013904571533203,68,9909.0
5610,0.29825106263160706,0.3422558307647705,-64,8124.0,8.225994110107422,212,9909.0
5620,0.29848426580429077,1.1726009845733643,153,8124.0,8.093974113464355,295,9909.0
5630,0.2988097667694092,-0.37669819593429565,-39,8124.0,13.370254516601562,106,9909.0
5640,0.2990061044692993,-0.6889864206314087,-137,8124.0,4.008583068847656,60,9909.0
5650,0.2992202043533325,-0.15997599065303802,47,8124.0,-0.31472331285476685,2,9909.0
5660,0.2993578612804413,-2.5520248413085938,-84,8124.0,-1.3425029516220093,-104,9909.0
5670,0.3000648617744446,-2.874602794647217,-5,8124.0,-4.292428016662598,-10,9909.0
5680,0.30024805665016174,-1.4735805988311768,78,8124.0,-7.485503196716309,-118,9909.0
5690,0.30046239495277405,-0.8281611204147339,-128,8124.0,-5.7095465660095215,-166,9909.0
5700,0.3007064461708069,1.291600227355957,-40,8124.0,-6.473606109619141,161,9909.0
5710,0.3009324073791504,-3.873014211654663,17,8124.0,-5.8161540031433105,-35,9909.0
5720,0.30116143822669983,-1.322198748588562,-102,8124.0,-3.4036667346954346,-44,9909.0
5730,0.3014196753501892,-1.6964101791381836,-5,8124.0,1.9077272415161133,110,9909.0
5740,0.3016711175441742,0.14505843818187714,-20,8124.0,4.715021133422852,-32,9909.0
5750,0.30189549922943115,0.6010934114456177,-127,8124.0,5.576807975769043,86,9909.0
5760,0.30284276604652405,-0.6139616370201111,63,8124.0,4.773728370666504,227,9909.0
5770,0.3030441105365753,-4.012850761413574,-56,8124.0,0.4553135931491852,-129,9909.0
5780,0.30323851108551025,0.13258080184459686,-76,8124.0,-0.9271256923675537,2,9909.0
5790,0.3034883737564087,-0.2621155381202698,13,8124.0,-2.627737283706665,-41,9909.0
5800,0.3036488890647888,3.358350992202759,-3,8124.0,-0.1322772204875946,-122,9909.0
5810,0.3024699091911316,4.021615982055664,2,8124.0,-2.7691733837127686,57,9909.0
5820,0.3026221692562103,4.58978271484375,239,8124.0,-5.874840259552002,-43,9909.0
5830,0.30275633931159973,6.8522467613220215,80,8124.0,-8.317511558532715,-262,9909.0
5840,0.3029041290283203,4.186859130859375,-17,8124.0,-0.3485899269580841,-17,9909.0
5850,0.30309051275253296,3.3256747722625732,94,8124.0,-0.7355955839157104,80,9909.0
5860,0.3031862676143646,0.7636927962303162,-35,8124.0,4.172502040863037,93,9909.0
5870,0.30323877930641174,0.1406385451555252,37,8124.0,3.9251251220703125,194,9909.0
5880,0.3032892346382141,-0.23270997405052185,74,8124.0,5.09820556640625,91,9909.0
5890,0.30163148045539856,-0.5817760229110718,-122,8124.0,3.5087850093841553,-159,9909.0
5900,0.30159667134284973,0.3140910863876343,27,8124.0,-0.45854219794273376,42,9909.0
5910,0.3015362024307251,-1.351196050643921,20,8124.0,-0.50307297706604,-107,9909.0
5920,0.30148687958717346,-0.8311262130737305,-75,8124.0,-2.459003210067749,-8,9909.0
5930,0.3014238178730011,0.43134793639183044,117,8124.0,-3.6588521003723145,-140,9909.0
5940,0.30208292603492737,2.354471445083618,-119,8124.0,-1.1199489831924438,-116,9909.0
5950,0.30211618542671204,1.1808671951293945,22,8124.0,-3.620314359664917,111,9909.0
5960,0.3021520972251892,1.2417137622833252,173,8124.0,-3.80961275100708,-97,9909.0
5970,0.30215737223625183,3.9430480003356934,51,8124.0,-1.739111304283142,-46,9909.0
5980,0.3021155595779419,2.4231417179107666,135,8124.0,0.4554218649864197,105,9909.0
5990,0.30219241976737976,0.7128596901893616,79,8124.0,-0.10786740481853485,-161,9909.0
6000,0.30224350094795227,1.920316219329834,-43,8124.0,-3.068237781524658,-69,9909.0
6010,0.30228471755981445,-2.4298593997955322,24,8124.0,3.8243625164031982,169,9909.0
6020,0.3023519217967987,-4.371157646179199,-3,8124.0,-0.15691187977790833,-29,9909.0
6030,0.30230963230133057,-4.0284929275512695,-120,8124.0,-0.26459625363349915,15,9909.0
6040,0.30238497257232666,-2.603696346282959,45,8124.0,-2.3922808170318604,111,9909.0
6050,0.3025018870830536,-2.8184688091278076,-21,8124.0,-2.857759714126587,-129,9909.0
6060,0.30263975262641907,-1.2989431619644165,-191,8124.0,-5.011693000793457,-175,9909.0
6070,0.3033134639263153,-4.044865131378174,25,8124.0,2.8955330848693848,168,9909.0
6080,0.30363792181015015,1.2608039379119873,15,8124.0,-4.019601821899414,-92,9909.0
6090,0.3038046061992645,2.4457640647888184,-37,8124.0,-1.264182209968567,18,9909.0
6100,0.30404365062713623,2.8674206733703613,79,8124.0,3.6799027919769287,302,9909.0
6110,0.3058161735534668,1.6084128618240356,70,8124.0,-5.682516098022461,-110,9909.0
6120,0.3061583936214447,3.4076757431030273,-80,8124.0,-0.1879286915063858,28,9909.0
6130,0.3065294623374939,1.3206626176834106,20,8124.0,6.028428077697754,119,9909.0
6140,0.306925892829895,-0.6657312512397766,-61,8124.0,2.450486183166504,-3,9909.0
6150,0.307298481464386,-0.1010865569114685,-87,8124.0,3.1535604000091553,47,9909.0
6160,0.3083465099334717,-1.7306346893310547,-18,8124.0,1.6593483686447144,207,9909.0
6170,0.30875635147094727,-6.3248796463012695,-12,8124.0,2.184166431427002,-53,9909.0
6180,0.30917319655418396,-2.1356558799743652,-120,8124.0,-3.846823215484619,-72,9909.0
6190,0.3096674084663391,-2.374620199203491,12,8124.0,-4.381453990936279,-29,9909.0
6200,0.3094908893108368,-1.607643961906433,-15,8124.0,-1.209534764289856,-185,9909.0
6210,0.3099704086780548,0.4349045753479004,-77,8124.0,-2.44035005569458,-45,9909.0
6220,0.31045517325401306,0.4011126160621643,104,8124.0,-4.1860833168029785,123,9909.0
6230,0.31094464659690857,-2.9400930404663086,87,8124.0,4.690343856811523,-105,9909.0
6240,0.31240570545196533,2.9787466526031494,-4,8124.0,0.6145824193954468,68,9909.0
6250,0.312835156917572,0.8197856545448303,61,8124.0,-0.39618173241615295,-10,9909.0
6260,0.3132293224334717,1.5239200592041016,-54,8124.0,2.4221887588500977,-97,9909.0
6270,0.3135910928249359,0.5241565704345703,-26,8124.0,0.8802767395973206,164,9909.0
6280,0.31390461325645447,-0.45398715138435364,136,8124.0,4.325717449188232,75,9909.0
6290,0.3139197826385498,0.5364418029785156,-70,8124.0,-2.241119861602783,-133,9909.0
6300,0.31424465775489807,-1.967034935951233,-54,8124.0,2.0776381492614746,50,9909.0
6310,0.3145673871040344,-3.45055890083313,-10,8124.0,-1.9458768367767334,-121,9909.0
6320,0.3149380087852478,-3.3102946281433105,-186,8124.0,-2.034238815307617,-177,9909.0
6330,0.31433746218681335,-4.615327835083008,-50,8124.0,-2.0027527809143066,124,9909.0
6340,0.31465664505958557,-1.6921653747558594,112,8124.0,1.030404806137085,-77,9909.0
6350,0.31487157940864563,-2.2405152320861816,-55,8124.0,1.6306655406951904,-66,9909.0
6360,0.3150497376918793,1.9814122915267944,89,8124.0,3.634937047958374,72,9909.0
6370,0.3151686191558838,3.964024305343628,82,8124.0,3.0173988342285156,-26,9909.0
6380,0.3152015507221222,6.252513408660889,-25,8124.0,1.7251938581466675,-11,9909.0
6390,0.3152616322040558,6.372246742248535,78,8124.0,2.0020923614501953,201,9909.0
6400,0.3153115510940552,5.611501693725586,189,8124.0,10.681841850280762,8,9909.0
6410,0.31537747383117676,4.056108474731445,-5,8124.0,-1.4598209857940674,-63,9909.0
6420,0.31688472628593445,-0.1363476663827896,3,8124.0,-0.8916854858398438,73,9909.0
6430,0.31702178716659546,-1.8075278997421265,39,8124.0,0.553796112537384,-103,9909.0
6440,0.3171881139278412,-2.0992395877838135,-155,8124.0,1.408106803894043,-5,9909.0
6450,0.31735607981681824,-0.8522072434425354,24,8124.0,3.3163442611694336,150,9909.0
6460,0.3175566792488098,1.0820080041885376,118,8124.0,1.1662547588348389,39,9909.0
6470,0.3171401917934418,4.233356475830078,10,8124.0,3.4981977939605713,-20,9909.0
6480,0.31734904646873474,3.0590643882751465,97,8124.0,2.8372607231140137,80,9909.0
6490,0.3175565004348755,3.7905101776123047,216,8124.0,1.1555092334747314,-57,9909.0
6500,0.317798376083374,4.3871073722839355,21,8124.0,-3.427292823791504,-281,9909.0
6510,0.3189986050128937,1.5401500463485718,-109,8124.0,-3.8683207035064697,-44,9909.0
6520,0.3193090260028839,-2.7167789936065674,-11,8124.0,-5.175405025482178,-76,9909.0
6530,0.31959298253059387,-3.8460919857025146,-142,8124.0,-2.806716203689575,-141,9909.0
6540,0.3198944926261902,-6.858211994171143,-39,8124.0,-4.059141635894775,-1,9909.0
6550,0.31971868872642517,-4.633824348449707,-36,8124.0,-2.169036388397217,-36,9909.0
6560,0.3200215995311737,-2.990507125854492,-194,8124.0,-1.2989146709442139,37,9909.0
6570,0.3203928768634796,-1.8320255279541016,-25,8124.0,-3.0164523124694824,93,9909.0
6580,0.3207554519176483,-1.298029899597168,-71,8124.0,4.779726505279541,3,9909.0
6590,0.3211458623409271,1.1122360229492188,-78,8124.0,4.432424545288086,158,9909.0
6600,0.32309406995773315,0.3117522597312927,124,8124.0,4.151160717010498,166,9909.0
6610,0.3235706686973572,2.223917245864868,-18,8124.0,5.619067668914795,-94,9909.0
6620,0.3240324556827545,1.9812743663787842,-73,8124.0,7.04202127456665,46,9909.0
6630,0.324576735496521,1.7090656757354736,52,8124.0,1.7617769241333008,-5,9909.0
6640,0.32393109798431396,0.24830658733844757,-43,8124.0,0.9805291295051575,-149,9909.0
6650,0.3243604302406311,-1.322166919708252,-48,8124.0,-2.6038644313812256,106,9909.0
6660,0.3249034285545349,0.8617240786552429,180,8124.0,-2.74229097366333,-2,9909.0
6670,0.3253870904445648,0.4457671046257019,63,8124.0,-2.6999616622924805,-125,9909.0
6680,0.3262982964515686,0.12761592864990234,26,8124.0,-0.32752856612205505,113,9909.0
6690,0.326863169670105,1.5181270837783813,59,8124.0,3.083294630050659,-54,9909.0
6700,0.32741978764533997,-0.3299057185649872,-153,8124.0,4.207725524902344,18,9909.0
6710,0.3279457092285156,-1.7713227272033691,70,8124.0,-3.09851336479187,254,9909.0
6720,0.32837727665901184,0.9056382775306702,35,8124.0,-0.24083930253982544,42,9909.0
6730,0.3286696970462799,3.473210334777832,32,8124.0,-1.5180208683013916,66,9909.0
6740,0.32910293340682983,1.865228533744812,100,8124.0,1.6529778242111206,30,9909.0
6750,0.3294928967952728,4.254746913909912,-16,8124.0,-3.3457040786743164,-227,9909.0
6760,0.3298400044441223,2.6311769485473633,0,8124.0,0.0946769267320633,194,9909.0
6770,0.32981836795806885,1.9992494583129883,24,8124.0,2.798750638961792,69,9909.0
6780,0.33019745349884033,-2.0249178409576416,-41,8124.0,5.574589252471924,152,9909.0
6790,0.3305700421333313,-1.0618529319763184,119,8124.0,4.670368671417236,159,9909.0
6800,0.3309551477432251,0.8380672931671143,-69,8124.0,8.414057731628418,0,9909.0
6810,0.331332266330719,4.940578460693359,58,8124.0,3.951049566268921,120,9909.0
6820,0.3303060829639435,7.102829456329346,171,8124.0,2.7642667293548584,54,9909.0
6830,0.33054062724113464,10.439237594604492,128,8124.0,0.5153865218162537,3,9909.0
6840,0.330771803855896,8.529623031616211,242,8124.0,0.7383402585983276,133,9909.0
6850,0.3309658169746399,10.261514663696289,181,8124.0,-0.5615440607070923,-115,9909.0
6860,0.3307734429836273,5.555772304534912,6,8124.0,-0.7732505202293396,-44,9909.0
6870,0.3310227692127228,-0.2378424108028412,50,8124.0,-0.08885528892278671,-88,9909.0
6880,0.33124369382858276,-1.771710753440857,-150,8124.0,-0.8382303714752197,-136,9909.0
6890,0.3314460813999176,-0.37619316577911377,47,8124.0,-1.6083389520645142,134,9909.0
6900,0.33021003007888794,-4.0947370529174805,-113,8124.0,1.3766038417816162,-95,9909.0
6910,0.3303620517253876,-2.35308575630188,-85,8124.0,-2.2277441024780273,-128,9909.0
6920,0.33049267530441284,-4.761837482452393,24,8124.0,-0.010912158526480198,-91,9909.0
6930,0.33062314987182617,-0.4301187992095947,-55,8124.0,0.42363014817237854,-218,9909.0
6940,0.3307814300060272,1.7743288278579712,0,8124.0,-1.7346735000610352,75,9909.0
6950,0.33222565054893494,5.287209987640381,131,8124.0,2.40267014503479,-50,9909.0
6960,0.33245939016342163,5.621487617492676,23,8124.0,0.2801099419593811,-42,9909.0
6970,0.3327360153198242,4.064101696014404,141,8124.0,-2.385735511779785,83,9909.0
6980,0.33301737904548645,0.9245802164077759,-31,8124.0,1.6659317016601562,-201,9909.0
6990,0.33171403408050537,2.034989356994629,-111,8124.0,-0.9336745738983154,-27,9909.0
7000,0.33193352818489075,-1.1673071384429932,39,8124.0,-0.8923227190971375,-49,9909.0
7010,0.3321595788002014,-0.6747515201568604,-118,8124.0,-3.923226833343506,-199,9909.0
7020,0.3323826193809509,-3.3647100925445557,-37,8124.0,-1.7352350950241089,86,9909.0
7030,0.3326185643672943,-4.3791117668151855,64,8124.0,-0.1905549317598343,-40,9909.0
7040,0.3338685929775238,-5.616983413696289,-109,8124.0,3.6164157390594482,-15,9909.0
7050,0.33415213227272034,-0.8976186513900757,6,8124.0,-0.9098637104034424,-35,9909.0
7060,0.3344559967517853,-0.23445285856723785,-32,8124.0,1.0074082612991333,-188,9909.0
7070,0.3347254693508148,2.7852673530578613,-166,8124.0,-0.5644912719726562,42,9909.0
7080,0.33432358503341675,-4.684398651123047,68,8124.0,2.1987144947052,45,9909.0
7090,0.33456140756607056,-0.8654268980026245,-60,8124.0,0.42399871349334717,-53,9909.0
7100,0.3348050117492676,-5.495354175567627,-79,8124.0,-1.501914620399475,103,9909.0
7110,0.3350156247615814,-9.517999649047852,-49,8124.0,0.09386184066534042,-39,9909.0
7120,0.33672380447387695,-10.237431526184082,-258,8124.0,-3.8393959999084473,-179,9909.0
7130,0.3370213210582733,-9.917476654052734,-96,8124.0,-0.21495376527309418,14,9909.0
7140,0.3372776210308075,-7.443716526031494,-130,8124.0,-0.6819775104522705,-94,9909.0
7150,0.33752918243408203,-3.5189764499664307,-93,8124.0,-0.4143501818180084,39,9909.0
7160,0.33780574798583984,0.25107043981552124,175,8124.0,-3.2105302810668945,36,9909.0
7170,0.3361029326915741,0.4064573347568512,-117,8124.0,-2.113189458847046,-218,9909.0
7180,0.3362908661365509,-1.2253557443618774,48,8124.0,-1.8162753582000732,7,9909.0
7190,0.3364776074886322,-4.387173175811768,-122,8124.0,1.9044642448425293,-53,9909.0
7200,0.3366345167160034,-8.112812995910645,-113,8124.0,4.0479416847229,240,9909.0
7210,0.3366055190563202,-14.131733894348145,-151,8124.0,3.507908582687378,9,9909.0
7220,0.33673346042633057,-18.935949325561523,-374,8124.0,11.032828330993652,-87,9909.0
7230,0.336968332529068,-10.404433250427246,-98,8124.0,1.6174302101135254,84,9909.0
7240,0.3370894491672516,-3.43445086479187,-64,8124.0,2.902611494064331,-106,9909.0
7250,0.3376343846321106,2.967742919921875,-23,8124.0,-2.3159754276275635,-12,9909.0
7260,0.3378872573375702,7.735752105712891,182,8124.0,-7.79744815826416,70,9909.0
7270,0.3379882574081421,3.6393916606903076,27,8124.0,-6.612692832946777,-206,9909.0
7280,0.33829429745674133,-5.73488712310791,-122,8124.0,-6.130625247955322,-12,9909.0
7290,0.3383904695510864,-15.51009750366211,-273,8124.0,-7.009246349334717,-82,9909.0
7300,0.3384198546409607,-20.809171676635742,-487,8124.0,2.581768274307251,62,9909.0
7310,0.3385271728038788,-22.659679412841797,-335,8124.0,7.3785481452941895,130,9909.0
7320,0.3386531472206116,-19.382034301757812,-364,8124.0,8.900609970092773,11,9909.0
7330,0.33885252475738525,-12.02182388305664,-194,8124.0,6.124597549438477,174,9909.0
7340,0.339962363243103,-5.552949905395508,49,8124.0,4.222949028015137,79,9909.0
7350,0.34020036458969116,0.2678596079349518,-34,8124.0,2.197587490081787,50,9909.0
7360,0.34040623903274536,3.054666042327881,85,8124.0,3.7822699546813965,148,9909.0
7370,0.34077638387680054,1.996108889579773,41,8124.0,2.791450023651123,-100,9909.0
7380,0.3411649465560913,0.043937209993600845,-160,8124.0,1.1295702457427979,-16,9909.0
7390,0.34186264872550964,-5.565690994262695,-19,8124.0,-1.9342705011367798,-12,9909.0
7400,0.34214654564857483,-6.558669567108154,-167,8124.0,0.8677746057510376,-86,9909.0
7410,0.3426413834095001,-6.650802135467529,-81,8124.0,0.2015751600265503,171,9909.0
7420,0.34307098388671875,-4.220685005187988,-7,8124.0,-1.7837083339691162,-26,9909.0
7430,0.34384068846702576,-0.5522660613059998,-53,8124.0,2.3053579330444336,123,9909.0
7440,0.34432944655418396,-1.7139105796813965,83,8124.0,6.216279983520508,77,9909.0
7450,0.3447849750518799,-1.7593672275543213,-101,8124.0,1.4167190790176392,14,9909.0
7460,0.34531494975090027,-6.096009254455566,-74,8124.0,5.805180549621582,158,9909.0
7470,0.3455321788787842,-11.304038047790527,-242,8124.0,5.955065727233887,-55,9909.0
7480,0.3460087776184082,-18.487363815307617,-354,8124.0,1.99868643283844,149,9909.0
7490,0.3464435338973999,-19.608150482177734,-309,8124.0,0.4992406368255615,5,9909.0
7500,0.34679362177848816,-15.737409591674805,-334,8124.0,1.2501074075698853,40,9909.0
7510,0.3471347391605377,-6.525219440460205,13,8124.0,-2.102642774581909,95,9909.0
7520,0.34699350595474243,3.385047197341919,47,8124.0,-0.29035189747810364,-98,9909.0
7530,0.34729450941085815,9.479812622070312,124,8124.0,4.1880292892456055,129,9909.0
7540,0.34763017296791077,10.137036323547363,209,8124.0,7.9251179695129395,25,9909.0
7550,0.3479420244693756,10.00887680053711,54,8124.0,10.20577335357666,185,9909.0
7560,0.3482072055339813,10.817441940307617,206,8124.0,9.485424041748047,123,9909.0
7570,0.34858301281929016,9.905234336853027,74,8124.0,4.899292945861816,11,9909.0
7580,0.34889811277389526,7.528026103973389,205,8124.0,0.658018946647644,124,9909.0
7590,0.3491860032081604,1.0769215822219849,4,8124.0,0.6499905586242676,-73,9909.0
7600,0.350002646446228,-3.5825138092041016,13,8124.0,-0.23163361847400665,5,9909.0
7610,0.35028311610221863,-7.859552383422852,-107,8124.0,0.17822346091270447,-182,9909.0
7620,0.3505246043205261,-6.423720359802246,-67,8124.0,-3.811004400253296,-73,9909.0
7630,0.35075756907463074,-8.563108444213867,-85,8124.0,-1.048644781112671,-206,9909.0
7640,0.35096028447151184,-7.216775417327881,-128,8124.0,-6.98038387298584,-26,9909.0
7650,0.35065919160842896,-4.385181903839111,41,8124.0,-2.133375644683838,-64,9909.0
7660,0.35075631737709045,3.1954009532928467,46,8124.0,0.28527337312698364,24,9909.0
7670,0.35085439682006836,10.705521583557129,333,8124.0,6.577444553375244,99,9909.0
7680,0.3509856164455414,14.043939590454102,208,8124.0,6.752476692199707,11,9909.0
7690,0.35099589824676514,16.330398559570312,285,8124.0,4.241336822509766,134,9909.0
7700,0.3511056900024414,13.548285484313965,163,8124.0,4.136897563934326,-117,9909.0
7710,0.3511350750923157,9.113448143005371,173,8124.0,0.5505342483520508,49,9909.0
7720,0.351129949092865,7.604170799255371,111,8124.0,0.005045509431511164,-106,9909.0
7730,0.351081907749176,6.252508640289307,84,8124.0,-0.15718235075473785,11,9909.0
7740,0.35220810770988464,7.493932247161865,78,8124.0,-4.624694347381592,-103,9909.0
7750,0.352234810590744,2.5574944019317627,-59,8124.0,-1.8081644773483276,-45,9909.0
7760,0.3522456884384155,0.24124649167060852,91,8124.0,1.9847965240478516,36,9909.0
7770,0.35222405195236206,-1.7326465845108032,-125,8124.0,2.4480440616607666,178,9909.0
7780,0.3528219163417816,-0.37964335083961487,122,8124.0,1.5139871835708618,-90,9909.0
7790,0.35277900099754333,-2.1002447605133057,-59,8124.0,8.730600357055664,73,9909.0
7800,0.3527280390262604,-0.9556071758270264,65,8124.0,2.657578945159912,17,9909.0
7810,0.35271909832954407,-1.4314135313034058,50,8124.0,0.7727610468864441,-80,9909.0
7820,0.3527873754501343,-0.9335009455680847,37,8124.0,-4.847496032714844,-6,9909.0
7830,0.3527124524116516,-0.24551767110824585,-28,8124.0,-4.089319229125977,-211,9909.0
7840,0.35263916850090027,2.400571823120117,9,8124.0,-9.218239784240723,-81,9909.0
7850,0.3525497019290924,4.781162261962891,118,8124.0,-6.399340629577637,-59,9909.0
7860,0.352466344833374,4.818787097930908,0,8124.0,0.26494142413139343,-15,9909.0
7870,0.3525733947753906,4.6500935554504395,174,8124.0,6.239115238189697,107,9909.0
7880,0.35253721475601196,6.085132598876953,34,8124.0,-1.4285173416137695,60,9909.0
7890,0.35259366035461426,3.625241756439209,67,8124.0,4.5331339836120605,227,9909.0
7900,0.3526356816291809,2.4613733291625977,-5,8124.0,8.501612663269043,47,9909.0
7910,0.352834552526474,0.8563829064369202,-6,8124.0,4.366327285766602,172,9909.0
7920,0.35288384556770325,0.6705682873725891,86,8124.0,-4.012331485748291,-54,9909.0
7930,0.3529348075389862,0.7993132472038269,-97,8124.0,0.012945590540766716,2,9909.0
7940,0.35301536321640015,2.7905197143554688,90,8124.0,-4.749253749847412,-36,9909.0
7950,0.3530900478363037,5.820663928985596,37,8124.0,-4.5348920822143555,-196,9909.0
7960,0.35353654623031616,6.123556137084961,141,8124.0,-4.637404918670654,-62,9909.0
7970,0.3536595404148102,6.506199836730957,90,8124.0,-0.243742898106575,-124,9909.0
7980,0.3537735342979431,7.547111511230469,54,8124.0,4.607144355773926,118,9909.0
7990,0.35389211773872375,6.082247734069824,170,8124.0,2.385631561279297,-26,9909.0
8000,0.35485100746154785,4.588603973388672,-26,8124.0,4.965146064758301,75,9909.0
8010,0.35499727725982666,1.0325477123260498,114,8124.0,7.244196891784668,143,9909.0
8020,0.3551625609397888,0.7308779358863831,-31,8124.0,5.013808727264404,38,9909.0
8030,0.35536178946495056,2.6451072692871094,32,8124.0,1.9740792512893677,203,9909.0
8040,0.3573055863380432,2.631688117980957,69,8124.0,-3.5239460468292236,-120,9909.0
8050,0.35759666562080383,0.8279889822006226,-16,8124.0,-4.325564384460449,-49,9909.0
8060,0.35782086849212646,0.9253783822059631,114,8124.0,-6.646306037902832,-135,9909.0
8070,0.3580174148082733,0.8165767192840576,-27,8124.0,-9.974950790405273,-402,9909.0
8080,0.35820192098617554,1.816356897354126,67,8124.0,-7.667366027832031,-44,9909.0
8090,0.35872048139572144,1.9060990810394287,57,8124.0,1.1203185319900513,-106,9909.0
8100,0.35891392827033997,0.5030959844589233,-26,8124.0,0.08273530006408691,65,9909.0
8110,0.3591157793998718,-0.18080386519432068,48,8124.0,5.875514030456543,35,9909.0
8120,0.3593396246433258,1.2771531343460083,-138,8124.0,8.89149284362793,110,9909.0
8130,0.35980939865112305,0.5021820664405823,79,8124.0,4.8391923904418945,74,9909.0
8140,0.3600037693977356,0.5896154642105103,-47,8124.0,2.0703368186950684,-56,9909.0
8150,0.36017879843711853,0.6460418105125427,35,8124.0,-4.058854103088379,104,9909.0
8160,0.3603742718696594,0.4782164394855499,17,8124.0,-2.9443728923797607,-94,9909.0
8170,0.3605886995792389,0.14612817764282227,-72,8124.0,-3.207000255584717,39,9909.0
8180,0.3622257709503174,3.703505516052246,155,8124.0,-12.837651252746582,-25,9909.0
8190,0.36249661445617676,-1.0610285997390747,-93,8124.0,-4.528074264526367,-79,9909.0
8200,0.3627241551876068,-1.7818313837051392,-7,8124.0,-4.981222629547119,42,9909.0
8210,0.36291947960853577,0.9146668910980225,6,8124.0,-5.115087985992432,-242,9909.0
8220,0.3651348650455475,-2.4993667602539062,-32,8124.0,-2.6145575046539307,3,9909.0
8230,0.3653521239757538,-3.945366621017456,-16,8124.0,-0.9976972937583923,-124,9909.0
8240,0.3655323088169098,-1.4605450630187988,-146,8124.0,1.283461332321167,15,9909.0
8250,0.3657163977622986,0.05435164272785187,23,8124.0,-0.8104167580604553,-29,9909.0
8260,0.36635738611221313,-0.9142765998840332,-89,8124.0,3.551239490509033,-38,9909.0
8270,0.3665931820869446,3.486607313156128,108,8124.0,0.9551650881767273,133,9909.0
8280,0.36679399013519287,5.059897422790527,58,8124.0,1.9755762815475464,-83,9909.0
8290,0.36692601442337036,3.8710718154907227,2,8124.0,0.30949902534484863,39,9909.0
8300,0.36703768372535706,2.490041732788086,143,8124.0,-1.3627521991729736,-133,9909.0
8310,0.3663240671157837,-0.6928082704544067,-49,8124.0,-1.5276532173156738,-97,9909.0
8320,0.3664211630821228,-1.3505839109420776,45,8124.0,-4.185425281524658,-16,9909.0
8330,0.3664880096912384,-1.1591179370880127,-39,8124.0,-2.8768632411956787,-194,9909.0
8340,0.3664969503879547,-2.3011066913604736,-4,8124.0,-1.5412360429763794,18,9909.0
8350,0.3663017451763153,-1.1700210571289062,36,8124.0,-3.054741144180298,-166,9909.0
8360,0.36628198623657227,2.1596555709838867,-106,8124.0,-1.1147794723510742,146,9909.0
8370,0.36620858311653137,-0.8166137337684631,73,8124.0,-3.1084704399108887,-63,9909.0
8380,0.366108238697052,-1.8326311111450195,-98,8124.0,1.4739772081375122,-107,9909.0
8390,0.3659987151622772,-2.039677858352661,41,8124.0,1.8844001293182373,114,9909.0
8400,0.3663146495819092,1.0942751169204712,-14,8124.0,-3.328172206878662,-9,9909.0
8410,0.3662400543689728,-1.3477791547775269,-39,8124.0,-0.10101751983165741,117,9909.0
8420,0.3661459982395172,-1.5459611415863037,152,8124.0,-0.17003561556339264,-179,9909.0
8430,0.3660396635532379,1.4347898960113525,-5,8124.0,2.0177998542785645,106,9909.0
8440,0.36552518606185913,2.001751184463501,87,8124.0,-1.107456088066101,-76,9909.0
8450,0.3654145896434784,5.343299865722656,-57,8124.0,-3.3857908248901367,1,9909.0
8460,0.3652721643447876,4.880523681640625,115,8124.0,-2.849236011505127,91,9909.0
8470,0.36510923504829407,2.7108123302459717,-2,8124.0,-1.9057353734970093,-132,9909.0
8480,0.3649340867996216,0.542945146560669,-35,8124.0,0.2947009205818176,39,9909.0
8490,0.3648212254047394,-1.5870352983474731,-17,8124.0,-1.6816515922546387,-53,9909.0
8500,0.3646853268146515,-3.1659958362579346,-165,8124.0,-2.7778499126434326,-17,9909.0
8510,0.3645591735839844,-1.5093246698379517,16,8124.0,-3.7737812995910645,62,9909.0
8520,0.36455264687538147,0.2534691393375397,-57,8124.0,-2.9883038997650146,-68,9909.0
8530,0.3643595278263092,2.4637439250946045,17,8124.0,0.2210886925458908,81,9909.0
8540,0.3643368184566498,-0.6309871673583984,100,8124.0,1.6752206087112427,63,9909.0
8550,0.36432501673698425,1.5895923376083374,-77,8124.0,8.695626258850098,156,9909.0
8560,0.36429113149642944,2.4032435417175293,95,8124.0,7.097914218902588,229,9909.0
8570,0.3633796274662018,1.8756816387176514,13,8124.0,4.490075588226318,-64,9909.0
8580,0.3633568286895752,-1.0684330463409424,3,8124.0,6.253010272979736,214,9909.0
8590,0.3633531332015991,-2.755417823791504,87,8124.0,1.1420652866363525,-40,9909.0
8600,0.36337247490882874,-1.691267490386963,-55,8124.0,-2.1999382972717285,-65,9909.0
8610,0.36343809962272644,-2.0067429542541504,41,8124.0,-3.5034267902374268,71,9909.0
8620,0.3637654781341553,-2.905672311782837,-3,8124.0,-4.6143574714660645,-191,9909.0
8630,0.3638642728328705,2.453599691390991,-56,8124.0,-2.049602746963501,11,9909.0
8640,0.3639243543148041,0.4520670771598816,58,8124.0,-6.471460342407227,-125,9909.0
8650,0.3639739453792572,-1.0977869033813477,-142,8124.0,-4.245908260345459,-121,9909.0
8660,0.3644678592681885,0.8915461897850037,52,8124.0,-2.2063679695129395,87,9909.0
8670,0.36462917923927307,-2.0645313262939453,-43,8124.0,6.592239856719971,-67,9909.0
8680,0.36463773250579834,-1.4420576095581055,-32,8124.0,8.072105407714844,169,9909.0
8690,0.3648633360862732,-1.9868322610855103,44,8124.0,4.808272361755371,-73,9909.0
8700,0.3637952208518982,-0.7524596452713013,-132,8124.0,10.889692306518555,113,9909.0
8710,0.3638487458229065,1.3241783380508423,35,8124.0,4.047812461853027,131,9909.0
8720,0.3638631999492645,1.3070595264434814,-4,8124.0,1.45084547996521,-152,9909.0
8730,0.36386847496032715,-0.2388378530740738,-41,8124.0,-1.1768792867660522,-71,9909.0
8740,0.36387068033218384,1.9933993816375732,138,8124.0,-4.714648246765137,-114,9909.0
8750,0.36158493161201477,-0.9937886595726013,-72,8124.0,-1.4355697631835938,-104,9909.0
8760,0.36153244972229004,1.3582558631896973,89,8124.0,-5.334890365600586,33,9909.0
8770,0.36149245500564575,1.2040860652923584,-20,8124.0,-2.5208277702331543,-84,9909.0
8780,0.361477255821228,1.0697879791259766,-8,8124.0,-3.4981608390808105,22,9909.0
8790,0.3624363839626312,-0.8625667095184326,93,8124.0,1.9213180541992188,-6,9909.0
8800,0.3626821041107178,0.8697949647903442,-59,8124.0,5.166701793670654,92,9909.0
8810,0.3626827001571655,1.7469946146011353,147,8124.0,-0.20314742624759674,39,9909.0
8820,0.36296868324279785,0.11001010984182358,1,8124.0,3.589616537094116,-33,9909.0
8830,0.3629722595214844,1.0358169078826904,26,8124.0,2.281148672103882,195,9909.0
8840,0.36367690563201904,-0.7666670083999634,-13,8124.0,2.240370988845825,-84,9909.0
8850,0.3636782169342041,0.07831621915102005,29,8124.0,-3.2012088298797607,-8,9909.0
8860,0.3641175627708435,-2.973161220550537,56,8124.0,-1.7242693901062012,-153,9909.0
8870,0.36411863565444946,-2.035815954208374,-78,8124.0,-6.090053558349609,-107,9909.0
8880,0.36497774720191956,-2.293485164642334,44,8124.0,-7.742642402648926,-115,9909.0
8890,0.3652277886867523,-3.830496072769165,-138,8124.0,-6.2404022216796875,-83,9909.0
8900,0.3654896318912506,-3.1528091430664062,14,8124.0,-2.5077266693115234,-42,9909.0
8910,0.36581656336784363,-2.0688652992248535,-152,8124.0,0.455846905708313,-37,9909.0
8920,0.3653063178062439,-2.5172407627105713,54,8124.0,4.849359512329102,126,9909.0
8930,0.365566223859787,1.788769245147705,-33,8124.0,11.048219680786133,93,9909.0
8940,0.36578798294067383,3.198209047317505,100,8124.0,11.26508617401123,202,9909.0
8950,0.36600878834724426,6.924349308013916,8,8124.0,4.240298271179199,22,9909.0
8960,0.36625853180885315,6.390264987945557,63,8124.0,4.141050338745117,330,9909.0
8970,0.3671288788318634,3.7586915493011475,15,8124.0,3.8530962467193604,121,9909.0
8980,0.36746320128440857,-0.022690024226903915,36,8124.0,2.1916277408599854,150,9909.0
8990,0.36783111095428467,-1.876537799835205,-12,8124.0,-1.0704491138458252,-279,9909.0
9000,0.3681524395942688,-2.470133066177368,-12,8124.0,-4.99086332321167,6,9909.0
9010,0.3671439588069916,-1.9678595066070557,-87,8124.0,-3.4163219928741455,-191,9909.0
9020,0.3673945665359497,-1.048192024230957,7,8124.0,-3.50026798248291,-6,9909.0
9030,0.3676730692386627,-3.2216315269470215,-28,8124.0,2.6791281700134277,-31,9909.0
9040,0.36797937750816345,1.4765024185180664,60,8124.0,6.024114608764648,130,9909.0
9050,0.3683209717273712,1.5591143369674683,16,8124.0,7.902698993682861,145,9909.0
9060,0.3679736256599426,0.8097065091133118,83,8124.0,4.885505199432373,43,9909.0
9070,0.36821475625038147,-0.6441898345947266,-61,8124.0,3.389671564102173,50,9909.0
9080,0.3684409558773041,-0.574145495891571,24,8124.0,-0.3810027837753296,-70,9909.0
9090,0.3686456084251404,-1.2963184118270874,-148,8124.0,-4.483053684234619,-9,9909.0
9100,0.3685070872306824,-3.9785237312316895,2,8124.0,0.12340934574604034,36,9909.0
9110,0.36867475509643555,-0.9862469434738159,-71,8124.0,-3.598033905029297,30,9909.0
9120,0.3688659369945526,-4.574337959289551,114,8124.0,-6.45376443862915,-170,9909.0
9130,0.3690551221370697,0.2920633852481842,-5,8124.0,-2.012349843978882,-2,9909.0
9140,0.368406742811203,1.64736008644104,111,8124.0,-0.2094929814338684,-97,9909.0
9150,0.3685230314731598,2.895165205001831,-13,8124.0,-3.4396185874938965,-29,9909.0
9160,0.3686092793941498,4.376847267150879,91,8124.0,-0.31742700934410095,-107,9909.0
9170,0.36864978075027466,3.1553330421447754,-41,8124.0,-2.5958149433135986,0,9909.0
9180,0.368663489818573,1.003861665725708,70,8124.0,-0.5187057256698608,-53,9909.0
9190,0.3664532005786896,-0.7175590991973877,-32,8124.0,-0.5422831177711487,125,9909.0
9200,0.36636218428611755,-4.170197486877441,17,8124.0,-2.6833622455596924,-100,9909.0
9210,0.366257905960083,-2.875469923019409,-94,8124.0,-5.348072528839111,18,9909.0
9220,0.36613965034484863,-6.131346702575684,-35,8124.0,-1.9103647470474243,-160,9909.0
9230,0.36411383748054504,-6.148828983306885,-100,8124.0,-0.8396012187004089,-9,9909.0
9240,0.36382654309272766,-2.189476251602173,-12,8124.0,-0.5539017915725708,-98,9909.0
9250,0.3635036051273346,1.0089097023010254,-84,8124.0,0.2703871428966522,176,9909.0
9260,0.36317121982574463,1.3848602771759033,79,8124.0,3.909248113632202,14,9909.0
9270,0.3628743886947632,3.8007278442382812,29,8124.0,0.09022269397974014,80,9909.0
9280,0.36235493421554565,3.392396926879883,185,8124.0,5.224541664123535,4,9909.0
9290,0.3620845675468445,2.8035013675689697,57,8124.0,-0.8287350535392761,-27,9909.0
9300,0.3618049621582031,0.557116687297821,104,8124.0,3.501162528991699,54,9909.0
9310,0.36155250668525696,0.9379104375839233,-109,8124.0,1.2148237228393555,49,9909.0
9320,0.362356573343277,-2.9918460845947266,17,8124.0,1.4758110046386719,-42,9909.0
9330,0.3622497320175171,-5.099484920501709,-195,8124.0,-3.763883590698242,-181,9909.0
9340,0.3621828258037567,-4.217957019805908,-20,8124.0,-6.2155561447143555,-36,9909.0
9350,0.3621635138988495,-2.5001723766326904,-110,8124.0,-2.5224809646606445,-146,9909.0
9360,0.361013263463974,-1.0120775699615479,43,8124.0,-3.687803268432617,51,9909.0
9370,0.3609902858734131,-0.5457596778869629,-54,8124.0,3.3520500659942627,5,9909.0
9380,0.3609761595726013,-0.7646335959434509,38,8124.0,2.072244167327881,148,9909.0
9390,0.3609931468963623,-0.8086855411529541,-60,8124.0,1.0050325393676758,-47,9909.0
9400,0.36105987429618835,-2.402750015258789,49,8124.0,2.9567575454711914,121,9909.0
9410,0.359925240278244,-3.668818235397339,-73,8124.0,1.3786938190460205,-139,9909.0
9420,0.3601346015930176,-1.8068138360977173,-27,8124.0,-2.885176420211792,-3,9909.0
9430,0.36025917530059814,-1.0618561506271362,-38,8124.0,-2.8382418155670166,-212,9909.0
9440,0.36041972041130066,0.03815620392560959,-78,8124.0,-2.4080960750579834,110,9909.0
9450,0.3614981174468994,4.255184173583984,43,8124.0,-3.30299973487854,-24,9909.0
9460,0.361795037984848,4.102980136871338,46,8124.0,2.6120309829711914,166,9909.0
9470,0.36212772130966187,1.8191040754318237,68,8124.0,10.21178150177002,127,9909.0
9480,0.3624786138534546,4.614842891693115,64,8124.0,6.800355911254883,224,9909.0
9490,0.36284977197647095,3.1302685737609863,103,8124.0,7.702241897583008,-3,9909.0
9500,0.364737331867218,2.0736939907073975,19,8124.0,3.947836399078369,89,9909.0
9510,0.36515143513679504,0.7274336218833923,-32,8124.0,4.448359966278076,-94,9909.0
9520,0.36556747555732727,-1.7108875513076782,-97,8124.0,-0.524582028388977,85,9909.0
9530,0.3659624457359314,-2.9787073135375977,-34,8124.0,-5.2379655838012695,-66,9909.0
9540,0.36623451113700867,-4.292628765106201,-46,8124.0,-7.612932205200195,-26,9909.0
9550,0.36669284105300903,-4.10097074508667,-6,8124.0,-1.3034991025924683,-174,9909.0
9560,0.3671727776527405,-0.21910031139850616,31,8124.0,-4.948367595672607,-60,9909.0
9570,0.3676394820213318,2.084038734436035,1,8124.0,-1.6465303897857666,-102,9909.0
9580,0.3688162565231323,4.993978977203369,134,8124.0,0.13563156127929688,193,9909.0
9590,0.36928796768188477,4.754785537719727,57,8124.0,2.48616623878479,39,9909.0
9600,0.3697497844696045,3.663107395172119,130,8124.0,3.6082472801208496,182,9909.0
9610,0.37022846937179565,4.056498050689697,-19,8124.0,3.4699137210845947,-5,9909.0
9620,0.3707077205181122,-0.9241589307785034,-35,8124.0,-0.7099268436431885,-12,9909.0
9630,0.3707410991191864,-2.624509334564209,-144,8124.0,-0.3961106538772583,-127,9909.0
9640,0.37126070261001587,-6.695271015167236,-8,8124.0,-1.109257698059082,91,9909.0
9650,0.37174084782600403,-2.7694647312164307,-57,8124.0,-5.7870097160339355,-94,9909.0
9660,0.37216851115226746,-3.0248727798461914,-44,8124.0,-6.6481170654296875,-213,9909.0
9670,0.37231510877609253,-0.8683966994285583,-64,8124.0,-7.41636323928833,39,9909.0
9680,0.3725719153881073,-0.2547523081302643,8,8124.0,-5.531724452972412,-58,9909.0
9690,0.37274765968322754,0.789693295955658,37,8124.0,-4.354029655456543,87,9909.0
9700,0.3728519678115845,1.2124660015106201,8,8124.0,-2.413763999938965,-104,9909.0
9710,0.3729272782802582,-0.26931190490722656,-7,8124.0,7.623673915863037,31,9909.0
9720,0.37379568815231323,1.8095593452453613,10,8124.0,-0.7334364652633667,-203,9909.0
9730,0.3739091753959656,0.922615647315979,22,8124.0,-3.663876533508301,106,9909.0
9740,0.374016135931015,-1.196868896484375,-15,8124.0,0.07267240434885025,-33,9909.0
9750,0.3740788698196411,-1.4948291778564453,18,8124.0,-2.2058792114257812,82,9909.0
9760,0.37404322624206543,-2.867706060409546,-85,8124.0,-0.3045337498188019,-181,9909.0
9770,0.37401512265205383,-1.199489712715149,5,8124.0,0.37625500559806824,32,9909.0
9780,0.37400028109550476,1.3540810346603394,-20,8124.0,3.5900282859802246,-33,9909.0
9790,0.3740014135837555,4.618630409240723,78,8124.0,0.9996329545974731,155,9909.0
9800,0.3743704855442047,6.415530681610107,161,8124.0,-0.12138646841049194,3,9909.0
9810,0.3743530809879303,7.780633449554443,89,8124.0,2.5296969413757324,123,9909.0
9820,0.3743266463279724,4.547882556915283,118,8124.0,1.8639109134674072,29,9909.0
9830,0.374264121055603,2.251249313354492,-45,8124.0,-4.175094127655029,12,9909.0
9840,0.37413734197616577,0.26633885502815247,75,8124.0,-2.0138232707977295,-105,9909.0
9850,0.37399300932884216,-0.16506092250347137,-151,8124.0,0.4954865872859955,41,9909.0
9860,0.37384772300720215,-0.7233260273933411,15,8124.0,-2.189375638961792,-62,9909.0
9870,0.3736916482448578,-1.5916236639022827,-84,8124.0,3.351599931716919,69,9909.0
9880,0.37352636456489563,0.17642280459403992,139,8124.0,7.770170211791992,106,9909.0
9890,0.3724414110183716,2.075760841369629,4,8124.0,4.7476725578308105,69,9909.0
9900,0.3722236156463623,2.9249138832092285,160,8124.0,8.096695899963379,222,9909.0
9910,0.37198686599731445,5.071731090545654,57,8124.0,9.046150207519531,-9,9909.0
9920,0.37174150347709656,5.874697208404541,88,8124.0,12.255240440368652,203,9909.0
9930,0.37152284383773804,3.790235757827759,55,8124.0,3.7550926208496094,-100,9909.0
9940,0.37076738476753235,1.9850281476974487,-6,8124.0,2.9529004096984863,122,9909.0
9950,0.370515912771225,-3.7348947525024414,-13,8124.0,-1.4775614738464355,-119,9909.0
9960,0.37027230858802795,-3.481544256210327,-146,8124.0,-7.27039909362793,-93,9909.0
9970,0.3700276017189026,-4.4149169921875,148,8124.0,-12.153736114501953,-155,9909.0
9980,0.3710925579071045,-0.6692513823509216,-68,8124.0,-4.145137786865234,-40,9909.0
9990,0.3709404468536377,-0.018667496740818024,90,8124.0,0.520240068435669,102,9909.0
10000,0.37075817584991455,1.734095811843872,-37,8124.0,4.9344801902771,15,9909.0
10010,0.370553195476532,2.8992364406585693,96,8124.0,2.8484606742858887,139,9909.0
10020,0.369845449924469,3.668017625808716,35,8124.0,7.3697943687438965,-34,9909.0
10030,0.3696800470352173,2.0618174076080322,63,8124.0,2.8420281410217285,128,9909.0
10040,0.36954912543296814,3.543405294418335,15,8124.0,4.772289276123047,-15,9909.0
10050,0.36943334341049194,0.8026236891746521,7,8124.0,2.3242125511169434,208,9909.0
10060,0.36932265758514404,-1.7218828201293945,-35,8124.0,-0.9041963219642639,-41,9909.0
10070,0.36831560730934143,0.05831049755215645,-55,8124.0,2.3459811210632324,130,9909.0
10080,0.3681819438934326,-4.817120552062988,24,8124.0,-0.767989456653595,-64,9909.0
10090,0.36810463666915894,-3.9434428215026855,-166,8124.0,-2.772428035736084,-23,9909.0
10100,0.3680388629436493,-3.9552743434906006,-37,8124.0,0.4651642143726349,-30,9909.0
10110,0.36837494373321533,-3.8788394927978516,-222,8124.0,-0.9106633067131042,56,9909.0
10120,0.3683895170688629,-1.97955322265625,-16,8124.0,-0.032590433955192566,68,9909.0
10130,0.3683933913707733,0.23364025354385376,-44,8124.0,0.06548413634300232,-62,9909.0
10140,0.3684246242046356,1.5478917360305786,49,8124.0,-0.8246193528175354,100,9909.0
10150,0.3684779107570648,0.5559857487678528,-11,8124.0,-0.9933291673660278,-124,9909.0
10160,0.36957940459251404,0.8923161625862122,85,8124.0,-0.21729543805122375,62,9909.0
10170,0.3697417676448822,1.0073529481887817,-5,8124.0,-3.2889771461486816,-110,9909.0
10180,0.36990439891815186,0.05335278809070587,9,8124.0,0.7092018723487854,73,9909.0
10190,0.37008151412010193,-1.4354751110076904,-2,8124.0,3.716017961502075,-31,9909.0
10200,0.3693828284740448,0.341376394033432,-71,8124.0,2.1297190189361572,125,9909.0
10210,0.3696061074733734,-0.024061789736151695,2,8124.0,5.929597854614258,39,9909.0
10220,0.36989080905914307,-0.9731985926628113,-99,8124.0,4.22165584564209,82,9909.0
10230,0.3701854944229126,-0.7238472700119019,78,8124.0,1.7582372426986694,0,9909.0
10240,0.3702811896800995,-2.691880941390991,-62,8124.0,0.4995916485786438,28,9909.0
10250,0.37052810192108154,-2.3132171630859375,-84,8124.0,1.472117304801941,-13,9909.0
10260,0.37077227234840393,-0.7219370603561401,-94,8124.0,-6.276674270629883,-108,9909.0
10270,0.371018648147583,-2.620262384414673,-61,8124.0,-0.45433980226516724,-8,9909.0
10280,0.37132757902145386,-3.636972665786743,-54,8124.0,-0.5546719431877136,123,9909.0
10290,0.3701585829257965,-1.5916961431503296,-8,8124.0,-3.8518004417419434,-26,9909.0
10300,0.37028345465660095,-1.1581966876983643,-1,8124.0,-4.089782238006592,103,9909.0
10310,0.37036073207855225,0.2934441864490509,107,8124.0,0.8760878443717957,-17,9909.0
10320,0.3704213500022888,1.8976061344146729,-6,8124.0,5.34967041015625,94,9909.0
10330,0.37109625339508057,1.3914254903793335,50,8124.0,4.448914527893066,-72,9909.0
10340,0.371202677488327,2.975825786590576,-24,8124.0,4.001454830169678,72,9909.0
10350,0.3712729215621948,3.0968611240386963,79,8124.0,5.161393165588379,-53,9909.0
10360,0.3713429868221283,1.8505620956420898,-16,8124.0,3.7794556617736816,148,9909.0
10370,0.3713935315608978,-1.2806198596954346,63,8124.0,2.730339288711548,-27,9909.0
10380,0.3696880042552948,0.23124566674232483,-9,8124.0,1.2256641387939453,101,9909.0
10390,0.3695639371871948,-2.727879047393799,-18,8124.0,-3.2498276233673096,-186,9909.0
10400,0.36939796805381775,-3.5423364639282227,-68,8124.0,-2.4211208820343018,-16,9909.0
10410,0.36923444271087646,-3.178356170654297,-41,8124.0,-4.9621405601501465,-210,9909.0
10420,0.3682660162448883,-1.9028520584106445,-33,8124.0,-7.186988830566406,10,9909.0
10430,0.3680891990661621,-2.011855125427246,-31,8124.0,-3.2021827697753906,-100,9909.0
10440,0.3679085075855255,-0.8858319520950317,-36,8124.0,-1.2570284605026245,98,9909.0
10450,0.3677341043949127,-1.5598227977752686,42,8124.0,7.677906036376953,21,9909.0
10460,0.3684838116168976,0.38860252499580383,43,8124.0,6.847967624664307,172,9909.0
10470,0.36832499504089355,2.335754632949829,105,8124.0,5.274564743041992,-18,9909.0
10480,0.3681684136390686,3.123804807662964,-48,8124.0,7.136386394500732,36,9909.0
10490,0.36803293228149414,4.594697952270508,100,8124.0,2.8475985527038574,12,9909.0
10500,0.367920845746994,3.5672781467437744,-72,8124.0,3.3593132495880127,-54,9909.0
10510,0.36826401948928833,3.75386643409729,113,8124.0,0.8355841040611267,62,9909.0
10520,0.3681257665157318,3.3449594974517822,-4,8124.0,-1.0686748027801514,-136,9909.0
10530,0.3680240213871002,1.8282842636108398,72,8124.0,-4.1407246589660645,29,9909.0
10540,0.3679155111312866,1.005815029144287,-21,8124.0,-3.685368061065674,-93,9909.0
10550,0.3671535849571228,-1.730082392692566,-31,8124.0,-4.172552108764648,113,9909.0
10560,0.36704927682876587,-3.435872793197632,56,8124.0,-2.2534916400909424,-73,9909.0
10570,0.3669079542160034,-2.931652307510376,-99,8124.0,-1.6344311237335205,-15,9909.0
10580,0.3667454123497009,-2.8099050521850586,118,8124.0,-1.4076972007751465,-12,9909.0
10590,0.36660388112068176,-5.428793907165527,-139,8124.0,1.8383283615112305,-78,9909.0
10600,0.36700761318206787,-1.9027754068374634,28,8124.0,-1.6973638534545898,100,9909.0
10610,0.36692342162132263,-2.912998676300049,-10,8124.0,-7.150420188903809,-162,9909.0
10620,0.3668791949748993,-0.16412915289402008,-16,8124.0,-3.291455030441284,-5,9909.0
10630,0.36693108081817627,-0.0906853973865509,59,8124.0,-1.0131847858428955,-91,9909.0
10640,0.3662085235118866,-0.024882005527615547,-87,8124.0,-4.928861141204834,-113,9909.0
10650,0.3662690222263336,-1.1161574125289917,64,8124.0,-1.8341964483261108,7,9909.0
10660,0.3663029074668884,0.18383893370628357,-40,8124.0,-0.47902828454971313,-221,9909.0
10670,0.36633825302124023,1.618038535118103,55,8124.0,0.374895304441452,97,9909.0
10680,0.36701273918151855,1.468221664428711,54,8124.0,-0.5802446007728577,-129,9909.0
10690,0.3671637177467346,1.263282060623169,-35,8124.0,-3.1682519912719727,6,9909.0
10700,0.3673464357852936,0.18723732233047485,57,8124.0,-1.4232665300369263,-68,9909.0
10710,0.36747774481773376,0.12211707979440689,-40,8124.0,-1.3453843593597412,-48,9909.0
10720,0.36758244037628174,1.765990972518921,86,8124.0,-1.097802996635437,47,9909.0
10730,0.36782580614089966,2.4718008041381836,-35,8124.0,-0.6766489744186401,-44,9909.0
10740,0.36800357699394226,0.5822696685791016,34,8124.0,-1.050450086593628,179,9909.0
10750,0.3682307004928589,-1.199385166168213,-20,8124.0,3.8188955783843994,67,9909.0
10760,0.3684435486793518,-3.347299814224243,-94,8124.0,8.852352142333984,258,9909.0
10770,0.368012398481369,-3.9780280590057373,32,8124.0,1.9014567136764526,90,9909.0
10780,0.36813974380493164,-5.380621433258057,-130,8124.0,10.490915298461914,204,9909.0
10790,0.3683620095252991,-2.871554136276245,78,8124.0,7.067410469055176,77,9909.0
10800,0.36855658888816833,0.7226434350013733,-47,8124.0,1.3526860475540161,-183,9909.0
10810,0.368756502866745,-2.298100471496582,13,8124.0,-1.1269452571868896,108,9909.0
10820,0.3689727187156677,-2.1060585975646973,2,8124.0,0.2572857737541199,-207,9909.0
10830,0.36910343170166016,-0.38868966698646545,-132,8124.0,-5.263082027435303,-48,9909.0
10840,0.36919400095939636,2.0513837337493896,110,8124.0,-5.211619853973389,-97,9909.0
10850,0.36933591961860657,3.821404218673706,-33,8124.0,-5.798626899719238,-95,9909.0
10860,0.37007299065589905,3.0422005653381348,100,8124.0,-3.811429023742676,-8,9909.0
10870,0.3702012300491333,5.138080596923828,31,8124.0,-6.0935587882995605,36,9909.0
10880,0.37033146619796753,4.035017967224121,91,8124.0,-0.4567163288593292,-28,9909.0
10890,0.3704626262187958,3.340792417526245,31,8124.0,0.6749407052993774,42,9909.0
10900,0.37074100971221924,0.70654296875,29,8124.0,4.425958156585693,103,9909.0
10910,0.37083256244659424,-2.5331287384033203,-150,8124.0,5.349857807159424,35,9909.0
10920,0.37087443470954895,-4.552140235900879,0,8124.0,1.4975593090057373,69,9909.0
10930,0.37092557549476624,-1.336635947227478,-49,8124.0,4.843161106109619,-1,9909.0
10940,0.3709651827812195,-0.16652444005012512,19,8124.0,1.4071626663208008,126,9909.0
10950,0.37100380659103394,-1.4407918453216553,96,8124.0,-3.0011909008026123,-124,9909.0
10960,0.3710205852985382,1.8547965288162231,-14,8124.0,-2.9107840061187744,-37,9909.0
10970,0.3709907829761505,-0.4496685862541199,119,8124.0,-4.970077037811279,-155,9909.0
10980,0.3709498345851898,-0.3331688642501831,-79,8124.0,-4.606503963470459,-116,9909.0
10990,0.37057024240493774,0.9753548502922058,26,8124.0,-12.918904304504395,-145,9909.0
11000,0.37056952714920044,-2.009124994277954,-82,8124.0,-1.84758460521698,-164,9909.0
11010,0.3705730438232422,-3.013981342315674,-80,8124.0,-3.3584771156311035,108,9909.0
11020,0.370549738407135,-1.494136095046997,-43,8124.0,-4.15976095199585,-48,9909.0
11030,0.3705019950866699,-1.6772816181182861,-55,8124.0,-0.47401753067970276,149,9909.0
11040,0.3706508278846741,-3.289243459701538,56,8124.0,4.179100036621094,31,9909.0
11050,0.37057173252105713,-1.509985327720642,-63,8124.0,4.721185207366943,80,9909.0
11060,0.37050068378448486,-0.35554513335227966,121,8124.0,0.5004863739013672,72,9909.0
11070,0.37045249342918396,2.073331594467163,-42,8124.0,-2.722137451171875,-105,9909.0
11080,0.3702411949634552,1.457396149635315,37,8124.0,-2.31526255607605,8,9909.0
11090,0.3701767921447754,0.2084743082523346,-7,8124.0,-4.378817558288574,-222,9909.0
11100,0.3700897991657257,2.2761120796203613,-10,8124.0,-6.535280227661133,-2,9909.0
11110,0.36996567249298096,1.483150839805603,33,8124.0,-5.359079360961914,-78,9909.0
11120,0.3687328100204468,1.3548933267593384,-84,8124.0,-2.1200265884399414,-49,9909.0
11130,0.36851266026496887,-1.7369989156723022,72,8124.0,0.5111862421035767,9,9909.0
11140,0.36831071972846985,-1.5032944679260254,-79,8124.0,-1.5644139051437378,-109,9909.0
11150,0.36810338497161865,-2.0546042919158936,30,8124.0,-2.481222629547119,131,9909.0
11160,0.36793169379234314,-3.2740659713745117,-96,8124.0,-6.439538478851318,-110,9909.0
11170,0.3669719099998474,-0.47121554613113403,-34,8124.0,-6.852598667144775,-3,9909.0
11180,0.36673420667648315,-1.504435658454895,89,8124.0,-7.894753456115723,-177,9909.0
11190,0.3665163516998291,0.2645515501499176,-67,8124.0,-8.492460250854492,-155,9909.0
11200,0.36640289425849915,0.3795565664768219,75,8124.0,-3.7025647163391113,1,9909.0
11210,0.3669435381889343,2.5021982192993164,-9,8124.0,-1.8198394775390625,-136,9909.0
11220,0.3668307960033417,2.4100546836853027,40,8124.0,-1.2305550575256348,70,9909.0
11230,0.36672595143318176,0.3101499378681183,62,8124.0,-1.2255315780639648,-130,9909.0
11240,0.36665427684783936,0.5990719199180603,-134,8124.0,4.222087383270264,30,9909.0
11250,0.3671311140060425,1.4858593940734863,46,8124.0,-2.448354721069336,-30,9909.0
11260,0.3671208918094635,-1.3312761783599854,-111,8124.0,-1.7389318943023682,-128,9909.0
11270,0.36711210012435913,-3.7301065921783447,-28,8124.0,-2.094780206680298,23,9909.0
11280,0.3671415150165558,-3.8174848556518555,-97,8124.0,-1.018473744392395,-96,9909.0
11290,0.36720237135887146,-3.5459117889404297,-83,8124.0,-0.456257164478302,30,9909.0
11300,0.3683917820453644,-4.999507904052734,24,8124.0,4.453704833984375,71,9909.0
11310,0.36851733922958374,-3.1310229301452637,-144,8124.0,6.598719596862793,143,9909.0
11320,0.36864781379699707,-4.069930076599121,10,8124.0,6.150900363922119,236,9909.0
11330,0.3688105046749115,-3.488760232925415,-24,8124.0,5.280160903930664,2,9909.0
11340,0.3690107762813568,-1.95967435836792,-21,8124.0,7.704318523406982,156,9909.0
11350,0.36920005083084106,-0.2972591519355774,46,8124.0,2.736203193664551,-29,9909.0
11360,0.36938780546188354,3.8124570846557617,-31,8124.0,-1.262418270111084,-181,9909.0
11370,0.36955901980400085,1.2420653104782104,-10,8124.0,-2.379956007003784,32,9909.0
11380,0.36974024772644043,0.42093566060066223,-32,8124.0,-2.2257838249206543,-87,9909.0
11390,0.369640976190567,-1.208611249923706,-98,8124.0,-4.954391002655029,-66,9909.0
11400,0.3698027729988098,-0.5301229357719421,81,8124.0,-3.0448131561279297,-65,9909.0
11410,0.36998093128204346,-0.32449501752853394,-63,8124.0,-0.9630763530731201,21,9909.0
11420,0.3701426088809967,-2.388899326324463,92,8124.0,4.037954330444336,114,9909.0
11430,0.3702089190483093,-2.0645833015441895,-73,8124.0,5.208522796630859,-6,9909.0
11440,0.37036964297294617,-1.855064034461975,-14,8124.0,1.8561222553253174,143,9909.0
11450,0.37051865458488464,-2.178539276123047,-9,8124.0,7.311612129211426,-17,9909.0
11460,0.370687872171402,0.8639730215072632,-139,8124.0,2.5405538082122803,128,9909.0
11470,0.37092500925064087,-1.470146656036377,132,8124.0,2.811594009399414,3,9909.0
11480,0.37033382058143616,3.0457465648651123,34,8124.0,-2.240138530731201,-105,9909.0
11490,0.37043026089668274,4.294924259185791,82,8124.0,-4.151732444763184,78,9909.0
11500,0.3704881966114044,5.126725196838379,95,8124.0,-0.05253082141280174,-26,9909.0
11510,0.3705469071865082,2.451458215713501,104,8124.0,-1.3287807703018188,13,9909.0
11520,0.369576632976532,2.6519415378570557,41,8124.0,2.0116100311279297,15,9909.0
11530,0.36955440044403076,4.076284885406494,26,8124.0,4.042301177978516,201,9909.0
11540,0.3695107102394104,1.0002387762069702,167,8124.0,2.3470025062561035,-34,9909.0
11550,0.3694801926612854,3.454271078109741,-42,8124.0,-2.6371731758117676,-87,9909.0
11560,0.3692781627178192,0.6600660085678101,37,8124.0,-1.987807273864746,43,9909.0
11570,0.3692196011543274,-1.3270931243896484,-43,8124.0,1.0064465999603271,-101,9909.0
11580,0.3691454529762268,-2.2933197021484375,-40,8124.0,-1.6070209741592407,9,9909.0
11590,0.3690682351589203,-3.5665433406829834,-27,8124.0,1.4591645002365112,-38,9909.0
11600,0.3690359890460968,-1.7791500091552734,-89,8124.0,-2.4953417778015137,-42,9909.0
11610,0.3686138987541199,-1.1376014947891235,42,8124.0,-0.3616962730884552,156,9909.0
11620,0.36854100227355957,3.395908832550049,67,8124.0,-7.10347318649292,-128,9909.0
11630,0.36846545338630676,2.7884838581085205,-10,8124.0,-1.2921993732452393,20,9909.0
11640,0.368380069732666,2.2661428451538086,97,8124.0,0.8439121842384338,-13,9909.0
11650,0.3697535991668701,5.798177242279053,-7,8124.0,-4.384598731994629,-206,9909.0
11660,0.3697477877140045,3.2905945777893066,54,8124.0,2.750720500946045,118,9909.0
11670,0.3697323501110077,4.1616129875183105,39,8124.0,-0.9004474878311157,-45,9909.0
11680,0.3697403371334076,3.740882396697998,-26,8124.0,-2.9635989665985107,-61,9909.0
11690,0.371038556098938,2.02158260345459,171,8124.0,0.44787654280662537,17,9909.0
11700,0.37119534611701965,4.199389934539795,44,8124.0,-6.9958720207214355,-162,9909.0
11710,0.371364563703537,1.5916407108306885,49,8124.0,-3.3387162685394287,68,9909.0
11720,0.37152770161628723,3.1472809314727783,139,8124.0,-2.590195655822754,-65,9909.0
11730,0.37168872356414795,3.458843469619751,-70,8124.0,1.5469640493392944,2,9909.0
11740,0.37156638503074646,1.3655840158462524,91,8124.0,-0.060742735862731934,73,9909.0
11750,0.37168723344802856,0.6687881946563721,-24,8124.0,1.4409570693969727,-178,9909.0
11760,0.37180864810943604,0.34255722165107727,-17,8124.0,-2.402651309967041,-43,9909.0
11770,0.3719457685947418,-0.3139570653438568,76,8124.0,-4.262970924377441,-159,9909.0
11780,0.3716288208961487,3.01336407661438,-93,8124.0,-4.680283069610596,-74,9909.0
11790,0.3716754913330078,1.7828600406646729,126,8124.0,-2.4823639392852783,-53,9909.0
11800,0.37176942825317383,8.017049789428711,61,8124.0,-5.125617504119873,-107,9909.0
11810,0.3718852996826172,5.235384941101074,100,8124.0,-3.536097288131714,21,9909.0
11820,0.3719957768917084,4.53303337097168,72,8124.0,1.804819941520691,-34,9909.0
11830,0.37247878313064575,5.197332859039307,17,8124.0,3.606675863265991,132,9909.0
11840,0.37253865599632263,-0.03504738584160805,114,8124.0,4.4068403244018555,128,9909.0
11850,0.37260952591896057,0.6672874689102173,-58,8124.0,6.316954612731934,75,9909.0
11860,0.3726955056190491,-3.2588207721710205,-32,8124.0,6.832333564758301,191,9909.0
11870,0.3721088767051697,-5.624800205230713,-93,8124.0,4.562742233276367,-125,9909.0
11880,0.3721504807472229,-4.947486877441406,-118,8124.0,-4.72484016418457,-30,9909.0
11890,0.3721824288368225,-6.1280741691589355,0,8124.0,-0.7136193513870239,-84,9909.0
11900,0.37222540378570557,-4.11161994934082,-129,8124.0,-1.7412118911743164,-174,9909.0
11910,0.3737347424030304,-4.0313401222229,-36,8124.0,-2.9410085678100586,50,9909.0
11920,0.373822420835495,0.9416775107383728,-3,8124.0,7.146274566650391,6,9909.0
11930,0.37390658259391785,3.9261157512664795,-9,8124.0,9.65814208984375,271,9909.0
11940,0.37400248646736145,3.3287971019744873,118,8124.0,8.727461814880371,185,9909.0
11950,0.3741249144077301,4.316734790802002,8,8124.0,7.20096492767334,35,9909.0
11960,0.3753994405269623,4.509189128875732,80,8124.0,4.719050407409668,264,9909.0
11970,0.3755589723587036,2.5301477909088135,77,8124.0,1.084792137145996,25,9909.0
11980,0.37574878334999084,2.357844591140747,-40,8124.0,-1.9542529582977295,52,9909.0
11990,0.37596410512924194,-2.215047836303711,40,8124.0,-1.3966755867004395,18,9909.0
12000,0.3753018379211426,-4.853649139404297,-121,8124.0,-0.7533882856369019,-115,9909.0
12010,0.3754080832004547,-5.1208930015563965,-65,8124.0,-5.142289638519287,-36,9909.0
12020,0.37553736567497253,-6.246066093444824,-68,8124.0,-1.3697034120559692,-184,9909.0
12030,0.37563106417655945,-2.0905356407165527,-174,8124.0,-3.9556052684783936,-23,9909.0
12040,0.3757242262363434,0.7514280080795288,78,8124.0,-1.1706470251083374,60,9909.0
12050,0.3754720985889435,0.5937128663063049,-1,8124.0,3.757134199142456,-26,9909.0
12060,0.37555262446403503,3.062352180480957,97,8124.0,2.790951728820801,158,9909.0
12070,0.37558504939079285,4.20550012588501,156,8124.0,4.965001106262207,49,9909.0
12080,0.37558725476264954,3.1952855587005615,1,8124.0,4.663086891174316,62,9909.0
12090,0.37451595067977905,4.069024562835693,168,8124.0,1.7150288820266724,161,9909.0
12100,0.37442705035209656,5.92714786529541,96,8124.0,0.5792868137359619,-226,9909.0
12110,0.374290406703949,2.8798186779022217,-68,8124.0,-0.8461166620254517,55,9909.0
12120,0.37419360876083374,0.2999829351902008,34,8124.0,-0.693621814250946,21,9909.0
12130,0.3740377128124237,2.2080111503601074,-51,8124.0,-4.918405055999756,-178,9909.0
12140,0.37392929196357727,-2.8620429039001465,46,8124.0,-1.335721731185913,-65,9909.0
12150,0.37384355068206787,-1.309431552886963,-109,8124.0,1.4728715419769287,-86,9909.0
12160,0.373733788728714,1.740954875946045,108,8124.0,2.4404783248901367,73,9909.0
12170,0.37359610199928284,2.089629650115967,108,8124.0,3.235187530517578,-14,9909.0
12180,0.3731829524040222,5.149024486541748,3,8124.0,1.814294695854187,22,9909.0
12190,0.37298697233200073,4.781032562255859,97,8124.0,-1.3158780336380005,171,9909.0
12200,0.37280675768852234,2.976670742034912,25,8124.0,4.209498882293701,25,9909.0
12210,0.37263065576553345,-1.2899550199508667,-97,8124.0,7.383229732513428,197,9909.0
12220,0.37071025371551514,-5.565920352935791,-71,8124.0,3.0789449214935303,228,9909.0
12230,0.3704735338687897,-7.172622203826904,-213,8124.0,-1.821450114250183,-116,9909.0
12240,0.3702446520328522,-8.88813591003418,-272,8124.0,-2.0497429370880127,-14,9909.0
12250,0.37001097202301025,-9.595993041992188,-61,8124.0,-2.0614640712738037,66,9909.0
12260,0.36982640624046326,-6.338654041290283,-146,8124.0,-1.0194728374481201,-70,9909.0
12270,0.3673078417778015,-4.06189489364624,-135,8124.0,2.765122890472412,51,9909.0
12280,0.36702588200569153,-1.0324896574020386,12,8124.0,0.6905338168144226,163,9909.0
12290,0.36681821942329407,1.4060676097869873,-14,8124.0,2.7275989055633545,-54,9909.0
12300,0.366631418466568,1.8399465084075928,-77,8124.0,1.7933969497680664,111,9909.0
12310,0.3673674762248993,0.6132382154464722,41,8124.0,-4.615312576293945,166,9909.0
12320,0.3672490417957306,-2.539275884628296,-43,8124.0,2.638496160507202,12,9909.0
12330,0.3671928942203522,-2.664968490600586,-145,8124.0,2.3317997455596924,83,9909.0
12340,0.3671024441719055,-3.9486401081085205,-86,8124.0,4.280467987060547,269,9909.0
12350,0.36545422673225403,-4.796680450439453,-101,8124.0,4.2482452392578125,-10,9909.0
12360,0.36534762382507324,-5.53672456741333,-157,8124.0,-4.274796009063721,-92,9909.0
12370,0.36523059010505676,-4.4520745277404785,-42,8124.0,-4.709414958953857,97,9909.0
12380,0.3651266396045685,-1.3346561193466187,-1,8124.0,-6.082881927490234,-80,9909.0
12390,0.365079790353775,-1.6553102731704712,-93,8124.0,-0.23316147923469543,8,9909.0
12400,0.3650403320789337,1.7655785083770752,62,8124.0,-1.2138036489486694,171,9909.0
12410,0.3650684952735901,3.0304126739501953,121,8124.0,-0.06065349653363228,23,9909.0
12420,0.3651483654975891,5.582047939300537,29,8124.0,0.20026934146881104,31,9909.0
12430,0.3652332127094269,4.009649276733398,81,8124.0,8.105042457580566,313,9909.0
12440,0.3628212511539459,2.091865062713623,34,8124.0,3.5031826496124268,-47,9909.0
12450,0.36283600330352783,-1.2857307195663452,-137,8124.0,-3.0024216175079346,-66,9909.0
12460,0.36287957429885864,-5.508869171142578,-29,8124.0,-6.592601776123047,-7,9909.0
12470,0.36293965578079224,-3.7830660343170166,-89,8124.0,-11.338418006896973,-305,9909.0
12480,0.3630167543888092,-4.205406188964844,-206,8124.0,-7.441971302032471,-84,9909.0
12490,0.36350390315055847,-1.2406675815582275,20,8124.0,-6.746960163116455,3,9909.0
12500,0.3636298179626465,1.8619043827056885,33,8124.0,-2.9614970684051514,-165,9909.0
12510,0.3637312948703766,3.3968734741210938,-90,8124.0,-1.9816030263900757,3,9909.0
12520,0.36385855078697205,4.072715759277344,127,8124.0,1.232475757598877,99,9909.0
12530,0.3632497191429138,2.8322551250457764,20,8124.0,7.534625053405762,53,9909.0
12540,0.36332735419273376,-0.519138753414154,-85,8124.0,4.624781608581543,125,9909.0
12550,0.36343657970428467,-2.836888313293457,-11,8124.0,3.6937758922576904,123,9909.0
12560,0.36359110474586487,-1.751725196838379,-66,8124.0,4.8610310554504395,-69,9909.0
12570,0.36266088485717773,-2.213696241378784,-169,8124.0,-2.227332592010498,114,9909.0
12580,0.36277440190315247,-4.203299045562744,29,8124.0,0.4225963354110718,116,9909.0
12590,0.3629148006439209,-2.5521411895751953,-38,8124.0,-2.5721590518951416,-97,9909.0
12600,0.36303192377090454,0.9183980822563171,-68,8124.0,-4.893481731414795,-97,9909.0
12610,0.36313188076019287,1.0867618322372437,125,8124.0,-4.717123985290527,176,9909.0
12620,0.36319366097450256,3.402250051498413,33,8124.0,-1.8909080028533936,-59,9909.0
12630,0.3633129298686981,3.9780466556549072,3,8124.0,0.4779529571533203,154,9909.0
12640,0.3634290099143982,4.143660068511963,102,8124.0,4.660480499267578,183,9909.0
12650,0.36357128620147705,4.0441107749938965,15,8124.0,1.3523920774459839,-42,9909.0
12660,0.3630431592464447,1.0339773893356323,-26,8124.0,0.213607519865036,165,9909.0
12670,0.36321985721588135,-3.6262078285217285,89,8124.0,5.912661075592041,65,9909.0
12680,0.3633865416049957,-3.3315744400024414,-131,8124.0,-1.7804540395736694,-83,9909.0
12690,0.36361342668533325,-8.886758804321289,-154,8124.0,-2.5276644229888916,39,9909.0
12700,0.3638238310813904,-7.806512832641602,-76,8124.0,-3.75130295753479,-42,9909.0
12710,0.36365175247192383,-7.564159393310547,-192,8124.0,-7.626194953918457,-172,9909.0
12720,0.3638163208961487,-7.5277299880981445,-158,8124.0,-5.2549638748168945,-5,9909.0
12730,0.363972008228302,-5.831906795501709,5,8124.0,-4.925763130187988,-95,9909.0
12740,0.36412447690963745,-3.384756326675415,-131,8124.0,-6.235281944274902,-222,9909.0
12750,0.3641842007637024,2.186415433883667,30,8124.0,-1.3297936916351318,74,9909.0
12760,0.36429569125175476,3.524170160293579,46,8124.0,3.44042706489563,84,9909.0
12770,0.36442703008651733,2.1590576171875,40,8124.0,6.581175804138184,248,9909.0
12780,0.36454012989997864,5.5449113845825195,202,8124.0,8.73967170715332,166,9909.0
12790,0.3639642000198364,2.942823886871338,-29,8124.0,5.703083038330078,26,9909.0
12800,0.3639736473560333,1.8721641302108765,0,8124.0,2.9780571460723877,171,9909.0
12810,0.36398741602897644,-1.8905702829360962,89,8124.0,-0.5579483509063721,-85,9909.0
12820,0.36394909024238586,-1.7264975309371948,-103,8124.0,-8.005744934082031,-205,9909.0
12830,0.36390405893325806,-5.116218090057373,-66,8124.0,-7.878722190856934,-77,9909.0
12840,0.3630659580230713,-3.3375654220581055,27,8124.0,-8.840629577636719,-171,9909.0
12850,0.362989217042923,-0.9887043833732605,-84,8124.0,-5.858174800872803,-146,9909.0
12860,0.3628973066806793,0.9158591032028198,44,8124.0,4.226000785827637,181,9909.0
12870,0.36283767223358154,2.079409122467041,100,8124.0,5.580704212188721,102,9909.0
12880,0.362453818321228,9.34465217590332,61,8124.0,7.224917411804199,65,9909.0
12890,0.3623228967189789,4.239364147186279,75,8124.0,5.75925874710083,220,9909.0
12900,0.3622032105922699,2.080707311630249,106,8124.0,7.491702079772949,96,9909.0
12910,0.3620912432670593,2.6182003021240234,-4,8124.0,7.349386692047119,16,9909.0
12920,0.36197277903556824,0.7831546664237976,29,8124.0,1.3528664112091064,141,9909.0
12930,0.3610777258872986,-1.9005823135375977,87,8124.0,1.8978052139282227,-19,9909.0
12940,0.36106187105178833,1.2705051898956299,-38,8124.0,-1.1350843906402588,-154,9909.0
12950,0.36094558238983154,-1.984918236732483,-105,8124.0,-7.491061687469482,-14,9909.0
12960,0.3609429895877838,-2.705105781555176,42,8124.0,0.31067782640457153,-24,9909.0
12970,0.360878050327301,-0.46203339099884033,-58,8124.0,-0.23942792415618896,-134,9909.0
12980,0.3607954978942871,-2.0244717597961426,-124,8124.0,8.34050178527832,166,9909.0
12990,0.36073166131973267,1.2383043766021729,90,8124.0,-0.4112975299358368,4,9909.0
13000,0.3607260286808014,2.9364993572235107,37,8124.0,1.0112849473953247,-110,9909.0
13010,0.360400527715683,4.966354846954346,19,8124.0,2.333411693572998,43,9909.0
13020,0.36040306091308594,4.499915599822998,154,8124.0,-3.045686960220337,109,9909.0
13030,0.360407292842865,0.9548225998878479,54,8124.0,-0.04984214901924133,-92,9909.0
13040,0.3603983223438263,2.315718650817871,-7,8124.0,-2.1841914653778076,-19,9909.0
13050,0.36036768555641174,1.3760154247283936,73,8124.0,-4.875382423400879,23,9909.0
13060,0.3593604564666748,-1.372521162033081,71,8124.0,-4.540419101715088,-191,9909.0
13070,0.35929474234580994,-1.6291252374649048,-100,8124.0,-5.308218955993652,-115,9909.0
13080,0.3591989278793335,-1.1855027675628662,23,8124.0,-3.805647611618042,38,9909.0
13090,0.35914838314056396,-0.6587049961090088,48,8124.0,-2.6581127643585205,-41,9909.0
13100,0.36070990562438965,-0.05550059676170349,-60,8124.0,2.143052816390991,-164,9909.0
13110,0.3608125150203705,1.3676857948303223,9,8124.0,0.5973479747772217,99,9909.0
13120,0.3609371483325958,0.6721608638763428,80,8124.0,-2.769970655441284,-124,9909.0
13130,0.36108604073524475,-1.7166569232940674,-39,8124.0,-2.660466194152832,-254,9909.0
13140,0.3612307012081146,-1.6812412738800049,-89,8124.0,1.1248332262039185,43,9909.0
13150,0.3609277904033661,-3.3970561027526855,23,8124.0,-3.889031410217285,3,9909.0
13160,0.3610970973968506,-3.6583375930786133,-72,8124.0,2.0406668186187744,-118,9909.0
13170,0.36128002405166626,-0.49911144375801086,-109,8124.0,0.9880322217941284,-67,9909.0
13180,0.3614586889743805,-0.09718459099531174,62,8124.0,-5.687476634979248,71,9909.0
13190,0.36225736141204834,2.9776430130004883,173,8124.0,4.2886176109313965,26,9909.0
13200,0.36248892545700073,3.7404496669769287,29,8124.0,5.030742168426514,-5,9909.0
13210,0.3627258241176605,6.887904644012451,18,8124.0,2.7521984577178955,159,9909.0
13220,0.3629626929759979,3.833420515060425,261,8124.0,0.5429603457450867,152,9909.0
13230,0.36271509528160095,2.0885770320892334,12,8124.0,6.781804084777832,11,9909.0
13240,0.36290842294692993,0.9142331480979919,-60,8124.0,3.672290802001953,4,9909.0
13250,0.36309370398521423,-1.3874961137771606,42,8124.0,3.3000006675720215,174,9909.0
13260,0.36330658197402954,-1.4653416872024536,23,8124.0,2.804950714111328,26,9909.0
13270,0.3636062741279602,-4.170581817626953,-81,8124.0,5.010490417480469,-200,9909.0
13280,0.36481329798698425,-2.8863933086395264,-86,8124.0,1.4956258535385132,100,9909.0
13290,0.3650990426540375,-0.4503006041049957,51,8124.0,1.4652516841888428,69,9909.0
13300,0.3653809130191803,1.2620054483413696,34,8124.0,1.4850451946258545,-76,9909.0
13310,0.36565521359443665,3.2956066131591797,-42,8124.0,1.6071263551712036,-68,9909.0
13320,0.3639325201511383,3.307891845703125,-33,8124.0,-2.1042375564575195,121,9909.0
13330,0.36406591534614563,0.8892444968223572,117,8124.0,1.594476342201233,84,9909.0
13340,0.36424732208251953,3.6922366619110107,-11,8124.0,1.7657164335250854,-43,9909.0
13350,0.36433979868888855,2.772216558456421,106,8124.0,2.3562424182891846,103,9909.0
13360,0.36449503898620605,2.543924570083618,218,8124.0,-2.672653913497925,229,9909.0
13370,0.3639678955078125,3.9162278175354004,47,8124.0,-0.5717030763626099,148,9909.0
13380,0.3639712631702423,2.4490573406219482,44,8124.0,6.441402912139893,83,9909.0
13390,0.36400479078292847,5.495755195617676,164,8124.0,2.972994565963745,162,9909.0
13400,0.36394593119621277,2.3362464904785156,197,8124.0,3.6096749305725098,51,9909.0
13410,0.3630114197731018,7.149348735809326,154,8124.0,2.1423559188842773,319,9909.0
13420,0.3628554344177246,9.658087730407715,85,8124.0,1.7565412521362305,-121,9909.0
13430,0.362652063369751,5.44718074798584,60,8124.0,-1.6083614826202393,59,9909.0
13440,0.3624185621738434,5.883828639984131,121,8124.0,-0.9748238921165466,70,9909.0
13450,0.3621004819869995,2.809299945831299,50,8124.0,1.3299623727798462,-3,9909.0
13460,0.3618270456790924,2.2694954872131348,50,8124.0,2.016116142272949,-213,9909.0
13470,0.36155980825424194,-0.7649720311164856,-154,8124.0,5.3721418380737305,124,9909.0
13480,0.3613264858722687,-1.1863313913345337,14,8124.0,9.63671875,271,9909.0
13490,0.36111652851104736,-1.6367390155792236,46,8124.0,7.935267448425293,100,9909.0
13500,0.36090824007987976,-0.36050742864608765,7,8124.0,8.383694648742676,93,9909.0
13510,0.36072295904159546,3.386073350906372,54,8124.0,8.000627517700195,-87,9909.0
13520,0.3606051802635193,3.513861656188965,-55,8124.0,-1.9475071430206299,-119,9909.0
13530,0.3604440987110138,-0.709219753742218,13,8124.0,-3.1323201656341553,32,9909.0
13540,0.36049142479896545,1.7337779998779297,90,8124.0,-6.345932960510254,20,9909.0
13550,0.36033859848976135,2.6211588382720947,98,8124.0,-4.71605920791626,-130,9909.0
13560,0.3601992130279541,2.607469320297241,-1,8124.0,-3.8562464714050293,-206,9909.0
13570,0.3601243793964386,0.8742272257804871,4,8124.0,-7.2653985023498535,-187,9909.0
13580,0.36003661155700684,2.3911678791046143,-54,8124.0,-1.1130608320236206,22,9909.0
13590,0.3595837354660034,-0.8285121321678162,91,8124.0,2.23301100730896,80,9909.0
13600,0.35952165722846985,-2.0354175567626953,38,8124.0,5.06160831451416,47,9909.0
13610,0.35944586992263794,2.394094705581665,59,8124.0,-6.571850776672363,-213,9909.0
13620,0.3593960106372833,8.34814739227295,-27,8124.0,-3.2023491859436035,-144,9909.0
13630,0.3591674566268921,0.33464282751083374,-123,8124.0,-0.9330980777740479,41,9909.0
13640,0.3591364026069641,-2.709226369857788,9,8124.0,1.550275444984436,113,9909.0
13650,0.3591616451740265,-1.7200514078140259,-3,8124.0,1.0614314079284668,77,9909.0
13660,0.3592241406440735,-2.622861385345459,16,8124.0,-0.4517858326435089,-19,9909.0
13670,0.3611871302127838,-3.154299736022949,-82,8124.0,2.943972587585449,-135,9909.0
13680,0.361453652381897,-1.9292770624160767,-80,8124.0,-4.0826239585876465,-96,9909.0
13690,0.36172953248023987,-1.236430287361145,27,8124.0,-4.930386066436768,7,9909.0
13700,0.3619878888130188,-0.49531543254852295,22,8124.0,-3.4596810340881348,-16,9909.0
13710,0.3622351884841919,-0.6811937093734741,99,8124.0,-4.800513744354248,-309,9909.0
13720,0.3619873523712158,-1.8317688703536987,-107,8124.0,-2.680243492126465,-109,9909.0
13730,0.36224228143692017,-1.176660418510437,-84,8124.0,-1.7602782249450684,-43,9909.0
13740,0.36248958110809326,-0.7754780650138855,38,8124.0,-3.0352799892425537,56,9909.0
13750,0.3627097010612488,-0.999914288520813,133,8124.0,-1.0256595611572266,39,9909.0
13760,0.36263224482536316,-0.5232490301132202,43,8124.0,-1.4575022459030151,19,9909.0
13770,0.3628348410129547,-0.21646419167518616,-91,8124.0,2.283715009689331,28,9909.0
13780,0.36303815245628357,-2.2132606506347656,13,8124.0,0.29926732182502747,140,9909.0
13790,0.36326009035110474,-2.9024648666381836,7,8124.0,0.21143539249897003,103,9909.0
13800,0.3634592294692993,0.505730152130127,37,8124.0,4.5620622634887695,-87,9909.0
13810,0.36263608932495117,0.8087252378463745,15,8124.0,1.9945521354675293,28,9909.0
13820,0.3627915680408478,6.833616733551025,141,8124.0,3.8826448917388916,162,9909.0
13830,0.3629419207572937,6.250112533569336,222,8124.0,1.6754062175750732,119,9909.0
13840,0.363090842962265,3.0166733264923096,137,8124.0,-3.224200487136841,-104,9909.0
13850,0.3619930148124695,5.003366947174072,3,8124.0,1.1704299449920654,3,9909.0
13860,0.362103134393692,5.646038055419922,90,8124.0,2.2549209594726562,161,9909.0
13870,0.36220523715019226,2.0995874404907227,162,8124.0,5.578957557678223,246,9909.0
13880,0.36229825019836426,0.6284505128860474,-22,8124.0,2.3647429943084717,-41,9909.0
13890,0.36137595772743225,1.637546181678772,-58,8124.0,0.3407564163208008,63,9909.0
13900,0.36135169863700867,0.23628228902816772,31,8124.0,-4.154928207397461,76,9909.0
13910,0.3613366186618805,-1.7485935688018799,85,8124.0,-0.8861550092697144,38,9909.0
13920,0.36130309104919434,-0.9489774107933044,-71,8124.0,-6.315090179443359,-206,9909.0
13930,0.36126023530960083,-1.4982211589813232,-51,8124.0,-7.481224536895752,-46,9909.0
13940,0.3602728843688965,0.36397385597229004,51,8124.0,-5.68484354019165,27,9909.0
13950,0.3601600229740143,-2.7100257873535156,144,8124.0,-1.3581265211105347,-67,9909.0
13960,0.36007270216941833,2.2965970039367676,-23,8124.0,-0.6360693573951721,-132,9909.0
13970,0.36000746488571167,3.925875186920166,47,8124.0,-2.5720090866088867,23,9909.0
13980,0.36031126976013184,3.821164846420288,123,8124.0,2.959869146347046,-8,9909.0
13990,0.3602603077888489,0.24888336658477783,-1,8124.0,4.989790439605713,23,9909.0
14000,0.3602101802825928,-1.6546505689620972,-11,8124.0,4.892179489135742,136,9909.0
14010,0.3601527214050293,-2.980433464050293,40,8124.0,2.126610279083252,52,9909.0
14020,0.36011001467704773,-3.4668567180633545,-55,8124.0,1.7320566177368164,-141,9909.0
14030,0.3595943748950958,-7.143445014953613,-157,8124.0,-0.6320897936820984,-13,9909.0
14040,0.35949766635894775,-5.057185173034668,-7,8124.0,0.014422569423913956,145,9909.0
14050,0.3594779670238495,-5.5768818855285645,44,8124.0,6.086087703704834,47,9909.0
14060,0.35943058133125305,-3.2523887157440186,-34,8124.0,-2.4104158878326416,-193,9909.0
14070,0.3576589524745941,-1.091051697731018,-114,8124.0,-6.225162982940674,-106,9909.0
14080,0.3575967252254486,0.7105797529220581,99,8124.0,-8.69997501373291,7,9909.0
14090,0.3575839698314667,-5.777608394622803,72,8124.0,-5.669332504272461,-55,9909.0
14100,0.35760965943336487,-2.3775291442871094,-73,8124.0,-1.2244155406951904,-108,9909.0
14110,0.35658636689186096,-2.397169351577759,-94,8124.0,-1.7313854694366455,12,9909.0
14120,0.3565809726715088,-5.435249328613281,-19,8124.0,-0.23756393790245056,76,9909.0
14130,0.35664233565330505,-7.628711223602295,-123,8124.0,2.2335352897644043,-54,9909.0
14140,0.35672181844711304,-6.925240993499756,-223,8124.0,-0.12860044836997986,39,9909.0
14150,0.3568548858165741,-6.905480861663818,-91,8124.0,0.04394194483757019,53,9909.0
14160,0.35547780990600586,-6.249546051025391,13,8124.0,1.8475184440612793,-5,9909.0
14170,0.35557740926742554,-2.0605971813201904,-11,8124.0,1.608471155166626,-117,9909.0
14180,0.3557024598121643,-0.9774585962295532,-39,8124.0,-4.957767963409424,-132,9909.0
14190,0.3558471202850342,-0.7839449048042297,61,8124.0,-0.8695648312568665,24,9909.0
14200,0.354886531829834,1.5384222269058228,120,8124.0,-1.0527374744415283,-53,9909.0
