timestamp,kalman.stateZ,gyro.x,gyro.xRaw,gyro.xVariance,gyro.y,gyro.yRaw,gyro.yVariance
0,0.3199493885040283,-2.9414031505584717,-51,9981.0,-7.797609329223633,-97,5564.0
10,0.3191940188407898,-2.1430840492248535,-31,9981.0,-0.9907360672950745,14,5564.0
20,0.31923002004623413,-0.07556578516960144,1,9981.0,5.534292221069336,115,5564.0
30,0.3192824125289917,-0.30442267656326294,-10,9981.0,10.087751388549805,184,5564.0
40,0.31932199001312256,-1.8473700284957886,-26,9981.0,12.713722229003906,215,5564.0
50,0.3187215328216553,-1.8445544242858887,-34,9981.0,13.00229263305664,214,5564.0
60,0.3187371492385864,-2.3804008960723877,-31,9981.0,12.069061279296875,194,5564.0
70,0.31881579756736755,-0.2703471779823303,7,9981.0,9.32735824584961,137,5564.0
80,0.31891104578971863,1.4738624095916748,30,9981.0,4.922780513763428,67,5564.0
90,0.31905224919319153,2.209014415740967,53,9981.0,-0.07202041149139404,-17,5564.0
100,0.3190004229545593,3.9175052642822266,70,9981.0,-3.7010555267333984,-70,5564.0
110,0.31918224692344666,3.582961320877075,58,9981.0,-5.297201156616211,-90,5564.0
120,0.31935444474220276,3.643568515777588,61,9981.0,-6.03135347366333,-101,5564.0
130,0.3195006847381592,2.021101951599121,30,9981.0,-6.167015552520752,-102,5564.0
140,0.3200179636478424,0.5557125806808472,5,9981.0,-7.0530686378479,-125,5564.0
150,0.32011786103248596,-0.3790781497955322,-19,9981.0,-8.40332317352295,-142,5564.0
160,0.32020509243011475,-4.461650371551514,-83,9981.0,-7.781747341156006,-127,5564.0
170,0.3202376365661621,-6.087441444396973,-98,9981.0,-5.366721153259277,-63,5564.0
180,0.32023411989212036,-4.892352104187012,-85,9981.0,0.28726524114608765,12,5564.0
190,0.3208542466163635,-3.126986503601074,-46,9981.0,2.145792245864868,34,5564.0
200,0.3208397626876831,1.4095431566238403,61,9981.0,1.3584752082824707,26,5564.0
210,0.3209218382835388,7.5876874923706055,187,9981.0,-1.958037257194519,-96,5564.0
220,0.32116788625717163,13.345693588256836,274,9981.0,-18.891023635864258,-379,5564.0
230,0.31976497173309326,12.897823333740234,150,9981.0,-42.78879165649414,-918,5564.0
240,0.3200628459453583,0.09769459813833237,12,9981.0,-79.59403991699219,-1400,5564.0
250,0.3202073276042938,-4.563007354736328,-74,9981.0,-110.50523376464844,-2004,5564.0
260,0.3196233808994293,-5.052980422973633,-102,9981.0,-124.5308609008789,-2069,5564.0
270,0.32028669118881226,1.6696696281433105,55,9981.0,-131.42822265625,-2008,5564.0
280,0.3205280005931854,8.844490051269531,132,9981.0,-122.12002563476562,-1842,5564.0
290,0.32004645466804504,12.498747825622559,140,9981.0,-96.08349609375,-1364,5564.0
300,0.32276907563209534,17.082122802734375,291,9981.0,-56.69427490234375,-717,5564.0
310,0.324672132730484,13.99267864227295,205,9981.0,-17.919071197509766,-101,5564.0
320,0.3276013135910034,8.211600303649902,129,9981.0,17.670948028564453,393,5564.0
330,0.32972583174705505,3.608384132385254,40,9981.0,51.59089279174805,792,5564.0
340,0.33152252435684204,6.290343761444092,107,9981.0,66.19552612304688,1103,5564.0
350,0.3333281874656677,-3.7654387950897217,-56,9981.0,70.25250244140625,1015,5564.0
360,0.3340980112552643,-7.388047218322754,-55,9981.0,65.03178405761719,1069,5564.0
370,0.3356381952762604,-1.8467011451721191,-84,9981.0,54.198280334472656,850,5564.0
380,0.3368832468986511,6.918927192687988,226,9981.0,39.43002700805664,508,5564.0
390,0.33838480710983276,11.325479507446289,183,9981.0,18.528270721435547,147,5564.0
400,0.3395330011844635,7.88999605178833,69,9981.0,-12.837860107421875,-415,5564.0
410,0.3379777669906616,2.2206268310546875,69,9981.0,-44.520843505859375,-957,5564.0
420,0.3387710750102997,0.3202483057975769,-43,9981.0,-76.15218353271484,-1273,5564.0
430,0.33929795026779175,-3.423672676086426,-90,9981.0,-96.71814727783203,-1682,5564.0
440,0.3397757112979889,-8.221687316894531,-98,9981.0,-101.63349914550781,-1774,5564.0
450,0.3395528197288513,-9.792878150939941,-156,9981.0,-87.14794921875,-1328,5564.0
460,0.33964189887046814,-12.181056022644043,-204,9981.0,-60.07722473144531,-686,5564.0
470,0.33999764919281006,-9.292450904846191,-178,9981.0,-25.51913070678711,-4,5564.0
480,0.34371963143348694,-8.703277587890625,-150,9981.0,12.215067863464355,393,5564.0
490,0.3449455499649048,-8.098098754882812,-70,9981.0,43.20143127441406,768,5564.0
500,0.3468985855579376,-12.113286018371582,-130,9981.0,70.44416046142578,1051,5564.0
510,0.34817633032798767,-10.890946388244629,-186,9981.0,81.61119842529297,1317,5564.0
520,0.34917977452278137,-17.216257095336914,-336,9981.0,76.41507720947266,1327,5564.0
530,0.35015222430229187,-7.830090045928955,-78,9981.0,66.61973571777344,1095,5564.0
540,0.3472035825252533,12.036059379577637,383,9981.0,65.65044403076172,1168,5564.0
550,0.3475206792354584,34.366172790527344,462,9981.0,68.75243377685547,1039,5564.0
560,0.3482406735420227,35.23577880859375,658,9981.0,59.20994186401367,949,5564.0
570,0.3478761613368988,29.020767211914062,375,9981.0,39.3264045715332,618,5564.0
580,0.34493288397789,11.482669830322266,131,9981.0,14.719107627868652,-34,5564.0
590,0.3447680175304413,-7.3168840408325195,-229,9981.0,-13.722724914550781,-152,5564.0
600,0.34453481435775757,-26.996009826660156,-529,9981.0,-41.38957214355469,-917,5564.0
610,0.3444325029850006,-37.81928253173828,-592,9981.0,-66.12820434570312,-1176,5564.0
620,0.3439607322216034,-33.65179443359375,-522,9981.0,-76.59239959716797,-1156,5564.0
630,0.342421293258667,-12.834798812866211,4,9981.0,-73.22303771972656,-1201,5564.0
640,0.34275269508361816,12.254776000976562,330,9981.0,-61.47860336303711,-928,5564.0
650,0.3423002362251282,30.975908279418945,419,9981.0,-57.0080680847168,-918,5564.0
660,0.3422408103942871,31.1724796295166,471,9981.0,-56.40689468383789,-984,5564.0
670,0.342424601316452,16.829423904418945,225,9981.0,-49.216365814208984,-741,5564.0
680,0.3432025909423828,-7.735436916351318,-220,9981.0,-21.364076614379883,-205,5564.0
690,0.3434474468231201,-15.616914749145508,-324,9981.0,9.554779052734375,388,5564.0
700,0.3438960313796997,-13.057419776916504,-231,9981.0,49.17913055419922,882,5564.0
710,0.34424346685409546,-1.829927682876587,100,9981.0,79.93115234375,1312,5564.0
720,0.3439611792564392,18.632116317749023,371,9981.0,91.33513641357422,1531,5564.0
730,0.34306347370147705,23.989084243774414,382,9981.0,91.71858215332031,1323,5564.0
740,0.34245842695236206,20.482952117919922,307,9981.0,75.55323791503906,1276,5564.0
750,0.34171223640441895,13.585341453552246,145,9981.0,43.90453338623047,491,5564.0
760,0.3421788513660431,1.6053235530853271,41,9981.0,-2.4990499019622803,-193,5564.0
770,0.34222614765167236,-10.032082557678223,-148,9981.0,-49.689090728759766,-1065,5564.0
780,0.34174078702926636,-12.498811721801758,-324,9981.0,-81.98627471923828,-1328,5564.0
790,0.3410113751888275,-4.702757358551025,-34,9981.0,-95.2235107421875,-1681,5564.0
800,0.3413299322128296,5.3477396965026855,138,9981.0,-95.2287368774414,-1375,5564.0
810,0.3407846987247467,6.201210021972656,-2,9981.0,-85.4849624633789,-1307,5564.0
820,0.34024277329444885,-5.379427433013916,-126,9981.0,-68.18293762207031,-1105,5564.0
830,0.3409801423549652,-35.89270782470703,-704,9981.0,-34.62039566040039,-408,5564.0
840,0.3414025902748108,-67.36103820800781,-1209,9981.0,-3.6391687393188477,93,5564.0
850,0.3446989953517914,-73.14396667480469,-1246,9981.0,17.552927017211914,394,5564.0
860,0.3455449640750885,-55.62734603881836,-668,9981.0,33.826541900634766,586,5564.0
870,0.3470571041107178,-8.160337448120117,10,9981.0,45.143028259277344,880,5564.0
880,0.3480190932750702,35.27586364746094,864,9981.0,58.92649459838867,1028,5564.0
890,0.3498266041278839,69.62326049804688,1159,9981.0,61.43833541870117,983,5564.0
900,0.350473552942276,77.27383422851562,1304,9981.0,52.74895095825195,827,5564.0
910,0.3508681058883667,61.133209228515625,777,9981.0,45.43776321411133,731,5564.0
920,0.35151445865631104,24.72587776184082,232,9981.0,30.766008377075195,356,5564.0
930,0.35008853673934937,-9.07383918762207,-267,9981.0,8.086645126342773,109,5564.0
940,0.3505367040634155,-26.268808364868164,-469,9981.0,-15.648606300354004,-349,5564.0
950,0.3508957028388977,-21.948896408081055,-274,9981.0,-33.3667106628418,-533,5564.0
960,0.3512091040611267,-8.316125869750977,-69,9981.0,-41.22236633300781,-647,5564.0
970,0.3519258201122284,6.6354546546936035,161,9981.0,-36.006595611572266,-727,5564.0
980,0.35027819871902466,6.356714725494385,101,9981.0,-32.237548828125,-495,5564.0
990,0.3510458767414093,-6.577521800994873,-308,9981.0,-23.344852447509766,-267,5564.0
1000,0.3520021438598633,-28.844585418701172,-632,9981.0,-21.011857986450195,-320,5564.0
1010,0.3530586063861847,-46.80842590332031,-918,9981.0,-11.079824447631836,-180,5564.0
1020,0.351565957069397,-63.416866302490234,-972,9981.0,6.367280960083008,231,5564.0
1030,0.3528580069541931,-55.56425476074219,-669,9981.0,38.90908432006836,826,5564.0
1040,0.3540583848953247,-22.080490112304688,-288,9981.0,49.219993591308594,777,5564.0
1050,0.3551098704338074,16.255430221557617,524,9981.0,50.10835266113281,845,5564.0
1060,0.35582008957862854,50.74327850341797,1032,9981.0,51.43169403076172,927,5564.0
1070,0.3532375991344452,69.96397399902344,1154,9981.0,54.23750305175781,784,5564.0
1080,0.352937251329422,70.36608123779297,1096,9981.0,51.59891128540039,794,5564.0
1090,0.3539520800113678,53.736148834228516,730,9981.0,42.295013427734375,805,5564.0
1100,0.35395488142967224,28.755836486816406,271,9981.0,30.791648864746094,313,5564.0
1110,0.349713534116745,3.0632009506225586,-59,9981.0,12.669121742248535,2,5564.0
1120,0.3493157625198364,-10.382966995239258,-267,9981.0,-10.64858341217041,-212,5564.0
1130,0.34856927394866943,-17.307302474975586,-276,9981.0,-30.698705673217773,-638,5564.0
1140,0.34771767258644104,-21.545597076416016,-285,9981.0,-41.551536560058594,-781,5564.0
1150,0.345131516456604,-18.280073165893555,-370,9981.0,-54.49433135986328,-927,5564.0
1160,0.344082772731781,-19.214580535888672,-384,9981.0,-68.00044250488281,-1198,5564.0
1170,0.3432452380657196,-31.09824562072754,-506,9981.0,-69.96724700927734,-1199,5564.0
1180,0.34245437383651733,-38.354888916015625,-600,9981.0,-62.990867614746094,-1033,5564.0
1190,0.34154459834098816,-42.453643798828125,-797,9981.0,-53.301517486572266,-684,5564.0
1200,0.34119680523872375,-42.13201904296875,-720,9981.0,-39.92111587524414,-619,5564.0
1210,0.3408067226409912,-30.73647117614746,-322,9981.0,-17.875879287719727,-119,5564.0
1220,0.34116679430007935,-2.639634132385254,74,9981.0,16.965524673461914,525,5564.0
1230,0.34163862466812134,30.641258239746094,641,9981.0,39.5112419128418,585,5564.0
1240,0.3426450192928314,60.42096710205078,1175,9981.0,55.81385040283203,1003,5564.0
1250,0.3424164056777954,79.31938934326172,1191,9981.0,61.984031677246094,906,5564.0
1260,0.34357669949531555,65.67278289794922,1038,9981.0,56.2086067199707,871,5564.0
1270,0.3433067202568054,37.64922332763672,436,9981.0,40.93058395385742,708,5564.0
1280,0.34412989020347595,10.637808799743652,147,9981.0,14.282451629638672,93,5564.0
1290,0.34434646368026733,-7.346714973449707,-179,9981.0,-14.820588111877441,-402,5564.0
1300,0.3446829915046692,-16.31365203857422,-251,9981.0,-42.33565902709961,-962,5564.0
1310,0.3451216518878937,-17.788406372070312,-266,9981.0,-60.63332748413086,-947,5564.0
1320,0.3454122841358185,-13.535801887512207,-258,9981.0,-64.61176300048828,-1001,5564.0
1330,0.3457847535610199,-7.466832160949707,-58,9981.0,-67.9611587524414,-1130,5564.0
1340,0.3464917838573456,-4.325982570648193,-41,9981.0,-70.7227783203125,-1104,5564.0
1350,0.34710896015167236,-12.187172889709473,-285,9981.0,-71.14598846435547,-1071,5564.0
1360,0.3479556441307068,-33.450233459472656,-701,9981.0,-55.38803482055664,-720,5564.0
1370,0.3503120541572571,-54.1827507019043,-937,9981.0,-14.468267440795898,-103,5564.0
1380,0.35205551981925964,-53.03334426879883,-770,9981.0,21.553499221801758,242,5564.0
1390,0.35281476378440857,-32.19378662109375,-407,9981.0,34.1895751953125,725,5564.0
1400,0.35455453395843506,-14.504158020019531,-210,9981.0,62.486907958984375,1235,5564.0
1410,0.35570093989372253,0.906960666179657,2,9981.0,80.631591796875,1327,5564.0
1420,0.3552594482898712,5.505692958831787,181,9981.0,83.78126525878906,1451,5564.0
1430,0.35602307319641113,13.060842514038086,210,9981.0,87.5033950805664,1328,5564.0
1440,0.35652628540992737,26.314401626586914,545,9981.0,78.3392562866211,1110,5564.0
1450,0.35695791244506836,34.35661697387695,535,9981.0,52.15996551513672,784,5564.0
1460,0.35337314009666443,25.4392032623291,374,9981.0,18.783510208129883,82,5564.0
1470,0.35358133912086487,10.67335319519043,73,9981.0,-12.545594215393066,-217,5564.0
1480,0.3539522588253021,5.6390557289123535,194,9981.0,-33.516536712646484,-739,5564.0
1490,0.35424795746803284,12.813697814941406,250,9981.0,-44.58968734741211,-665,5564.0
1500,0.35463473200798035,20.097415924072266,272,9981.0,-45.791011810302734,-743,5564.0
1510,0.3496052920818329,18.298433303833008,371,9981.0,-45.297908782958984,-786,5564.0
1520,0.35014432668685913,10.182313919067383,206,9981.0,-41.09745788574219,-620,5564.0
1530,0.35107195377349854,-3.9466445446014404,-187,9981.0,-29.199743270874023,-351,5564.0
1540,0.35242897272109985,-21.632688522338867,-508,9981.0,-14.479869842529297,-91,5564.0
1550,0.3490944802761078,-44.52463912963867,-846,9981.0,6.170584678649902,160,5564.0
1560,0.3498454988002777,-49.780208587646484,-744,9981.0,28.25942611694336,525,5564.0
1570,0.35095739364624023,-29.81753921508789,-264,9981.0,39.16555404663086,790,5564.0
1580,0.35220903158187866,7.631799697875977,259,9981.0,51.33958435058594,919,5564.0
1590,0.34973281621932983,39.53688430786133,722,9981.0,67.28414154052734,970,5564.0
1600,0.3500579297542572,56.21681213378906,977,9981.0,68.25614929199219,1281,5564.0
1610,0.3497050106525421,56.96438980102539,916,9981.0,63.92713928222656,965,5564.0
1620,0.3498024642467499,47.432952880859375,733,9981.0,46.346900939941406,587,5564.0
1630,0.35045143961906433,28.901609420776367,338,9981.0,16.31017303466797,218,5564.0
1640,0.3469332158565521,10.792440414428711,129,9981.0,-22.978086471557617,-590,5564.0
1650,0.34671661257743835,-1.5553739070892334,17,9981.0,-50.07500457763672,-902,5564.0
1660,0.3459990918636322,-9.682550430297852,-221,9981.0,-62.42754364013672,-1011,5564.0
1670,0.34538111090660095,-6.395488262176514,-110,9981.0,-74.06483459472656,-1265,5564.0
1680,0.34270092844963074,-10.370098114013672,-93,9981.0,-75.87372589111328,-1247,5564.0
1690,0.34194880723953247,-10.393978118896484,-91,9981.0,-70.8897476196289,-1123,5564.0
1700,0.341133713722229,-21.02518081665039,-527,9981.0,-60.271812438964844,-753,5564.0
1710,0.3406224846839905,-45.95497131347656,-904,9981.0,-32.98122787475586,-370,5564.0
1720,0.3408134877681732,-61.12809371948242,-1012,9981.0,0.010700621642172337,-84,5564.0
1730,0.3431728780269623,-56.25235366821289,-820,9981.0,18.56201171875,337,5564.0
1740,0.3432613015174866,-43.12689971923828,-639,9981.0,34.53643035888672,730,5564.0
1750,0.343537837266922,-21.32550048828125,-77,9981.0,50.623504638671875,815,5564.0
1760,0.34451916813850403,9.471297264099121,334,9981.0,43.724090576171875,494,5564.0
1770,0.34290629625320435,35.90848159790039,725,9981.0,18.375408172607422,56,5564.0
1780,0.343535453081131,55.01263427734375,855,9981.0,-8.458834648132324,-192,5564.0
1790,0.34424713253974915,51.7789192199707,849,9981.0,-25.50303840637207,-518,5564.0
1800,0.34489312767982483,35.45551300048828,404,9981.0,-48.36945343017578,-889,5564.0
1810,0.34528663754463196,15.562887191772461,190,9981.0,-64.46580505371094,-1060,5564.0
1820,0.3450590968132019,4.060056686401367,138,9981.0,-59.40587615966797,-921,5564.0
1830,0.34564244747161865,6.671308994293213,232,9981.0,-41.67229461669922,-456,5564.0
1840,0.34644952416419983,27.418193817138672,476,9981.0,-16.01348304748535,-26,5564.0
1850,0.3470071256160736,43.566307067871094,707,9981.0,11.501847267150879,313,5564.0
1860,0.34931492805480957,33.77931213378906,477,9981.0,37.78934097290039,569,5564.0
1870,0.3501195013523102,5.788952350616455,67,9981.0,48.691932678222656,745,5564.0
1880,0.351105272769928,-18.014144897460938,-298,9981.0,38.090576171875,524,5564.0
1890,0.3519468605518341,-40.44900894165039,-853,9981.0,15.114860534667969,236,5564.0
1900,0.3500644266605377,-70.23411560058594,-1343,9981.0,-3.8301594257354736,-146,5564.0
1910,0.35066041350364685,-83.82893371582031,-1405,9981.0,-16.089160919189453,-317,5564.0
1920,0.35141897201538086,-69.81696319580078,-922,9981.0,-20.94253921508789,-247,5564.0
1930,0.3519050180912018,-35.84349060058594,-431,9981.0,-13.109477043151855,-52,5564.0
1940,0.3529268801212311,-0.8797094225883484,54,9981.0,12.137899398803711,122,5564.0
1950,0.35088807344436646,23.022584915161133,480,9981.0,27.317224502563477,575,5564.0
1960,0.35146209597587585,33.399742126464844,600,9981.0,26.711610794067383,480,5564.0
1970,0.352506160736084,41.094417572021484,705,9981.0,21.327611923217773,208,5564.0
1980,0.35324734449386597,37.54877471923828,564,9981.0,17.464744567871094,268,5564.0
1990,0.3523382842540741,21.95844841003418,288,9981.0,25.74869155883789,616,5564.0
2000,0.35306307673454285,10.844011306762695,111,9981.0,45.32892608642578,859,5564.0
2010,0.3536774814128876,4.426873207092285,55,9981.0,60.71668243408203,1009,5564.0
2020,0.3541375398635864,-0.10068142414093018,51,9981.0,66.76702117919922,1062,5564.0
2030,0.3494091331958771,2.1646640300750732,96,9981.0,67.48039245605469,1116,5564.0
2040,0.35008060932159424,20.544416427612305,477,9981.0,58.60854721069336,985,5564.0
2050,0.34964480996131897,39.86378479003906,657,9981.0,45.410919189453125,465,5564.0
2060,0.3487841784954071,32.52214813232422,472,9981.0,16.186891555786133,197,5564.0
2070,0.349490761756897,6.764420986175537,-67,9981.0,-12.80845832824707,-191,5564.0
2080,0.34434258937835693,-22.036991119384766,-444,9981.0,-44.17152404785156,-1082,5564.0
2090,0.3451244533061981,-38.46473693847656,-639,9981.0,-75.7844467163086,-1383,5564.0
2100,0.3439432680606842,-43.420692443847656,-771,9981.0,-95.8563461303711,-1466,5564.0
2110,0.3441963195800781,-54.786712646484375,-877,9981.0,-89.35807037353516,-1403,5564.0
2120,0.3433065414428711,-48.089439392089844,-738,9981.0,-68.79832458496094,-1176,5564.0
2130,0.34409087896347046,-30.508277893066406,-316,9981.0,-44.854576110839844,-622,5564.0
2140,0.3438911437988281,4.510827541351318,272,9981.0,-21.665292739868164,-71,5564.0
2150,0.3443460166454315,43.79261779785156,845,9981.0,10.736138343811035,441,5564.0
2160,0.34455543756484985,60.85120391845703,1084,9981.0,50.368316650390625,937,5564.0
2170,0.3459610939025879,50.10508346557617,715,9981.0,77.46708679199219,1217,5564.0
2180,0.3462294042110443,22.52165412902832,246,9981.0,82.1516342163086,1372,5564.0
2190,0.3467429578304291,-1.924843430519104,-180,9981.0,83.91329956054688,1327,5564.0
2200,0.34642547369003296,-15.359809875488281,-223,9981.0,67.66783905029297,1044,5564.0
2210,0.3440569341182709,-13.849601745605469,-143,9981.0,37.197052001953125,469,5564.0
2220,0.343922883272171,4.605892658233643,123,9981.0,-0.5568309426307678,-283,5564.0
2230,0.3442072868347168,17.899646759033203,328,9981.0,-42.99330520629883,-782,5564.0
2240,0.3447169065475464,15.87150764465332,175,9981.0,-85.10415649414062,-1753,5564.0
2250,0.3415878713130951,-4.4811201095581055,-163,9981.0,-126.94792938232422,-2187,5564.0
2260,0.3415878713130951,-24.828014373779297,-510,9981.0,-152.0692596435547,-2389,5564.0
2270,0.3411361277103424,-44.01289749145508,-822,9981.0,-159.8715362548828,-2537,5564.0
2280,0.33989304304122925,-57.41743850708008,-953,9981.0,-155.9558868408203,-2558,5564.0
2290,0.3426159918308258,-58.65952682495117,-885,9981.0,-131.67588806152344,-2108,5564.0
2300,0.34488222002983093,-39.107872009277344,-471,9981.0,-88.4293212890625,-1258,5564.0
2310,0.3473702371120453,-9.103489875793457,16,9981.0,-43.82297897338867,-416,5564.0
2320,0.34859347343444824,15.704513549804688,399,9981.0,7.3686699867248535,424,5564.0
2330,0.3505695164203644,29.058135986328125,494,9981.0,66.2048568725586,1439,5564.0
2340,0.3558346927165985,35.62305450439453,602,9981.0,117.66780853271484,2263,5564.0
2350,0.35797426104545593,35.32318115234375,502,9981.0,150.89805603027344,2703,5564.0
2360,0.35954543948173523,25.339553833007812,238,9981.0,167.20176696777344,2862,5564.0
2370,0.3608318865299225,3.7309978008270264,24,9981.0,161.39141845703125,2421,5564.0
2380,0.3633817434310913,-6.239922046661377,-62,9981.0,138.2850341796875,2036,5564.0
2390,0.355747252702713,4.8858866691589355,151,9981.0,96.54530334472656,1356,5564.0
2400,0.35714665055274963,25.398447036743164,630,9981.0,51.40268325805664,449,5564.0
2410,0.35939741134643555,37.141822814941406,493,9981.0,4.215303897857666,-93,5564.0
2420,0.36080530285835266,25.676002502441406,299,9981.0,-47.34110641479492,-1144,5564.0
2430,0.3514329195022583,1.3678123950958252,-153,9981.0,-89.65496826171875,-1757,5564.0
2440,0.3523050546646118,-28.652618408203125,-610,9981.0,-110.86905670166016,-1792,5564.0
2450,0.3533390462398529,-58.20725631713867,-1061,9981.0,-110.57714080810547,-1626,5564.0
2460,0.3540993928909302,-73.9678726196289,-1282,9981.0,-90.43988800048828,-1302,5564.0
2470,0.3494468927383423,-69.51614379882812,-1090,9981.0,-57.09337615966797,-634,5564.0
2480,0.3513015806674957,-53.7315788269043,-807,9981.0,-22.395910263061523,-175,5564.0
2490,0.353463351726532,-24.46550941467285,-314,9981.0,22.196212768554688,354,5564.0
2500,0.35515284538269043,16.646791458129883,414,9981.0,46.280696868896484,807,5564.0
2510,0.35675355792045593,45.9219856262207,896,9981.0,62.44828796386719,1040,5564.0
2520,0.3534504175186157,47.33203887939453,738,9981.0,79.75910949707031,1365,5564.0
2530,0.3545166254043579,32.60286331176758,412,9981.0,82.0792007446289,1490,5564.0
2540,0.3550359010696411,16.79521942138672,305,9981.0,74.78560638427734,1110,5564.0
2550,0.3551596403121948,19.71632957458496,384,9981.0,54.647850036621094,701,5564.0
2560,0.3505270481109619,24.692157745361328,422,9981.0,24.158479690551758,350,5564.0
2570,0.35082343220710754,29.042015075683594,478,9981.0,-5.876938343048096,-236,5564.0
2580,0.3505961000919342,42.33781814575195,716,9981.0,-26.238378524780273,-548,5564.0
2590,0.35074469447135925,43.990257263183594,729,9981.0,-33.81903076171875,-454,5564.0
2600,0.35049498081207275,20.297103881835938,101,9981.0,-36.90336608886719,-614,5564.0
2610,0.34768083691596985,-16.314041137695312,-498,9981.0,-29.531049728393555,-375,5564.0
2620,0.34730514883995056,-34.130985260009766,-619,9981.0,-12.431633949279785,-137,5564.0
2630,0.3467320203781128,-35.142642974853516,-498,9981.0,-2.5278737545013428,-89,5564.0
2640,0.34608250856399536,-34.00048065185547,-475,9981.0,1.9140160083770752,-53,5564.0
2650,0.34437793493270874,-28.359161376953125,-497,9981.0,-0.498477041721344,114,5564.0
2660,0.3434269428253174,-20.722768783569336,-337,9981.0,-5.063080310821533,-97,5564.0
2670,0.3423152267932892,-18.421133041381836,-262,9981.0,-17.444839477539062,-452,5564.0
2680,0.34131503105163574,-17.10824966430664,-264,9981.0,-20.073989868164062,-168,5564.0
2690,0.33919090032577515,-9.232032775878906,-83,9981.0,-14.315019607543945,-176,5564.0
2700,0.3383752405643463,12.132161140441895,328,9981.0,-16.404129028320312,-391,5564.0
2710,0.33755072951316833,37.7517204284668,664,9981.0,-25.095016479492188,-310,5564.0
2720,0.3368673026561737,44.90603256225586,732,9981.0,-34.80825424194336,-597,5564.0
2730,0.33631426095962524,38.308773040771484,605,9981.0,-48.9283447265625,-974,5564.0
2740,0.33679914474487305,23.875185012817383,349,9981.0,-55.3031120300293,-920,5564.0
2750,0.3364980220794678,4.974645614624023,-96,9981.0,-45.69450759887695,-634,5564.0
2760,0.3367520272731781,-26.49356460571289,-565,9981.0,-15.62934398651123,-106,5564.0
2770,0.33691757917404175,-43.92799377441406,-837,9981.0,17.693008422851562,500,5564.0
2780,0.3416321873664856,-51.904380798339844,-902,9981.0,40.59700012207031,743,5564.0
2790,0.34189924597740173,-38.546104431152344,-470,9981.0,57.560115814208984,1007,5564.0
2800,0.34263876080513,-8.750606536865234,134,9981.0,74.62493896484375,1381,5564.0
2810,0.3431362211704254,25.444631576538086,403,9981.0,79.3424301147461,1155,5564.0
2820,0.345559686422348,30.58300018310547,637,9981.0,58.6822509765625,826,5564.0
2830,0.34493181109428406,33.744873046875,477,9981.0,29.835439682006836,492,5564.0
2840,0.34568777680397034,23.1168270111084,325,9981.0,0.09200934320688248,-310,5564.0
2850,0.34653884172439575,8.359825134277344,75,9981.0,-27.25688934326172,-356,5564.0
2860,0.3476458787918091,-1.0890333652496338,-74,9981.0,-43.72073745727539,-838,5564.0
2870,0.345159113407135,-4.23748254776001,-12,9981.0,-50.682106018066406,-913,5564.0
2880,0.34575432538986206,2.010859727859497,83,9981.0,-51.22370147705078,-710,5564.0
2890,0.3464498519897461,3.525618553161621,37,9981.0,-52.22771453857422,-791,5564.0
2900,0.3472191095352173,0.6692314743995667,1,9981.0,-49.69430160522461,-786,5564.0
2910,0.34611767530441284,2.469848871231079,19,9981.0,-35.31174850463867,-565,5564.0
2920,0.3467385470867157,10.52075481414795,227,9981.0,-10.526765823364258,-157,5564.0
2930,0.34792575240135193,13.518819808959961,330,9981.0,23.558429718017578,595,5564.0
2940,0.3484705984592438,7.778965473175049,106,9981.0,65.7143325805664,1136,5564.0
2950,0.34890133142471313,-8.270787239074707,-154,9981.0,92.8105697631836,1626,5564.0
2960,0.34818270802497864,-29.71585464477539,-640,9981.0,102.25167846679688,1783,5564.0
2970,0.3475789725780487,-51.84233856201172,-967,9981.0,102.6246337890625,1701,5564.0
2980,0.3473796248435974,-49.706947326660156,-687,9981.0,101.14862823486328,1608,5564.0
2990,0.3486406207084656,-30.89055061340332,-364,9981.0,87.46240234375,1269,5564.0
3000,0.3439372479915619,-3.52405047416687,101,9981.0,59.22024154663086,731,5564.0
3010,0.34364673495292664,18.92848777770996,417,9981.0,19.8505802154541,99,5564.0
3020,0.34279975295066833,33.32495880126953,544,9981.0,-28.34734344482422,-862,5564.0
3030,0.34436914324760437,32.159149169921875,516,9981.0,-78.14899444580078,-1453,5564.0
3040,0.34429794549942017,24.223745346069336,302,9981.0,-111.88516235351562,-1934,5564.0
3050,0.3394736349582672,6.482862949371338,-1,9981.0,-126.35953521728516,-2309,5564.0
3060,0.3393722474575043,-9.544321060180664,-220,9981.0,-134.1513671875,-2087,5564.0
3070,0.3387054204940796,-16.916860580444336,-336,9981.0,-137.81028747558594,-2142,5564.0
3080,0.338474303483963,-8.883183479309082,-106,9981.0,-130.11546325683594,-2033,5564.0
3090,0.3391434848308563,-2.119755983352661,-64,9981.0,-100.06482696533203,-1402,5564.0
3100,0.3395073413848877,-18.751548767089844,-379,9981.0,-53.129005432128906,-636,5564.0
3110,0.342582106590271,-35.11329650878906,-598,9981.0,-0.30629444122314453,153,5564.0
3120,0.3437593877315521,-35.76023864746094,-443,9981.0,47.4457893371582,930,5564.0
3130,0.3484528660774231,-1.771225929260254,203,9981.0,97.11319732666016,1775,5564.0
3140,0.34946852922439575,32.43353271484375,654,9981.0,138.8883056640625,2465,5564.0
3150,0.35057294368743896,60.01850509643555,941,9981.0,152.77247619628906,2588,5564.0
3160,0.3509507477283478,63.01820755004883,1085,9981.0,152.1806182861328,2403,5564.0
3170,0.35083213448524475,48.24799346923828,718,9981.0,137.2109832763672,2146,5564.0
3180,0.3473993241786957,25.429481506347656,209,9981.0,99.2816162109375,1333,5564.0
3190,0.3495728671550751,4.331662654876709,128,9981.0,38.361515045166016,349,5564.0
3200,0.350126177072525,-9.095561027526855,-304,9981.0,-23.95206642150879,-562,5564.0
3210,0.3517133891582489,-19.607864379882812,-260,9981.0,-69.49258422851562,-1332,5564.0
3220,0.34662607312202454,-20.371278762817383,-377,9981.0,-104.23719787597656,-1820,5564.0
3230,0.34603703022003174,-21.963796615600586,-382,9981.0,-125.76884460449219,-2049,5564.0
3240,0.3458516597747803,-18.893632888793945,-232,9981.0,-133.8055877685547,-2335,5564.0
3250,0.3450455367565155,-19.89054298400879,-301,9981.0,-132.7136688232422,-2178,5564.0
3260,0.3436315357685089,-15.148778915405273,-263,9981.0,-130.61700439453125,-2029,5564.0
3270,0.3448668420314789,-8.655050277709961,-172,9981.0,-112.8699951171875,-1518,5564.0
3280,0.344221293926239,-2.630993604660034,-34,9981.0,-74.69776916503906,-927,5564.0
3290,0.34351691603660583,-4.883200168609619,-79,9981.0,-30.40517234802246,-222,5564.0
3300,0.34533753991127014,-1.9503854513168335,-75,9981.0,10.367557525634766,330,5564.0
3310,0.3493252098560333,-11.564990043640137,-254,9981.0,49.11709213256836,1026,5564.0
3320,0.35028502345085144,-18.31110954284668,-243,9981.0,98.8934555053711,1853,5564.0
3330,0.35117751359939575,-9.415813446044922,-58,9981.0,142.13821411132812,2442,5564.0
3340,0.3515893816947937,4.649284362792969,178,9981.0,165.3203887939453,2654,5564.0
3350,0.3503158986568451,15.092174530029297,248,9981.0,166.70045471191406,2797,5564.0
3360,0.3508286774158478,20.00382423400879,420,9981.0,146.40240478515625,2221,5564.0
3370,0.35025426745414734,26.795068740844727,451,9981.0,106.46575927734375,1518,5564.0
3380,0.35002487897872925,20.696746826171875,237,9981.0,54.87659454345703,688,5564.0
3390,0.3513149917125702,10.462274551391602,197,9981.0,-2.1682636737823486,-345,5564.0
3400,0.34493157267570496,1.8144887685775757,-51,9981.0,-54.93008041381836,-982,5564.0
3410,0.3450493812561035,-6.065243721008301,-96,9981.0,-96.80068969726562,-1897,5564.0
3420,0.34555211663246155,-11.481755256652832,-242,9981.0,-125.54887390136719,-2122,5564.0
3430,0.3464740514755249,-19.728687286376953,-317,9981.0,-146.88882446289062,-2400,5564.0
3440,0.34204497933387756,-23.916004180908203,-409,9981.0,-160.54296875,-2610,5564.0
3450,0.34092819690704346,-29.859766006469727,-510,9981.0,-150.8523406982422,-2499,5564.0
3460,0.3421499729156494,-23.01157569885254,-336,9981.0,-126.08052825927734,-1924,5564.0
3470,0.3435449004173279,-12.966958999633789,-119,9981.0,-79.43988800048828,-1087,5564.0
3480,0.3492668569087982,-2.014531135559082,100,9981.0,-32.543827056884766,-108,5564.0
3490,0.35103657841682434,9.562663078308105,210,9981.0,49.18330383300781,1103,5564.0
3500,0.35182902216911316,18.99028778076172,386,9981.0,115.05689239501953,2101,5564.0
3510,0.35458260774612427,21.848827362060547,397,9981.0,164.14894104003906,2806,5564.0
3520,0.3555345833301544,19.520347595214844,303,9981.0,191.94422912597656,3324,5564.0
3530,0.35555097460746765,13.059152603149414,87,9981.0,201.2908935546875,3316,5564.0
3540,0.3552349805831909,4.942467212677002,26,9981.0,188.9203338623047,2867,5564.0
3550,0.35442590713500977,0.37302687764167786,64,9981.0,148.4034423828125,2301,5564.0
3560,0.3565571904182434,-1.85955810546875,-116,9981.0,101.11316680908203,1214,5564.0
3570,0.34981808066368103,2.8431923389434814,136,9981.0,32.1446647644043,359,5564.0
3580,0.350294291973114,2.3547263145446777,-30,9981.0,-23.670717239379883,-881,5564.0
3590,0.35189494490623474,-6.436917304992676,-99,9981.0,-85.27418518066406,-1675,5564.0
3600,0.3497590124607086,-14.727850914001465,-345,9981.0,-141.97723388671875,-2673,5564.0
3610,0.3495418429374695,-16.828454971313477,-152,9981.0,-183.17669677734375,-3163,5564.0
3620,0.34711122512817383,-16.164443969726562,-251,9981.0,-193.15475463867188,-3143,5564.0
3630,0.34717679023742676,-7.9460673332214355,-181,9981.0,-176.82876586914062,-2597,5564.0
3640,0.34720298647880554,0.5853245258331299,66,9981.0,-143.25936889648438,-2136,5564.0
3650,0.3482869863510132,14.80678653717041,243,9981.0,-108.5918960571289,-1525,5564.0
3660,0.34891843795776367,10.695622444152832,280,9981.0,-53.62604904174805,-550,5564.0
3670,0.348653644323349,9.313828468322754,180,9981.0,5.65276575088501,363,5564.0
3680,0.3492596745491028,-0.4671032130718231,23,9981.0,55.12501525878906,1102,5564.0
3690,0.34995612502098083,-9.364225387573242,-141,9981.0,98.77826690673828,1936,5564.0
3700,0.3494425117969513,-16.689044952392578,-250,9981.0,132.42919921875,2303,5564.0
3710,0.3515665531158447,-13.535493850708008,-290,9981.0,139.77882385253906,2259,5564.0
3720,0.35155007243156433,-9.885112762451172,-107,9981.0,132.7512969970703,2054,5564.0
3730,0.3512829542160034,-0.038006506860256195,75,9981.0,106.88349914550781,1618,5564.0
3740,0.3506040573120117,6.322305679321289,79,9981.0,70.62296295166016,930,5564.0
3750,0.34255072474479675,6.86203670501709,148,9981.0,22.472084045410156,179,5564.0
3760,0.3423410952091217,8.908143997192383,135,9981.0,-25.65171241760254,-819,5564.0
3770,0.3425877094268799,3.942831516265869,140,9981.0,-74.53571319580078,-1412,5564.0
3780,0.3431634306907654,1.192407488822937,-120,9981.0,-116.13702392578125,-2013,5564.0
3790,0.3394075334072113,-7.387357711791992,-98,9981.0,-140.60511779785156,-2427,5564.0
3800,0.3407649099826813,-13.807931900024414,-171,9981.0,-143.09683227539062,-2302,5564.0
3810,0.3411056697368622,-13.977789878845215,-250,9981.0,-127.5916976928711,-1950,5564.0
3820,0.34113824367523193,-1.0504270792007446,-23,9981.0,-96.45020294189453,-1357,5564.0
3830,0.3415656089782715,11.095905303955078,149,9981.0,-57.347373962402344,-664,5564.0
3840,0.34614935517311096,17.244075775146484,262,9981.0,-9.188729286193848,193,5564.0
3850,0.3472669720649719,9.703280448913574,70,9981.0,50.0767936706543,1066,5564.0
3860,0.3485970199108124,-6.324920654296875,-156,9981.0,97.70746612548828,1715,5564.0
3870,0.34957367181777954,-19.442338943481445,-313,9981.0,136.34104919433594,2304,5564.0
3880,0.35147625207901,-20.931642532348633,-84,9981.0,153.0834503173828,2514,5564.0
3890,0.35276174545288086,-7.790195941925049,-85,9981.0,141.51028442382812,2235,5564.0
3900,0.3528463542461395,10.060995101928711,206,9981.0,112.18284606933594,1596,5564.0
3910,0.353986531496048,24.811603546142578,514,9981.0,64.29010009765625,815,5564.0
3920,0.3473173677921295,29.111234664916992,363,9981.0,14.564976692199707,121,5564.0
3930,0.34747791290283203,20.43595314025879,311,9981.0,-23.628681182861328,-678,5564.0
3940,0.34788602590560913,1.7864817380905151,-53,9981.0,-55.514129638671875,-1041,5564.0
3950,0.3482975363731384,-14.642281532287598,-248,9981.0,-90.95962524414062,-1569,5564.0
3960,0.34862807393074036,-20.52962303161621,-423,9981.0,-114.3221435546875,-1957,5564.0
3970,0.34468844532966614,-23.68638801574707,-409,9981.0,-110.5661392211914,-1786,5564.0
3980,0.34538164734840393,-14.123744010925293,-63,9981.0,-91.46322631835938,-1423,5564.0
3990,0.34607386589050293,2.5860681533813477,165,9981.0,-62.31687927246094,-1003,5564.0
4000,0.34679114818573,5.446102142333984,162,9981.0,-27.60267448425293,-378,5564.0
4010,0.3466911315917969,12.882920265197754,206,9981.0,16.17536735534668,389,5564.0
4020,0.34772247076034546,11.426074981689453,189,9981.0,67.2278823852539,1215,5564.0
4030,0.3488582670688629,6.159524917602539,113,9981.0,104.36151885986328,1773,5564.0
4040,0.3494262993335724,1.6903038024902344,164,9981.0,128.59967041015625,2130,5564.0
4050,0.3510921001434326,1.4552221298217773,6,9981.0,137.12600708007812,2381,5564.0
4060,0.3481670320034027,1.9090256690979004,-56,9981.0,125.12776184082031,2069,5564.0
4070,0.34831592440605164,-2.7706782817840576,2,9981.0,91.7700424194336,1238,5564.0
4080,0.34859582781791687,2.3489489555358887,52,9981.0,51.94129180908203,694,5564.0
4090,0.34909218549728394,4.059526443481445,91,9981.0,12.722023010253906,61,5564.0
4100,0.3425805866718292,0.8495575189590454,-33,9981.0,-23.81548500061035,-634,5564.0
4110,0.34348082542419434,-5.361056327819824,-32,9981.0,-64.18209838867188,-1254,5564.0
4120,0.3443198800086975,-8.702262878417969,-201,9981.0,-108.53085327148438,-1833,5564.0
4130,0.3447234332561493,-9.288359642028809,-133,9981.0,-139.54876708984375,-2389,5564.0
4140,0.34135642647743225,-6.326080799102783,-109,9981.0,-143.202392578125,-2475,5564.0
4150,0.3415347933769226,0.8453550934791565,92,9981.0,-129.76441955566406,-2038,5564.0
4160,0.34178626537323,2.02188777923584,111,9981.0,-103.56810760498047,-1523,5564.0
4170,0.342231422662735,3.889998197555542,114,9981.0,-58.94532012939453,-913,5564.0
4180,0.3442094326019287,4.904995918273926,79,9981.0,-2.681243419647217,63,5564.0
4190,0.345813512802124,2.916316509246826,40,9981.0,53.31937026977539,1069,5564.0
4200,0.3467889726161957,-1.7308613061904907,-55,9981.0,101.13585662841797,1808,5564.0
4210,0.347196489572525,-3.326626777648926,81,9981.0,132.0705108642578,2205,5564.0
4220,0.34755247831344604,-1.8506916761398315,90,9981.0,140.91159057617188,2227,5564.0
4230,0.3457261025905609,10.560260772705078,107,9981.0,124.63681030273438,2060,5564.0
4240,0.34546682238578796,17.511905670166016,347,9981.0,90.69422912597656,1190,5564.0
4250,0.34649014472961426,17.60382080078125,267,9981.0,48.51279067993164,679,5564.0
4260,0.34660929441452026,13.148589134216309,83,9981.0,10.037445068359375,-132,5564.0
4270,0.34795472025871277,-0.038616396486759186,-12,9981.0,-28.78691291809082,-722,5564.0
4280,0.34178808331489563,-12.462018966674805,-285,9981.0,-70.31231689453125,-1387,5564.0
4290,0.343198299407959,-20.881071090698242,-361,9981.0,-109.35411834716797,-1940,5564.0
4300,0.34437283873558044,-21.702301025390625,-370,9981.0,-139.46153259277344,-2484,5564.0
4310,0.34570014476776123,-23.31596565246582,-311,9981.0,-142.12242126464844,-2268,5564.0
4320,0.3415471613407135,-18.589786529541016,-194,9981.0,-125.76786041259766,-1957,5564.0
4330,0.34326574206352234,-5.421919822692871,25,9981.0,-96.96669006347656,-1395,5564.0
4340,0.34579527378082275,17.326305389404297,417,9981.0,-54.95207595825195,-609,5564.0
4350,0.3473278880119324,29.599489212036133,582,9981.0,-2.24896240234375,233,5564.0
4360,0.3502756953239441,33.33523178100586,555,9981.0,49.993438720703125,1037,5564.0
4370,0.3520389199256897,30.993257522583008,439,9981.0,99.78938293457031,1778,5564.0
4380,0.3532733619213104,17.315475463867188,241,9981.0,134.96994018554688,2330,5564.0
4390,0.35462111234664917,-0.016099104657769203,75,9981.0,146.53878784179688,2334,5564.0
4400,0.35518109798431396,-16.19412612915039,-300,9981.0,138.01747131347656,2183,5564.0
4410,0.35017159581184387,-26.39228630065918,-359,9981.0,109.8631591796875,1656,5564.0
4420,0.35163068771362305,-28.09381866455078,-499,9981.0,74.17377471923828,1162,5564.0
4430,0.3519713878631592,-17.099754333496094,-245,9981.0,34.33582305908203,304,5564.0
4440,0.3530634343624115,-5.23898983001709,86,9981.0,-6.141085624694824,-340,5564.0
4450,0.34598010778427124,8.183950424194336,105,9981.0,-48.16477966308594,-769,5564.0
4460,0.3465895652770996,15.753547668457031,266,9981.0,-82.69098663330078,-1547,5564.0
4470,0.3472987115383148,13.62686824798584,230,9981.0,-118.82295989990234,-2136,5564.0
4480,0.347981333732605,1.5602810382843018,45,9981.0,-137.3620147705078,-2437,5564.0
4490,0.3485639691352844,-4.697274684906006,-74,9981.0,-139.18978881835938,-2174,5564.0
4500,0.3456842303276062,-6.2531208992004395,47,9981.0,-118.72148132324219,-1822,5564.0
4510,0.3462540805339813,-2.9265098571777344,59,9981.0,-76.0872573852539,-1148,5564.0
4520,0.3476741909980774,-0.04686973989009857,-9,9981.0,-14.284554481506348,-112,5564.0
4530,0.3490796685218811,1.9967724084854126,23,9981.0,40.99055099487305,845,5564.0
4540,0.35121282935142517,2.9576451778411865,84,9981.0,89.69271850585938,1716,5564.0
4550,0.351996511220932,1.875658392906189,83,9981.0,134.5934295654297,2362,5564.0
4560,0.35275721549987793,2.2358453273773193,17,9981.0,155.75363159179688,2466,5564.0
4570,0.35279855132102966,-1.3517770767211914,60,9981.0,151.31138610839844,2326,5564.0
4580,0.3461224138736725,0.7116467952728271,80,9981.0,123.03287506103516,1772,5564.0
4590,0.3477053642272949,12.202812194824219,216,9981.0,75.3028564453125,1164,5564.0
4600,0.34740960597991943,13.108386993408203,170,9981.0,31.344816207885742,183,5564.0
4610,0.34764957427978516,3.3886334896087646,43,9981.0,-10.680204391479492,-294,5564.0
4620,0.34899795055389404,-7.2789411544799805,-236,9981.0,-55.71215057373047,-990,5564.0
4630,0.34341028332710266,-17.934965133666992,-342,9981.0,-102.59864807128906,-2057,5564.0
4640,0.3436841368675232,-26.059804916381836,-443,9981.0,-136.60447692871094,-2286,5564.0
4650,0.3437756896018982,-29.20842742919922,-376,9981.0,-141.47422790527344,-2279,5564.0
4660,0.3444882333278656,-11.570695877075195,-65,9981.0,-123.3661117553711,-1831,5564.0
4670,0.3446190059185028,15.083243370056152,397,9981.0,-87.95439910888672,-1195,5564.0
4680,0.34556490182876587,31.519319534301758,530,9981.0,-28.45431900024414,-255,5564.0
4690,0.34661436080932617,30.74695587158203,417,9981.0,23.169084548950195,567,5564.0
4700,0.34798863530158997,14.627401351928711,156,9981.0,62.98545455932617,1173,5564.0
4710,0.3485947251319885,-9.371114730834961,-180,9981.0,90.30390167236328,1540,5564.0
4720,0.3492388427257538,-22.09148597717285,-442,9981.0,106.38007354736328,1790,5564.0
4730,0.34969019889831543,-25.100231170654297,-413,9981.0,104.41853332519531,1882,5564.0
4740,0.3495192229747772,-22.39714813232422,-318,9981.0,90.00314331054688,1411,5564.0
4750,0.3507481813430786,-9.486149787902832,-16,9981.0,61.22676086425781,748,5564.0
4760,0.3439573347568512,9.945018768310547,218,9981.0,26.323244094848633,283,5564.0
4770,0.3439641296863556,22.077241897583008,456,9981.0,-12.852482795715332,-376,5564.0
4780,0.34444665908813477,23.28029441833496,266,9981.0,-45.604583740234375,-921,5564.0
4790,0.3445025682449341,14.57347297668457,263,9981.0,-72.0019302368164,-1366,5564.0
4800,0.3412463963031769,3.562335729598999,7,9981.0,-97.86515808105469,-1527,5564.0
4810,0.3415934145450592,-14.13779067993164,-318,9981.0,-104.79681396484375,-1664,5564.0
4820,0.3417291045188904,-27.145164489746094,-512,9981.0,-86.35482788085938,-1221,5564.0
4830,0.3430476784706116,-17.743982315063477,-293,9981.0,-63.02859115600586,-736,5564.0
4840,0.3433588743209839,0.6650503873825073,103,9981.0,-25.849029541015625,-220,5564.0
4850,0.3415386974811554,10.957569122314453,135,9981.0,20.858945846557617,640,5564.0
4860,0.34174659848213196,15.998688697814941,250,9981.0,65.46221160888672,1351,5564.0
4870,0.3413792848587036,18.608732223510742,280,9981.0,99.09407806396484,1828,5564.0
4880,0.34077557921409607,13.250615119934082,76,9981.0,113.90709686279297,1906,5564.0
4890,0.33841538429260254,3.147250175476074,-16,9981.0,111.22698974609375,1829,5564.0
4900,0.337726354598999,-4.455060958862305,-14,9981.0,89.1462173461914,1173,5564.0
4910,0.33641317486763,-5.002061367034912,-58,9981.0,56.261417388916016,726,5564.0
4920,0.3352961838245392,-2.420400619506836,-103,9981.0,11.366211891174316,-49,5564.0
4930,0.33538854122161865,-0.22088973224163055,86,9981.0,-28.724687576293945,-766,5564.0
4940,0.32979995012283325,4.694361209869385,26,9981.0,-64.83119201660156,-1223,5564.0
4950,0.32923394441604614,1.6760964393615723,0,9981.0,-91.0066909790039,-1468,5564.0
4960,0.32879647612571716,-1.4627799987792969,-91,9981.0,-106.14971160888672,-1924,5564.0
4970,0.3281210958957672,-11.742846488952637,-254,9981.0,-107.87821960449219,-1830,5564.0
4980,0.325252890586853,-19.058027267456055,-328,9981.0,-97.07038879394531,-1462,5564.0
4990,0.32539093494415283,-24.09463119506836,-244,9981.0,-65.22483825683594,-858,5564.0
5000,0.32737842202186584,-15.611948013305664,-25,9981.0,-17.6658992767334,-60,5564.0
5010,0.32843470573425293,3.1755800247192383,203,9981.0,32.69804382324219,663,5564.0
5020,0.3313077688217163,18.652875900268555,267,9981.0,69.439453125,1374,5564.0
5030,0.33230340480804443,15.325663566589355,232,9981.0,105.16549682617188,1941,5564.0
5040,0.3333117365837097,17.22050666809082,261,9981.0,120.77886962890625,2137,5564.0
5050,0.3340531885623932,17.156719207763672,187,9981.0,115.5868911743164,1902,5564.0
5060,0.3343145549297333,13.67541217803955,233,9981.0,95.68206787109375,1360,5564.0
5070,0.3315153121948242,14.972518920898438,283,9981.0,60.225460052490234,702,5564.0
5080,0.3335978388786316,17.259950637817383,380,9981.0,17.941516876220703,162,5564.0
5090,0.3340721130371094,12.180041313171387,84,9981.0,-20.750234603881836,-478,5564.0
5100,0.33495277166366577,1.2845606803894043,-50,9981.0,-56.054256439208984,-985,5564.0
5110,0.3310951292514801,-8.951224327087402,-93,9981.0,-86.47340393066406,-1702,5564.0
5120,0.33082932233810425,-12.660255432128906,-239,9981.0,-106.84520721435547,-1853,5564.0
5130,0.33038997650146484,-16.98695182800293,-273,9981.0,-110.86087036132812,-1666,5564.0
5140,0.32971829175949097,-18.824045181274414,-320,9981.0,-95.89339447021484,-1434,5564.0
5150,0.32924744486808777,-18.622770309448242,-359,9981.0,-68.84931945800781,-858,5564.0
5160,0.33019205927848816,-29.92847442626953,-574,9981.0,-41.06992721557617,-424,5564.0
5170,0.33020856976509094,-46.079994201660156,-810,9981.0,-8.993269920349121,116,5564.0
5180,0.33058488368988037,-48.78708267211914,-778,9981.0,18.13056755065918,542,5564.0
5190,0.3305419385433197,-32.906551361083984,-467,9981.0,43.94649887084961,834,5564.0
5200,0.32995671033859253,-4.211584091186523,3,9981.0,64.255126953125,1354,5564.0
5210,0.3305019438266754,23.683238983154297,487,9981.0,77.27618408203125,1333,5564.0
5220,0.33064085245132446,42.93749237060547,643,9981.0,91.57540130615234,1472,5564.0
5230,0.3301784098148346,43.581748962402344,782,9981.0,93.56559753417969,1489,5564.0
5240,0.3260912299156189,34.368553161621094,538,9981.0,73.96683502197266,1129,5564.0
5250,0.32664263248443604,21.69942283630371,265,9981.0,47.4496955871582,757,5564.0
5260,0.3258572220802307,6.073472499847412,-57,9981.0,14.12671947479248,138,5564.0
5270,0.3254368305206299,-8.471491813659668,-151,9981.0,-12.205778121948242,-323,5564.0
5280,0.32523414492607117,-10.145442962646484,-95,9981.0,-26.343427658081055,-653,5564.0
5290,0.32141417264938354,-0.5213367342948914,78,9981.0,-45.07368087768555,-657,5564.0
5300,0.3207530081272125,6.608166694641113,108,9981.0,-55.70995330810547,-967,5564.0
5310,0.3199591040611267,18.592817306518555,274,9981.0,-58.79151916503906,-861,5564.0
5320,0.31889474391937256,26.080739974975586,424,9981.0,-58.457523345947266,-1019,5564.0
5330,0.31708866357803345,18.25210189819336,207,9981.0,-57.07732009887695,-1006,5564.0
5340,0.31643688678741455,-5.330199718475342,-208,9981.0,-47.86640548706055,-854,5564.0
5350,0.3157045245170593,-38.03837966918945,-699,9981.0,-36.19789505004883,-470,5564.0
5360,0.31522253155708313,-53.853858947753906,-840,9981.0,-14.210518836975098,-226,5564.0
5370,0.3142847716808319,-55.574012756347656,-805,9981.0,13.293874740600586,187,5564.0
5380,0.3144097328186035,-48.80987548828125,-709,9981.0,40.502464294433594,605,5564.0
5390,0.3137870132923126,-30.8773136138916,-374,9981.0,58.0063362121582,1063,5564.0
5400,0.31315717101097107,-9.257966041564941,-88,9981.0,69.44092559814453,1149,5564.0
5410,0.31268230080604553,6.120829105377197,71,9981.0,67.87789154052734,1048,5564.0
5420,0.30956387519836426,11.434916496276855,300,9981.0,57.81599807739258,839,5564.0
5430,0.30784547328948975,14.361628532409668,192,9981.0,25.29535675048828,286,5564.0
5440,0.30691462755203247,19.08733367919922,333,9981.0,-7.549137115478516,-230,5564.0
5450,0.30539944767951965,33.746971130371094,686,9981.0,-28.14344024658203,-534,5564.0
5460,0.3020467460155487,54.34983825683594,864,9981.0,-40.93319320678711,-540,5564.0
5470,0.29996493458747864,68.87821960449219,1186,9981.0,-38.70302200317383,-649,5564.0
5480,0.29741808772087097,64.63675689697266,1039,9981.0,-33.25666809082031,-690,5564.0
5490,0.2959385812282562,45.53649139404297,601,9981.0,-35.08281707763672,-599,5564.0
5500,0.2939193546772003,12.649606704711914,59,9981.0,-35.08921432495117,-461,5564.0
5510,0.2925247251987457,-21.246204376220703,-511,9981.0,-29.141632080078125,-348,5564.0
5520,0.2901950776576996,-53.40352249145508,-1114,9981.0,-21.428796768188477,-196,5564.0
5530,0.287957102060318,-84.22872161865234,-1572,9981.0,-16.605106353759766,-115,5564.0
5540,0.2857491374015808,-105.7554702758789,-1707,9981.0,-9.590228080749512,-106,5564.0
5550,0.28362223505973816,-108.20570373535156,-1679,9981.0,0.7659356594085693,-81,5564.0
5560,0.28185218572616577,-82.23233795166016,-1060,9981.0,12.305068969726562,308,5564.0
5570,0.2806311547756195,-34.30320358276367,-451,9981.0,29.321914672851562,528,5564.0
5580,0.28021687269210815,-2.8494784832000732,275,9981.0,35.14106369018555,585,5564.0
5590,0.2798469066619873,29.6446533203125,543,9981.0,39.23473358154297,601,5564.0
5600,0.2776326537132263,50.628929138183594,927,9981.0,48.01236343383789,886,5564.0
5610,0.27724480628967285,58.93470764160156,959,9981.0,49.12812042236328,776,5564.0
5620,0.27652090787887573,61.87147903442383,1076,9981.0,37.63684844970703,467,5564.0
5630,0.2756078243255615,61.44069290161133,878,9981.0,17.972383499145508,257,5564.0
5640,0.2734706401824951,56.087860107421875,874,9981.0,4.118275165557861,-60,5564.0
5650,0.2727438509464264,45.34484100341797,721,9981.0,-2.662019968032837,76,5564.0
5660,0.27185773849487305,38.20781707763672,587,9981.0,4.477785587310791,228,5564.0
5670,0.2706426978111267,28.86005401611328,383,9981.0,15.404108047485352,87,5564.0
5680,0.2703319191932678,16.191787719726562,224,9981.0,16.597267150878906,181,5564.0
5690,0.2693648040294647,1.189929485321045,-151,9981.0,9.084733963012695,187,5564.0
5700,0.2683444619178772,-13.644670486450195,-316,9981.0,-3.3506298065185547,26,5564.0
5710,0.2672889232635498,-26.164819717407227,-455,9981.0,-10.718082427978516,-279,5564.0
5720,0.26635104417800903,-29.718652725219727,-482,9981.0,-15.475650787353516,-334,5564.0
5730,0.2669909596443176,-31.293371200561523,-529,9981.0,-16.615720748901367,-166,5564.0
5740,0.2658328711986542,-34.74787139892578,-648,9981.0,-6.842899799346924,-27,5564.0
5750,0.26603612303733826,-38.566131591796875,-559,9981.0,-2.7281339168548584,-90,5564.0
5760,0.2652849555015564,-31.580257415771484,-421,9981.0,1.9109586477279663,45,5564.0
5770,0.26516807079315186,-25.174785614013672,-414,9981.0,7.262692451477051,167,5564.0
5780,0.26389873027801514,-14.807955741882324,-222,9981.0,13.039525985717773,150,5564.0
5790,0.26282739639282227,-0.15201590955257416,87,9981.0,14.674379348754883,373,5564.0
5800,0.2620489001274109,16.18467140197754,343,9981.0,24.962289810180664,484,5564.0
5810,0.26161232590675354,34.95405578613281,698,9981.0,29.536317825317383,380,5564.0
5820,0.26116451621055603,46.29570770263672,808,9981.0,26.269990921020508,412,5564.0
5830,0.26063254475593567,58.59446716308594,921,9981.0,28.608421325683594,487,5564.0
5840,0.26027193665504456,58.25141143798828,982,9981.0,35.74007034301758,568,5564.0
5850,0.259798526763916,48.875953674316406,776,9981.0,39.033851623535156,599,5564.0
5860,0.2605683207511902,27.90849494934082,296,9981.0,34.99909591674805,661,5564.0
5870,0.2603127658367157,2.8489856719970703,-107,9981.0,27.091934204101562,498,5564.0
5880,0.25998833775520325,-16.023540496826172,-294,9981.0,18.637683868408203,193,5564.0
5890,0.2594394087791443,-26.280872344970703,-395,9981.0,10.100960731506348,85,5564.0
5900,0.25913453102111816,-33.54639434814453,-629,9981.0,6.077744007110596,135,5564.0
5910,0.2586846351623535,-39.471065521240234,-705,9981.0,2.097548723220825,15,5564.0
5920,0.2580741047859192,-38.80432891845703,-596,9981.0,-3.566971778869629,-116,5564.0
5930,0.25716111063957214,-33.7725944519043,-412,9981.0,-1.1944295167922974,-38,5564.0
5940,0.2571682631969452,-28.013957977294922,-478,9981.0,-3.3897652626037598,-84,5564.0
5950,0.257185697555542,-17.80432891845703,-295,9981.0,-4.228038311004639,-193,5564.0
5960,0.2563766539096832,-8.232491493225098,-31,9981.0,-8.769440650939941,-136,5564.0
5970,0.2555016577243805,1.148710012435913,71,9981.0,-10.888209342956543,-151,5564.0
5980,0.25459980964660645,10.173445701599121,100,9981.0,-12.12083911895752,-325,5564.0
5990,0.2524486780166626,13.624764442443848,245,9981.0,-17.035127639770508,-382,5564.0
6000,0.25136733055114746,11.358701705932617,192,9981.0,-23.766435623168945,-343,5564.0
6010,0.2501629889011383,3.647944688796997,23,9981.0,-30.54203224182129,-452,5564.0
6020,0.24889588356018066,-0.3383043706417084,-38,9981.0,-27.852874755859375,-496,5564.0
6030,0.2483108788728714,4.340829372406006,63,9981.0,-5.885166645050049,-59,5564.0
6040,0.24483439326286316,13.7997465133667,277,9981.0,17.615243911743164,330,5564.0
6050,0.24358725547790527,25.120370864868164,479,9981.0,32.40071105957031,617,5564.0
6060,0.24210049211978912,35.741756439208984,588,9981.0,39.405181884765625,771,5564.0
6070,0.2418520450592041,31.94728660583496,450,9981.0,40.21146011352539,665,5564.0
6080,0.24133169651031494,22.844892501831055,312,9981.0,35.01791000366211,463,5564.0
6090,0.23975928127765656,10.576740264892578,142,9981.0,27.543882369995117,303,5564.0
6100,0.23866212368011475,-5.350656509399414,-156,9981.0,16.563674926757812,361,5564.0
6110,0.2373889982700348,-17.339126586914062,-333,9981.0,15.230371475219727,306,5564.0
6120,0.2362341433763504,-27.47014617919922,-467,9981.0,14.658917427062988,62,5564.0
6130,0.2353200614452362,-30.060697555541992,-475,9981.0,9.388300895690918,88,5564.0
6140,0.2342727780342102,-22.675395965576172,-311,9981.0,-3.499471426010132,-34,5564.0
6150,0.23321552574634552,-16.122974395751953,-213,9981.0,-23.856271743774414,-613,5564.0
6160,0.23176924884319305,-13.889446258544922,-232,9981.0,-44.94874572753906,-749,5564.0
6170,0.2313736081123352,-13.498557090759277,-242,9981.0,-65.71464538574219,-1135,5564.0
6180,0.2296675741672516,-10.328340530395508,-153,9981.0,-79.68899536132812,-1418,5564.0
6190,0.22823642194271088,-8.582794189453125,-128,9981.0,-84.51658630371094,-1264,5564.0
6200,0.22659440338611603,-8.366564750671387,-154,9981.0,-78.23418426513672,-1132,5564.0
6210,0.2268391251564026,-7.763283729553223,-119,9981.0,-63.929412841796875,-996,5564.0
6220,0.22487913072109222,-9.985301971435547,-128,9981.0,-35.26207733154297,-480,5564.0
6230,0.22415946424007416,-17.565921783447266,-225,9981.0,-0.9036862254142761,138,5564.0
6240,0.22283077239990234,-16.646724700927734,-304,9981.0,29.202409744262695,679,5564.0
6250,0.2190771996974945,-11.125883102416992,-183,9981.0,50.24887466430664,807,5564.0
6260,0.21723195910453796,-1.5397881269454956,86,9981.0,58.340389251708984,949,5564.0
6270,0.2162621170282364,11.259382247924805,219,9981.0,53.845645904541016,857,5564.0
6280,0.21456128358840942,23.024988174438477,556,9981.0,44.02079772949219,680,5564.0
6290,0.2127346396446228,31.56270980834961,458,9981.0,30.903242111206055,424,5564.0
6300,0.21229234337806702,31.001405715942383,513,9981.0,22.2330379486084,276,5564.0
6310,0.21064473688602448,26.09310531616211,292,9981.0,10.971757888793945,172,5564.0
6320,0.20891858637332916,17.879287719726562,317,9981.0,5.118932723999023,30,5564.0
6330,0.20715658366680145,7.546122074127197,123,9981.0,-3.0886895656585693,-25,5564.0
6340,0.20673862099647522,0.15735068917274475,-132,9981.0,-9.674445152282715,-394,5564.0
6350,0.20505599677562714,-7.803997039794922,-76,9981.0,-19.861543655395508,-427,5564.0
6360,0.20327690243721008,-9.63410758972168,-172,9981.0,-26.061399459838867,-300,5564.0
6370,0.20111560821533203,-13.889547348022461,-228,9981.0,-28.417116165161133,-495,5564.0
6380,0.19965285062789917,-13.641016006469727,-173,9981.0,-24.69771385192871,-374,5564.0
6390,0.1987704038619995,-12.849696159362793,-244,9981.0,-15.824148178100586,-176,5564.0
6400,0.19775570929050446,-14.044443130493164,-316,9981.0,-0.7191780805587769,-43,5564.0
6410,0.19722385704517365,-19.564678192138672,-324,9981.0,14.12515640258789,258,5564.0
6420,0.196452334523201,-10.213534355163574,-111,9981.0,28.31209945678711,735,5564.0
6430,0.19518300890922546,3.727205991744995,97,9981.0,41.219566345214844,756,5564.0
6440,0.19437852501869202,15.158783912658691,368,9981.0,48.48634338378906,819,5564.0
6450,0.1942117065191269,23.216636657714844,375,9981.0,50.27805709838867,793,5564.0
6460,0.193255215883255,26.150562286376953,448,9981.0,46.318180084228516,582,5564.0
6470,0.19231335818767548,22.514192581176758,306,9981.0,39.19684600830078,673,5564.0
6480,0.1921338140964508,15.705852508544922,173,9981.0,27.513315200805664,356,5564.0
6490,0.19148997962474823,4.055161952972412,127,9981.0,9.354472160339355,2,5564.0
6500,0.1906147003173828,-4.653400897979736,-110,9981.0,-14.39581298828125,-220,5564.0
6510,0.18962596356868744,-11.73646068572998,-239,9981.0,-29.17136001586914,-634,5564.0
6520,0.1872936636209488,-15.082087516784668,-192,9981.0,-37.553382873535156,-656,5564.0
6530,0.1864003688097,-14.574135780334473,-305,9981.0,-34.585693359375,-476,5564.0
6540,0.1861056387424469,-13.507587432861328,-255,9981.0,-23.720014572143555,-397,5564.0
6550,0.18544180691242218,-15.96526050567627,-214,9981.0,-12.127496719360352,-201,5564.0
6560,0.17987240850925446,-14.223103523254395,-312,9981.0,-2.4125797748565674,42,5564.0
6570,0.17999903857707977,-16.27668571472168,-294,9981.0,4.0820393562316895,16,5564.0
6580,0.17915043234825134,-16.15863609313965,-215,9981.0,5.672341823577881,178,5564.0
6590,0.17841778695583344,-12.074654579162598,-260,9981.0,15.77436351776123,300,5564.0
6600,0.17799539864063263,-9.748475074768066,-135,9981.0,21.09272575378418,357,5564.0
6610,0.17497435212135315,-7.98633337020874,-179,9981.0,26.658489227294922,522,5564.0
6620,0.1750848889350891,-7.700071334838867,-31,9981.0,28.58529281616211,475,5564.0
6630,0.1740470826625824,-2.7212913036346436,-36,9981.0,28.670928955078125,517,5564.0
6640,0.1737554371356964,2.9163591861724854,183,9981.0,21.957487106323242,346,5564.0
6650,0.17256833612918854,10.545012474060059,94,9981.0,10.806977272033691,176,5564.0
6660,0.17159372568130493,12.193994522094727,233,9981.0,0.12297289818525314,-34,5564.0
6670,0.17064912617206573,16.255550384521484,179,9981.0,-7.5713114738464355,-117,5564.0
6680,0.16984379291534424,15.879103660583496,365,9981.0,-12.162349700927734,-190,5564.0
6690,0.16908393800258636,17.100542068481445,226,9981.0,-11.895232200622559,-70,5564.0
6700,0.16780027747154236,14.613442420959473,304,9981.0,-10.941143989562988,-186,5564.0
6710,0.16651900112628937,15.821273803710938,272,9981.0,-8.328529357910156,-17,5564.0
6720,0.1651560366153717,12.560341835021973,185,9981.0,-3.8407044410705566,-116,5564.0
6730,0.16516399383544922,8.025975227355957,211,9981.0,0.47950589656829834,31,5564.0
6740,0.16547562181949615,4.853346347808838,-5,9981.0,2.8061156272888184,137,5564.0
6750,0.16542665660381317,1.5567448139190674,37,9981.0,7.835229396820068,-50,5564.0
6760,0.16443957388401031,-2.256613254547119,-17,9981.0,7.272065162658691,151,5564.0
6770,0.16396889090538025,-4.3257293701171875,-148,9981.0,9.178543090820312,151,5564.0
6780,0.1617276966571808,-6.47804069519043,-92,9981.0,10.980319023132324,228,5564.0
6790,0.16059710085391998,-10.4940824508667,-227,9981.0,13.662009239196777,237,5564.0
6800,0.15946628153324127,-13.029746055603027,-183,9981.0,15.849778175354004,157,5564.0
6810,0.1577518731355667,-13.986270904541016,-202,9981.0,14.280679702758789,276,5564.0
6820,0.15625934302806854,-12.335457801818848,-215,9981.0,12.304715156555176,99,5564.0
6830,0.15531891584396362,-7.223982810974121,-121,9981.0,6.673523426055908,183,5564.0
6840,0.15411503612995148,-1.5640889406204224,-65,9981.0,1.6876912117004395,-20,5564.0
6850,0.1517213135957718,2.7106499671936035,80,9981.0,-3.9779140949249268,59,5564.0
6860,0.15000158548355103,5.109577655792236,119,9981.0,-8.166909217834473,-185,5564.0
6870,0.150321364402771,8.876072883605957,178,9981.0,-9.281355857849121,-50,5564.0
6880,0.14955264329910278,10.80838394165039,163,9981.0,-7.865495681762695,-244,5564.0
6890,0.14749082922935486,9.300199508666992,249,9981.0,-2.888139009475708,-20,5564.0
6900,0.14595293998718262,11.55972957611084,88,9981.0,1.0107086896896362,110,5564.0
6910,0.14580442011356354,9.50632095336914,216,9981.0,7.276075839996338,135,5564.0
6920,0.14451411366462708,5.042027473449707,64,9981.0,9.995378494262695,297,5564.0
6930,0.14225278794765472,2.6063575744628906,-9,9981.0,10.229179382324219,136,5564.0
6940,0.14330407977104187,-2.0190463066101074,-58,9981.0,10.706199645996094,227,5564.0
6950,0.1423516869544983,-5.538115501403809,-191,9981.0,10.021611213684082,111,5564.0
6960,0.14405721426010132,-10.509600639343262,-162,9981.0,9.996088981628418,213,5564.0
6970,0.1423293501138687,-15.842081069946289,-325,9981.0,7.655232906341553,211,5564.0
6980,0.14233890175819397,-18.83917999267578,-223,9981.0,6.435580730438232,64,5564.0
6990,0.1407679319381714,-20.083595275878906,-335,9981.0,6.440940856933594,181,5564.0
7000,0.1444423496723175,-17.618711471557617,-211,9981.0,4.214409828186035,-40,5564.0
7010,0.14187446236610413,-14.008289337158203,-179,9981.0,1.028582215309143,39,5564.0
7020,0.14362084865570068,-9.131400108337402,-65,9981.0,-0.8450248837471008,-91,5564.0
7030,0.1426025778055191,-7.037113189697266,-46,9981.0,-2.7646288871765137,-50,5564.0
7040,0.1420423537492752,-3.6592965126037598,-124,9981.0,-3.4836816787719727,11,5564.0
7050,0.147243469953537,-0.6591339111328125,59,9981.0,-1.0068881511688232,-40,5564.0
7060,0.14641843736171722,1.1079418659210205,-29,9981.0,0.2491363137960434,129,5564.0
7070,0.14608509838581085,0.8180320262908936,28,9981.0,5.35568904876709,-30,5564.0
7080,0.14642928540706635,-1.8481334447860718,52,9981.0,7.3994221687316895,117,5564.0
7090,0.1454240381717682,-1.5813597440719604,-82,9981.0,11.777754783630371,120,5564.0
7100,0.14513537287712097,-2.6927647590637207,-37,9981.0,11.590862274169922,129,5564.0
7110,0.1453702598810196,-3.7361793518066406,-67,9981.0,8.90987777709961,166,5564.0
7120,0.14710593223571777,-3.280819892883301,-95,9981.0,10.417415618896484,57,5564.0
7130,0.144916370511055,-1.6750742197036743,8,9981.0,7.227986812591553,96,5564.0
7140,0.14508076012134552,-0.7674040198326111,-77,9981.0,6.3756890296936035,160,5564.0
7150,0.146037295460701,-1.4345781803131104,-36,9981.0,4.546992778778076,3,5564.0
7160,0.14624063670635223,-3.4076786041259766,-12,9981.0,1.9988197088241577,108,5564.0
7170,0.14607186615467072,-5.569437503814697,-134,9981.0,1.1913460493087769,137,5564.0
7180,0.1418980062007904,-7.922741889953613,-109,9981.0,3.221179485321045,-1,5564.0
7190,0.14244814217090607,-7.368008136749268,-58,9981.0,3.125746965408325,114,5564.0
7200,0.14293283224105835,-6.7234673500061035,-119,9981.0,3.084113597869873,134,5564.0
7210,0.1425762176513672,-3.9073526859283447,-17,9981.0,5.39609956741333,-74,5564.0
7220,0.13950160145759583,-1.1827231645584106,48,9981.0,5.505801200866699,33,5564.0
7230,0.1396416574716568,1.3021501302719116,-67,9981.0,4.859264373779297,161,5564.0
7240,0.13975656032562256,-0.7913554906845093,-27,9981.0,7.136660575866699,55,5564.0
7250,0.13948023319244385,-4.025687217712402,10,9981.0,6.648345470428467,117,5564.0
7260,0.13729208707809448,-3.7474894523620605,-99,9981.0,3.4844751358032227,176,5564.0
7270,0.13745586574077606,-3.668586015701294,-92,9981.0,0.6123606562614441,14,5564.0
7280,0.13757486641407013,-2.675908088684082,-16,9981.0,-0.46826279163360596,71,5564.0
7290,0.13711139559745789,-2.9631338119506836,-82,9981.0,0.6323627829551697,88,5564.0
7300,0.136140376329422,-4.657954216003418,-60,9981.0,-0.2976316809654236,-34,5564.0
7310,0.13515976071357727,-3.685380458831787,-31,9981.0,-0.29729703068733215,145,5564.0
7320,0.13501308858394623,-0.13420356810092926,-36,9981.0,0.39775025844573975,36,5564.0
7330,0.1346161961555481,3.0187978744506836,124,9981.0,2.5520365238189697,31,5564.0
7340,0.13439862430095673,7.082036972045898,77,9981.0,4.555468559265137,194,5564.0
7350,0.13271281123161316,7.7495341300964355,105,9981.0,7.416470050811768,56,5564.0
7360,0.13189642131328583,6.590799808502197,129,9981.0,5.555249214172363,157,5564.0
7370,0.1329406499862671,3.087251901626587,-36,9981.0,6.764095306396484,80,5564.0
7380,0.13501770794391632,-4.541620254516602,-50,9981.0,4.9747185707092285,5,5564.0
7390,0.13552218675613403,-9.735438346862793,-196,9981.0,1.0812759399414062,25,5564.0
7400,0.13564248383045197,-11.705927848815918,-160,9981.0,-2.9152956008911133,-209,5564.0
7410,0.13563188910484314,-13.937005996704102,-211,9981.0,-5.205125331878662,-53,5564.0
7420,0.13475823402404785,-14.506257057189941,-228,9981.0,-6.769775867462158,-254,5564.0
7430,0.13668736815452576,-9.845595359802246,-120,9981.0,-12.931406021118164,-140,5564.0
7440,0.13645491003990173,-3.9762368202209473,-94,9981.0,-11.557197570800781,-256,5564.0
7450,0.13643233478069305,0.5048293471336365,46,9981.0,-11.90954875946045,-130,5564.0
7460,0.13598401844501495,3.3599517345428467,-4,9981.0,-8.693551063537598,-137,5564.0
7470,0.13719429075717926,4.271426677703857,130,9981.0,-6.207571506500244,-110,5564.0
7480,0.1345549374818802,6.209339618682861,7,9981.0,-2.283959150314331,7,5564.0
7490,0.13445279002189636,6.451038360595703,145,9981.0,0.5453491806983948,-21,5564.0
7500,0.13447147607803345,4.782899379730225,58,9981.0,2.538114547729492,181,5564.0
7510,0.13513414561748505,4.378053188323975,70,9981.0,6.5680060386657715,92,5564.0
7520,0.13509638607501984,5.099323272705078,100,9981.0,13.365910530090332,307,5564.0
7530,0.1345134824514389,7.7202043533325195,96,9981.0,13.209858894348145,150,5564.0
7540,0.13545075058937073,12.420170783996582,275,9981.0,8.12779426574707,115,5564.0
7550,0.13521812856197357,14.646273612976074,202,9981.0,2.347820520401001,1,5564.0
7560,0.13576555252075195,18.025554656982422,368,9981.0,-0.4758557677268982,-61,5564.0
7570,0.13484497368335724,18.22569465637207,214,9981.0,-3.9821131229400635,-14,5564.0
7580,0.13424596190452576,14.101181030273438,188,9981.0,-9.800165176391602,-262,5564.0
7590,0.1341276466846466,6.740532398223877,-2,9981.0,-12.203744888305664,-131,5564.0
7600,0.1348036229610443,-2.8204662799835205,-160,9981.0,-9.806524276733398,-145,5564.0
7610,0.13439205288887024,-10.258195877075195,-175,9981.0,-2.2429165840148926,-71,5564.0
7620,0.13389848172664642,-16.782325744628906,-367,9981.0,1.6844611167907715,117,5564.0
7630,0.13357582688331604,-18.7004337310791,-251,9981.0,6.8968634605407715,-2,5564.0
7640,0.1330624520778656,-16.586610794067383,-228,9981.0,7.424232006072998,171,5564.0
7650,0.13606104254722595,-12.283246994018555,-127,9981.0,7.156595230102539,33,5564.0
7660,0.13313424587249756,-5.780472278594971,-30,9981.0,1.439501166343689,113,5564.0
7670,0.1364613175392151,-1.024793267250061,-11,9981.0,-1.9672061204910278,-151,5564.0
7680,0.13676658272743225,1.4432717561721802,97,9981.0,-7.316598415374756,-54,5564.0
7690,0.13721396028995514,3.5233545303344727,5,9981.0,-8.885331153869629,-261,5564.0
7700,0.13752880692481995,-0.7790620923042297,-25,9981.0,-9.732192993164062,-59,5564.0
7710,0.13617382943630219,-5.431039333343506,-201,9981.0,-4.663966655731201,-150,5564.0
7720,0.13664358854293823,-13.27016544342041,-257,9981.0,-0.48285800218582153,110,5564.0
7730,0.13685564696788788,-17.343339920043945,-314,9981.0,5.958430767059326,-9,5564.0
7740,0.1364520639181137,-17.297208786010742,-252,9981.0,10.032755851745605,262,5564.0
7750,0.13550929725170135,-13.874079704284668,-200,9981.0,7.0960774421691895,75,5564.0
7760,0.13696949183940887,-9.596678733825684,-159,9981.0,2.7403981685638428,103,5564.0
7770,0.13743814826011658,-2.0576672554016113,44,9981.0,-1.9601682424545288,-67,5564.0
7780,0.13788925111293793,7.195932388305664,69,9981.0,-10.232368469238281,-242,5564.0
7790,0.13554714620113373,12.68964958190918,296,9981.0,-21.253192901611328,-312,5564.0
7800,0.1356073021888733,20.363731384277344,299,9981.0,-23.08358383178711,-444,5564.0
7810,0.13572677969932556,22.33243751525879,425,9981.0,-21.452272415161133,-202,5564.0
7820,0.13558204472064972,23.665904998779297,310,9981.0,-13.121983528137207,-250,5564.0
7830,0.13645915687084198,22.862186431884766,383,9981.0,-2.719203472137451,54,5564.0
7840,0.13482588529586792,17.989587783813477,225,9981.0,7.255577564239502,82,5564.0
7850,0.13514605164527893,14.022588729858398,230,9981.0,15.448524475097656,309,5564.0
7860,0.13408257067203522,10.653100967407227,120,9981.0,19.951475143432617,297,5564.0
7870,0.1515732705593109,8.425278663635254,173,9981.0,22.121767044067383,374,5564.0
7880,0.1465817242860794,5.458004474639893,14,9981.0,21.78165054321289,207,5564.0
7890,0.14753316342830658,5.971614837646484,101,9981.0,18.728092193603516,380,5564.0
7900,0.1484735906124115,5.283937931060791,52,9981.0,13.042462348937988,163,5564.0
7910,0.15086109936237335,7.572185516357422,153,9981.0,6.482483863830566,204,5564.0
7920,0.1474786400794983,11.441951751708984,244,9981.0,-0.8724555969238281,-79,5564.0
7930,0.14852803945541382,14.183501243591309,169,9981.0,-7.467052936553955,-76,5564.0
7940,0.14919430017471313,11.433011054992676,234,9981.0,-11.08521842956543,-317,5564.0
7950,0.14955569803714752,9.03031063079834,88,9981.0,-15.101475715637207,-249,5564.0
7960,0.15016667544841766,2.6525511741638184,72,9981.0,-15.713754653930664,-309,5564.0
7970,0.1456715315580368,-3.99343204498291,-93,9981.0,-13.689825057983398,-58,5564.0
7980,0.14594857394695282,-10.019450187683105,-171,9981.0,-6.857665538787842,-145,5564.0
7990,0.1475203037261963,-11.18909740447998,-216,9981.0,-0.7545250654220581,110,5564.0
8000,0.14777185022830963,-11.26540470123291,-176,9981.0,2.933410406112671,-55,5564.0
8010,0.1461251825094223,-8.463829040527344,-108,9981.0,3.410780668258667,147,5564.0
8020,0.14619164168834686,-3.833045721054077,-50,9981.0,4.651852130889893,3,5564.0
8030,0.14630042016506195,0.5712735652923584,47,9981.0,3.418651819229126,182,5564.0
8040,0.1464480459690094,4.436270236968994,118,9981.0,2.096418619155884,-14,5564.0
8050,0.1467130333185196,8.09339714050293,54,9981.0,2.351036548614502,47,5564.0
8060,0.14671161770820618,10.28901195526123,245,9981.0,4.656712055206299,57,5564.0
8070,0.14686504006385803,11.655198097229004,163,9981.0,9.66266918182373,199,5564.0
8080,0.1479453295469284,9.947648048400879,266,9981.0,13.782561302185059,231,5564.0
8090,0.1481889933347702,13.663885116577148,170,9981.0,11.430133819580078,145,5564.0
8100,0.14975860714912415,16.740652084350586,367,9981.0,4.37540340423584,108,5564.0
8110,0.15014128386974335,21.018781661987305,314,9981.0,-3.2409517765045166,-68,5564.0
8120,0.15100567042827606,20.256542205810547,359,9981.0,-9.290109634399414,-65,5564.0
8130,0.15153074264526367,17.77475357055664,252,9981.0,-12.5860013961792,-242,5564.0
8140,0.150751993060112,10.855091094970703,205,9981.0,-13.253401756286621,-131,5564.0
8150,0.15093401074409485,2.8643012046813965,-68,9981.0,-8.280749320983887,-128,5564.0
8160,0.1510716825723648,-8.260605812072754,-121,9981.0,-4.1901044845581055,-28,5564.0
8170,0.1513327956199646,-15.901342391967773,-364,9981.0,0.37171661853790283,18,5564.0
8180,0.15159843862056732,-19.7188663482666,-273,9981.0,4.544256687164307,153,5564.0
8190,0.15016509592533112,-20.74258804321289,-317,9981.0,6.027368068695068,40,5564.0
8200,0.15022580325603485,-16.700822830200195,-208,9981.0,4.489332675933838,105,5564.0
8210,0.15096887946128845,-8.77413272857666,-151,9981.0,-0.0024212056305259466,-69,5564.0
8220,0.15095970034599304,-5.562351226806641,-148,9981.0,-3.759632110595703,-33,5564.0
8230,0.15245628356933594,-2.2570557594299316,4,9981.0,0.38103437423706055,-28,5564.0
8240,0.15294139087200165,-2.9224517345428467,-137,9981.0,1.1197253465652466,-26,5564.0
8250,0.1534564346075058,-4.327127456665039,-72,9981.0,2.469895362854004,115,5564.0
8260,0.15398509800434113,-1.1306122541427612,4,9981.0,4.327485084533691,5,5564.0
8270,0.15472066402435303,4.5968241691589355,93,9981.0,5.635519981384277,147,5564.0
8280,0.15672960877418518,10.308506965637207,195,9981.0,6.5677103996276855,-14,5564.0
8290,0.15730634331703186,10.525279998779297,163,9981.0,7.4203386306762695,111,5564.0
8300,0.1578168421983719,10.073104858398438,105,9981.0,9.27296257019043,9,5564.0
8310,0.15816998481750488,7.020069599151611,104,9981.0,2.4463093280792236,178,5564.0
8320,0.16112752258777618,0.6270837187767029,10,9981.0,-0.25620925426483154,-129,5564.0
8330,0.1619996279478073,-5.590300559997559,-149,9981.0,-2.895317554473877,22,5564.0
8340,0.16299663484096527,-9.66611385345459,-157,9981.0,-3.570678472518921,-141,5564.0
8350,0.16382023692131042,-10.1375093460083,-234,9981.0,-6.282688617706299,-57,5564.0
8360,0.1642036885023117,-10.996026992797852,-141,9981.0,-5.616441249847412,-194,5564.0
8370,0.16480903327465057,-10.703142166137695,-204,9981.0,-6.773316860198975,-215,5564.0
8380,0.16597500443458557,-9.376021385192871,-82,9981.0,-5.527678966522217,-62,5564.0
8390,0.16634219884872437,-6.88823938369751,-146,9981.0,-1.3204988241195679,-143,5564.0
8400,0.1695052832365036,-4.134146690368652,-41,9981.0,3.0460689067840576,179,5564.0
8410,0.16928613185882568,-5.918802738189697,-63,9981.0,5.638119697570801,9,5564.0
8420,0.17448799312114716,-1.8315433263778687,25,9981.0,10.063969612121582,320,5564.0
8430,0.17881207168102264,3.964232921600342,144,9981.0,22.182907104492188,357,5564.0
8440,0.18015332520008087,5.12198543548584,55,9981.0,32.37132263183594,605,5564.0
8450,0.1791052222251892,2.6432735919952393,67,9981.0,33.75365447998047,534,5564.0
8460,0.18070144951343536,-0.3275316059589386,-71,9981.0,30.565221786499023,406,5564.0
8470,0.18146458268165588,0.6109695434570312,46,9981.0,22.973018646240234,385,5564.0
8480,0.18205603957176208,0.6374629735946655,101,9981.0,9.521458625793457,61,5564.0
8490,0.18397027254104614,3.2541701793670654,48,9981.0,-0.23831835389137268,-32,5564.0
8500,0.1831277310848236,7.7319722175598145,228,9981.0,-13.874970436096191,-211,5564.0
8510,0.18393447995185852,16.68177032470703,244,9981.0,-26.070865631103516,-590,5564.0
8520,0.18426798284053802,16.497478485107422,229,9981.0,-33.597450256347656,-522,5564.0
8530,0.18502120673656464,5.003265857696533,69,9981.0,-32.635276794433594,-608,5564.0
8540,0.18429721891880035,-7.222243309020996,-224,9981.0,-31.27344512939453,-429,5564.0
8550,0.18513165414333344,-16.116451263427734,-233,9981.0,-23.575355529785156,-426,5564.0
8560,0.1848849356174469,-18.844167709350586,-416,9981.0,-18.812986373901367,-252,5564.0
8570,0.18561679124832153,-18.899248123168945,-270,9981.0,-10.184555053710938,-142,5564.0
8580,0.18572020530700684,-18.35495376586914,-289,9981.0,0.870846152305603,-46,5564.0
8590,0.18647027015686035,-14.625271797180176,-155,9981.0,9.629902839660645,302,5564.0
8600,0.18656416237354279,-9.228314399719238,-42,9981.0,18.050222396850586,333,5564.0
8610,0.18740805983543396,-6.844644546508789,-122,9981.0,27.855316162109375,402,5564.0
8620,0.188571959733963,-0.8098181486129761,110,9981.0,26.30988883972168,496,5564.0
8630,0.18546132743358612,11.315696716308594,296,9981.0,18.749588012695312,246,5564.0
8640,0.18605540692806244,24.240983963012695,356,9981.0,6.872608661651611,-64,5564.0
8650,0.1861799955368042,32.400455474853516,482,9981.0,-10.024344444274902,-205,5564.0
8660,0.18629027903079987,32.61479568481445,606,9981.0,-16.415233612060547,-321,5564.0
8670,0.1851808726787567,27.156410217285156,326,9981.0,-21.62645721435547,-381,5564.0
8680,0.18443948030471802,17.31857681274414,274,9981.0,-18.39846420288086,-138,5564.0
8690,0.18536792695522308,2.3605353832244873,-13,9981.0,-11.385204315185547,-301,5564.0
8700,0.18522843718528748,-9.920881271362305,-196,9981.0,-5.524839878082275,-30,5564.0
8710,0.1855839639902115,-19.069786071777344,-336,9981.0,-0.7077404856681824,-136,5564.0
8720,0.1850532442331314,-23.685089111328125,-411,9981.0,-1.109318733215332,-3,5564.0
8730,0.18531392514705658,-22.61239242553711,-270,9981.0,-7.336053371429443,-126,5564.0
8740,0.1851031333208084,-16.593170166015625,-277,9981.0,-11.497132301330566,-244,5564.0
8750,0.1866624504327774,-9.808435440063477,-78,9981.0,-11.07807445526123,-152,5564.0
8760,0.18629680573940277,-3.6249868869781494,23,9981.0,-10.39862060546875,-245,5564.0
8770,0.18629680573940277,-0.017843354493379593,-116,9981.0,-4.615387439727783,-47,5564.0
8780,0.18672502040863037,-2.093041181564331,54,9981.0,3.0047976970672607,143,5564.0
8790,0.18748828768730164,-2.700493574142456,-126,9981.0,10.398153305053711,162,5564.0
8800,0.1882408857345581,-6.083711624145508,-143,9981.0,16.812925338745117,400,5564.0
8810,0.18888413906097412,-1.8971027135849,84,9981.0,18.181095123291016,212,5564.0
8820,0.18953509628772736,7.915291786193848,124,9981.0,17.101545333862305,82,5564.0
8830,0.19070129096508026,10.931679725646973,180,9981.0,11.69562816619873,305,5564.0
8840,0.19143515825271606,10.210267066955566,210,9981.0,11.425671577453613,152,5564.0
8850,0.1917361617088318,8.993132591247559,151,9981.0,7.888529300689697,-20,5564.0
8860,0.1925334632396698,10.458783149719238,251,9981.0,1.6269738674163818,51,5564.0
8870,0.19344483315944672,13.952314376831055,323,9981.0,-2.472257614135742,-137,5564.0
8880,0.1944558471441269,16.542509078979492,145,9981.0,-6.075533390045166,-52,5564.0
8890,0.1975201517343521,11.312110900878906,242,9981.0,-6.689585208892822,-64,5564.0
8900,0.19850166141986847,6.786198616027832,53,9981.0,-10.085817337036133,-226,5564.0
8910,0.2005215734243393,2.1353046894073486,48,9981.0,-11.947554588317871,-164,5564.0
8920,0.202249214053154,-2.612478733062744,-189,9981.0,-8.963961601257324,-159,5564.0
8930,0.20392349362373352,-7.673285007476807,-105,9981.0,-0.955298900604248,131,5564.0
8940,0.2043185979127884,-5.2671284675598145,-165,9981.0,8.751923561096191,177,5564.0
8950,0.20583871006965637,-2.409841299057007,107,9981.0,22.381860733032227,564,5564.0
8960,0.20719660818576813,4.307399272918701,87,9981.0,32.85548782348633,544,5564.0
8970,0.20827095210552216,12.459054946899414,276,9981.0,34.928871154785156,564,5564.0
8980,0.211078479886055,15.358638763427734,186,9981.0,29.060596466064453,361,5564.0
8990,0.21339452266693115,16.614322662353516,287,9981.0,17.318490982055664,383,5564.0
9000,0.21486297249794006,13.301565170288086,199,9981.0,8.422085762023926,-24,5564.0
9010,0.21624891459941864,7.164523124694824,62,9981.0,-3.964529037475586,-90,5564.0
9020,0.21881556510925293,-0.7845197319984436,-4,9981.0,-9.53671646118164,-240,5564.0
9030,0.2200746089220047,-6.590465545654297,-166,9981.0,-17.427108764648438,-261,5564.0
9040,0.22138530015945435,-12.675461769104004,-175,9981.0,-27.117021560668945,-558,5564.0
9050,0.22239232063293457,-17.273473739624023,-343,9981.0,-33.933021545410156,-449,5564.0
9060,0.2234204262495041,-21.987382888793945,-353,9981.0,-36.73101043701172,-689,5564.0
9070,0.2208109200000763,-21.17906379699707,-354,9981.0,-34.366249084472656,-489,5564.0
9080,0.22166772186756134,-20.540998458862305,-380,9981.0,-27.26410484313965,-480,5564.0
9090,0.2224225252866745,-18.526079177856445,-245,9981.0,-13.771883010864258,-97,5564.0
9100,0.22379295527935028,-17.2607421875,-323,9981.0,1.6063768863677979,101,5564.0
9110,0.22872786223888397,-11.724130630493164,-145,9981.0,20.572118759155273,416,5564.0
9120,0.23002579808235168,-2.172560930252075,-73,9981.0,37.51202392578125,617,5564.0
9130,0.23130860924720764,-0.5536723732948303,13,9981.0,41.05072784423828,714,5564.0
9140,0.2322896271944046,-7.138523101806641,-231,9981.0,40.560577392578125,573,5564.0
9150,0.2294149100780487,-15.884934425354004,-267,9981.0,29.361783981323242,477,5564.0
9160,0.23007728159427643,-16.897499084472656,-200,9981.0,9.384073257446289,-2,5564.0
9170,0.2310316562652588,-3.1800403594970703,-86,9981.0,-9.576197624206543,-204,5564.0
9180,0.23198437690734863,11.30102252960205,333,9981.0,-25.011240005493164,-374,5564.0
9190,0.23283226788043976,26.239471435546875,451,9981.0,-36.646270751953125,-758,5564.0
9200,0.23483775556087494,28.74509048461914,393,9981.0,-36.14076614379883,-553,5564.0
9210,0.235466867685318,20.51095199584961,386,9981.0,-29.948198318481445,-418,5564.0
9220,0.23642964661121368,7.439516544342041,40,9981.0,-20.75631332397461,-312,5564.0
9230,0.23707261681556702,-2.472888469696045,-35,9981.0,-10.899888038635254,-155,5564.0
9240,0.23510514199733734,-8.647202491760254,-178,9981.0,-1.4043549299240112,-69,5564.0
9250,0.2354285717010498,-8.527129173278809,-129,9981.0,7.213382244110107,211,5564.0
9260,0.23575328290462494,-7.624443054199219,-136,9981.0,17.648099899291992,254,5564.0
9270,0.23615187406539917,-4.857364654541016,-60,9981.0,21.6502628326416,460,5564.0
9280,0.23582877218723297,-3.545807361602783,0,9981.0,24.990440368652344,293,5564.0
9290,0.23640334606170654,-0.68460613489151,-18,9981.0,26.054471969604492,295,5564.0
9300,0.23742185533046722,10.876919746398926,304,9981.0,24.450048446655273,437,5564.0
9310,0.2383149415254593,22.779067993164062,475,9981.0,11.282502174377441,198,5564.0
9320,0.23966670036315918,21.08721160888672,311,9981.0,2.0410726070404053,-154,5564.0
9330,0.2390999048948288,18.479171752929688,348,9981.0,-9.374330520629883,-105,5564.0
9340,0.23967353999614716,16.40549087524414,304,9981.0,-20.48296356201172,-441,5564.0
9350,0.24006648361682892,8.753958702087402,-64,9981.0,-22.890499114990234,-371,5564.0
9360,0.24096587300300598,-6.007173538208008,-60,9981.0,-23.39958953857422,-308,5564.0
9370,0.24180370569229126,-16.917919158935547,-377,9981.0,-21.807415008544922,-495,5564.0
9380,0.24230150878429413,-23.86655616760254,-380,9981.0,-18.8358211517334,-136,5564.0
9390,0.24313156306743622,-24.604623794555664,-343,9981.0,-8.734190940856934,-207,5564.0
9400,0.2436794638633728,-15.37677001953125,-228,9981.0,2.3324785232543945,103,5564.0
9410,0.24257953464984894,-7.542990684509277,-19,9981.0,9.915719032287598,154,5564.0
9420,0.2431091070175171,2.8380684852600098,16,9981.0,14.626113891601562,232,5564.0
9430,0.24370309710502625,8.86630916595459,222,9981.0,14.058533668518066,374,5564.0
9440,0.2443607747554779,13.295525550842285,252,9981.0,14.563156127929688,171,5564.0
9450,0.2451535165309906,14.745563507080078,219,9981.0,15.580451011657715,287,5564.0
9460,0.2471458911895752,17.423370361328125,336,9981.0,24.489654541015625,548,5564.0
9470,0.24766524136066437,16.11836814880371,258,9981.0,31.154298782348633,463,5564.0
9480,0.24863602221012115,5.621662139892578,-51,9981.0,25.350675582885742,255,5564.0
9490,0.25039952993392944,-7.148919582366943,-153,9981.0,10.805461883544922,136,5564.0
9500,0.251706600189209,-13.442999839782715,-177,9981.0,-2.3536834716796875,-165,5564.0
9510,0.25313982367515564,-15.087836265563965,-320,9981.0,-19.893722534179688,-567,5564.0
9520,0.2543187737464905,-13.417351722717285,-159,9981.0,-28.398616790771484,-429,5564.0
9530,0.25534912943840027,-10.85952377319336,-152,9981.0,-29.363346099853516,-556,5564.0
9540,0.2562592923641205,-12.001163482666016,-264,9981.0,-28.849538803100586,-561,5564.0
9550,0.25746598839759827,-13.194705963134766,-171,9981.0,-26.391674041748047,-332,5564.0
9560,0.2584250867366791,-12.923736572265625,-132,9981.0,-26.731033325195312,-518,5564.0
9570,0.259428471326828,-6.659262657165527,-130,9981.0,-26.675661087036133,-422,5564.0
9580,0.2602938413619995,3.5268173217773438,152,9981.0,-25.977970123291016,-356,5564.0
9590,0.26121851801872253,13.661312103271484,181,9981.0,-25.522573471069336,-443,5564.0
9600,0.262547105550766,17.290510177612305,380,9981.0,-15.27692699432373,-126,5564.0
9610,0.2638527452945709,17.041471481323242,178,9981.0,-1.828904390335083,21,5564.0
9620,0.2653084099292755,0.9250248074531555,-56,9981.0,11.535856246948242,372,5564.0
9630,0.26698267459869385,-13.325067520141602,-245,9981.0,37.10679626464844,581,5564.0
9640,0.2686893939971924,-15.399301528930664,-245,9981.0,54.05900192260742,1046,5564.0
9650,0.2703152894973755,-13.07870864868164,-153,9981.0,56.15451431274414,840,5564.0
9660,0.27213022112846375,-3.088745355606079,-18,9981.0,51.16215515136719,688,5564.0
9670,0.2735372483730316,13.062374114990234,214,9981.0,35.336544036865234,586,5564.0
9680,0.27418503165245056,25.13083267211914,514,9981.0,15.193733215332031,284,5564.0
9690,0.2755184769630432,25.5098876953125,383,9981.0,-3.126110553741455,-128,5564.0
9700,0.27698129415512085,11.197113037109375,86,9981.0,-20.665847778320312,-532,5564.0
9710,0.27844396233558655,-1.6724594831466675,-101,9981.0,-35.310394287109375,-564,5564.0
9720,0.28078964352607727,-8.366833686828613,-57,9981.0,-46.23722839355469,-804,5564.0
9730,0.28226789832115173,-7.325430870056152,-113,9981.0,-52.4099235534668,-1018,5564.0
9740,0.2835013270378113,6.080771446228027,171,9981.0,-55.0263671875,-736,5564.0
9750,0.28452152013778687,15.433143615722656,302,9981.0,-40.06507873535156,-634,5564.0
9760,0.28645163774490356,22.231191635131836,258,9981.0,-29.780576705932617,-368,5564.0
9770,0.28777140378952026,19.5447998046875,325,9981.0,-19.93763542175293,-278,5564.0
9780,0.2890574336051941,11.828840255737305,111,9981.0,-11.682759284973145,-47,5564.0
9790,0.29054707288742065,1.5215084552764893,27,9981.0,8.672090530395508,229,5564.0
9800,0.29222533106803894,-7.217875003814697,-248,9981.0,31.9890193939209,601,5564.0
9810,0.29158124327659607,-19.208541870117188,-321,9981.0,47.75064468383789,955,5564.0
9820,0.29298579692840576,-24.44814682006836,-481,9981.0,53.88991165161133,784,5564.0
9830,0.2941957414150238,-25.100025177001953,-385,9981.0,50.459991455078125,734,5564.0
9840,0.2955811023712158,-13.870650291442871,-79,9981.0,38.102413177490234,677,5564.0
9850,0.29809480905532837,1.7604514360427856,116,9981.0,23.086334228515625,239,5564.0
9860,0.2991999387741089,11.56362247467041,128,9981.0,3.4377498626708984,-66,5564.0
9870,0.30021408200263977,8.329944610595703,93,9981.0,-16.30368423461914,-273,5564.0
9880,0.3013184368610382,-2.4972028732299805,-37,9981.0,-38.11213684082031,-601,5564.0
9890,0.3021638095378876,-9.172200202941895,-195,9981.0,-48.090885162353516,-888,5564.0
9900,0.30452442169189453,-11.271272659301758,-200,9981.0,-46.87278747558594,-767,5564.0
9910,0.30550438165664673,-6.31097936630249,-41,9981.0,-36.45840835571289,-570,5564.0
9920,0.3064654767513275,-2.1975202560424805,-62,9981.0,-31.868453979492188,-546,5564.0
9930,0.30758094787597656,-7.401037693023682,-87,9981.0,-29.806114196777344,-414,5564.0
9940,0.30877432227134705,-7.573261737823486,-186,9981.0,-23.540185928344727,-433,5564.0
9950,0.30993393063545227,-3.846799373626709,-8,9981.0,-4.043828010559082,252,5564.0
9960,0.31121957302093506,8.722558975219727,224,9981.0,23.825916290283203,458,5564.0
9970,0.3125627636909485,12.809224128723145,144,9981.0,39.20426940917969,804,5564.0
9980,0.3142407536506653,11.903264999389648,304,9981.0,51.424644470214844,919,5564.0
9990,0.31547272205352783,12.424589157104492,170,9981.0,49.57119369506836,624,5564.0
10000,0.3165227174758911,12.296585083007812,137,9981.0,29.601730346679688,484,5564.0
10010,0.3176904618740082,6.614995956420898,104,9981.0,9.89538288116455,17,5564.0
10020,0.3193540573120117,-1.8592263460159302,-117,9981.0,-11.499336242675781,-353,5564.0
10030,0.32199978828430176,-10.613106727600098,-202,9981.0,-18.14227294921875,-260,5564.0
10040,0.3230985105037689,-15.77940845489502,-184,9981.0,-18.09836769104004,-269,5564.0
10050,0.3240339756011963,-12.72717571258545,-247,9981.0,-18.23491668701172,-431,5564.0
10060,0.32492509484291077,-15.390178680419922,-247,9981.0,-20.446186065673828,-199,5564.0
10070,0.3286780118942261,-17.455787658691406,-278,9981.0,-18.9631404876709,-469,5564.0
10080,0.32980817556381226,-16.55675506591797,-303,9981.0,-21.31147575378418,-241,5564.0
10090,0.33108070492744446,-9.18239688873291,13,9981.0,-20.59001350402832,-345,5564.0
10100,0.33242055773735046,8.61098575592041,95,9981.0,-24.18358039855957,-436,5564.0
10110,0.33399343490600586,12.296357154846191,213,9981.0,-21.009746551513672,-297,5564.0
10120,0.33702579140663147,7.0649189949035645,-1,9981.0,-16.631528854370117,-218,5564.0
10130,0.33858922123908997,2.649730920791626,75,9981.0,-2.4433908462524414,131,5564.0
10140,0.34021317958831787,2.651041030883789,-4,9981.0,11.939148902893066,168,5564.0
10150,0.3418652415275574,1.9247626066207886,58,9981.0,26.582101821899414,611,5564.0
10160,0.3444385230541229,5.869749069213867,201,9981.0,36.339317321777344,521,5564.0
10170,0.34609881043434143,14.79704475402832,191,9981.0,38.329994201660156,666,5564.0
10180,0.34783226251602173,15.26130199432373,322,9981.0,36.99061965942383,621,5564.0
10190,0.34931719303131104,8.876249313354492,121,9981.0,24.372098922729492,267,5564.0
10200,0.3511491119861603,2.6816582679748535,-8,9981.0,7.428016662597656,14,5564.0
10210,0.3525495231151581,0.4744327962398529,124,9981.0,-12.334772109985352,-370,5564.0
10220,0.3536522090435028,3.431262254714966,-7,9981.0,-28.396738052368164,-475,5564.0
10230,0.35489559173583984,1.559075951576233,-31,9981.0,-37.346866607666016,-543,5564.0
10240,0.3562140464782715,-8.063033103942871,-199,9981.0,-34.442081451416016,-650,5564.0
10250,0.35807013511657715,-24.785816192626953,-500,9981.0,-26.61887550354004,-327,5564.0
10260,0.35939276218414307,-29.698604583740234,-536,9981.0,-19.45708656311035,-408,5564.0
10270,0.36066514253616333,-32.83921432495117,-537,9981.0,-17.272506713867188,-175,5564.0
10280,0.3619108200073242,-34.62123107910156,-529,9981.0,-20.213539123535156,-463,5564.0
10290,0.36189717054367065,-27.778057098388672,-486,9981.0,-22.898889541625977,-312,5564.0
10300,0.3639022409915924,-11.167356491088867,-1,9981.0,-9.945596694946289,0,5564.0
10310,0.36538538336753845,12.092974662780762,250,9981.0,-0.6635283827781677,-56,5564.0
10320,0.36676761507987976,31.42915916442871,536,9981.0,7.659407138824463,228,5564.0
10330,0.36828526854515076,40.04509353637695,771,9981.0,16.026020050048828,354,5564.0
10340,0.3694000840187073,40.97758483886719,528,9981.0,30.44658660888672,440,5564.0
10350,0.3704548478126526,31.042390823364258,500,9981.0,38.26046371459961,712,5564.0
10360,0.37167778611183167,20.791614532470703,312,9981.0,34.2894172668457,400,5564.0
10370,0.37267088890075684,8.341755867004395,88,9981.0,8.125219345092773,-66,5564.0
10380,0.3746773898601532,-1.129761815071106,-35,9981.0,-24.60512351989746,-389,5564.0
10390,0.375727117061615,-7.7920379638671875,-153,9981.0,-37.6435432434082,-652,5564.0
10400,0.376753032207489,-17.542692184448242,-399,9981.0,-27.396583557128906,-432,5564.0
10410,0.3778810203075409,-26.599905014038086,-457,9981.0,-11.886456489562988,-86,5564.0
10420,0.37866342067718506,-30.449726104736328,-435,9981.0,-7.998839855194092,-134,5564.0
10430,0.3799624443054199,-23.05402183532715,-389,9981.0,-9.048080444335938,-247,5564.0
10440,0.3813968002796173,-15.460503578186035,-221,9981.0,-15.078981399536133,-214,5564.0
10450,0.38288626074790955,-0.7376893758773804,109,9981.0,-21.452001571655273,-244,5564.0
10460,0.3845960795879364,12.511518478393555,226,9981.0,-19.208354949951172,-346,5564.0
10470,0.38474640250205994,21.34116554260254,287,9981.0,-5.681175231933594,96,5564.0
10480,0.38607606291770935,20.054399490356445,398,9981.0,19.830135345458984,439,5564.0
10490,0.38727161288261414,16.62455940246582,218,9981.0,36.17073440551758,490,5564.0
10500,0.3884884715080261,14.471431732177734,257,9981.0,43.432735443115234,789,5564.0
10510,0.38900354504585266,10.951274871826172,273,9981.0,34.45185470581055,459,5564.0
10520,0.3900090456008911,16.625680923461914,242,9981.0,5.840456008911133,-107,5564.0
10530,0.3909127414226532,17.881023406982422,236,9981.0,-17.667551040649414,-337,5564.0
10540,0.39173683524131775,23.018564224243164,436,9981.0,-28.448835372924805,-339,5564.0
10550,0.3925773501396179,17.234769821166992,146,9981.0,-31.628746032714844,-619,5564.0
10560,0.39537015557289124,-3.415112257003784,-132,9981.0,-28.648590087890625,-345,5564.0
10570,0.39613303542137146,-19.688478469848633,-341,9981.0,-27.207481384277344,-437,5564.0
10580,0.39688247442245483,-24.90743637084961,-452,9981.0,-19.48708724975586,-294,5564.0
10590,0.3976917266845703,-29.13002586364746,-433,9981.0,-6.427653789520264,-40,5564.0
10600,0.39848631620407104,-26.11806297302246,-417,9981.0,1.5364326238632202,-37,5564.0
10610,0.39939945936203003,-12.97448444366455,-134,9981.0,4.656599521636963,179,5564.0
10620,0.4003816843032837,2.738908290863037,100,9981.0,12.975927352905273,220,5564.0
10630,0.4012995958328247,1.3031752109527588,14,9981.0,23.40142059326172,318,5564.0
10640,0.4021419286727905,2.893444538116455,25,9981.0,33.33629608154297,621,5564.0
10650,0.40302368998527527,3.6719226837158203,71,9981.0,33.97822570800781,633,5564.0
10660,0.4038236141204834,4.548738956451416,157,9981.0,33.26956558227539,519,5564.0
10670,0.40483444929122925,16.736303329467773,286,9981.0,30.911663055419922,427,5564.0
10680,0.40552911162376404,25.08660888671875,485,9981.0,20.19057846069336,169,5564.0
10690,0.40859851241111755,41.86000442504883,710,9981.0,-3.1165432929992676,-133,5564.0
10700,0.40934786200523376,48.7780876159668,924,9981.0,-22.65569305419922,-460,5564.0
10710,0.4099971055984497,60.90730285644531,1068,9981.0,-34.85126495361328,-538,5564.0
10720,0.4106491804122925,58.410526275634766,841,9981.0,-42.28659439086914,-824,5564.0
10730,0.4130473732948303,39.416194915771484,583,9981.0,-36.98200607299805,-407,5564.0
10740,0.41382700204849243,21.66067123413086,269,9981.0,-23.516597747802734,-498,5564.0
10750,0.414646714925766,5.940184116363525,54,9981.0,-22.53890037536621,-217,5564.0
10760,0.415799081325531,-6.373810291290283,-163,9981.0,-9.414175033569336,-157,5564.0
10770,0.41657203435897827,-16.004018783569336,-306,9981.0,1.596764326095581,110,5564.0
10780,0.41784313321113586,-26.01593780517578,-466,9981.0,7.1076154708862305,48,5564.0
10790,0.41834259033203125,-38.63429260253906,-710,9981.0,10.253830909729004,278,5564.0
10800,0.41878417134284973,-49.11471939086914,-736,9981.0,8.526317596435547,7,5564.0
10810,0.4192053973674774,-49.32371520996094,-839,9981.0,9.47167682647705,182,5564.0
10820,0.4192684590816498,-48.279884338378906,-765,9981.0,14.686335563659668,380,5564.0
10830,0.41970396041870117,-46.60334014892578,-693,9981.0,22.852869033813477,432,5564.0
10840,0.4204348027706146,-31.951156616210938,-441,9981.0,26.563560485839844,417,5564.0
10850,0.4209401309490204,-8.307326316833496,20,9981.0,23.728639602661133,373,5564.0
10860,0.423318475484848,11.415266990661621,344,9981.0,14.586301803588867,249,5564.0
10870,0.4240795969963074,29.824077606201172,556,9981.0,3.1572604179382324,-105,5564.0
10880,0.42480331659317017,41.23228454589844,777,9981.0,-10.423043251037598,-290,5564.0
10890,0.42548683285713196,55.89435577392578,1019,9981.0,-16.1541748046875,-229,5564.0
10900,0.42608651518821716,62.21955108642578,1033,9981.0,-22.405466079711914,-504,5564.0
10910,0.42866310477256775,65.78396606445312,1078,9981.0,-28.047456741333008,-379,5564.0
10920,0.42960789799690247,54.79621124267578,891,9981.0,-19.02229881286621,-300,5564.0
10930,0.43022626638412476,36.05996322631836,501,9981.0,-2.9183919429779053,96,5564.0
10940,0.4312218427658081,9.014833450317383,7,9981.0,21.70591163635254,361,5564.0
10950,0.43144476413726807,-24.30495834350586,-533,9981.0,38.595272064208984,794,5564.0
10960,0.4319046437740326,-48.72181701660156,-930,9981.0,43.024574279785156,578,5564.0
10970,0.43236538767814636,-68.7143325805664,-1182,9981.0,29.91827964782715,426,5564.0
10980,0.4326384663581848,-76.78005981445312,-1155,9981.0,7.632526874542236,28,5564.0
10990,0.43284866213798523,-69.36740112304688,-1157,9981.0,-5.235351085662842,-210,5564.0
11000,0.4355868995189667,-64.56718444824219,-1108,9981.0,-13.995584487915039,-236,5564.0
11010,0.4357514977455139,-69.49806213378906,-1117,9981.0,-19.850553512573242,-278,5564.0
11020,0.43602895736694336,-69.38066864013672,-1041,9981.0,-26.609006881713867,-402,5564.0
11030,0.4364754259586334,-51.953495025634766,-681,9981.0,-21.66636848449707,-378,5564.0
11040,0.437011182308197,-22.108121871948242,-309,9981.0,-18.438419342041016,-330,5564.0
11050,0.4374827444553375,-1.4905420541763306,61,9981.0,-7.010194778442383,-29,5564.0
11060,0.43810397386550903,13.226733207702637,296,9981.0,11.64993953704834,369,5564.0
11070,0.438894659280777,21.216814041137695,416,9981.0,34.856624603271484,663,5564.0
11080,0.4409841299057007,29.16525650024414,438,9981.0,49.254920959472656,825,5564.0
11090,0.4414516091346741,33.03965759277344,466,9981.0,50.91320037841797,721,5564.0
11100,0.4419114291667938,27.054439544677734,454,9981.0,44.451148986816406,715,5564.0
11110,0.44238078594207764,25.01805877685547,449,9981.0,28.125732421875,517,5564.0
11120,0.442769855260849,30.758928298950195,590,9981.0,20.1976375579834,304,5564.0
11130,0.44239071011543274,37.407772064208984,593,9981.0,7.675891399383545,-32,5564.0
11140,0.44250065088272095,28.52288246154785,459,9981.0,-6.338456630706787,-128,5564.0
11150,0.4426487684249878,16.511682510375977,208,9981.0,-19.959733963012695,-365,5564.0
11160,0.44279009103775024,4.701389312744141,73,9981.0,-41.368534088134766,-782,5564.0
11170,0.4433339238166809,-8.886139869689941,-277,9981.0,-61.68579864501953,-1144,5564.0
11180,0.4432738423347473,-19.116867065429688,-330,9981.0,-67.32228088378906,-900,5564.0
11190,0.4433339834213257,-32.696685791015625,-522,9981.0,-53.55821228027344,-748,5564.0
11200,0.4434451460838318,-43.8293342590332,-873,9981.0,-29.0831298828125,-346,5564.0
11210,0.4432808756828308,-49.1555290222168,-723,9981.0,-1.171256184577942,209,5564.0
11220,0.44361141324043274,-37.74214172363281,-524,9981.0,18.83448028564453,378,5564.0
11230,0.44391515851020813,-20.204084396362305,-321,9981.0,37.07135009765625,643,5564.0
11240,0.444466233253479,-1.1400532722473145,45,9981.0,42.490718841552734,714,5564.0
11250,0.4448537230491638,11.244821548461914,261,9981.0,44.556427001953125,732,5564.0
11260,0.4461327791213989,21.46398162841797,407,9981.0,38.53564453125,735,5564.0
11270,0.44683215022087097,30.35440444946289,548,9981.0,35.62788009643555,618,5564.0
11280,0.4474988877773285,32.10480880737305,489,9981.0,27.941232681274414,403,5564.0
11290,0.4482927620410919,23.32340431213379,340,9981.0,18.940217971801758,291,5564.0
11300,0.4488578140735626,3.516432046890259,-43,9981.0,19.77796745300293,132,5564.0
11310,0.4492958188056946,-12.185235977172852,-192,9981.0,10.766209602355957,58,5564.0
11320,0.44973117113113403,-14.791192054748535,-229,9981.0,-13.762960433959961,-314,5564.0
11330,0.45008811354637146,0.706407368183136,158,9981.0,-45.18926239013672,-752,5564.0
11340,0.450409859418869,17.82965850830078,380,9981.0,-64.27242279052734,-1086,5564.0
11350,0.450043648481369,31.750869750976562,503,9981.0,-68.51020050048828,-1120,5564.0
11360,0.4501093626022339,34.59849548339844,538,9981.0,-52.929996490478516,-724,5564.0
11370,0.4511996805667877,23.17742347717285,315,9981.0,-22.928024291992188,-146,5564.0
11380,0.45170465111732483,14.452249526977539,145,9981.0,1.2920130491256714,70,5564.0
11390,0.45192286372184753,5.629534721374512,-4,9981.0,17.189071655273438,438,5564.0
11400,0.45254912972450256,-8.054043769836426,-162,9981.0,28.097366333007812,459,5564.0
11410,0.4533037543296814,-19.963106155395508,-443,9981.0,27.229475021362305,374,5564.0
11420,0.4540463387966156,-24.206151962280273,-363,9981.0,25.926485061645508,471,5564.0
11430,0.454685777425766,-9.553948402404785,-29,9981.0,18.726579666137695,383,5564.0
11440,0.455369234085083,12.107698440551758,322,9981.0,7.346714019775391,7,5564.0
11450,0.4559378921985626,20.052946090698242,225,9981.0,5.945292949676514,66,5564.0
11460,0.45642584562301636,7.927489757537842,11,9981.0,7.398688316345215,147,5564.0
11470,0.456886351108551,-8.236409187316895,-172,9981.0,7.9681901931762695,275,5564.0
11480,0.4567350149154663,-19.221965789794922,-393,9981.0,12.630606651306152,244,5564.0
11490,0.4569791555404663,-25.88908576965332,-403,9981.0,5.226751804351807,-71,5564.0
11500,0.45721209049224854,-24.003616333007812,-404,9981.0,-16.265039443969727,-453,5564.0
11510,0.4573690593242645,-17.334381103515625,-184,9981.0,-37.26176834106445,-614,5564.0
11520,0.4568934738636017,-6.29081916809082,-68,9981.0,-42.1842041015625,-565,5564.0
11530,0.45694205164909363,-3.6055922508239746,-50,9981.0,-30.89719581604004,-326,5564.0
11540,0.4572202265262604,9.157402992248535,111,9981.0,-6.960840702056885,-27,5564.0
11550,0.45730647444725037,17.39440155029297,344,9981.0,13.603461265563965,387,5564.0
11560,0.4574717581272125,21.341909408569336,430,9981.0,22.600234985351562,361,5564.0
11570,0.4575289785861969,23.892757415771484,381,9981.0,23.882099151611328,312,5564.0
11580,0.4579562544822693,26.499462127685547,418,9981.0,21.540681838989258,359,5564.0
11590,0.45829057693481445,21.886789321899414,368,9981.0,13.4721040725708,320,5564.0
11600,0.4588663578033447,7.655287265777588,44,9981.0,7.596414089202881,-42,5564.0
11610,0.4584082365036011,-6.94280481338501,-192,9981.0,-1.2324955463409424,-131,5564.0
11620,0.45882970094680786,-21.197967529296875,-397,9981.0,-8.601604461669922,-73,5564.0
11630,0.45932310819625854,-24.904747009277344,-395,9981.0,-8.457895278930664,77,5564.0
11640,0.4597594738006592,-21.10928726196289,-367,9981.0,-1.5997213125228882,-91,5564.0
11650,0.45933663845062256,-17.953636169433594,-272,9981.0,4.6338210105896,-27,5564.0
11660,0.4595738649368286,-19.43132209777832,-328,9981.0,2.1366701126098633,-33,5564.0
11670,0.45983612537384033,-24.656475067138672,-461,9981.0,-7.970297813415527,-100,5564.0
11680,0.4601401686668396,-26.0028076171875,-395,9981.0,-13.0912446975708,-209,5564.0
11690,0.4603310227394104,-20.51131820678711,-259,9981.0,-21.43625831604004,-489,5564.0
11700,0.45958447456359863,-1.763452410697937,26,9981.0,-23.117280960083008,-404,5564.0
11710,0.4598909020423889,15.25703239440918,235,9981.0,-21.40977668762207,-338,5564.0
11720,0.4601304829120636,24.826494216918945,416,9981.0,-10.16100025177002,-27,5564.0
11730,0.4604108929634094,24.63481903076172,465,9981.0,4.015190601348877,175,5564.0
11740,0.45770424604415894,36.850669860839844,627,9981.0,6.504730701446533,68,5564.0
11750,0.45801013708114624,41.62019348144531,611,9981.0,10.143658638000488,109,5564.0
11760,0.45833930373191833,31.428930282592773,439,9981.0,14.00302791595459,277,5564.0
11770,0.4588196277618408,20.73044204711914,305,9981.0,18.156078338623047,411,5564.0
11780,0.45959576964378357,3.2579505443573,-96,9981.0,11.019426345825195,90,5564.0
11790,0.45885878801345825,-24.186641693115234,-529,9981.0,2.227881908416748,-9,5564.0
11800,0.45931145548820496,-36.523704528808594,-572,9981.0,-11.709573745727539,-187,5564.0
11810,0.45995140075683594,-32.54891586303711,-464,9981.0,-19.119991302490234,-262,5564.0
11820,0.46042007207870483,-26.384828567504883,-428,9981.0,-17.764942169189453,-290,5564.0
11830,0.4582456648349762,-23.062576293945312,-388,9981.0,-24.605945587158203,-513,5564.0
11840,0.45843157172203064,-18.23069953918457,-328,9981.0,-38.258121490478516,-611,5564.0
11850,0.4586331844329834,-19.966949462890625,-334,9981.0,-45.28192138671875,-679,5564.0
11860,0.4587576389312744,-25.845386505126953,-513,9981.0,-29.35759162902832,-405,5564.0
11870,0.45633161067962646,-27.90976333618164,-406,9981.0,7.10790491104126,266,5564.0
11880,0.45646971464157104,-6.739197731018066,96,9981.0,47.273040771484375,979,5564.0
11890,0.4566521644592285,17.511499404907227,430,9981.0,69.84049987792969,1202,5564.0
11900,0.45686689019203186,29.1029052734375,468,9981.0,60.84375762939453,796,5564.0
11910,0.4577476978302002,33.3101806640625,518,9981.0,29.38979148864746,212,5564.0
11920,0.45686495304107666,30.33063316345215,420,9981.0,-17.259185791015625,-382,5564.0
11930,0.4577140808105469,11.386818885803223,68,9981.0,-44.305625915527344,-721,5564.0
11940,0.4584696888923645,-11.527514457702637,-215,9981.0,-57.803218841552734,-973,5564.0
11950,0.4589804410934448,-25.92457389831543,-511,9981.0,-58.803558349609375,-1021,5564.0
11960,0.45925360918045044,-30.53078269958496,-546,9981.0,-51.84136962890625,-750,5564.0
11970,0.4596691131591797,-28.19426727294922,-378,9981.0,-37.277626037597656,-440,5564.0
11980,0.46002230048179626,-16.682279586791992,-298,9981.0,-22.19821548461914,-298,5564.0
11990,0.46041569113731384,-5.865288257598877,-121,9981.0,0.830145001411438,166,5564.0
12000,0.46064722537994385,7.290994167327881,171,9981.0,28.251760482788086,734,5564.0
12010,0.4600188732147217,16.081222534179688,319,9981.0,34.111507415771484,472,5564.0
12020,0.4601408839225769,22.41799545288086,314,9981.0,13.066378593444824,-37,5564.0
12030,0.46027112007141113,26.268098831176758,455,9981.0,-9.454788208007812,-170,5564.0
12040,0.4603065848350525,26.821245193481445,389,9981.0,-16.270370483398438,-159,5564.0
12050,0.46056491136550903,19.301010131835938,278,9981.0,-6.510096073150635,-49,5564.0
12060,0.4606913626194,4.8617143630981445,-106,9981.0,10.162988662719727,197,5564.0
12070,0.460938960313797,-15.560245513916016,-295,9981.0,30.20430564880371,608,5564.0
12080,0.4612625241279602,-23.90711784362793,-226,9981.0,30.415233612060547,379,5564.0
12090,0.46215808391571045,-19.230213165283203,-339,9981.0,10.96261215209961,-14,5564.0
12100,0.46257999539375305,-15.287068367004395,-204,9981.0,-8.772863388061523,-278,5564.0
12110,0.46303942799568176,-14.047297477722168,-269,9981.0,-27.959030151367188,-622,5564.0
12120,0.4635342061519623,-16.27904510498047,-276,9981.0,-39.437747955322266,-684,5564.0
12130,0.4641825258731842,-19.691267013549805,-358,9981.0,-33.928401947021484,-434,5564.0
12140,0.4652876555919647,-14.527626037597656,-125,9981.0,-17.070335388183594,-122,5564.0
12150,0.46607667207717896,-2.184830665588379,87,9981.0,-2.1491079330444336,33,5564.0
12160,0.46667230129241943,13.620133399963379,317,9981.0,11.26445484161377,244,5564.0
12170,0.4673812985420227,28.569217681884766,514,9981.0,25.382387161254883,511,5564.0
12180,0.467404842376709,40.36179733276367,711,9981.0,31.3413028717041,600,5564.0
12190,0.46776995062828064,48.0733642578125,859,9981.0,24.768566131591797,341,5564.0
12200,0.4682207405567169,47.33066940307617,708,9981.0,16.16504669189453,66,5564.0
12210,0.4683230519294739,37.05524826049805,539,9981.0,-1.3573848009109497,-6,5564.0
12220,0.4683517813682556,21.057994842529297,263,9981.0,-9.09751033782959,-70,5564.0
12230,0.4697157144546509,-5.097924709320068,-250,9981.0,2.2604777812957764,53,5564.0
12240,0.469807893037796,-30.17667579650879,-686,9981.0,9.098299026489258,204,5564.0
12250,0.46982482075691223,-47.40750503540039,-763,9981.0,17.492046356201172,487,5564.0
12260,0.46983838081359863,-45.740570068359375,-691,9981.0,19.161029815673828,273,5564.0
12270,0.47263580560684204,-38.062599182128906,-553,9981.0,14.589954376220703,116,5564.0
12280,0.4727977514266968,-21.355358123779297,-290,9981.0,7.108098030090332,9,5564.0
12290,0.4729120135307312,-5.236994743347168,-3,9981.0,2.7838072776794434,-4,5564.0
12300,0.4730362892150879,10.066112518310547,196,9981.0,-4.553964138031006,-127,5564.0
12310,0.4738924503326416,18.810876846313477,390,9981.0,-3.012722969055176,-79,5564.0
12320,0.47406500577926636,35.0297737121582,642,9981.0,3.150205373764038,36,5564.0
12330,0.47422367334365845,47.60565948486328,812,9981.0,-9.353195190429688,-31,5564.0
12340,0.47429028153419495,46.157440185546875,791,9981.0,-12.62423038482666,-172,5564.0
12350,0.4744196832180023,37.69096755981445,581,9981.0,-5.45492696762085,-133,5564.0
12360,0.4753919243812561,26.770910263061523,338,9981.0,-2.7421724796295166,-156,5564.0
12370,0.4753033518791199,9.639242172241211,109,9981.0,-3.2154011726379395,52,5564.0
12380,0.4752386808395386,-4.2335205078125,-30,9981.0,0.38539770245552063,-40,5564.0
12390,0.4750306010246277,-15.899194717407227,-331,9981.0,-1.8638678789138794,-192,5564.0
12400,0.47403183579444885,-21.55722427368164,-370,9981.0,-3.783731460571289,24,5564.0
12410,0.47359931468963623,-26.762592315673828,-477,9981.0,-5.06060266494751,9,5564.0
12420,0.4731207489967346,-18.878934860229492,-141,9981.0,-1.393356442451477,-27,5564.0
12430,0.47291281819343567,8.856212615966797,185,9981.0,0.09892413765192032,-33,5564.0
12440,0.47257861495018005,28.83909034729004,506,9981.0,8.392224311828613,170,5564.0
12450,0.4729211628437042,35.491722106933594,588,9981.0,16.188718795776367,305,5564.0
12460,0.4727039933204651,24.386613845825195,307,9981.0,16.86700439453125,314,5564.0
12470,0.47254061698913574,3.335796594619751,-49,9981.0,11.283740997314453,107,5564.0
12480,0.4722149074077606,-7.003915786743164,-165,9981.0,9.238174438476562,112,5564.0
12490,0.47257161140441895,-15.797952651977539,-273,9981.0,11.795370101928711,266,5564.0
12500,0.4723108410835266,-14.768927574157715,-190,9981.0,16.44961929321289,440,5564.0
12510,0.47206613421440125,-10.06343936920166,-189,9981.0,32.09650802612305,521,5564.0
12520,0.471826434135437,-2.9012653827667236,-8,9981.0,44.51141357421875,709,5564.0
12530,0.47217482328414917,3.195845365524292,82,9981.0,51.354827880859375,854,5564.0
12540,0.47179102897644043,5.9660186767578125,60,9981.0,49.623844146728516,860,5564.0
12550,0.47133728861808777,7.805182933807373,149,9981.0,32.1658821105957,395,5564.0
12560,0.4711332321166992,7.427814960479736,149,9981.0,-4.079316139221191,-193,5564.0
12570,0.4707728624343872,7.332240104675293,119,9981.0,-43.04813766479492,-793,5564.0
12580,0.47151798009872437,11.348198890686035,226,9981.0,-62.904136657714844,-1043,5564.0
12590,0.4710454046726227,16.854665756225586,229,9981.0,-70.98162078857422,-1125,5564.0
12600,0.4706190824508667,21.271991729736328,214,9981.0,-53.709800720214844,-685,5564.0
12610,0.47078976035118103,13.70082950592041,277,9981.0,-14.595731735229492,15,5564.0
12620,0.46961352229118347,10.05414867401123,184,9981.0,9.29592227935791,237,5564.0
12630,0.4697781503200531,6.245919704437256,50,9981.0,25.437122344970703,399,5564.0
12640,0.46988487243652344,2.3607571125030518,59,9981.0,38.140106201171875,646,5564.0
12650,0.47000932693481445,-0.580333948135376,29,9981.0,42.61849594116211,737,5564.0
12660,0.47115886211395264,-7.831543922424316,-179,9981.0,33.34547805786133,423,5564.0
12670,0.47133785486221313,-15.521080017089844,-336,9981.0,26.016584396362305,387,5564.0
12680,0.4714626967906952,-21.96942901611328,-431,9981.0,23.18592643737793,330,5564.0
12690,0.4715045690536499,-21.94797706604004,-324,9981.0,7.139623165130615,171,5564.0
12700,0.4719080328941345,-23.957658767700195,-338,9981.0,7.245588302612305,104,5564.0
12710,0.47183406352996826,-19.479957580566406,-322,9981.0,3.3724236488342285,27,5564.0
12720,0.47173890471458435,-15.904389381408691,-249,9981.0,0.9110501408576965,23,5564.0
12730,0.47154951095581055,-9.128475189208984,-67,9981.0,-2.7289021015167236,-130,5564.0
12740,0.47134074568748474,0.4751650094985962,59,9981.0,-11.44880199432373,-283,5564.0
12750,0.47256144881248474,6.57047176361084,118,9981.0,-24.28025245666504,-351,5564.0
12760,0.4722413122653961,-1.6039868593215942,-29,9981.0,-22.601016998291016,-301,5564.0
12770,0.47190821170806885,-9.147457122802734,-224,9981.0,-9.974074363708496,-39,5564.0
12780,0.4716346561908722,-22.073415756225586,-397,9981.0,14.640952110290527,401,5564.0
12790,0.4713899493217468,-23.45525360107422,-346,9981.0,35.065147399902344,695,5564.0
12800,0.4705754220485687,-19.181142807006836,-272,9981.0,29.137863159179688,421,5564.0
12810,0.4704347848892212,-6.769731044769287,-76,9981.0,14.078592300415039,96,5564.0
12820,0.4703236520290375,3.9358294010162354,86,9981.0,-3.318754196166992,-95,5564.0
12830,0.47032755613327026,9.672999382019043,164,9981.0,-17.464492797851562,-318,5564.0
12840,0.4705788493156433,2.8710622787475586,-23,9981.0,-18.595369338989258,-191,5564.0
12850,0.4706665873527527,-13.615659713745117,-300,9981.0,-10.71391487121582,-153,5564.0
12860,0.4707179069519043,-17.578771591186523,-342,9981.0,5.914712429046631,113,5564.0
12870,0.4707302153110504,-17.550718307495117,-261,9981.0,21.808137893676758,401,5564.0
12880,0.4706447720527649,-11.045894622802734,-60,9981.0,31.0296630859375,511,5564.0
12890,0.4710617959499359,3.2642970085144043,144,9981.0,27.339397430419922,424,5564.0
12900,0.4711116850376129,11.712372779846191,249,9981.0,15.438302040100098,74,5564.0
12910,0.47111940383911133,13.992012977600098,220,9981.0,-16.360612869262695,-463,5564.0
12920,0.4711468815803528,16.705965042114258,253,9981.0,-54.14738082885742,-1089,5564.0
12930,0.4700393080711365,16.305757522583008,263,9981.0,-75.78430938720703,-1380,5564.0
12940,0.4699517488479614,10.614435195922852,154,9981.0,-85.1954116821289,-1358,5564.0
12950,0.46973690390586853,2.7493481636047363,37,9981.0,-76.8022689819336,-1017,5564.0
12960,0.4695626497268677,-0.44951292872428894,-26,9981.0,-48.0140266418457,-692,5564.0
12970,0.4699673056602478,-1.3104031085968018,-110,9981.0,-17.084989547729492,-148,5564.0
12980,0.4701678156852722,4.728014945983887,183,9981.0,6.136918544769287,359,5564.0
12990,0.4705328345298767,17.30616569519043,379,9981.0,21.518220901489258,374,5564.0
13000,0.4708263576030731,21.28154945373535,337,9981.0,29.537799835205078,372,5564.0
13010,0.4710805118083954,26.56922721862793,417,9981.0,30.325572967529297,588,5564.0
13020,0.4710438847541809,24.65658187866211,460,9981.0,34.043800354003906,608,5564.0
13030,0.4713859558105469,6.457926273345947,-47,9981.0,29.90313148498535,386,5564.0
13040,0.47173893451690674,-21.572484970092773,-493,9981.0,22.99578094482422,276,5564.0
13050,0.47199317812919617,-43.08662796020508,-728,9981.0,8.147899627685547,164,5564.0
13060,0.47126221656799316,-51.25481414794922,-880,9981.0,1.3663456439971924,24,5564.0
13070,0.47107717394828796,-52.69375228881836,-755,9981.0,0.17036296427249908,-38,5564.0
13080,0.4708103835582733,-34.615055084228516,-478,9981.0,-6.344637870788574,-162,5564.0
13090,0.47051459550857544,-11.23590087890625,-109,9981.0,-19.610023498535156,-424,5564.0
13100,0.4692169427871704,4.540377140045166,109,9981.0,-39.91484832763672,-766,5564.0
13110,0.4685405194759369,1.767652988433838,8,9981.0,-57.91994094848633,-1020,5564.0
13120,0.4677702784538269,-0.35182636976242065,-47,9981.0,-62.250736236572266,-957,5564.0
13130,0.4671988785266876,-2.608243465423584,16,9981.0,-46.99589920043945,-579,5564.0
13140,0.46682852506637573,6.076815605163574,179,9981.0,-22.740829467773438,-173,5564.0
13150,0.4663229286670685,19.86827278137207,356,9981.0,4.974518775939941,97,5564.0
13160,0.4660443067550659,29.61150550842285,516,9981.0,16.208864212036133,316,5564.0
13170,0.4658525288105011,39.85481643676758,686,9981.0,26.802827835083008,525,5564.0
13180,0.4657765030860901,39.72509002685547,665,9981.0,27.465290069580078,472,5564.0
13190,0.46741557121276855,35.4485969543457,561,9981.0,16.888811111450195,222,5564.0
13200,0.467406302690506,29.198984146118164,442,9981.0,-1.3771973848342896,-126,5564.0
13210,0.46739229559898376,15.963066101074219,152,9981.0,-9.059741020202637,-207,5564.0
13220,0.4673626720905304,-3.4740655422210693,-116,9981.0,-13.177550315856934,-146,5564.0
13230,0.4672584533691406,-22.984540939331055,-449,9981.0,-2.3066165447235107,-36,5564.0
13240,0.4675111472606659,-33.235618591308594,-636,9981.0,8.876972198486328,167,5564.0
13250,0.4671279191970825,-36.39762496948242,-638,9981.0,21.25294303894043,311,5564.0
13260,0.4666461944580078,-24.343212127685547,-376,9981.0,19.61475372314453,287,5564.0
13270,0.4660676419734955,-13.21888542175293,-136,9981.0,3.42891526222229,61,5564.0
13280,0.4677581191062927,-8.897048950195312,-83,9981.0,-9.074349403381348,-243,5564.0
13290,0.46718743443489075,-6.135799407958984,-131,9981.0,-12.050135612487793,-288,5564.0
13300,0.46657514572143555,-8.484411239624023,-163,9981.0,-8.84869384765625,-116,5564.0
13310,0.4659907817840576,-8.201620101928711,-219,9981.0,3.1352221965789795,203,5564.0
13320,0.46724480390548706,0.3193444609642029,106,9981.0,15.810657501220703,377,5564.0
13330,0.46694302558898926,7.0796942710876465,208,9981.0,18.07357406616211,263,5564.0
13340,0.4667903184890747,12.967190742492676,271,9981.0,10.519542694091797,99,5564.0
13350,0.46676793694496155,18.82772445678711,293,9981.0,3.3087728023529053,-39,5564.0
13360,0.46678540110588074,16.849159240722656,239,9981.0,-2.335137367248535,-105,5564.0
13370,0.4697617292404175,12.538129806518555,123,9981.0,-2.103731155395508,3,5564.0
13380,0.46995246410369873,8.921985626220703,178,9981.0,8.785554885864258,262,5564.0
13390,0.47018107771873474,6.023531913757324,154,9981.0,9.015665054321289,160,5564.0
13400,0.47032058238983154,5.8593597412109375,-33,9981.0,18.54947280883789,351,5564.0
13410,0.47187888622283936,1.7999308109283447,77,9981.0,22.756059646606445,590,5564.0
13420,0.47202783823013306,-3.5796122550964355,-11,9981.0,29.63353729248047,422,5564.0
13430,0.4722687900066376,-12.257702827453613,-324,9981.0,27.24714469909668,430,5564.0
13440,0.4722742438316345,-24.974609375,-480,9981.0,10.60107421875,113,5564.0
13450,0.47218236327171326,-32.324398040771484,-507,9981.0,-15.813608169555664,-406,5564.0
13460,0.4734955430030823,-25.303081512451172,-364,9981.0,-41.06501770019531,-718,5564.0
13470,0.47358790040016174,-15.017520904541016,-225,9981.0,-48.02524185180664,-844,5564.0
13480,0.4734295904636383,-5.415978908538818,-129,9981.0,-49.15343475341797,-751,5564.0
13490,0.4734720289707184,2.7779839038848877,152,9981.0,-35.10402297973633,-354,5564.0
13500,0.4729507565498352,11.46666431427002,350,9981.0,-19.478193283081055,-315,5564.0
13510,0.4729655683040619,22.230260848999023,331,9981.0,-9.251044273376465,-229,5564.0
13520,0.4730759561061859,27.304105758666992,481,9981.0,2.480377674102783,273,5564.0
13530,0.4731924831867218,20.685976028442383,379,9981.0,27.43954086303711,536,5564.0
13540,0.4739450216293335,8.95303726196289,-7,9981.0,44.59527587890625,751,5564.0
13550,0.4740631580352783,-6.638095855712891,-177,9981.0,54.87319564819336,1063,5564.0
13560,0.47418561577796936,-17.725675582885742,-305,9981.0,59.46918487548828,911,5564.0
13570,0.474220335483551,-16.242029190063477,-234,9981.0,52.02164840698242,720,5564.0
13580,0.4741176664829254,-13.289671897888184,-231,9981.0,38.391944885253906,656,5564.0
13590,0.4747340977191925,-12.774703979492188,-155,9981.0,25.1590576171875,390,5564.0
13600,0.4743930697441101,-1.5468168258666992,38,9981.0,-1.064813494682312,-207,5564.0
13610,0.4741353988647461,17.572481155395508,414,9981.0,-28.48785400390625,-555,5564.0
13620,0.473699152469635,38.43096160888672,706,9981.0,-33.17266082763672,-651,5564.0
13630,0.47400686144828796,47.42445373535156,734,9981.0,-30.48442268371582,-402,5564.0
13640,0.47351351380348206,34.87461471557617,550,9981.0,-18.320226669311523,-165,5564.0
13650,0.4729677140712738,22.261568069458008,197,9981.0,-0.5962073802947998,-4,5564.0
13660,0.47236695885658264,4.754063129425049,5,9981.0,15.465506553649902,306,5564.0
13670,0.47169139981269836,-11.687079429626465,-165,9981.0,13.368524551391602,124,5564.0
13680,0.4714735150337219,-23.831661224365234,-464,9981.0,1.805443525314331,-18,5564.0
13690,0.4707622230052948,-25.647480010986328,-428,9981.0,4.2516889572143555,86,5564.0
13700,0.46998870372772217,-27.617958068847656,-444,9981.0,0.25581809878349304,11,5564.0
13710,0.4692859649658203,-32.2800407409668,-476,9981.0,1.2935436964035034,77,5564.0
13720,0.4690622389316559,-21.77979850769043,-312,9981.0,-3.972761392593384,-83,5564.0
13730,0.4684820771217346,-2.266542911529541,8,9981.0,-8.367412567138672,-204,5564.0
13740,0.46800851821899414,15.832456588745117,309,9981.0,-5.120599269866943,-4,5564.0
13750,0.4674351215362549,21.272294998168945,362,9981.0,2.3955230712890625,90,5564.0
13760,0.4660782814025879,24.432546615600586,441,9981.0,12.010357856750488,313,5564.0
13770,0.46537137031555176,26.322715759277344,424,9981.0,21.965940475463867,416,5564.0
13780,0.46456995606422424,25.4780216217041,448,9981.0,14.890130043029785,167,5564.0
13790,0.46373429894447327,28.54375457763672,393,9981.0,-3.2510948181152344,-183,5564.0
13800,0.46309027075767517,28.945348739624023,448,9981.0,-18.557409286499023,-398,5564.0
13810,0.4629374146461487,31.052936553955078,564,9981.0,-20.502195358276367,-184,5564.0
13820,0.4624321460723877,21.48235511779785,244,9981.0,-9.919036865234375,-122,5564.0
13830,0.46185430884361267,-5.457362651824951,-244,9981.0,-0.8350896835327148,-129,5564.0
13840,0.4614068269729614,-31.248151779174805,-593,9981.0,5.3851823806762695,127,5564.0
13850,0.4617384970188141,-43.18922805786133,-629,9981.0,6.678739547729492,253,5564.0
13860,0.4616207182407379,-36.270729064941406,-480,9981.0,5.516791820526123,24,5564.0
13870,0.46165958046913147,-16.422256469726562,-194,9981.0,3.222860097885132,-34,5564.0
13880,0.4617850184440613,5.733949184417725,150,9981.0,-5.163041591644287,-174,5564.0
13890,0.4620041251182556,15.504613876342773,295,9981.0,-3.644090175628662,110,5564.0
13900,0.46349719166755676,20.752243041992188,343,9981.0,14.195252418518066,326,5564.0
13910,0.4638679325580597,9.984851837158203,50,9981.0,23.555389404296875,305,5564.0
13920,0.4642319679260254,-9.388731956481934,-181,9981.0,27.972238540649414,422,5564.0
13930,0.4646313786506653,-19.690296173095703,-351,9981.0,27.0024356842041,486,5564.0
13940,0.46468791365623474,-24.81817626953125,-361,9981.0,23.220420837402344,468,5564.0
13950,0.46492165327072144,-18.19651985168457,-260,9981.0,11.824383735656738,60,5564.0
13960,0.465069055557251,-7.447146892547607,9,9981.0,-4.6400346755981445,-328,5564.0
13970,0.46550506353378296,11.857141494750977,252,9981.0,-29.817800521850586,-699,5564.0
13980,0.46525415778160095,25.22158432006836,466,9981.0,-42.67898178100586,-627,5564.0
13990,0.4652147889137268,32.841033935546875,593,9981.0,-38.16877365112305,-615,5564.0
14000,0.46513596177101135,32.29349136352539,484,9981.0,-36.04111099243164,-676,5564.0
14010,0.464945912361145,17.371746063232422,154,9981.0,-34.32289505004883,-432,5564.0
14020,0.46519526839256287,1.268511176109314,-51,9981.0,-25.39632225036621,-396,5564.0
14030,0.4657638967037201,-20.232421875,-519,9981.0,-23.39794158935547,-396,5564.0
14040,0.4659023880958557,-40.18497085571289,-733,9981.0,-6.251087188720703,76,5564.0
14050,0.4660138487815857,-52.82853317260742,-863,9981.0,9.530564308166504,218,5564.0
