timestamp,kalman.stateZ,gyro.x,gyro.xRaw,gyro.xVariance,gyro.y,gyro.yRaw,gyro.yVariance
0,0.26986610889434814,-0.039069004356861115,5,9999.0,1.9339104890823364,38,8491.0
10,0.2702290117740631,0.3023086488246918,0,9999.0,2.429049491882324,38,8491.0
20,0.2702085077762604,-0.16403615474700928,-4,9999.0,2.833052158355713,43,8491.0
30,0.27018484473228455,0.062133703380823135,3,9999.0,3.357654333114624,55,8491.0
40,0.27016308903694153,-0.016005588695406914,2,9999.0,3.7828896045684814,64,8491.0
50,0.27013537287712097,0.022723637521266937,1,9999.0,3.8298490047454834,63,8491.0
60,0.271200567483902,-0.260098397731781,-1,9999.0,3.9755430221557617,63,8491.0
70,0.2712271511554718,-0.15090732276439667,6,9999.0,4.26082181930542,70,8491.0
80,0.27125656604766846,-0.041719336062669754,7,9999.0,4.359645843505859,78,8491.0
90,0.27128782868385315,0.0042723678052425385,0,9999.0,4.584191799163818,77,8491.0
100,0.2719472646713257,0.10964399576187134,1,9999.0,4.326573371887207,79,8491.0
110,0.2720104455947876,0.13620777428150177,3,9999.0,4.526880264282227,83,8491.0
120,0.27211976051330566,-0.06811442226171494,1,9999.0,4.387578010559082,75,8491.0
130,0.27221930027008057,0.05644480139017105,3,9999.0,4.077974796295166,70,8491.0
140,0.272281289100647,-0.10542068630456924,2,9999.0,3.9767227172851562,70,8491.0
150,0.273420512676239,0.11898644268512726,1,9999.0,3.6656997203826904,63,8491.0
160,0.27355441451072693,0.18097785115242004,7,9999.0,3.2804794311523438,59,8491.0
170,0.27369409799575806,-0.17622333765029907,4,9999.0,3.115797758102417,52,8491.0
180,0.2738335430622101,0.009293281473219395,-3,9999.0,2.8331754207611084,41,8491.0
190,0.27399876713752747,0.02732393518090248,-3,9999.0,2.4706156253814697,37,8491.0
200,0.27416911721229553,-0.14450936019420624,-4,9999.0,1.565260887145996,27,8491.0
210,0.27430427074432373,0.23409591615200043,6,9999.0,1.0966150760650635,9,8491.0
220,0.2744466960430145,1.1100902557373047,23,9999.0,-0.5636212825775146,-22,8491.0
230,0.2731528580188751,0.9701902270317078,15,9999.0,-0.49989908933639526,-3,8491.0
240,0.27325379848480225,4.277792930603027,42,9999.0,-4.6997833251953125,-59,8491.0
250,0.27337756752967834,7.235099792480469,137,9999.0,-4.710000038146973,-125,8491.0
260,0.27351275086402893,8.69605541229248,210,9999.0,-5.392111301422119,-128,8491.0
270,0.2736388146877289,9.967815399169922,208,9999.0,-5.711326599121094,-111,8491.0
280,0.27230116724967957,11.054909706115723,124,9999.0,-6.633120536804199,-72,8491.0
290,0.272365003824234,13.112075805664062,139,9999.0,-2.257404088973999,-20,8491.0
300,0.27241504192352295,6.164066791534424,160,9999.0,-0.9500674605369568,25,8491.0
310,0.27259722352027893,5.283892631530762,20,9999.0,3.3378474712371826,-24,8491.0
320,0.27241745591163635,2.141688585281372,42,9999.0,3.81514835357666,213,8491.0
330,0.27251535654067993,0.31193310022354126,39,9999.0,7.836296558380127,52,8491.0
340,0.272614985704422,-0.9829713106155396,12,9999.0,9.919651985168457,4,8491.0
350,0.2727195620536804,-0.6754111647605896,-33,9999.0,10.145431518554688,144,8491.0
360,0.27365806698799133,0.5629839897155762,-61,9999.0,7.534246444702148,258,8491.0
370,0.2738170921802521,1.7282967567443848,-73,9999.0,5.625479221343994,326,8491.0
380,0.27394503355026245,4.758115768432617,-14,9999.0,0.353878378868103,252,8491.0
390,0.27405473589897156,3.5773699283599854,-40,9999.0,1.8593207597732544,167,8491.0
400,0.27414247393608093,4.07004976272583,-29,9999.0,-0.728263795375824,115,8491.0
410,0.2734527587890625,4.349825859069824,96,9999.0,-1.2015637159347534,218,8491.0
420,0.2735360562801361,1.2610936164855957,76,9999.0,-1.941421389579773,152,8491.0
430,0.2735174894332886,2.6861331462860107,-4,9999.0,0.5309167504310608,91,8491.0
440,0.27350887656211853,0.6908873915672302,-113,9999.0,1.4981377124786377,265,8491.0
450,0.27249690890312195,0.005160878412425518,-113,9999.0,1.9809374809265137,165,8491.0
460,0.2722724974155426,1.4843358993530273,-74,9999.0,4.189533233642578,-28,8491.0
470,0.2719796597957611,-3.537966728210449,-22,9999.0,4.897048473358154,-48,8491.0
480,0.27164170145988464,-3.1001741886138916,55,9999.0,3.5436086654663086,26,8491.0
490,0.27126041054725647,-2.293715476989746,-57,9999.0,2.1259398460388184,79,8491.0
500,0.2715643048286438,-2.1855101585388184,-19,9999.0,2.628864288330078,56,8491.0
510,0.27122607827186584,0.7620922923088074,4,9999.0,-0.740092933177948,46,8491.0
520,0.2710179090499878,0.7932747006416321,-3,9999.0,0.34603169560432434,-86,8491.0
530,0.27094119787216187,1.5501412153244019,96,9999.0,-0.7585818767547607,-158,8491.0
540,0.2726118564605713,3.4061129093170166,104,9999.0,-2.8184406757354736,127,8491.0
550,0.27290305495262146,3.137690782546997,-91,9999.0,-0.8851313591003418,-32,8491.0
560,0.273245632648468,1.3421627283096313,113,9999.0,0.45617038011550903,-153,8491.0
570,0.2735675573348999,0.03713272139430046,36,9999.0,0.8113383054733276,131,8491.0
580,0.27353623509407043,-0.5082129240036011,-72,9999.0,0.831228494644165,44,8491.0
590,0.27386474609375,-2.146528482437134,-6,9999.0,2.9504027366638184,-22,8491.0
600,0.27428725361824036,-3.7616801261901855,-75,9999.0,3.7926437854766846,-6,8491.0
610,0.27477216720581055,-2.830381393432617,25,9999.0,1.7789709568023682,149,8491.0
620,0.2752762734889984,-1.725154161453247,-172,9999.0,4.500268459320068,-22,8491.0
630,0.2756984829902649,-2.9312222003936768,38,9999.0,5.74661111831665,-73,8491.0
640,0.2762548327445984,-2.504159688949585,15,9999.0,3.8616409301757812,167,8491.0
650,0.276790589094162,-0.4601043462753296,-90,9999.0,2.88899827003479,61,8491.0
660,0.27730122208595276,1.1040188074111938,93,9999.0,0.5880600214004517,-93,8491.0
670,0.27704179286956787,1.8661085367202759,9,9999.0,0.03746248781681061,35,8491.0
680,0.2774355709552765,3.2194294929504395,68,9999.0,-1.8056073188781738,-96,8491.0
690,0.2778172492980957,4.045760631561279,48,9999.0,-2.499530553817749,-57,8491.0
700,0.2782140076160431,3.415250539779663,118,9999.0,-3.59665846824646,-146,8491.0
710,0.2786709666252136,3.176469326019287,-30,9999.0,-6.472897052764893,86,8491.0
720,0.27852192521095276,0.7007160186767578,-4,9999.0,-3.0966646671295166,-219,8491.0
730,0.2790731191635132,-2.105869770050049,55,9999.0,-2.0731868743896484,62,8491.0
740,0.2795851230621338,-1.9586683511734009,-65,9999.0,-0.9901098608970642,-24,8491.0
750,0.280057817697525,-2.2178292274475098,-52,9999.0,0.4895602762699127,17,8491.0
760,0.27908122539520264,-1.7505532503128052,-14,9999.0,2.1813414096832275,-51,8491.0
770,0.27932775020599365,-1.3971158266067505,17,9999.0,0.2811059355735779,197,8491.0
780,0.2795093059539795,-0.17328457534313202,-107,9999.0,2.2071330547332764,-142,8491.0
790,0.27961206436157227,-0.9744789600372314,50,9999.0,3.2921698093414307,83,8491.0
800,0.2796945571899414,0.10929039865732193,-16,9999.0,1.5025659799575806,39,8491.0
810,0.2774465084075928,-0.5049033761024475,-15,9999.0,0.8138112425804138,-4,8491.0
820,0.27736884355545044,0.023977171629667282,25,9999.0,-0.5684367418289185,-28,8491.0
830,0.2772626578807831,1.5622084140777588,13,9999.0,-2.6812944412231445,12,8491.0
840,0.27707698941230774,1.8646864891052246,-15,9999.0,-0.813646674156189,-184,8491.0
850,0.27832895517349243,3.0769898891448975,190,9999.0,-3.2591493129730225,26,8491.0
860,0.27807411551475525,3.576972007751465,-55,9999.0,-1.765252947807312,-175,8491.0
870,0.2778520882129669,1.4612549543380737,140,9999.0,-1.4128443002700806,-28,8491.0
880,0.2776475250720978,1.1111873388290405,-34,9999.0,-1.5613235235214233,-24,8491.0
890,0.27686652541160583,-0.31039685010910034,31,9999.0,0.7281363606452942,5,8491.0
900,0.2765314280986786,-0.754524827003479,63,9999.0,0.25791046023368835,154,8491.0
910,0.2761724889278412,0.7606764435768127,-96,9999.0,0.3793345093727112,-142,8491.0
920,0.275849848985672,0.26036521792411804,53,9999.0,0.6853615641593933,106,8491.0
930,0.2755575478076935,-0.3199011981487274,-23,9999.0,0.8958424925804138,-75,8491.0
940,0.2766543924808502,-1.9005430936813354,-14,9999.0,-0.5957555174827576,-35,8491.0
950,0.2764843702316284,-0.8329341411590576,-8,9999.0,-3.650609016418457,-62,8491.0
960,0.2763925790786743,-0.36468636989593506,44,9999.0,-3.2078733444213867,8,8491.0
970,0.27631303668022156,0.9097481369972229,-87,9999.0,-0.06696520745754242,-21,8491.0
980,0.2769222557544708,0.6252570152282715,102,9999.0,-2.453951835632324,57,8491.0
990,0.2769569456577301,0.9065345525741577,-13,9999.0,0.23229579627513885,-159,8491.0
1000,0.2770257592201233,-0.41391924023628235,-28,9999.0,-1.3927098512649536,118,8491.0
1010,0.2771143913269043,-1.8442192077636719,-15,9999.0,1.9907346963882446,40,8491.0
1020,0.27832525968551636,-0.4770881235599518,36,9999.0,0.13338415324687958,42,8491.0
1030,0.2784899175167084,0.9412550330162048,-35,9999.0,-2.2154009342193604,-96,8491.0
1040,0.2786409556865692,2.343580484390259,-2,9999.0,-0.7792757153511047,156,8491.0
1050,0.2788113057613373,-0.16646812856197357,133,9999.0,1.867641568183899,-152,8491.0
1060,0.2790006399154663,2.553901433944702,-28,9999.0,1.1327508687973022,9,8491.0
1070,0.2792176902294159,1.1657464504241943,42,9999.0,1.8800725936889648,77,8491.0
1080,0.27945205569267273,0.5771218538284302,8,9999.0,0.29391443729400635,64,8491.0
1090,0.27966436743736267,-0.7671099901199341,107,9999.0,0.720346987247467,-80,8491.0
1100,0.27987852692604065,1.5303759574890137,-101,9999.0,-2.57391095161438,-80,8491.0
1110,0.2808718979358673,3.020557165145874,37,9999.0,-4.332485198974609,226,8491.0
1120,0.28118228912353516,0.7637147307395935,10,9999.0,-3.085344076156616,-131,8491.0
1130,0.2815050184726715,-2.745047092437744,-8,9999.0,-0.35645467042922974,-17,8491.0
1140,0.2818257212638855,-1.4078208208084106,-25,9999.0,-1.6286182403564453,-153,8491.0
1150,0.2821343243122101,0.9209837913513184,-1,9999.0,-0.6954087018966675,164,8491.0
1160,0.28240397572517395,0.7507621645927429,112,9999.0,4.1399054527282715,14,8491.0
1170,0.2827845811843872,-0.6492582559585571,-22,9999.0,0.6098890900611877,-29,8491.0
1180,0.28316229581832886,0.9743889570236206,52,9999.0,1.9370135068893433,59,8491.0
1190,0.2835400700569153,0.5396322011947632,-36,9999.0,5.705612659454346,91,8491.0
1200,0.2844848036766052,0.5820022821426392,51,9999.0,1.9030029773712158,102,8491.0
1210,0.2849424481391907,1.1655242443084717,6,9999.0,2.9365358352661133,-126,8491.0
1220,0.2853926718235016,0.2948588728904724,-161,9999.0,6.80806303024292,-49,8491.0
1230,0.2858051657676697,0.7851370573043823,52,9999.0,4.618021011352539,98,8491.0
1240,0.2857097387313843,-0.7046049237251282,-34,9999.0,6.132480144500732,116,8491.0
1250,0.28607499599456787,-0.7084341049194336,17,9999.0,7.17675256729126,287,8491.0
1260,0.2864859402179718,-0.1549561768770218,49,9999.0,7.729403495788574,339,8491.0
1270,0.28688910603523254,1.650604009628296,-136,9999.0,9.004456520080566,0,8491.0
1280,0.2872921824455261,1.9629623889923096,68,9999.0,1.7054404020309448,7,8491.0
1290,0.28728267550468445,-0.1363922506570816,-23,9999.0,1.7036089897155762,-1,8491.0
1300,0.2877870202064514,-1.0379289388656616,0,9999.0,1.3160078525543213,-86,8491.0
1310,0.2883911728858948,2.5680699348449707,153,9999.0,1.2477576732635498,65,8491.0
1320,0.2889900803565979,2.4559335708618164,30,9999.0,2.9537014961242676,-203,8491.0
1330,0.2902368903160095,5.326236724853516,-40,9999.0,-3.731823444366455,-17,8491.0
1340,0.2910488247871399,0.7380686402320862,30,9999.0,3.7380223274230957,7,8491.0
1350,0.29200276732444763,2.123394727706909,10,9999.0,-0.1330944299697876,-148,8491.0
1360,0.29280662536621094,0.9160419702529907,45,9999.0,1.2785491943359375,116,8491.0
1370,0.29361921548843384,-1.531233549118042,-96,9999.0,6.689021110534668,141,8491.0
1380,0.29422128200531006,-0.8371254205703735,-159,9999.0,4.181832790374756,-81,8491.0
1390,0.2950655519962311,-2.929110050201416,-17,9999.0,0.2585405111312866,81,8491.0
1400,0.2959264814853668,-3.8885059356689453,-112,9999.0,1.2894514799118042,-108,8491.0
1410,0.29679515957832336,0.17747299373149872,-18,9999.0,-3.2860257625579834,76,8491.0
1420,0.29584845900535583,-1.524174690246582,218,9999.0,-9.009982109069824,17,8491.0
1430,0.2966284453868866,2.2371902465820312,78,9999.0,-4.573848247528076,-278,8491.0
1440,0.2973833382129669,3.4535748958587646,-30,9999.0,-1.5466012954711914,-11,8491.0
1450,0.2983734905719757,0.6003559827804565,1,9999.0,0.07264895737171173,5,8491.0
1460,0.2990419566631317,-1.1235244274139404,-141,9999.0,-0.06717018783092499,-9,8491.0
1470,0.29985108971595764,-0.8208656907081604,-2,9999.0,-1.4508823156356812,214,8491.0
1480,0.3006635010242462,-1.7078686952590942,68,9999.0,0.5133607983589172,-47,8491.0
1490,0.3014856278896332,-3.849461078643799,-122,9999.0,3.231848955154419,11,8491.0
1500,0.3023737370967865,-6.178619861602783,-29,9999.0,2.0274689197540283,5,8491.0
1510,0.3018496632575989,-7.413484573364258,-162,9999.0,0.6480384469032288,-196,8491.0
1520,0.3025384545326233,-8.421335220336914,-160,9999.0,-1.2315597534179688,160,8491.0
1530,0.3032989203929901,-6.704583168029785,41,9999.0,-2.4124197959899902,38,8491.0
1540,0.30393630266189575,-5.293374538421631,-93,9999.0,0.4866551160812378,43,8491.0
1550,0.3058825731277466,0.048766642808914185,42,9999.0,2.503488063812256,106,8491.0
1560,0.30667445063591003,1.5422340631484985,41,9999.0,8.004716873168945,-64,8491.0
1570,0.30746135115623474,2.241757869720459,-34,9999.0,12.698687553405762,254,8491.0
1580,0.30821147561073303,0.8999994993209839,135,9999.0,6.855869770050049,251,8491.0
1590,0.30854666233062744,2.2028019428253174,31,9999.0,11.628775596618652,206,8491.0
1600,0.30923211574554443,3.0529427528381348,77,9999.0,9.191600799560547,230,8491.0
1610,0.3098413050174713,4.392179489135742,74,9999.0,6.586697578430176,-27,8491.0
1620,0.3103993535041809,5.860402584075928,-47,9999.0,3.1051025390625,13,8491.0
1630,0.3108865022659302,6.708916187286377,139,9999.0,-0.5323507785797119,155,8491.0
1640,0.3109636902809143,2.54477858543396,9,9999.0,-2.577528476715088,-86,8491.0
1650,0.31133460998535156,1.5029855966567993,25,9999.0,-5.578017234802246,32,8491.0
1660,0.3117118179798126,0.8870934844017029,71,9999.0,-5.62332010269165,-147,8491.0
1670,0.31201115250587463,2.4171087741851807,-150,9999.0,-5.703581809997559,-173,8491.0
1680,0.312548965215683,-2.6033003330230713,47,9999.0,0.33037278056144714,48,8491.0
1690,0.3128126859664917,1.58811616897583,88,9999.0,-3.345019817352295,-104,8491.0
1700,0.31304931640625,-0.19297444820404053,5,9999.0,-0.04140729084610939,2,8491.0
1710,0.3132393956184387,2.745501756668091,93,9999.0,-1.4360463619232178,15,8491.0
1720,0.31339550018310547,1.9574532508850098,-71,9999.0,1.5711607933044434,-43,8491.0
1730,0.3158378601074219,3.0743422508239746,10,9999.0,2.002347946166992,64,8491.0
1740,0.3161548376083374,3.8677408695220947,164,9999.0,0.6757532358169556,-26,8491.0
1750,0.31637245416641235,2.7614362239837646,41,9999.0,3.3788537979125977,5,8491.0
1760,0.3165491819381714,4.927888870239258,157,9999.0,0.19349899888038635,37,8491.0
1770,0.31694215536117554,3.189880847930908,57,9999.0,-1.4200127124786377,-118,8491.0
1780,0.3171217441558838,3.113898992538452,-73,9999.0,-1.6077009439468384,23,8491.0
1790,0.3174302875995636,2.8847296237945557,50,9999.0,-9.062889099121094,-98,8491.0
1800,0.3174906373023987,2.306326150894165,-15,9999.0,-5.801112174987793,-111,8491.0
1810,0.3165557384490967,1.7057840824127197,-28,9999.0,-5.621972560882568,5,8491.0
1820,0.31655940413475037,-1.1145734786987305,122,9999.0,-4.05103063583374,-55,8491.0
1830,0.31649866700172424,-5.663129806518555,-157,9999.0,-2.4521124362945557,-74,8491.0
1840,0.31645116209983826,-5.783843517303467,-36,9999.0,-0.49423179030418396,-19,8491.0
1850,0.3163738548755646,-3.106553554534912,-32,9999.0,-2.7216598987579346,-104,8491.0
1860,0.3152799606323242,-1.3592078685760498,-162,9999.0,-0.5791670680046082,31,8491.0
1870,0.31511133909225464,-3.159207820892334,3,9999.0,3.4465761184692383,278,8491.0
1880,0.3149586617946625,0.8313419222831726,2,9999.0,-2.2273638248443604,-106,8491.0
1890,0.3147917091846466,0.4608793556690216,-29,9999.0,3.902421236038208,40,8491.0
1900,0.31435588002204895,2.405787706375122,142,9999.0,2.8803179264068604,105,8491.0
1910,0.3141806721687317,4.858409881591797,111,9999.0,2.991300106048584,-189,8491.0
1920,0.31403258442878723,5.3209967613220215,-40,9999.0,-0.32871127128601074,-20,8491.0
1930,0.3139597177505493,-2.7442758083343506,56,9999.0,0.6090520024299622,154,8491.0
1940,0.31384292244911194,4.275232315063477,0,9999.0,-3.8894999027252197,-111,8491.0
1950,0.3133656084537506,1.0288223028182983,-26,9999.0,-4.559966564178467,-3,8491.0
1960,0.313191294670105,-0.17530189454555511,9,9999.0,-3.2776386737823486,70,8491.0
1970,0.3130062520503998,-1.3539087772369385,3,9999.0,-2.11895489692688,-182,8491.0
1980,0.31284376978874207,-4.23621129989624,-1,9999.0,-3.822943687438965,-199,8491.0
1990,0.3115600645542145,-3.051201343536377,-31,9999.0,-0.1421409249305725,-22,8491.0
2000,0.31135377287864685,-3.5903961658477783,-168,9999.0,3.5781800746917725,-118,8491.0
2010,0.31118452548980713,-4.304983139038086,-37,9999.0,0.1632198989391327,27,8491.0
2020,0.3110211491584778,-1.9278883934020996,16,9999.0,7.291731357574463,190,8491.0
2030,0.31087440252304077,-0.15265393257141113,-41,9999.0,4.5075507164001465,47,8491.0
2040,0.31120765209198,0.373783677816391,35,9999.0,4.416191101074219,104,8491.0
2050,0.3111574351787567,1.1928668022155762,101,9999.0,0.8736164569854736,281,8491.0
2060,0.3111199140548706,5.332726001739502,194,9999.0,-0.97121661901474,-152,8491.0
2070,0.31113940477371216,-0.19224563241004944,-67,9999.0,-3.034440040588379,-75,8491.0
2080,0.3115202784538269,-1.6376125812530518,38,9999.0,-1.9457038640975952,-24,8491.0
2090,0.31160908937454224,0.18327267467975616,-16,9999.0,-6.542382717132568,-161,8491.0
2100,0.3117465376853943,-0.3558861017227173,-25,9999.0,-4.285477638244629,-40,8491.0
2110,0.3118891716003418,-3.928314447402954,40,9999.0,-2.2945172786712646,263,8491.0
2120,0.31287649273872375,0.5374640226364136,-21,9999.0,-0.7128062844276428,-113,8491.0
2130,0.31310853362083435,0.34574317932128906,-36,9999.0,3.2318637371063232,134,8491.0
2140,0.31337276101112366,1.0327211618423462,65,9999.0,5.269795894622803,213,8491.0
2150,0.31366175413131714,-0.8311315178871155,-23,9999.0,3.212505340576172,208,8491.0
2160,0.3139612376689911,1.1449201107025146,-160,9999.0,2.063389539718628,87,8491.0
2170,0.3146634101867676,-2.5557055473327637,21,9999.0,9.088661193847656,194,8491.0
2180,0.31493496894836426,0.5111665725708008,36,9999.0,-3.123972177505493,-89,8491.0
2190,0.31524980068206787,3.416358709335327,-52,9999.0,-8.13082504272461,-107,8491.0
2200,0.31562212109565735,1.1433377265930176,104,9999.0,-6.358185768127441,26,8491.0
2210,0.3152298927307129,1.7951916456222534,141,9999.0,-10.8991117477417,-312,8491.0
2220,0.3154546618461609,-0.19484785199165344,-119,9999.0,-9.532776832580566,-111,8491.0
2230,0.31563305854797363,-2.9581236839294434,-4,9999.0,-4.933218002319336,7,8491.0
2240,0.3157654106616974,-1.91072416305542,-102,9999.0,0.5684284567832947,-107,8491.0
2250,0.31587347388267517,-1.0030890703201294,-161,9999.0,2.5114517211914062,219,8491.0
2260,0.3151969015598297,-1.2171663045883179,116,9999.0,5.181943893432617,266,8491.0
2270,0.3152688145637512,-1.1849699020385742,-38,9999.0,9.494129180908203,108,8491.0
2280,0.31531670689582825,1.1123024225234985,59,9999.0,6.877011775970459,171,8491.0
2290,0.31537288427352905,1.5500868558883667,139,9999.0,6.040579319000244,64,8491.0
2300,0.3140681982040405,-0.8064160943031311,-50,9999.0,5.41973876953125,-94,8491.0
2310,0.31403419375419617,2.575986623764038,5,9999.0,-3.638096809387207,8,8491.0
2320,0.3140290379524231,-0.7571552991867065,58,9999.0,-6.401242733001709,-119,8491.0
2330,0.31405988335609436,-0.45325416326522827,-59,9999.0,-8.069266319274902,-202,8491.0
2340,0.3156467378139496,-1.9130206108093262,-77,9999.0,-9.755961418151855,2,8491.0
2350,0.3157409131526947,-1.4420567750930786,84,9999.0,-9.371224403381348,-60,8491.0
2360,0.31582286953926086,-2.944269895553589,-90,9999.0,-3.2491648197174072,-156,8491.0
2370,0.31589481234550476,-5.720595836639404,-77,9999.0,1.1260653734207153,32,8491.0
2380,0.3159709870815277,-4.983296871185303,-25,9999.0,2.906503677368164,10,8491.0
2390,0.3169136047363281,-3.0803935527801514,-101,9999.0,9.09240436553955,-26,8491.0
2400,0.3171120584011078,0.7291418313980103,-61,9999.0,9.356864929199219,248,8491.0
2410,0.3172380328178406,0.3714742362499237,84,9999.0,10.578288078308105,233,8491.0
2420,0.31733906269073486,2.2721972465515137,-20,9999.0,11.136950492858887,121,8491.0
2430,0.3169536888599396,3.8632924556732178,4,9999.0,4.249082565307617,200,8491.0
2440,0.31721246242523193,4.219757556915283,216,9999.0,3.164888381958008,115,8491.0
2450,0.31727737188339233,10.71800422668457,103,9999.0,-4.701272964477539,46,8491.0
2460,0.3175722360610962,3.769136428833008,-73,9999.0,-6.659584999084473,-183,8491.0
2470,0.31777602434158325,2.8798270225524902,100,9999.0,-11.786134719848633,-102,8491.0
2480,0.3171834647655487,0.356387197971344,-4,9999.0,-5.648168563842773,-244,8491.0
2490,0.3171587586402893,-1.5444103479385376,-176,9999.0,-3.229276180267334,-26,8491.0
2500,0.3171289563179016,-2.306400775909424,5,9999.0,-4.986016273498535,169,8491.0
2510,0.31713569164276123,-1.0368438959121704,-38,9999.0,-2.4203619956970215,13,8491.0
2520,0.3170850872993469,-2.416712760925293,-99,9999.0,4.801523685455322,9,8491.0
2530,0.3171002268791199,-0.6179043054580688,58,9999.0,7.575953483581543,294,8491.0
2540,0.31715869903564453,8.216079711914062,136,9999.0,-4.530358791351318,252,8491.0
2550,0.3172455132007599,0.5611965656280518,-88,9999.0,4.770932674407959,10,8491.0
2560,0.31716641783714294,-2.6161324977874756,42,9999.0,8.736658096313477,170,8491.0
2570,0.3173014223575592,-1.0631084442138672,30,9999.0,3.8384082317352295,-65,8491.0
2580,0.31732919812202454,1.30003023147583,-75,9999.0,0.9323509335517883,-27,8491.0
2590,0.31740209460258484,-4.978691101074219,21,9999.0,0.09292008727788925,78,8491.0
2600,0.3174794912338257,2.2581818103790283,-63,9999.0,-3.7996411323547363,-108,8491.0
2610,0.3178333342075348,-1.3029460906982422,-62,9999.0,-4.164834499359131,-81,8491.0
2620,0.31795790791511536,-3.2122132778167725,38,9999.0,-5.2314605712890625,96,8491.0
2630,0.3180912435054779,-2.339808225631714,56,9999.0,-3.199458360671997,-98,8491.0
2640,0.31840214133262634,2.2109124660491943,-178,9999.0,-2.893150568008423,-134,8491.0
2650,0.3193259537220001,-5.251550674438477,5,9999.0,0.9190029501914978,99,8491.0
2660,0.31944358348846436,-1.4730967283248901,-24,9999.0,3.178253173828125,-13,8491.0
2670,0.3197144865989685,3.2193589210510254,45,9999.0,4.765949726104736,234,8491.0
2680,0.3199766278266907,5.602242469787598,375,9999.0,3.219053268432617,122,8491.0
2690,0.3208630084991455,1.5372878313064575,-32,9999.0,4.04276704788208,12,8491.0
2700,0.3219231367111206,-1.3138478994369507,-91,9999.0,3.313908100128174,244,8491.0
2710,0.32220005989074707,-1.8299572467803955,50,9999.0,0.518136739730835,86,8491.0
2720,0.32246822118759155,0.23693719506263733,-109,9999.0,-3.2413060665130615,-184,8491.0
2730,0.3226715922355652,-0.7407709360122681,-12,9999.0,-2.793018102645874,-18,8491.0
2740,0.32177576422691345,-2.324021100997925,69,9999.0,2.604682445526123,20,8491.0
2750,0.3219156265258789,-1.1549984216690063,-63,9999.0,3.0979182720184326,-12,8491.0
2760,0.3220113217830658,-0.9456144571304321,47,9999.0,2.0014808177948,172,8491.0
2770,0.32207125425338745,-1.8201475143432617,134,9999.0,6.6714959144592285,175,8491.0
2780,0.3225322365760803,0.9009005427360535,-103,9999.0,3.859980344772339,15,8491.0
2790,0.3226037621498108,-0.9360279440879822,17,9999.0,4.122576713562012,229,8491.0
2800,0.3226012885570526,0.3442403972148895,-12,9999.0,1.2128738164901733,106,8491.0
2810,0.32259583473205566,-2.4432408809661865,-256,9999.0,-2.233356237411499,-6,8491.0
2820,0.3225891888141632,-9.009613037109375,-152,9999.0,0.06640226393938065,141,8491.0
2830,0.32235318422317505,-9.449321746826172,-107,9999.0,-5.035252094268799,-70,8491.0
2840,0.32224568724632263,-9.763028144836426,-201,9999.0,-6.640963077545166,-81,8491.0
2850,0.322237104177475,-7.997021198272705,-53,9999.0,-5.8493852615356445,7,8491.0
2860,0.3221411406993866,-5.00681734085083,-3,9999.0,-4.820013999938965,-199,8491.0
2870,0.3213497996330261,0.02073245868086815,-139,9999.0,-1.1253654956817627,-50,8491.0
2880,0.32110095024108887,-0.8732526898384094,-45,9999.0,-1.443713903427124,179,8491.0
2890,0.32106560468673706,-5.460114002227783,-44,9999.0,4.225203037261963,52,8491.0
2900,0.32100027799606323,-6.291428565979004,-182,9999.0,3.53562331199646,74,8491.0
2910,0.3220289647579193,-10.210411071777344,-112,9999.0,2.58933424949646,207,8491.0
2920,0.3217845559120178,-11.370338439941406,-23,9999.0,3.057070255279541,-39,8491.0
2930,0.3217202126979828,-12.68168830871582,-229,9999.0,2.0292131900787354,-179,8491.0
2940,0.321677029132843,-11.702895164489746,-195,9999.0,-4.839282512664795,-4,8491.0
2950,0.3216138482093811,-13.874693870544434,-108,9999.0,-2.7450010776519775,-2,8491.0
2960,0.3209587335586548,-9.250226974487305,-162,9999.0,-1.9928147792816162,-167,8491.0
2970,0.3208235204219818,-3.894160509109497,-113,9999.0,-6.06704568862915,-34,8491.0
2980,0.3208226263523102,-1.6914434432983398,86,9999.0,-4.324717998504639,138,8491.0
2990,0.32069993019104004,-2.069171667098999,-30,9999.0,-0.39510610699653625,-67,8491.0
3000,0.32160672545433044,-2.949749231338501,-186,9999.0,-0.6308470368385315,37,8491.0
3010,0.321590393781662,-8.853950500488281,-102,9999.0,2.738564968109131,103,8491.0
3020,0.32157397270202637,-9.389060020446777,-147,9999.0,-1.2326303720474243,-83,8491.0
3030,0.32162460684776306,-11.41970157623291,-300,9999.0,0.8497545719146729,-109,8491.0
3040,0.32162201404571533,-7.156557083129883,-142,9999.0,-7.3118414878845215,115,8491.0
3050,0.3197063207626343,-11.923688888549805,-7,9999.0,-5.152498245239258,-4,8491.0
3060,0.31954288482666016,-7.167416572570801,-100,9999.0,0.9846816062927246,-28,8491.0
3070,0.3193742632865906,-3.974334239959717,-59,9999.0,1.625931978225708,39,8491.0
3080,0.31942522525787354,3.0082249641418457,114,9999.0,-0.24299106001853943,21,8491.0
3090,0.3195186257362366,5.463901996612549,112,9999.0,3.8724629878997803,203,8491.0
3100,0.3193725347518921,6.818742752075195,-44,9999.0,2.5484790802001953,2,8491.0
3110,0.31925085186958313,7.871819972991943,147,9999.0,1.693779706954956,215,8491.0
3120,0.31909656524658203,7.425605773925781,288,9999.0,-0.1667131930589676,68,8491.0
3130,0.3181956112384796,2.7319374084472656,38,9999.0,1.5210164785385132,-96,8491.0
3140,0.3179118037223816,3.9165611267089844,-13,9999.0,-4.799226760864258,47,8491.0
3150,0.3177418112754822,-0.17730028927326202,66,9999.0,-2.885537624359131,-111,8491.0
3160,0.31748759746551514,-1.1856904029846191,-81,9999.0,-4.8236541748046875,-242,8491.0
3170,0.31732019782066345,-2.319087505340576,-216,9999.0,-6.560385227203369,-57,8491.0
3180,0.3185635507106781,-6.637508392333984,-90,9999.0,-0.716972291469574,51,8491.0
3190,0.3185747563838959,-9.585854530334473,-195,9999.0,1.2083885669708252,-45,8491.0
3200,0.3184513449668884,-10.220952987670898,-138,9999.0,3.2070858478546143,89,8491.0
3210,0.31831398606300354,-7.21319055557251,39,9999.0,5.175443172454834,425,8491.0
3220,0.31695201992988586,-2.91363263130188,-146,9999.0,2.315216064453125,14,8491.0
3230,0.3167889714241028,-3.742368698120117,-136,9999.0,1.4939115047454834,-61,8491.0
3240,0.3166169822216034,-4.347514629364014,-4,9999.0,1.4986311197280884,70,8491.0
3250,0.316449910402298,2.4813802242279053,5,9999.0,-0.011963683180510998,26,8491.0
3260,0.31631314754486084,5.041239261627197,32,9999.0,-2.93843936920166,-123,8491.0
3270,0.3172925114631653,7.8047661781311035,179,9999.0,-4.583240509033203,-137,8491.0
3280,0.31726816296577454,6.1276702880859375,325,9999.0,-5.232518196105957,142,8491.0
3290,0.3172825872898102,6.088719844818115,150,9999.0,3.4192910194396973,-134,8491.0
3300,0.3173099160194397,7.986761093139648,108,9999.0,-2.3760154247283936,-107,8491.0
3310,0.31796321272850037,4.393549919128418,125,9999.0,2.1932554244995117,145,8491.0
3320,0.31808772683143616,2.1791787147521973,101,9999.0,4.032320976257324,-45,8491.0
3330,0.3182436227798462,1.388503909111023,-120,9999.0,7.274048328399658,-47,8491.0
3340,0.3184005320072174,-2.3419296741485596,-52,9999.0,2.1460676193237305,217,8491.0
3350,0.31796693801879883,-0.5448940992355347,86,9999.0,-1.1456013917922974,94,8491.0
3360,0.31811758875846863,-0.5297545194625854,-30,9999.0,8.303520202636719,115,8491.0
3370,0.318242609500885,0.7832342386245728,-35,9999.0,6.8662638664245605,212,8491.0
3380,0.318357914686203,3.0295660495758057,128,9999.0,1.2855929136276245,148,8491.0
3390,0.3184715807437897,4.045163631439209,108,9999.0,2.2709476947784424,-75,8491.0
3400,0.3179786503314972,9.170727729797363,68,9999.0,0.4327431321144104,-278,8491.0
3410,0.318077027797699,11.019547462463379,-14,9999.0,6.730060577392578,20,8491.0
3420,0.3181700110435486,1.8699417114257812,123,9999.0,-2.137460708618164,30,8491.0
3430,0.3182571828365326,-0.19707176089286804,-22,9999.0,-2.145909070968628,-70,8491.0
3440,0.3189873993396759,-1.2755365371704102,-96,9999.0,0.3617536723613739,-4,8491.0
3450,0.3191334903240204,-0.1038842499256134,73,9999.0,0.12746208906173706,131,8491.0
3460,0.31927579641342163,0.4504902958869934,49,9999.0,-2.7906103134155273,-75,8491.0
3470,0.31941771507263184,-2.004641532897949,-99,9999.0,-1.9256047010421753,-113,8491.0
3480,0.3208087384700775,1.8001350164413452,-64,9999.0,-2.736665964126587,85,8491.0
3490,0.32093846797943115,-0.8453103303909302,35,9999.0,3.422208547592163,76,8491.0
3500,0.32107385993003845,1.2696934938430786,9,9999.0,1.9498714208602905,-71,8491.0
3510,0.3211917281150818,4.326211929321289,52,9999.0,4.224589824676514,102,8491.0
3520,0.32131227850914,7.067494869232178,219,9999.0,-0.06160154566168785,49,8491.0
3530,0.3224351704120636,9.389010429382324,173,9999.0,-1.9020938873291016,-160,8491.0
3540,0.32265523076057434,7.979752063751221,39,9999.0,1.7408204078674316,-3,8491.0
3550,0.3228628635406494,7.285022735595703,125,9999.0,-8.70152473449707,-72,8491.0
3560,0.32310450077056885,6.915889739990234,234,9999.0,-4.624774932861328,-73,8491.0
3570,0.322031170129776,4.240999698638916,23,9999.0,-1.3139269351959229,-74,8491.0
3580,0.32211729884147644,2.2120790481567383,81,9999.0,1.9348397254943848,188,8491.0
3590,0.3222900629043579,2.6289873123168945,151,9999.0,3.0835659503936768,59,8491.0
3600,0.3224140405654907,3.9986684322357178,-22,9999.0,6.322801113128662,-138,8491.0
3610,0.32253363728523254,5.11758279800415,-90,9999.0,4.177586555480957,-22,8491.0
3620,0.32399290800094604,0.8783903121948242,61,9999.0,1.142059326171875,62,8491.0
3630,0.32416465878486633,1.424323558807373,-23,9999.0,1.0028315782546997,-66,8491.0
3640,0.32432395219802856,-2.339756965637207,-100,9999.0,0.09164215624332428,-13,8491.0
3650,0.3244965672492981,0.4883594810962677,64,9999.0,-2.782855749130249,50,8491.0
3660,0.32436391711235046,1.2939834594726562,100,9999.0,-4.746865272521973,-98,8491.0
3670,0.32440149784088135,1.4774447679519653,-110,9999.0,2.449251890182495,-169,8491.0
3680,0.3244011104106903,4.372965335845947,-41,9999.0,-0.5633435845375061,134,8491.0
3690,0.32437631487846375,2.227625608444214,83,9999.0,3.890704870223999,234,8491.0
3700,0.32438042759895325,0.12361005693674088,-33,9999.0,-3.336347818374634,23,8491.0
3710,0.3241826891899109,0.6711457371711731,-30,9999.0,0.6277914047241211,46,8491.0
3720,0.32416459918022156,3.897019863128662,120,9999.0,0.7569200396537781,44,8491.0
3730,0.32401496171951294,5.967036724090576,88,9999.0,-2.189940929412842,-146,8491.0
3740,0.32404792308807373,6.652862071990967,82,9999.0,-2.720715284347534,-199,8491.0
3750,0.32251182198524475,6.030001163482666,141,9999.0,-0.9633034467697144,-173,8491.0
3760,0.3223755955696106,8.59070110321045,363,9999.0,-1.9024994373321533,22,8491.0
3770,0.322441965341568,1.4938256740570068,95,9999.0,3.648996591567993,-119,8491.0
3780,0.3224588930606842,7.241507053375244,-2,9999.0,0.3706463575363159,42,8491.0
3790,0.3230648934841156,7.296848297119141,138,9999.0,4.970076560974121,194,8491.0
3800,0.3230304419994354,8.323541641235352,93,9999.0,4.2180328369140625,53,8491.0
3810,0.3229781687259674,4.94925594329834,173,9999.0,5.288949489593506,73,8491.0
3820,0.32289251685142517,5.860867977142334,223,9999.0,1.7112476825714111,155,8491.0
3830,0.3228074014186859,3.902623176574707,60,9999.0,-3.506986618041992,90,8491.0
3840,0.3224601447582245,-4.684490203857422,-238,9999.0,-4.281970977783203,-259,8491.0
3850,0.3224369287490845,-3.3785133361816406,-36,9999.0,-3.518714189529419,-136,8491.0
3860,0.3224070370197296,-3.352236270904541,-4,9999.0,-6.776472568511963,-7,8491.0
3870,0.3224150836467743,-7.462030410766602,-176,9999.0,-2.7406797409057617,-108,8491.0
3880,0.32110148668289185,-6.354470252990723,-64,9999.0,1.3358973264694214,-58,8491.0
3890,0.32103806734085083,-5.994430065155029,-23,9999.0,2.414092779159546,159,8491.0
3900,0.3209962844848633,-0.6663467884063721,-25,9999.0,0.5143241882324219,197,8491.0
3910,0.3209920823574066,-0.6964218616485596,-103,9999.0,3.9305765628814697,-169,8491.0
3920,0.32173895835876465,-2.8716471195220947,-67,9999.0,3.5009448528289795,48,8491.0
3930,0.3218190371990204,1.1807729005813599,70,9999.0,-0.6263265609741211,33,8491.0
3940,0.3219250738620758,-2.1295394897460938,22,9999.0,0.674564778804779,-75,8491.0
3950,0.3220263421535492,3.465879201889038,50,9999.0,-1.4308128356933594,-76,8491.0
3960,0.32212236523628235,6.1127142906188965,133,9999.0,-1.5604864358901978,-95,8491.0
3970,0.3229275941848755,4.692016124725342,136,9999.0,-3.882777214050293,-37,8491.0
3980,0.32313331961631775,2.6724023818969727,-10,9999.0,-2.033069372177124,-100,8491.0
3990,0.3233751058578491,-2.38765811920166,-354,9999.0,-1.846264362335205,-61,8491.0
4000,0.32367464900016785,-6.436986446380615,-108,9999.0,1.0068801641464233,-75,8491.0
4010,0.32321229577064514,-9.453523635864258,-129,9999.0,1.280228614807129,173,8491.0
4020,0.32342371344566345,-8.144023895263672,-177,9999.0,0.39089587330818176,-22,8491.0
4030,0.3236355185508728,-7.649960041046143,-74,9999.0,1.4884984493255615,74,8491.0
4040,0.3238948881626129,-2.5908026695251465,61,9999.0,-1.757644772529602,83,8491.0
4050,0.32419687509536743,-2.0138633251190186,-10,9999.0,0.4679703712463379,-164,8491.0
4060,0.32441598176956177,-0.055876776576042175,-149,9999.0,2.3930892944335938,-239,8491.0
4070,0.32470351457595825,8.502066612243652,212,9999.0,-0.41140156984329224,274,8491.0
4080,0.32501229643821716,13.995956420898438,397,9999.0,1.2524182796478271,71,8491.0
4090,0.3253333568572998,5.789121627807617,39,9999.0,1.2577801942825317,-63,8491.0
4100,0.3242064118385315,7.132674694061279,125,9999.0,0.5756421089172363,-7,8491.0
4110,0.32440385222435,5.846062183380127,85,9999.0,4.2759623527526855,21,8491.0
4120,0.3246293365955353,2.8341286182403564,-96,9999.0,0.5729352831840515,-10,8491.0
4130,0.32478490471839905,0.19738300144672394,47,9999.0,-2.7329800128936768,33,8491.0
4140,0.3234439790248871,-1.8201572895050049,130,9999.0,-5.060608386993408,-24,8491.0
4150,0.3235188126564026,-9.711315155029297,-118,9999.0,-4.222092628479004,-321,8491.0
4160,0.32355740666389465,-5.949647426605225,-75,9999.0,-1.7947148084640503,-67,8491.0
4170,0.32357272505760193,-7.022605895996094,-33,9999.0,-0.7735206484794617,-48,8491.0
4180,0.32360780239105225,-5.512700080871582,-146,9999.0,0.887634813785553,-141,8491.0
4190,0.321805477142334,-3.709245443344116,-219,9999.0,0.011930428445339203,51,8491.0
4200,0.3217185139656067,-2.5562336444854736,12,9999.0,-1.0888690948486328,238,8491.0
4210,0.32160496711730957,-2.248020887374878,9,9999.0,1.4200663566589355,54,8491.0
4220,0.32146525382995605,-2.811846971511841,-87,9999.0,5.407063007354736,52,8491.0
4230,0.32119137048721313,1.4489614963531494,41,9999.0,3.285874128341675,120,8491.0
4240,0.3210386037826538,3.397878408432007,119,9999.0,-0.42726433277130127,-32,8491.0
4250,0.32088083028793335,4.747600555419922,8,9999.0,-2.1515932083129883,-214,8491.0
4260,0.3207184672355652,4.677678108215332,-78,9999.0,-2.896764039993286,-19,8491.0
4270,0.32057493925094604,4.772286415100098,120,9999.0,2.4205210208892822,197,8491.0
4280,0.320280522108078,2.1809146404266357,157,9999.0,-0.3271138668060303,-25,8491.0
4290,0.32021477818489075,-0.5076078772544861,-52,9999.0,4.838134288787842,59,8491.0
4300,0.3201844096183777,0.39629045128822327,25,9999.0,2.585866689682007,84,8491.0
4310,0.32016825675964355,-1.0250952243804932,66,9999.0,-0.4681231379508972,23,8491.0
4320,0.32010000944137573,-0.35583046078681946,-14,9999.0,-1.6848597526550293,-192,8491.0
4330,0.32011279463768005,-1.6964633464813232,-139,9999.0,-1.4727344512939453,-94,8491.0
4340,0.32014092803001404,-4.737899303436279,-6,9999.0,-3.6538467407226562,65,8491.0
4350,0.3201853334903717,-1.5651386976242065,39,9999.0,-2.0992727279663086,-71,8491.0
4360,0.32027745246887207,-1.2050840854644775,-72,9999.0,-1.0040560960769653,-83,8491.0
4370,0.3210519552230835,-2.852569580078125,-24,9999.0,1.5938720703125,140,8491.0
4380,0.3211793899536133,0.6325014233589172,136,9999.0,0.0016871424159035087,208,8491.0
4390,0.3213375210762024,2.8753504753112793,-6,9999.0,-1.2254239320755005,73,8491.0
4400,0.3215198516845703,0.46602746844291687,-53,9999.0,3.7566041946411133,-44,8491.0
4410,0.3198327124118805,2.9074153900146484,71,9999.0,2.039337635040283,132,8491.0
4420,0.319925457239151,2.6854000091552734,107,9999.0,3.9852259159088135,18,8491.0
4430,0.3200134336948395,4.84297513961792,-43,9999.0,1.6811106204986572,-65,8491.0
4440,0.3202850818634033,1.959851622581482,149,9999.0,0.9096563458442688,83,8491.0
4450,0.3202870786190033,3.648688316345215,101,9999.0,-2.238748550415039,137,8491.0
4460,0.3204619884490967,0.004568832460790873,-165,9999.0,-4.6196608543396,74,8491.0
4470,0.3206411898136139,-4.224822044372559,-56,9999.0,-3.5448596477508545,-5,8491.0
4480,0.3207905888557434,-3.9978249073028564,-33,9999.0,-2.577666997909546,-110,8491.0
4490,0.3209797739982605,-2.93243408203125,-93,9999.0,-0.6340566277503967,-50,8491.0
4500,0.32068830728530884,-1.7928156852722168,-46,9999.0,3.2568442821502686,175,8491.0
4510,0.3208373188972473,0.8336102366447449,64,9999.0,1.7869093418121338,124,8491.0
4520,0.3209957182407379,0.5096594095230103,-23,9999.0,2.3405187129974365,36,8491.0
4530,0.32115474343299866,-0.9824276566505432,-52,9999.0,4.159818172454834,-37,8491.0
4540,0.32081174850463867,-3.45227313041687,-31,9999.0,3.7718312740325928,78,8491.0
4550,0.320930540561676,-2.934835433959961,22,9999.0,-0.4033017158508301,-117,8491.0
4560,0.3210652768611908,-2.208529233932495,-183,9999.0,-2.291477918624878,-217,8491.0
4570,0.3212044835090637,-1.7690805196762085,-203,9999.0,-6.705508232116699,-324,8491.0
4580,0.3216278851032257,-4.675382614135742,9,9999.0,-8.097589492797852,-64,8491.0
4590,0.3218328356742859,-4.711032867431641,-106,9999.0,-6.231736183166504,-106,8491.0
4600,0.3220486640930176,-3.5603177547454834,-62,9999.0,-5.259357929229736,-19,8491.0
4610,0.32233303785324097,0.5332134366035461,78,9999.0,-4.5184006690979,102,8491.0
4620,0.3226553797721863,2.1421194076538086,77,9999.0,1.1859445571899414,-45,8491.0
4630,0.32337045669555664,5.747436046600342,19,9999.0,3.898468017578125,5,8491.0
4640,0.3236995041370392,5.209198951721191,15,9999.0,7.838063716888428,244,8491.0
4650,0.3240692913532257,4.652261257171631,115,9999.0,7.12996244430542,89,8491.0
4660,0.32435622811317444,1.6423652172088623,19,9999.0,6.5857253074646,-38,8491.0
4670,0.32477694749832153,2.3856489658355713,-9,9999.0,0.5853227376937866,57,8491.0
4680,0.3250232934951782,-0.6688113808631897,65,9999.0,-8.676680564880371,30,8491.0
4690,0.3252527415752411,-1.2761746644973755,-105,9999.0,-4.786810874938965,-47,8491.0
4700,0.32543155550956726,-7.66939640045166,-238,9999.0,-12.499320983886719,-166,8491.0
4710,0.32558563351631165,-5.567863464355469,-67,9999.0,-5.467452049255371,26,8491.0
4720,0.3255118429660797,-5.270787715911865,-59,9999.0,-4.59183406829834,-115,8491.0
4730,0.3256450593471527,-2.1876747608184814,-77,9999.0,-0.9379658102989197,1,8491.0
4740,0.32577916979789734,0.5063883066177368,46,9999.0,-1.4491922855377197,97,8491.0
4750,0.32596272230148315,1.1143914461135864,257,9999.0,0.3425047993659973,17,8491.0
4760,0.3272539973258972,4.552218437194824,40,9999.0,8.197420120239258,-100,8491.0
4770,0.32745984196662903,6.628296375274658,20,9999.0,-1.1390262842178345,-103,8491.0
4780,0.3277740776538849,4.815372943878174,103,9999.0,-1.3511836528778076,58,8491.0
4790,0.3280046880245209,4.949078559875488,67,9999.0,1.0549569129943848,-49,8491.0
4800,0.3296571671962738,5.747037887573242,50,9999.0,1.7961101531982422,112,8491.0
4810,0.32996535301208496,6.537324905395508,202,9999.0,-0.035322025418281555,142,8491.0
4820,0.3302725851535797,4.475220203399658,86,9999.0,-0.9345735311508179,-54,8491.0
4830,0.33056360483169556,4.302035808563232,-88,9999.0,-0.7406362891197205,61,8491.0
4840,0.3308424949645996,3.1059868335723877,64,9999.0,-0.838918924331665,21,8491.0
4850,0.3314550220966339,2.387404680252075,-2,9999.0,3.8139140605926514,-2,8491.0
4860,0.3317142128944397,3.0871291160583496,-111,9999.0,3.5948500633239746,53,8491.0
4870,0.3319258987903595,-1.467481017112732,30,9999.0,-1.2575750350952148,154,8491.0
4880,0.3321214020252228,0.05865092575550079,23,9999.0,7.203863620758057,-6,8491.0
4890,0.33333781361579895,-2.306800603866577,-76,9999.0,-0.09880644828081131,103,8491.0
4900,0.3335452079772949,0.8776108026504517,68,9999.0,-0.43080827593803406,5,8491.0
4910,0.3338002860546112,1.846004605293274,-50,9999.0,0.2829594016075134,-145,8491.0
4920,0.33402732014656067,0.3238513171672821,-24,9999.0,-3.1405222415924072,4,8491.0
4930,0.3342219889163971,-0.307550847530365,112,9999.0,-3.9292843341827393,114,8491.0
4940,0.33314627408981323,-1.707694411277771,-32,9999.0,-2.395282506942749,-76,8491.0
4950,0.33326682448387146,0.7082780599594116,30,9999.0,-2.048276662826538,41,8491.0
4960,0.33334216475486755,0.3495654761791229,80,9999.0,-0.047041155397892,190,8491.0
4970,0.33342644572257996,0.8504467010498047,-152,9999.0,2.619771718978882,4,8491.0
4980,0.33328762650489807,1.240774393081665,36,9999.0,0.371442049741745,142,8491.0
4990,0.33330559730529785,0.9629829525947571,90,9999.0,3.8838706016540527,45,8491.0
5000,0.3332959711551666,3.749221086502075,-16,9999.0,3.0648436546325684,88,8491.0
5010,0.3332870602607727,1.2354211807250977,65,9999.0,-1.302441120147705,133,8491.0
5020,0.33329257369041443,0.297673761844635,-3,9999.0,3.3321549892425537,-173,8491.0
5030,0.3323413133621216,-2.17901611328125,-78,9999.0,-0.5890615582466125,-38,8491.0
5040,0.33225587010383606,-3.3127520084381104,-7,9999.0,1.1315821409225464,70,8491.0
5050,0.3321574926376343,-3.701072931289673,-69,9999.0,-2.273155689239502,-70,8491.0
5060,0.3320333957672119,-4.907929420471191,-10,9999.0,1.260940432548523,89,8491.0
5070,0.3299141228199005,-3.4283151626586914,-106,9999.0,-2.015303611755371,-1,8491.0
5080,0.3296237885951996,-2.261911392211914,-116,9999.0,-4.426865577697754,-192,8491.0
5090,0.32933005690574646,-5.3484015464782715,10,9999.0,1.1432298421859741,77,8491.0
5100,0.32904934883117676,-1.3468347787857056,-28,9999.0,-0.22132186591625214,-46,8491.0
5110,0.32885706424713135,1.5909135341644287,43,9999.0,3.408339262008667,-25,8491.0
5120,0.32860714197158813,3.44317626953125,127,9999.0,0.6406973600387573,161,8491.0
5130,0.3283648192882538,4.054919242858887,25,9999.0,3.059864044189453,-188,8491.0
5140,0.32814568281173706,0.9964868426322937,-305,9999.0,2.285257577896118,145,8491.0
5150,0.32799261808395386,1.1995338201522827,118,9999.0,-2.33780574798584,111,8491.0
5160,0.32783493399620056,-1.7897272109985352,79,9999.0,-4.9407758712768555,-49,8491.0
5170,0.32767096161842346,4.844363212585449,-22,9999.0,-3.3666603565216064,22,8491.0
5180,0.3275192677974701,3.8008410930633545,120,9999.0,1.128664493560791,153,8491.0
5190,0.32733437418937683,2.476181983947754,98,9999.0,3.7007105350494385,354,8491.0
5200,0.32792431116104126,0.8756968379020691,-128,9999.0,1.496580719947815,19,8491.0
5210,0.32782766222953796,-3.566650152206421,-23,9999.0,5.00705099105835,124,8491.0
5220,0.3277244567871094,-4.442939281463623,-10,9999.0,6.210727214813232,170,8491.0
5230,0.32763785123825073,-2.1977450847625732,-140,9999.0,1.8121869564056396,-52,8491.0
5240,0.32734668254852295,-3.351623773574829,-165,9999.0,2.5441172122955322,115,8491.0
5250,0.32726284861564636,-2.1841745376586914,-20,9999.0,-3.072903871536255,-17,8491.0
5260,0.3271978497505188,-1.72842538356781,11,9999.0,-2.9381444454193115,-86,8491.0
5270,0.3271472752094269,-2.896817684173584,-50,9999.0,2.8842766284942627,-45,8491.0
5280,0.32711926102638245,1.047783374786377,69,9999.0,-3.083524703979492,38,8491.0
5290,0.3286581337451935,1.1472333669662476,108,9999.0,0.7954182028770447,-70,8491.0
5300,0.3287871181964874,4.910872936248779,78,9999.0,1.6079703569412231,-147,8491.0
5310,0.32895293831825256,2.3629605770111084,-124,9999.0,4.583245754241943,144,8491.0
5320,0.329179972410202,2.162984609603882,86,9999.0,6.350375175476074,88,8491.0
5330,0.3303910493850708,0.9153258800506592,-17,9999.0,6.245889186859131,50,8491.0
5340,0.3306621015071869,-0.8073292970657349,-56,9999.0,9.096698760986328,204,8491.0
5350,0.3309715688228607,1.2502812147140503,130,9999.0,1.8998781442642212,132,8491.0
5360,0.3313003480434418,1.5969321727752686,135,9999.0,3.5858705043792725,-38,8491.0
5370,0.3316493034362793,-1.3344563245773315,-123,9999.0,0.05581784248352051,-64,8491.0
5380,0.33261314034461975,-2.0696682929992676,-29,9999.0,0.16742563247680664,1,8491.0
5390,0.33304205536842346,-4.118699073791504,-31,9999.0,-3.530592203140259,-142,8491.0
5400,0.333485871553421,-4.036586761474609,-167,9999.0,0.38005533814430237,-164,8491.0
5410,0.3339278995990753,-2.6365597248077393,-12,9999.0,-2.086832284927368,78,8491.0
5420,0.3350067734718323,4.147732257843018,185,9999.0,-4.315475940704346,-22,8491.0
5430,0.3354429006576538,-0.38309916853904724,-40,9999.0,0.8130277991294861,-56,8491.0
5440,0.3358551263809204,-0.40581485629081726,0,9999.0,2.633010149002075,114,8491.0
5450,0.3362233638763428,-2.0212574005126953,34,9999.0,2.784757137298584,-37,8491.0
5460,0.33674851059913635,-0.10589051991701126,-85,9999.0,3.8457717895507812,-76,8491.0
5470,0.3370630443096161,-1.1351535320281982,-8,9999.0,4.421045303344727,261,8491.0
5480,0.3373824656009674,-2.0151588916778564,62,9999.0,3.0508337020874023,80,8491.0
5490,0.33768102526664734,-1.002167820930481,6,9999.0,1.5581156015396118,-39,8491.0
5500,0.33803513646125793,0.9888762831687927,62,9999.0,-0.7765383720397949,71,8491.0
5510,0.33735164999961853,2.14394474029541,122,9999.0,-3.979652166366577,-123,8491.0
5520,0.3376850187778473,2.8700733184814453,-67,9999.0,-3.3879501819610596,-212,8491.0
5530,0.33793312311172485,0.1594100147485733,-15,9999.0,-9.18892765045166,4,8491.0
5540,0.33809518814086914,0.9749152064323425,90,9999.0,-6.784922122955322,-6,8491.0
5550,0.33892181515693665,-1.5878394842147827,-67,9999.0,-1.1859685182571411,3,8491.0
5560,0.3390267789363861,-1.955706000328064,4,9999.0,1.3001296520233154,227,8491.0
5570,0.3391091525554657,0.1792813539505005,69,9999.0,1.6993380784988403,14,8491.0
5580,0.339173823595047,0.193820059299469,-90,9999.0,-3.3862805366516113,-84,8491.0
5590,0.3391611874103546,-2.424518346786499,-38,9999.0,4.009509086608887,241,8491.0
5600,0.33912190794944763,-2.0392043590545654,3,9999.0,7.564820289611816,37,8491.0
5610,0.33908510208129883,-2.308212995529175,-106,9999.0,2.2403409481048584,52,8491.0
5620,0.33903151750564575,-3.7630600929260254,5,9999.0,1.8842378854751587,147,8491.0
5630,0.3390461802482605,-2.917344093322754,92,9999.0,0.6902284622192383,-184,8491.0
5640,0.3385823965072632,-1.1716643571853638,-141,9999.0,-5.453945636749268,-224,8491.0
5650,0.338884174823761,1.7311979532241821,20,9999.0,-5.272049903869629,-11,8491.0
5660,0.3388718068599701,4.312772274017334,38,9999.0,-4.0143141746521,-68,8491.0
5670,0.33901628851890564,3.321985960006714,77,9999.0,0.15315109491348267,-51,8491.0
5680,0.339422345161438,2.00742506980896,216,9999.0,2.1124956607818604,221,8491.0
5690,0.3388366997241974,2.8303112983703613,55,9999.0,5.8434157371521,45,8491.0
5700,0.33882930874824524,1.0217208862304688,-42,9999.0,5.642330169677734,12,8491.0
5710,0.3387017548084259,-1.1246731281280518,50,9999.0,3.5201215744018555,150,8491.0
5720,0.33880144357681274,0.2411760538816452,-29,9999.0,1.5342693328857422,-186,8491.0
5730,0.3387446701526642,1.2086513042449951,-70,9999.0,-0.8995632529258728,32,8491.0
5740,0.33882346749305725,8.192471504211426,125,9999.0,-13.172225952148438,-92,8491.0
5750,0.3386968672275543,-1.7990466356277466,11,9999.0,-4.259315013885498,-150,8491.0
5760,0.3393852710723877,-3.5940332412719727,-128,9999.0,1.120208740234375,75,8491.0
5770,0.33968669176101685,-5.049694061279297,-29,9999.0,4.198052406311035,231,8491.0
5780,0.3396528959274292,-3.6435508728027344,-101,9999.0,7.540857315063477,-41,8491.0
5790,0.3401472568511963,-2.7958719730377197,-144,9999.0,6.833434104919434,-25,8491.0
5800,0.3402708172798157,-1.8804244995117188,26,9999.0,3.7928097248077393,128,8491.0
5810,0.339103639125824,-1.4240107536315918,-18,9999.0,1.3490239381790161,-14,8491.0
5820,0.3393526077270508,-2.744691848754883,-121,9999.0,-1.529459834098816,18,8491.0
5830,0.33960530161857605,-2.3746721744537354,56,9999.0,-3.4034767150878906,38,8491.0
5840,0.3397441506385803,-0.9877942204475403,32,9999.0,-1.9430502653121948,-95,8491.0
5850,0.33990994095802307,2.23502254486084,-159,9999.0,0.7706514000892639,-67,8491.0
5860,0.3389746844768524,0.6088176369667053,-2,9999.0,-2.8700249195098877,7,8491.0
5870,0.339310884475708,2.6327052116394043,57,9999.0,-2.1722981929779053,29,8491.0
5880,0.33938971161842346,8.003718376159668,12,9999.0,1.24513578414917,62,8491.0
5890,0.3395787179470062,6.625940322875977,188,9999.0,3.323805809020996,214,8491.0
5900,0.3387301564216614,5.335709571838379,111,9999.0,4.532625198364258,-4,8491.0
5910,0.33887240290641785,2.8160347938537598,-81,9999.0,1.2108447551727295,7,8491.0
5920,0.3388824164867401,-0.7858738899230957,32,9999.0,-0.2802732288837433,17,8491.0
5930,0.3391135334968567,0.25299447774887085,-37,9999.0,-1.5771594047546387,-176,8491.0
5940,0.3391869068145752,0.7168830633163452,-72,9999.0,-2.503377676010132,-217,8491.0
5950,0.3383861184120178,4.618596076965332,185,9999.0,-2.628485918045044,128,8491.0
5960,0.3384265601634979,1.2572840452194214,41,9999.0,-3.33402943611145,-158,8491.0
5970,0.33844172954559326,3.193305730819702,-36,9999.0,-1.9866442680358887,72,8491.0
5980,0.33842939138412476,3.051457405090332,86,9999.0,-1.555357575416565,-61,8491.0
5990,0.337047278881073,5.318871974945068,-16,9999.0,-2.1314523220062256,-181,8491.0
6000,0.3369249999523163,7.335025787353516,23,9999.0,-7.5363688468933105,-59,8491.0
6010,0.336797833442688,-1.290112853050232,173,9999.0,2.465595245361328,94,8491.0
6020,0.33668994903564453,1.63815176486969,6,9999.0,2.939749002456665,-43,8491.0
6030,0.3367456793785095,-0.8624716997146606,-3,9999.0,1.9639383554458618,126,8491.0
6040,0.33665966987609863,-2.415064573287964,36,9999.0,-0.15673083066940308,-38,8491.0
6050,0.3365829288959503,-2.767451047897339,-166,9999.0,-0.6219083070755005,-94,8491.0
6060,0.3365384638309479,-4.2351555824279785,-64,9999.0,-2.79006028175354,121,8491.0
6070,0.3364814519882202,-4.4018683433532715,-35,9999.0,-2.9077534675598145,-64,8491.0
6080,0.3372143805027008,-5.0844597816467285,-162,9999.0,-2.8592333793640137,-31,8491.0
6090,0.3372417688369751,-3.9074857234954834,-1,9999.0,-3.706228256225586,117,8491.0
6100,0.33741095662117004,-0.9763437509536743,106,9999.0,-5.069273471832275,-258,8491.0
6110,0.3376332223415375,-2.983832359313965,-161,9999.0,-2.0140857696533203,-24,8491.0
6120,0.33860576152801514,-5.613081455230713,-28,9999.0,2.998875856399536,-34,8491.0
6130,0.33910298347473145,-3.634904623031616,-97,9999.0,-5.698299884796143,-166,8491.0
6140,0.3394118845462799,-5.679142475128174,-155,9999.0,-2.8585386276245117,-244,8491.0
6150,0.3396795392036438,-1.5564765930175781,43,9999.0,-2.6988065242767334,-89,8491.0
6160,0.33993303775787354,-2.245635747909546,-38,9999.0,-2.2745914459228516,-214,8491.0
6170,0.3386008143424988,-3.5606579780578613,-69,9999.0,0.9508812427520752,37,8491.0
6180,0.3388120234012604,-4.1507062911987305,-6,9999.0,4.430790901184082,129,8491.0
6190,0.3390018343925476,-2.716917037963867,-73,9999.0,3.4664812088012695,-88,8491.0
6200,0.3391837179660797,-2.4445927143096924,25,9999.0,7.461329460144043,126,8491.0
6210,0.33921343088150024,0.25780436396598816,79,9999.0,0.8642615079879761,-41,8491.0
6220,0.3393847346305847,1.2351982593536377,-7,9999.0,1.383907675743103,-11,8491.0
6230,0.3395165801048279,2.7342703342437744,110,9999.0,-2.5134212970733643,110,8491.0
6240,0.33962228894233704,0.16712315380573273,92,9999.0,-2.9863088130950928,-153,8491.0
6250,0.33825573325157166,1.7099394798278809,-60,9999.0,-2.928382158279419,-106,8491.0
6260,0.3382142186164856,-0.11762894690036774,63,9999.0,-5.226987361907959,-62,8491.0
6270,0.3381749987602234,-0.276756227016449,-50,9999.0,-3.0675106048583984,-157,8491.0
6280,0.3381371796131134,1.3489103317260742,110,9999.0,-4.716508865356445,71,8491.0
6290,0.3380889892578125,1.1200168132781982,14,9999.0,-1.156291127204895,104,8491.0
6300,0.33922818303108215,2.343048095703125,-47,9999.0,3.771362543106079,-51,8491.0
6310,0.33927077054977417,-1.0157206058502197,-3,9999.0,3.1342644691467285,175,8491.0
6320,0.339323490858078,-1.0411878824234009,-101,9999.0,5.683189392089844,44,8491.0
6330,0.3393639326095581,-1.2930281162261963,-20,9999.0,5.790916919708252,271,8491.0
6340,0.3392373025417328,0.4007604718208313,134,9999.0,1.0132145881652832,103,8491.0
6350,0.33925002813339233,-0.45437678694725037,12,9999.0,1.8468888998031616,27,8491.0
6360,0.3392046391963959,-2.07231068611145,12,9999.0,0.9331905245780945,145,8491.0
6370,0.33923038840293884,-0.7244556546211243,30,9999.0,0.9460797905921936,-85,8491.0
6380,0.3391953408718109,1.517869472503662,-169,9999.0,0.615063488483429,-37,8491.0
6390,0.33871081471443176,-1.046066164970398,28,9999.0,-4.238158226013184,-84,8491.0
6400,0.33865097165107727,-0.5267459750175476,60,9999.0,-3.8212316036224365,7,8491.0
6410,0.33858853578567505,1.0956273078918457,-2,9999.0,-4.755634307861328,-65,8491.0
6420,0.33852487802505493,1.6244145631790161,84,9999.0,-3.3827879428863525,96,8491.0
6430,0.33861950039863586,0.9968369603157043,-42,9999.0,-1.5226593017578125,-154,8491.0
6440,0.33838745951652527,3.107623815536499,-84,9999.0,2.04522442817688,58,8491.0
6450,0.33897149562835693,1.7731980085372925,115,9999.0,9.867744445800781,64,8491.0
6460,0.3389318585395813,7.233355522155762,64,9999.0,1.0840685367584229,19,8491.0
6470,0.33894652128219604,8.95128345489502,108,9999.0,5.461513042449951,211,8491.0
6480,0.3390452265739441,4.768459796905518,232,9999.0,4.830095291137695,31,8491.0
6490,0.3393595218658447,5.064871311187744,3,9999.0,1.8778938055038452,-122,8491.0
6500,0.339411199092865,3.5597102642059326,43,9999.0,-1.6785964965820312,3,8491.0
6510,0.3394143879413605,1.968157172203064,57,9999.0,-0.5922165513038635,-63,8491.0
6520,0.3380463719367981,2.8071370124816895,-38,9999.0,-1.815042495727539,-40,8491.0
6530,0.3379620611667633,1.0152572393417358,79,9999.0,-2.3501391410827637,132,8491.0
6540,0.33795446157455444,1.617896556854248,126,9999.0,-0.9545489549636841,-127,8491.0
6550,0.3381333649158478,1.5517290830612183,-139,9999.0,-0.41188687086105347,-66,8491.0
6560,0.33848297595977783,-0.11186470836400986,11,9999.0,-3.13688063621521,-16,8491.0
6570,0.3385326564311981,-2.3878307342529297,-67,9999.0,0.19612103700637817,-124,8491.0
6580,0.33858901262283325,-2.1644985675811768,-158,9999.0,-1.9091134071350098,-7,8491.0
6590,0.3386507034301758,-5.040931224822998,-19,9999.0,-1.8748342990875244,164,8491.0
6600,0.3387150764465332,-1.8565480709075928,-20,9999.0,-0.40759503841400146,-130,8491.0
6610,0.33809253573417664,-1.1212526559829712,-72,9999.0,2.261979341506958,100,8491.0
6620,0.3381495475769043,1.0077329874038696,93,9999.0,0.814122200012207,11,8491.0
6630,0.33833420276641846,4.161080360412598,-4,9999.0,0.12219494581222534,-157,8491.0
6640,0.33844900131225586,4.397590160369873,23,9999.0,0.7503907084465027,99,8491.0
6650,0.33841970562934875,3.3909807205200195,195,9999.0,0.5753804445266724,51,8491.0
6660,0.3386234939098358,-2.1166491508483887,-72,9999.0,-3.776758909225464,-130,8491.0
6670,0.33874279260635376,-5.674076080322266,-84,9999.0,-3.2791316509246826,-36,8491.0
6680,0.3388490378856659,-5.974775314331055,-11,9999.0,-2.991931438446045,-78,8491.0
6690,0.33938172459602356,-3.37966251373291,-171,9999.0,-2.170855760574341,-174,8491.0
6700,0.3395145833492279,-2.771554470062256,-69,9999.0,0.22161167860031128,122,8491.0
6710,0.33964502811431885,-5.55222225189209,76,9999.0,0.09067728370428085,78,8491.0
6720,0.33981865644454956,-2.1730406284332275,-55,9999.0,3.9260575771331787,84,8491.0
6730,0.3399466574192047,-0.24849966168403625,41,9999.0,5.271199703216553,199,8491.0
6740,0.33967795968055725,0.24431641399860382,27,9999.0,5.003836631774902,-103,8491.0
6750,0.33980318903923035,2.2368059158325195,-175,9999.0,6.250591278076172,-91,8491.0
6760,0.33994928002357483,-2.6955132484436035,-49,9999.0,3.530761241912842,4,8491.0
6770,0.3401472568511963,-0.38407567143440247,20,9999.0,-3.8731415271759033,-44,8491.0
6780,0.3410814702510834,-1.1055744886398315,-5,9999.0,-6.194839000701904,-113,8491.0
6790,0.34136682748794556,-0.4314974248409271,78,9999.0,-6.50017786026001,-75,8491.0
6800,0.341607004404068,1.6975780725479126,27,9999.0,-5.1761393547058105,-44,8491.0
6810,0.341841459274292,2.353400945663452,-158,9999.0,-8.05957317352295,25,8491.0
6820,0.34161651134490967,-1.678770899772644,103,9999.0,1.0898115634918213,67,8491.0
6830,0.34172508120536804,1.0933642387390137,15,9999.0,2.0635433197021484,65,8491.0
6840,0.34189677238464355,1.9098334312438965,37,9999.0,5.543856620788574,235,8491.0
6850,0.3420187830924988,2.5158772468566895,-46,9999.0,7.044895172119141,-8,8491.0
6860,0.34215888381004333,2.7212207317352295,-9,9999.0,2.9124271869659424,-122,8491.0
6870,0.34306615591049194,5.213024139404297,246,9999.0,-0.09211128950119019,223,8491.0
6880,0.34325170516967773,2.8583686351776123,-73,9999.0,0.04921567812561989,-47,8491.0
6890,0.3434155583381653,-0.578449010848999,-35,9999.0,-2.5161030292510986,-50,8491.0
6900,0.34355831146240234,-2.7468411922454834,-53,9999.0,-2.1582159996032715,-43,8491.0
6910,0.3430573642253876,-2.3165388107299805,-114,9999.0,-4.383604526519775,-185,8491.0
6920,0.3430866003036499,-3.1755521297454834,32,9999.0,-0.45550915598869324,105,8491.0
6930,0.3431672751903534,-4.2549052238464355,-115,9999.0,-4.561625003814697,-63,8491.0
6940,0.343206524848938,0.618740439414978,-74,9999.0,-2.4211671352386475,-77,8491.0
6950,0.34322503209114075,4.356341361999512,77,9999.0,-6.134798526763916,43,8491.0
6960,0.3427659273147583,-0.2644719183444977,-55,9999.0,-1.7942668199539185,-22,8491.0
6970,0.34306418895721436,3.188682794570923,93,9999.0,-0.22410903871059418,173,8491.0
6980,0.3430468440055847,3.912550449371338,92,9999.0,1.6516169309616089,9,8491.0
6990,0.34318962693214417,3.938176155090332,-36,9999.0,4.3837480545043945,77,8491.0
7000,0.34322458505630493,3.2863645553588867,39,9999.0,3.986051321029663,166,8491.0
7010,0.34326693415641785,3.1302027702331543,3,9999.0,5.9345221519470215,102,8491.0
7020,0.3433249890804291,2.601999044418335,53,9999.0,0.39873558282852173,197,8491.0
7030,0.3434152901172638,3.1324563026428223,159,9999.0,-1.6846953630447388,29,8491.0
7040,0.34244492650032043,0.5533365607261658,-40,9999.0,-2.9945428371429443,-214,8491.0
7050,0.3424115478992462,2.68228816986084,23,9999.0,-1.379497766494751,128,8491.0
7060,0.3423980474472046,7.317357540130615,191,9999.0,-0.3777037262916565,39,8491.0
7070,0.34237003326416016,7.994359493255615,109,9999.0,2.0409393310546875,47,8491.0
7080,0.342328816652298,6.511892795562744,173,9999.0,4.794249057769775,224,8491.0
7090,0.34179428219795227,7.5547308921813965,165,9999.0,3.3628671169281006,-81,8491.0
7100,0.3417052626609802,4.510883808135986,-103,9999.0,3.3237621784210205,-165,8491.0
7110,0.34159940481185913,5.657296657562256,90,9999.0,0.7398508787155151,207,8491.0
7120,0.341511994600296,5.855199813842773,116,9999.0,-0.5495848655700684,-5,8491.0
7130,0.34124064445495605,3.8586530685424805,42,9999.0,1.465146541595459,53,8491.0
7140,0.34114155173301697,2.7360970973968506,112,9999.0,0.27218469977378845,49,8491.0
7150,0.341057151556015,3.03251576423645,16,9999.0,2.137845993041992,-171,8491.0
7160,0.34100043773651123,0.7263593673706055,-114,9999.0,-1.6368488073349,21,8491.0
7170,0.3410250246524811,-2.0505690574645996,20,9999.0,-2.5086824893951416,-42,8491.0
7180,0.3417872488498688,-4.30604887008667,-119,9999.0,-2.139657497406006,-103,8491.0
7190,0.34183400869369507,-4.971096038818359,-9,9999.0,-2.433917760848999,10,8491.0
7200,0.34186285734176636,-2.8077776432037354,76,9999.0,1.0597840547561646,-9,8491.0
7210,0.34188657999038696,-3.2381410598754883,-103,9999.0,3.999756336212158,-121,8491.0
7220,0.34038734436035156,-0.8700506091117859,-40,9999.0,3.8336873054504395,143,8491.0
7230,0.34034132957458496,-1.4034122228622437,18,9999.0,2.5687642097473145,-6,8491.0
7240,0.34028345346450806,-2.196505069732666,-108,9999.0,3.1765384674072266,30,8491.0
7250,0.3402650058269501,-0.8478800058364868,59,9999.0,1.7482761144638062,173,8491.0
7260,0.3405551016330719,-0.8931874632835388,81,9999.0,3.939131736755371,211,8491.0
7270,0.3405994772911072,-0.758958101272583,33,9999.0,-6.048720836639404,-153,8491.0
7280,0.340690016746521,-3.9514167308807373,-47,9999.0,-2.201249599456787,15,8491.0
7290,0.3408278226852417,-4.641294479370117,-81,9999.0,-0.9302218556404114,3,8491.0
7300,0.34098580479621887,-4.0720367431640625,-158,9999.0,-0.32359930872917175,-11,8491.0
7310,0.34115272760391235,-3.8702635765075684,15,9999.0,1.2010736465454102,181,8491.0
7320,0.34135404229164124,-5.653675556182861,-34,9999.0,4.480774879455566,143,8491.0
7330,0.341581791639328,0.40753045678138733,-93,9999.0,3.0137596130371094,-7,8491.0
7340,0.3418464958667755,-1.5390266180038452,29,9999.0,4.078816890716553,104,8491.0
7350,0.3424392342567444,0.43437251448631287,24,9999.0,4.0952935218811035,-30,8491.0
7360,0.34273919463157654,1.764101505279541,7,9999.0,1.9309653043746948,0,8491.0
7370,0.34300729632377625,1.3539742231369019,79,9999.0,0.5402108430862427,129,8491.0
7380,0.34324926137924194,-0.5567061901092529,26,9999.0,-7.903644561767578,177,8491.0
7390,0.34348732233047485,0.9597409963607788,-189,9999.0,-3.3986892700195312,-219,8491.0
7400,0.34347501397132874,0.8930761218070984,-20,9999.0,-5.92241907119751,43,8491.0
7410,0.3436209261417389,-1.4198319911956787,-6,9999.0,-4.176398754119873,-84,8491.0
7420,0.34374624490737915,-1.9699554443359375,-55,9999.0,-2.2677881717681885,51,8491.0
7430,0.34383949637413025,-1.7965434789657593,92,9999.0,-0.12196335196495056,10,8491.0
7440,0.3455614447593689,-0.31884539127349854,-30,9999.0,0.8885796666145325,-217,8491.0
7450,0.34570756554603577,0.47835445404052734,-156,9999.0,-3.1184661388397217,39,8491.0
7460,0.34585851430892944,-2.5561928749084473,45,9999.0,0.1656336486339569,4,8491.0
7470,0.34601029753685,-1.5867640972137451,-51,9999.0,1.0977777242660522,-32,8491.0
7480,0.3444843590259552,-2.43156361579895,-23,9999.0,-1.3817541599273682,124,8491.0
7490,0.3444991409778595,-2.044774055480957,-79,9999.0,-0.11849930137395859,-130,8491.0
7500,0.3445071876049042,2.2365410327911377,53,9999.0,-6.181969165802002,-170,8491.0
7510,0.3444962501525879,-3.700909376144409,133,9999.0,2.4026601314544678,93,8491.0
7520,0.34447574615478516,0.6906591057777405,-1,9999.0,-1.9779552221298218,-29,8491.0
7530,0.34382912516593933,-0.35854315757751465,46,9999.0,3.400503158569336,115,8491.0
7540,0.3437313139438629,-0.5936223864555359,-22,9999.0,4.543478965759277,-48,8491.0
7550,0.34361085295677185,-0.5553203821182251,-90,9999.0,1.6483731269836426,65,8491.0
7560,0.3435039222240448,-1.1205012798309326,112,9999.0,-1.7231969833374023,55,8491.0
7570,0.3439536690711975,-2.070899486541748,-12,9999.0,1.1242716312408447,-154,8491.0
7580,0.34384897351264954,-3.322593927383423,-16,9999.0,-2.312983512878418,-64,8491.0
7590,0.3437292277812958,-2.760044574737549,-14,9999.0,-2.7118513584136963,-97,8491.0
7600,0.3436237871646881,-3.428478479385376,-140,9999.0,-2.6455235481262207,-210,8491.0
7610,0.34331488609313965,-2.9477992057800293,-51,9999.0,-5.081606388092041,55,8491.0
7620,0.343174010515213,-7.001314640045166,68,9999.0,-6.044315814971924,-85,8491.0
7630,0.34302210807800293,-1.3491243124008179,-91,9999.0,-3.516726493835449,-87,8491.0
7640,0.3428524136543274,-0.8913283348083496,9,9999.0,0.32034236192703247,98,8491.0
7650,0.3427218198776245,-0.6306971311569214,13,9999.0,5.7208099365234375,170,8491.0
7660,0.3403264880180359,0.6988133788108826,-126,9999.0,5.530251502990723,105,8491.0
7670,0.3401319086551666,-0.1821923553943634,-15,9999.0,8.153560638427734,339,8491.0
7680,0.3399774432182312,-1.760737657546997,44,9999.0,5.669837951660156,51,8491.0
7690,0.339823842048645,-0.31149381399154663,-73,9999.0,2.4388937950134277,31,8491.0
7700,0.34020355343818665,-1.0608100891113281,44,9999.0,-1.3904101848602295,7,8491.0
7710,0.34008631110191345,1.491951584815979,-63,9999.0,-2.7538793087005615,-198,8491.0
7720,0.33996888995170593,0.7827793955802917,-17,9999.0,-6.234455108642578,-43,8491.0
7730,0.3398200571537018,1.4374752044677734,113,9999.0,-1.8627052307128906,121,8491.0
7740,0.33969148993492126,2.3783347606658936,53,9999.0,-4.962164878845215,-133,8491.0
7750,0.3389173746109009,1.1264455318450928,-20,9999.0,-2.0865654945373535,6,8491.0
7760,0.3387911915779114,1.0037304162979126,63,9999.0,-0.5512369275093079,-38,8491.0
7770,0.3386586010456085,-0.060294508934020996,-56,9999.0,-2.23105788230896,-163,8491.0
7780,0.3385581374168396,-3.451573610305786,-9,9999.0,3.1457619667053223,74,8491.0
7790,0.3371017277240753,-5.010965347290039,72,9999.0,-0.04648524150252342,8,8491.0
7800,0.33696651458740234,-1.702660322189331,-23,9999.0,-3.2896740436553955,-26,8491.0
7810,0.33687251806259155,-4.294328689575195,-6,9999.0,-0.07859209924936295,97,8491.0
7820,0.33684825897216797,-2.2372004985809326,16,9999.0,2.1449785232543945,-51,8491.0
7830,0.33809930086135864,0.29346346855163574,-157,9999.0,3.7762398719787598,40,8491.0
7840,0.338236540555954,0.5377783179283142,30,9999.0,3.6092724800109863,250,8491.0
7850,0.3384030759334564,1.6034061908721924,58,9999.0,0.18366718292236328,25,8491.0
7860,0.3385717570781708,0.42279860377311707,-26,9999.0,2.8251476287841797,45,8491.0
7870,0.3387308120727539,0.3549267053604126,63,9999.0,2.0970940589904785,18,8491.0
7880,0.33939996361732483,1.8380533456802368,-22,9999.0,-1.643959403038025,-180,8491.0
7890,0.3396061956882477,1.6940268278121948,-46,9999.0,-2.273465633392334,1,8491.0
7900,0.33984342217445374,-0.21346908807754517,210,9999.0,0.7333768606185913,-50,8491.0
7910,0.34007561206817627,-6.129180431365967,-89,9999.0,2.334872245788574,-225,8491.0
7920,0.3406986892223358,-2.1902194023132324,-26,9999.0,4.902514934539795,49,8491.0
7930,0.34101659059524536,1.1900197267532349,20,9999.0,4.030900001525879,-8,8491.0
7940,0.3413439989089966,4.208275318145752,-45,9999.0,5.6063666343688965,-71,8491.0
7950,0.34167441725730896,3.0943517684936523,175,9999.0,5.465701580047607,233,8491.0
7960,0.3420046269893646,2.8126585483551025,21,9999.0,3.073925018310547,-140,8491.0
7970,0.34237298369407654,2.8611624240875244,31,9999.0,4.449414253234863,-44,8491.0
7980,0.34271684288978577,2.5411465167999268,100,9999.0,0.5243290662765503,50,8491.0
7990,0.3430081605911255,4.114617824554443,27,9999.0,-2.2691867351531982,-25,8491.0
8000,0.3432939648628235,3.750058174133301,137,9999.0,-5.472838401794434,-23,8491.0
8010,0.3438512682914734,2.6481075286865234,-21,9999.0,-5.916584491729736,-255,8491.0
8020,0.3441135585308075,0.06564024090766907,10,9999.0,-6.368136405944824,-159,8491.0
8030,0.3443491458892822,0.9784542918205261,110,9999.0,-6.1788010597229,-19,8491.0
8040,0.34458231925964355,0.09316524863243103,-3,9999.0,-4.345684051513672,34,8491.0
8050,0.3452795445919037,0.2671317160129547,93,9999.0,1.523259162902832,-8,8491.0
8060,0.34545791149139404,-0.12414289265871048,-165,9999.0,3.2750496864318848,6,8491.0
8070,0.3455739915370941,-2.2206079959869385,-1,9999.0,5.952025890350342,323,8491.0
8080,0.3456360101699829,-0.8718522191047668,-18,9999.0,4.4736504554748535,11,8491.0
8090,0.34564730525016785,-1.91282057762146,-27,9999.0,6.029664516448975,113,8491.0
8100,0.34661033749580383,-1.213887095451355,-38,9999.0,5.269317626953125,-121,8491.0
8110,0.3466048538684845,1.7787762880325317,70,9999.0,-0.6355493068695068,-12,8491.0
8120,0.34656983613967896,2.1012351512908936,56,9999.0,0.010853277519345284,17,8491.0
8130,0.3465386927127838,4.280804634094238,-56,9999.0,-4.525929927825928,-314,8491.0
8140,0.3471021354198456,3.2975215911865234,158,9999.0,2.876331090927124,89,8491.0
8150,0.34713053703308105,3.5362257957458496,81,9999.0,-1.551325798034668,-40,8491.0
8160,0.3471810817718506,3.52205491065979,112,9999.0,-1.179149866104126,75,8491.0
8170,0.34721383452415466,4.247846603393555,6,9999.0,1.4479740858078003,-11,8491.0
8180,0.3472529351711273,3.31835675239563,48,9999.0,-2.754424571990967,36,8491.0
8190,0.34803134202957153,1.6891605854034424,92,9999.0,1.7475764751434326,-34,8491.0
8200,0.3480912744998932,0.1997700333595276,-68,9999.0,5.506051540374756,143,8491.0
8210,0.3481142818927765,-0.6351577639579773,42,9999.0,3.1090779304504395,-41,8491.0
8220,0.3481101989746094,0.676886260509491,-73,9999.0,5.360548973083496,-126,8491.0
8230,0.34928813576698303,-1.4519281387329102,76,9999.0,4.416897296905518,165,8491.0
8240,0.3494033217430115,-0.7160345911979675,-10,9999.0,3.8449947834014893,-180,8491.0
8250,0.3494948744773865,-3.779771327972412,-54,9999.0,1.8358389139175415,35,8491.0
8260,0.34955915808677673,-2.5020742416381836,-36,9999.0,-5.750426292419434,-98,8491.0
8270,0.35052695870399475,-3.1032490730285645,-77,9999.0,-6.35398530960083,-15,8491.0
8280,0.3505786657333374,-1.5451176166534424,97,9999.0,-9.33668327331543,-166,8491.0
8290,0.3506149351596832,-1.731941819190979,-118,9999.0,-8.331233978271484,-232,8491.0
8300,0.35060200095176697,-5.744237422943115,-27,9999.0,-1.2642985582351685,79,8491.0
8310,0.3505478501319885,-2.2338316440582275,-23,9999.0,3.5440914630889893,67,8491.0
8320,0.3486741781234741,-2.6757681369781494,-9,9999.0,5.76706600189209,154,8491.0
8330,0.3484826982021332,-1.0676759481430054,-17,9999.0,6.087479591369629,-25,8491.0
8340,0.34831753373146057,0.46098271012306213,-117,9999.0,5.481390476226807,197,8491.0
8350,0.34812796115875244,2.428480625152588,137,9999.0,1.0763438940048218,-3,8491.0
8360,0.3486948013305664,0.2730303704738617,-52,9999.0,1.8121017217636108,-91,8491.0
8370,0.3485511839389801,0.7914652228355408,-21,9999.0,-0.47145381569862366,13,8491.0
8380,0.3484208881855011,-0.44351279735565186,-28,9999.0,-1.5042306184768677,-76,8491.0
8390,0.3482745885848999,-1.2034136056900024,-4,9999.0,-1.0854324102401733,50,8491.0
8400,0.3481021523475647,-0.26501768827438354,115,9999.0,-2.2637436389923096,-130,8491.0
8410,0.3478941023349762,-2.8251028060913086,-245,9999.0,-0.3482692539691925,-54,8491.0
8420,0.34773218631744385,-5.224395275115967,6,9999.0,1.9370524883270264,92,8491.0
8430,0.3475804924964905,-1.546257495880127,14,9999.0,0.7005935907363892,-48,8491.0
8440,0.3474588096141815,-0.05914654582738876,4,9999.0,-1.682694911956787,33,8491.0
8450,0.3487529754638672,1.0767723321914673,69,9999.0,-1.2076724767684937,-114,8491.0
8460,0.34870555996894836,2.6358935832977295,-69,9999.0,-3.812023639678955,-44,8491.0
8470,0.3487170338630676,-1.2662686109542847,92,9999.0,0.8407338857650757,56,8491.0
8480,0.3486461639404297,-3.8922276496887207,-23,9999.0,0.13496915996074677,-184,8491.0
8490,0.34954410791397095,-0.9601486921310425,-71,9999.0,-0.08088574558496475,25,8491.0
8500,0.3495301902294159,-2.570932149887085,-36,9999.0,3.2782421112060547,69,8491.0
8510,0.3495281934738159,-0.8179053664207458,-61,9999.0,1.283360481262207,61,8491.0
8520,0.34951457381248474,-1.3770705461502075,84,9999.0,-0.6926448941230774,82,8491.0
8530,0.34951096773147583,-0.49638667702674866,-51,9999.0,-2.0219597816467285,-246,8491.0
8540,0.34892258048057556,0.13861002027988434,-15,9999.0,-2.0681729316711426,59,8491.0
8550,0.3489517271518707,-1.5691852569580078,72,9999.0,-5.851334095001221,-78,8491.0
8560,0.3489571511745453,-1.5715633630752563,-80,9999.0,-2.345947504043579,-82,8491.0
8570,0.34891122579574585,1.4282803535461426,73,9999.0,-4.45547342300415,-26,8491.0
8580,0.34850531816482544,2.1955485343933105,-20,9999.0,-1.7093309164047241,-56,8491.0
8590,0.3484782576560974,3.0819621086120605,93,9999.0,-0.6752897500991821,-32,8491.0
8600,0.3484424650669098,2.544755220413208,107,9999.0,-2.9195475578308105,-172,8491.0
8610,0.34837591648101807,1.517293095588684,-124,9999.0,0.7422972917556763,30,8491.0
8620,0.34828388690948486,-2.526804208755493,-8,9999.0,1.712186336517334,2,8491.0
8630,0.34850749373435974,-2.5129024982452393,-67,9999.0,0.7251031398773193,-108,8491.0
8640,0.3484801650047302,-4.174244403839111,16,9999.0,-2.824084997177124,39,8491.0
8650,0.3484015166759491,-0.5153089761734009,-46,9999.0,-3.011369466781616,-193,8491.0
8660,0.34830373525619507,-0.25980135798454285,-105,9999.0,-1.2628400325775146,-8,8491.0
8670,0.3476976752281189,-0.8990282416343689,134,9999.0,-5.655439376831055,-49,8491.0
8680,0.3475857377052307,-0.07410690188407898,-18,9999.0,-1.4453954696655273,-91,8491.0
8690,0.34742847084999084,-0.033744290471076965,35,9999.0,-5.054244518280029,-165,8491.0
8700,0.347247838973999,-1.2075082063674927,-113,9999.0,-7.575730800628662,-234,8491.0
8710,0.3469870090484619,-0.6565183401107788,146,9999.0,-6.142758846282959,-37,8491.0
8720,0.34801357984542847,0.3368764817714691,-75,9999.0,-4.730706691741943,-112,8491.0
8730,0.3478132486343384,-0.32773518562316895,-56,9999.0,-7.697073936462402,-102,8491.0
8740,0.34759601950645447,-3.6956424713134766,8,9999.0,-0.8679341077804565,-94,8491.0
8750,0.34738755226135254,-4.427286624908447,-99,9999.0,-5.837448596954346,-189,8491.0
8760,0.34743645787239075,-4.537425994873047,66,9999.0,-6.839731693267822,66,8491.0
8770,0.34726470708847046,-3.8584487438201904,-113,9999.0,-10.968146324157715,-155,8491.0
8780,0.3471111059188843,-3.548854112625122,14,9999.0,-6.563388347625732,-101,8491.0
8790,0.34697043895721436,-2.5326268672943115,-18,9999.0,-2.999404191970825,-15,8491.0
8800,0.3480280339717865,-1.7860312461853027,-27,9999.0,-1.855596661567688,-98,8491.0
8810,0.34799063205718994,0.31006863713264465,99,9999.0,-0.6794977784156799,-10,8491.0
8820,0.3479488492012024,-1.2965151071548462,-176,9999.0,2.1763498783111572,-11,8491.0
8830,0.34789955615997314,-0.6198903322219849,-41,9999.0,0.08110570162534714,130,8491.0
8840,0.34782713651657104,-3.647442579269409,-71,9999.0,1.9272611141204834,20,8491.0
8850,0.3482442796230316,-2.498980760574341,-38,9999.0,3.003084897994995,166,8491.0
8860,0.3482397794723511,-2.3714773654937744,59,9999.0,2.2479608058929443,-25,8491.0
8870,0.3482464849948883,-2.348086357116699,-217,9999.0,-1.7369310855865479,-94,8491.0
8880,0.34827038645744324,-3.0124566555023193,-25,9999.0,-0.4526575207710266,81,8491.0
8890,0.3478088080883026,-0.73859041929245,-16,9999.0,-0.782738983631134,-23,8491.0
8900,0.3478803038597107,1.5709291696548462,26,9999.0,-1.898412823677063,-29,8491.0
8910,0.34790363907814026,1.3134220838546753,128,9999.0,-1.509272813796997,-52,8491.0
8920,0.3479301333427429,2.2841949462890625,-125,9999.0,-2.601299524307251,-27,8491.0
8930,0.3483900725841522,1.8407089710235596,69,9999.0,-6.803316116333008,95,8491.0
8940,0.34849435091018677,4.440084934234619,0,9999.0,0.761656641960144,59,8491.0
8950,0.3486379086971283,2.104997396469116,66,9999.0,6.812774181365967,222,8491.0
8960,0.34865444898605347,0.9226778149604797,56,9999.0,9.248298645019531,-36,8491.0
8970,0.3488934636116028,1.3858343362808228,-100,9999.0,7.182388782501221,130,8491.0
8980,0.34735366702079773,2.0496926307678223,84,9999.0,10.454744338989258,153,8491.0
8990,0.3474352955818176,0.8570241928100586,-26,9999.0,7.3512043952941895,112,8491.0
9000,0.3474248945713043,1.229002594947815,131,9999.0,1.5598207712173462,114,8491.0
9010,0.3474442660808563,1.8339650630950928,47,9999.0,2.5839898586273193,-247,8491.0
9020,0.3480284512042999,3.8298473358154297,-2,9999.0,-2.5451622009277344,-26,8491.0
9030,0.3480488657951355,-2.4069786071777344,44,9999.0,-3.264347791671753,-107,8491.0
9040,0.3480844497680664,-1.125166654586792,-41,9999.0,-4.325584411621094,-43,8491.0
9050,0.3481261134147644,-1.658515453338623,77,9999.0,-5.190014839172363,11,8491.0
9060,0.3488296866416931,-2.7645046710968018,-122,9999.0,-0.17126773297786713,-158,8491.0
9070,0.34888002276420593,-1.6204408407211304,-56,9999.0,0.6190877556800842,130,8491.0
9080,0.34897780418395996,-1.9375040531158447,-4,9999.0,3.6646318435668945,68,8491.0
9090,0.3489811420440674,-2.322354793548584,-80,9999.0,5.9589972496032715,169,8491.0
9100,0.348939448595047,-1.2716429233551025,145,9999.0,4.552509784698486,53,8491.0
9110,0.3493592143058777,-0.9368531107902527,-69,9999.0,0.04426327347755432,-229,8491.0
9120,0.34925180673599243,-1.3102983236312866,-41,9999.0,8.792402267456055,210,8491.0
9130,0.34927868843078613,-1.5171756744384766,-3,9999.0,6.693424224853516,90,8491.0
9140,0.34900951385498047,-0.0358392633497715,-17,9999.0,3.2447595596313477,121,8491.0
9150,0.3490087389945984,2.175267457962036,108,9999.0,1.0713411569595337,52,8491.0
9160,0.34883591532707214,2.0637223720550537,-56,9999.0,0.2583012580871582,-159,8491.0
9170,0.34868672490119934,3.514650821685791,23,9999.0,-1.2278043031692505,-42,8491.0
9180,0.34853607416152954,3.044837474822998,170,9999.0,-2.295764207839966,-52,8491.0
9190,0.34837833046913147,2.5738630294799805,-12,9999.0,2.2061119079589844,39,8491.0
9200,0.3489547371864319,0.6796475052833557,68,9999.0,1.939771056175232,13,8491.0
9210,0.348869264125824,0.4021644592285156,-73,9999.0,2.9036500453948975,-44,8491.0
9220,0.34878215193748474,-0.9278374910354614,58,9999.0,1.4863266944885254,178,8491.0
9230,0.3487013876438141,-1.9632865190505981,78,9999.0,-0.1450168341398239,-54,8491.0
9240,0.3479961156845093,-2.10105562210083,-189,9999.0,3.808152675628662,65,8491.0
9250,0.3479309678077698,-2.952852725982666,-51,9999.0,3.5639548301696777,87,8491.0
9260,0.3478621542453766,-3.5579214096069336,-88,9999.0,5.75431489944458,3,8491.0
9270,0.3477913439273834,-0.045302197337150574,41,9999.0,2.7256486415863037,100,8491.0
9280,0.3482038080692291,0.9299501180648804,69,9999.0,4.694568634033203,-51,8491.0
9290,0.3481632173061371,-0.8008757829666138,-147,9999.0,1.2841334342956543,79,8491.0
9300,0.348103404045105,1.8077921867370605,70,9999.0,5.255029201507568,166,8491.0
9310,0.3480192720890045,3.970693588256836,54,9999.0,2.814680576324463,-27,8491.0
9320,0.34793621301651,3.0824668407440186,81,9999.0,0.6219062805175781,23,8491.0
9330,0.3475484251976013,3.4721949100494385,2,9999.0,-0.7682311534881592,-89,8491.0
9340,0.3474864065647125,1.6792445182800293,104,9999.0,-0.746479868888855,37,8491.0
9350,0.3475475609302521,2.2311816215515137,54,9999.0,-0.6194890141487122,-17,8491.0
9360,0.3475257456302643,1.7971354722976685,-109,9999.0,0.27599287033081055,-137,8491.0
9370,0.348080039024353,0.70625901222229,148,9999.0,0.1643059104681015,151,8491.0
9380,0.348074346780777,2.4621615409851074,31,9999.0,2.065932512283325,36,8491.0
9390,0.3482443392276764,3.63284969329834,30,9999.0,5.150049209594727,62,8491.0
9400,0.34825366735458374,5.642553806304932,84,9999.0,3.7754690647125244,15,8491.0
9410,0.34837043285369873,6.445030212402344,97,9999.0,2.408346652984619,-88,8491.0
9420,0.34745991230010986,6.521117210388184,206,9999.0,-3.0287232398986816,-89,8491.0
9430,0.34747952222824097,7.644454479217529,13,9999.0,-4.455413818359375,-164,8491.0
9440,0.3474942743778229,6.529834270477295,169,9999.0,-7.032619953155518,56,8491.0
9450,0.3475164771080017,5.454423904418945,127,9999.0,-3.4709432125091553,-168,8491.0
9460,0.3473334312438965,2.289729118347168,-86,9999.0,-2.7310891151428223,-25,8491.0
9470,0.3473702073097229,-0.25411492586135864,6,9999.0,-4.018252372741699,-26,8491.0
9480,0.3473869860172272,-2.0694351196289062,-63,9999.0,-3.2103540897369385,-46,8491.0
9490,0.34743499755859375,-3.308396339416504,22,9999.0,-1.9936949014663696,11,8491.0
9500,0.34807902574539185,-3.3030076026916504,-117,9999.0,-2.694779872894287,-216,8491.0
9510,0.3481895625591278,-1.916628122329712,-46,9999.0,0.7029716968536377,189,8491.0
9520,0.34844258427619934,-4.03955078125,86,9999.0,0.31916600465774536,-174,8491.0
9530,0.34857112169265747,-1.726091980934143,-58,9999.0,1.1233763694763184,-125,8491.0
9540,0.34869179129600525,-0.8258180022239685,46,9999.0,-4.0052618980407715,-68,8491.0
9550,0.3484506905078888,1.9895621538162231,34,9999.0,-1.3706164360046387,-77,8491.0
9560,0.34866592288017273,5.962963104248047,215,9999.0,-3.1433746814727783,-7,8491.0
9570,0.34886184334754944,9.733869552612305,94,9999.0,-0.46354836225509644,-172,8491.0
9580,0.34887608885765076,10.689096450805664,142,9999.0,-1.801411509513855,174,8491.0
9590,0.3487178385257721,8.70362663269043,230,9999.0,4.517261981964111,32,8491.0
9600,0.3488523066043854,11.24770450592041,-7,9999.0,3.608915328979492,127,8491.0
9610,0.3489183187484741,5.61313533782959,123,9999.0,6.578111171722412,125,8491.0
9620,0.34900227189064026,4.337677001953125,39,9999.0,-0.4044959843158722,-18,8491.0
9630,0.34828096628189087,0.3318580389022827,21,9999.0,0.2707119584083557,-68,8491.0
9640,0.34834861755371094,1.1041802167892456,-34,9999.0,-4.543881893157959,-151,8491.0
9650,0.3483915328979492,-0.9580009579658508,81,9999.0,-6.712036609649658,10,8491.0
9660,0.3483904004096985,-2.050405502319336,-39,9999.0,-4.280378818511963,-213,8491.0
9670,0.3483930230140686,-3.1663734912872314,-85,9999.0,-4.345426082611084,2,8491.0
9680,0.3486424386501312,-4.09134578704834,51,9999.0,-4.832484245300293,-59,8491.0
9690,0.34866464138031006,-2.434616804122925,-78,9999.0,-0.2952427566051483,-7,8491.0
9700,0.34869518876075745,-2.501133918762207,-49,9999.0,0.005908999126404524,-8,8491.0
9710,0.348826140165329,-0.5974761843681335,-84,9999.0,2.1733083724975586,118,8491.0
9720,0.348500519990921,-1.2962831258773804,102,9999.0,1.2414246797561646,5,8491.0
9730,0.3484477400779724,1.130617618560791,-104,9999.0,-0.030987108126282692,-93,8491.0
9740,0.34840813279151917,1.8254718780517578,44,9999.0,-2.0758562088012695,161,8491.0
9750,0.34836477041244507,2.3789236545562744,48,9999.0,-5.4206671714782715,-130,8491.0
9760,0.3483158349990845,0.8330718874931335,-40,9999.0,-4.418521881103516,-151,8491.0
9770,0.34812578558921814,0.417055606842041,48,9999.0,-4.283594131469727,-62,8491.0
9780,0.34803348779678345,0.3136861026287079,12,9999.0,-0.6240223050117493,39,8491.0
9790,0.3479471504688263,-1.068408727645874,79,9999.0,-2.254296064376831,153,8491.0
9800,0.34786468744277954,0.32313039898872375,-89,9999.0,-1.331588625907898,39,8491.0
9810,0.3490118682384491,1.1781349182128906,158,9999.0,-0.38310185074806213,95,8491.0
9820,0.3489595055580139,1.6377203464508057,-38,9999.0,4.079817295074463,-11,8491.0
9830,0.3489155173301697,3.0764989852905273,26,9999.0,5.330787658691406,174,8491.0
9840,0.3488718867301941,3.016465902328491,3,9999.0,5.349475860595703,68,8491.0
9850,0.34890347719192505,1.2548414468765259,121,9999.0,5.143082618713379,159,8491.0
9860,0.34731975197792053,0.4345240592956543,7,9999.0,4.615963459014893,-54,8491.0
9870,0.34720802307128906,0.34103748202323914,24,9999.0,4.4146833419799805,169,8491.0
9880,0.3470813035964966,-0.2214677631855011,139,9999.0,8.302355766296387,99,8491.0
9890,0.34693238139152527,1.6591140031814575,-47,9999.0,0.2731943428516388,6,8491.0
9900,0.34727832674980164,1.498139500617981,23,9999.0,-2.6526272296905518,-9,8491.0
9910,0.3471774756908417,-0.33472397923469543,19,9999.0,-1.483002781867981,-33,8491.0
9920,0.3470834195613861,0.04259645938873291,-40,9999.0,-1.173277735710144,26,8491.0
9930,0.3469899892807007,-1.847241997718811,-113,9999.0,-1.7888908386230469,-152,8491.0
9940,0.3461855947971344,-5.2434186935424805,105,9999.0,1.6386256217956543,155,8491.0
9950,0.3461448848247528,-2.6465225219726562,-201,9999.0,4.652359962463379,-18,8491.0
9960,0.3461361825466156,-3.3603994846343994,-17,9999.0,1.8383474349975586,82,8491.0
9970,0.34623250365257263,-2.370272636413574,-40,9999.0,4.920312404632568,74,8491.0
9980,0.34623849391937256,-1.6542009115219116,66,9999.0,1.8958525657653809,-40,8491.0
9990,0.34735268354415894,-0.8017353415489197,-32,9999.0,5.507385730743408,12,8491.0
10000,0.3474738299846649,1.905320167541504,-41,9999.0,2.3654255867004395,-36,8491.0
10010,0.34760943055152893,-1.2466504573822021,98,9999.0,5.435148239135742,212,8491.0
10020,0.34772801399230957,-0.8348528742790222,-110,9999.0,2.8116488456726074,-59,8491.0
10030,0.34749656915664673,-0.6062355041503906,33,9999.0,0.06349128484725952,-2,8491.0
10040,0.34757137298583984,0.047091372311115265,-39,9999.0,-1.6874696016311646,-40,8491.0
10050,0.3476862907409668,-2.405748128890991,25,9999.0,-2.5881121158599854,-79,8491.0
10060,0.34782856702804565,-1.732107162475586,-138,9999.0,-2.016425848007202,-146,8491.0
10070,0.34792348742485046,-3.0627546310424805,9,9999.0,-2.9223921298980713,-7,8491.0
10080,0.3476383090019226,-3.3854942321777344,-66,9999.0,-0.8135866522789001,-66,8491.0
10090,0.3477242588996887,-3.4761438369750977,-66,9999.0,0.1205528974533081,-2,8491.0
10100,0.3477933406829834,-4.136752605438232,-103,9999.0,1.0872514247894287,-54,8491.0
10110,0.3478495180606842,-3.0991625785827637,-6,9999.0,-1.3873437643051147,18,8491.0
10120,0.34917712211608887,-3.7552342414855957,-26,9999.0,-1.8981268405914307,86,8491.0
10130,0.3493240773677826,-3.34814190864563,-124,9999.0,0.2310197949409485,-79,8491.0
10140,0.34946370124816895,-4.545727729797363,-60,9999.0,-0.03461707755923271,62,8491.0
10150,0.34956374764442444,-4.975384712219238,-54,9999.0,0.7004915475845337,5,8491.0
10160,0.349880576133728,-4.575924873352051,-14,9999.0,-2.5959792137145996,-117,8491.0
10170,0.35011667013168335,-6.008814334869385,-219,9999.0,-0.4218806028366089,-78,8491.0
10180,0.3503094017505646,-6.79160737991333,11,9999.0,1.1441864967346191,43,8491.0
10190,0.3505222797393799,-4.411698341369629,-99,9999.0,3.8162224292755127,49,8491.0
10200,0.35070812702178955,-3.120518445968628,-46,9999.0,3.738189697265625,33,8491.0
10210,0.3513700067996979,-0.6869104504585266,-116,9999.0,2.0851809978485107,-134,8491.0
10220,0.3516319692134857,-3.303889513015747,127,9999.0,2.7959792613983154,16,8491.0
10230,0.3519262373447418,-1.1467041969299316,-98,9999.0,1.3251718282699585,-79,8491.0
10240,0.3522060513496399,-3.4237685203552246,-70,9999.0,0.7112918496131897,-9,8491.0
10250,0.3506767451763153,-2.2004222869873047,-127,9999.0,0.10393399000167847,-138,8491.0
10260,0.35074475407600403,-1.101914405822754,92,9999.0,-0.8058264851570129,33,8491.0
10270,0.3507665991783142,-1.236520767211914,-171,9999.0,5.008580684661865,26,8491.0
10280,0.3507845401763916,-0.2744140326976776,35,9999.0,2.3016445636749268,143,8491.0
10290,0.3508111238479614,2.897244453430176,25,9999.0,0.2294742614030838,59,8491.0
10300,0.35134586691856384,2.3509786128997803,131,9999.0,-1.1330468654632568,-75,8491.0
10310,0.3513855040073395,4.752793312072754,-35,9999.0,-2.4596683979034424,-103,8491.0
10320,0.35137608647346497,2.1146063804626465,140,9999.0,-3.715658187866211,-26,8491.0
10330,0.35132959485054016,3.686626672744751,30,9999.0,1.61279296875,-83,8491.0
10340,0.3499615788459778,2.0392470359802246,39,9999.0,1.7810304164886475,45,8491.0
10350,0.34978601336479187,-1.1216775178909302,-144,9999.0,3.1429154872894287,72,8491.0
10360,0.3495994508266449,-3.460076332092285,61,9999.0,5.311225414276123,182,8491.0
10370,0.3495091497898102,-5.725424766540527,-107,9999.0,2.1453192234039307,-17,8491.0
10380,0.3491804897785187,-7.900946140289307,-76,9999.0,3.8557088375091553,8,8491.0
10390,0.3489935100078583,-5.831366539001465,-219,9999.0,0.6066967844963074,11,8491.0
10400,0.34875768423080444,-6.876127243041992,0,9999.0,-1.7576569318771362,95,8491.0
10410,0.3485250473022461,-5.714356899261475,-151,9999.0,-0.25358062982559204,-45,8491.0
10420,0.34836673736572266,-6.231926918029785,-98,9999.0,0.9441730976104736,42,8491.0
10430,0.34857505559921265,-5.342915058135986,-154,9999.0,-2.607616424560547,-65,8491.0
10440,0.3484874665737152,-4.08126974105835,69,9999.0,-3.231454372406006,8,8491.0
10450,0.3483544588088989,-2.4795608520507812,-53,9999.0,-5.108402252197266,-255,8491.0
10460,0.3481777012348175,-1.3005084991455078,-56,9999.0,-3.9324722290039062,11,8491.0
10470,0.34679868817329407,-0.9721397161483765,-49,9999.0,-1.4377576112747192,-104,8491.0
10480,0.34648147225379944,-1.1136006116867065,102,9999.0,0.3290490210056305,90,8491.0
10490,0.34619900584220886,-1.4673821926116943,-96,9999.0,-0.614254891872406,-221,8491.0
10500,0.3459201455116272,-3.6451292037963867,-44,9999.0,2.5663492679595947,18,8491.0
10510,0.34557536244392395,-4.203697204589844,-125,9999.0,2.2610726356506348,15,8491.0
10520,0.34475216269493103,-5.595659255981445,-14,9999.0,3.683495283126831,194,8491.0
10530,0.3444378674030304,-6.611287593841553,-154,9999.0,3.1708216667175293,-140,8491.0
10540,0.3441077768802643,-7.3653998374938965,-124,9999.0,2.210636615753174,65,8491.0
10550,0.34369200468063354,-5.348945140838623,-101,9999.0,0.9737664461135864,-44,8491.0
10560,0.34361132979393005,-3.2899489402770996,16,9999.0,-1.6706243753433228,113,8491.0
10570,0.3433729112148285,0.3968258500099182,-97,9999.0,-5.4771928787231445,-184,8491.0
10580,0.34315091371536255,-0.7769103050231934,139,9999.0,-3.0609147548675537,78,8491.0
10590,0.34290021657943726,3.1692633628845215,32,9999.0,-3.2170121669769287,-144,8491.0
10600,0.34237542748451233,3.074453353881836,56,9999.0,-2.821899652481079,-59,8491.0
10610,0.34207049012184143,3.222804307937622,-54,9999.0,-1.4098411798477173,-43,8491.0
10620,0.3417987525463104,1.3590350151062012,169,9999.0,-5.710277557373047,-41,8491.0
10630,0.3415946662425995,0.812739372253418,-3,9999.0,-2.681635856628418,-118,8491.0
10640,0.3414570987224579,2.0923237800598145,54,9999.0,-1.6830947399139404,-9,8491.0
10650,0.342788964509964,-0.12826897203922272,-116,9999.0,1.3237600326538086,-9,8491.0
10660,0.34274688363075256,-2.121891975402832,62,9999.0,3.9824612140655518,141,8491.0
10670,0.34269627928733826,-0.20088651776313782,-13,9999.0,3.2112221717834473,15,8491.0
10680,0.34266233444213867,-0.30636346340179443,72,9999.0,2.597665548324585,117,8491.0
10690,0.342079758644104,1.0817582607269287,-118,9999.0,0.6717169880867004,-134,8491.0
10700,0.34215226769447327,-2.4546382427215576,86,9999.0,0.8290022015571594,39,8491.0
10710,0.34224262833595276,-0.2954360544681549,-6,9999.0,1.1594276428222656,3,8491.0
10720,0.34239304065704346,-0.6426106691360474,65,9999.0,-2.040642499923706,-52,8491.0
10730,0.34313732385635376,1.747478723526001,-124,9999.0,-4.402432441711426,-145,8491.0
10740,0.3433517813682556,3.1070005893707275,91,9999.0,-6.828910827636719,29,8491.0
10750,0.3435509204864502,1.0950303077697754,32,9999.0,-2.2592015266418457,-68,8491.0
10760,0.3438987135887146,-1.4343255758285522,45,9999.0,-0.5226370096206665,-57,8491.0
10770,0.3442288935184479,-1.2871137857437134,-199,9999.0,-1.0462278127670288,21,8491.0
10780,0.3463919162750244,-7.536749362945557,-49,9999.0,1.2564334869384766,71,8491.0
10790,0.34681621193885803,-8.490652084350586,-158,9999.0,0.5152013301849365,167,8491.0
10800,0.34737372398376465,-9.006461143493652,-143,9999.0,3.067188262939453,-86,8491.0
10810,0.34784752130508423,-11.855229377746582,-178,9999.0,3.9635751247406006,62,8491.0
10820,0.34697264432907104,-9.856945037841797,-187,9999.0,4.861490249633789,39,8491.0
10830,0.3471861779689789,-6.537841320037842,-35,9999.0,5.073864459991455,215,8491.0
10840,0.347310334444046,-3.251566171646118,-110,9999.0,6.925774097442627,46,8491.0
10850,0.34742575883865356,-0.8849701881408691,44,9999.0,7.053476810455322,150,8491.0
10860,0.34754329919815063,3.790966272354126,66,9999.0,7.066524505615234,82,8491.0
10870,0.3482028543949127,7.569136142730713,171,9999.0,3.264681339263916,47,8491.0
10880,0.3483877182006836,9.76803970336914,85,9999.0,1.815447211265564,54,8491.0
10890,0.3485584259033203,11.787405014038086,360,9999.0,-0.8499272465705872,34,8491.0
10900,0.34865501523017883,13.191859245300293,168,9999.0,-2.3572771549224854,-121,8491.0
10910,0.349193811416626,13.141678810119629,231,9999.0,-3.801968812942505,-115,8491.0
10920,0.3492226004600525,11.755744934082031,170,9999.0,-2.5117416381835938,73,8491.0
10930,0.3491896092891693,10.009851455688477,188,9999.0,-1.5738060474395752,-117,8491.0
10940,0.34914568066596985,8.85844898223877,92,9999.0,-0.9767946004867554,81,8491.0
10950,0.3491190969944,5.503026008605957,16,9999.0,4.762746334075928,46,8491.0
10960,0.34905582666397095,1.1324224472045898,158,9999.0,7.480957984924316,160,8491.0
10970,0.3489847481250763,1.1634773015975952,-53,9999.0,5.693432807922363,26,8491.0
10980,0.3489231467247009,-2.1760916709899902,-32,9999.0,3.84000301361084,147,8491.0
10990,0.3489241302013397,-2.7066261768341064,-146,9999.0,2.456012725830078,89,8491.0
11000,0.34895095229148865,-5.083976745605469,56,9999.0,-2.239534616470337,-108,8491.0
11010,0.34895968437194824,-4.722630977630615,-120,9999.0,-6.800039768218994,-138,8491.0
11020,0.34894123673439026,-3.1360883712768555,-33,9999.0,-8.840834617614746,-154,8491.0
11030,0.3488885462284088,1.230747938156128,-2,9999.0,-13.160041809082031,-24,8491.0
11040,0.3496830463409424,3.066030740737915,66,9999.0,-7.7270050048828125,-66,8491.0
11050,0.34967896342277527,4.314194202423096,16,9999.0,-7.628819942474365,-75,8491.0
11060,0.34972020983695984,6.45975399017334,74,9999.0,-4.3933610916137695,-150,8491.0
11070,0.3498278856277466,6.995069980621338,149,9999.0,-4.584226131439209,119,8491.0
11080,0.34994903206825256,4.509683132171631,23,9999.0,-1.2620433568954468,44,8491.0
11090,0.3484829366207123,2.926440715789795,72,9999.0,3.167093515396118,37,8491.0
11100,0.3485311269760132,1.6274750232696533,-120,9999.0,3.042133092880249,90,8491.0
11110,0.34857597947120667,-0.21280285716056824,105,9999.0,3.266157388687134,22,8491.0
11120,0.3485601246356964,0.020787648856639862,-59,9999.0,-1.1939082145690918,13,8491.0
11130,0.3479003310203552,-0.26074618101119995,-7,9999.0,3.055269718170166,-147,8491.0
11140,0.34778839349746704,2.1623620986938477,-11,9999.0,-1.7948713302612305,128,8491.0
11150,0.34770792722702026,1.6999704837799072,158,9999.0,-1.4288253784179688,-138,8491.0
11160,0.3476707339286804,5.696218967437744,94,9999.0,-4.070708274841309,-30,8491.0
11170,0.34766894578933716,5.807462692260742,16,9999.0,-5.259972095489502,-203,8491.0
11180,0.3474162220954895,2.573575258255005,164,9999.0,-5.75648832321167,91,8491.0
11190,0.3474244177341461,0.9172855019569397,15,9999.0,-1.0373207330703735,-44,8491.0
11200,0.34747546911239624,0.7428224682807922,8,9999.0,2.2929089069366455,35,8491.0
11210,0.3475063145160675,0.5276272296905518,-13,9999.0,4.193960666656494,24,8491.0
11220,0.3465081453323364,-0.7539764046669006,43,9999.0,7.6214470863342285,162,8491.0
11230,0.34640932083129883,-0.8629281520843506,-17,9999.0,7.736450672149658,164,8491.0
11240,0.34625953435897827,-2.8036670684814453,-122,9999.0,7.557072162628174,17,8491.0
11250,0.34615156054496765,-3.7393457889556885,-68,9999.0,5.293558597564697,303,8491.0
11260,0.3452809453010559,-5.260645389556885,-22,9999.0,0.9066340923309326,-124,8491.0
11270,0.3452119529247284,-6.967864036560059,-67,9999.0,2.7528645992279053,33,8491.0
11280,0.3451700508594513,-6.182591438293457,-142,9999.0,-1.9689182043075562,-152,8491.0
11290,0.345141738653183,-4.67463493347168,-94,9999.0,-3.3760218620300293,89,8491.0
11300,0.3450823426246643,-2.883134365081787,-45,9999.0,-2.7199697494506836,-61,8491.0
11310,0.3453749418258667,-1.5192790031433105,-67,9999.0,-3.8254027366638184,-1,8491.0
11320,0.3453434407711029,-0.5156685709953308,2,9999.0,-2.3018198013305664,-107,8491.0
11330,0.3453845679759979,1.3358653783798218,42,9999.0,-0.5160331726074219,130,8491.0
11340,0.3454604744911194,1.0090038776397705,102,9999.0,0.5467855930328369,146,8491.0
11350,0.34454458951950073,-1.3917574882507324,-132,9999.0,2.1482746601104736,88,8491.0
11360,0.3445420265197754,-0.16433465480804443,-22,9999.0,-0.2393769770860672,15,8491.0
11370,0.34448933601379395,-3.743957042694092,-29,9999.0,0.9811863899230957,181,8491.0
11380,0.3444083333015442,-3.7084338665008545,0,9999.0,0.1489068567752838,-176,8491.0
11390,0.344603955745697,-0.3099764883518219,-72,9999.0,-9.248125076293945,-63,8491.0
11400,0.3446347415447235,-3.599249839782715,14,9999.0,-1.9148014783859253,-39,8491.0
11410,0.34473171830177307,2.5434958934783936,26,9999.0,-1.7444305419921875,63,8491.0
11420,0.3448009788990021,2.3391449451446533,66,9999.0,3.1120200157165527,-138,8491.0
11430,0.3448777496814728,4.116016387939453,16,9999.0,0.7813955545425415,149,8491.0
11440,0.34335434436798096,4.501352310180664,189,9999.0,3.9609909057617188,-23,8491.0
11450,0.3433075249195099,4.379560947418213,101,9999.0,1.9635722637176514,28,8491.0
11460,0.34326478838920593,3.783853530883789,30,9999.0,2.9704275131225586,-25,8491.0
11470,0.3432500958442688,4.705362796783447,28,9999.0,1.6550507545471191,254,8491.0
11480,0.34277766942977905,3.546337127685547,77,9999.0,2.7336978912353516,-51,8491.0
11490,0.3427389860153198,1.084983229637146,27,9999.0,3.31821870803833,62,8491.0
11500,0.3427025377750397,1.4891728162765503,-36,9999.0,1.0918430089950562,-74,8491.0
11510,0.34265875816345215,1.3238848447799683,74,9999.0,-1.163896918296814,137,8491.0
11520,0.34260615706443787,0.794378399848938,-32,9999.0,0.5012634992599487,-2,8491.0
11530,0.3422895669937134,0.6439065933227539,12,9999.0,1.8774667978286743,27,8491.0
11540,0.3422408103942871,0.3112753927707672,-95,9999.0,3.710533618927002,44,8491.0
11550,0.3422337770462036,-1.6057713031768799,93,9999.0,1.0105315446853638,78,8491.0
11560,0.34231114387512207,-4.202706813812256,-150,9999.0,2.210702419281006,-42,8491.0
11570,0.34305524826049805,-4.108463764190674,-75,9999.0,2.107412576675415,-56,8491.0
11580,0.34323036670684814,-4.083803176879883,-140,9999.0,3.019958972930908,119,8491.0
11590,0.34339895844459534,-4.459559917449951,57,9999.0,2.979438543319702,51,8491.0
11600,0.34356293082237244,-2.8193821907043457,-149,9999.0,0.40622609853744507,54,8491.0
11610,0.3446056842803955,-3.7321372032165527,-6,9999.0,-0.24049322307109833,29,8491.0
11620,0.3448268473148346,-3.3643879890441895,-36,9999.0,0.3058290481567383,49,8491.0
11630,0.34505367279052734,-1.6683984994888306,-1,9999.0,-1.0252305269241333,81,8491.0
11640,0.34533271193504333,-2.7189669609069824,-88,9999.0,0.18205909430980682,172,8491.0
11650,0.34564587473869324,0.046845972537994385,75,9999.0,-2.387197494506836,-118,8491.0
11660,0.34678053855895996,0.3278755247592926,-8,9999.0,-2.6314761638641357,-20,8491.0
11670,0.34714677929878235,2.655160903930664,35,9999.0,-3.8595612049102783,-113,8491.0
11680,0.34753137826919556,2.38517689704895,130,9999.0,-5.484689235687256,18,8491.0
11690,0.3478969633579254,1.665392279624939,18,9999.0,-2.6161837577819824,-57,8491.0
11700,0.34776192903518677,2.9457499980926514,23,9999.0,-1.825106143951416,87,8491.0
11710,0.3480614125728607,0.4872172772884369,43,9999.0,1.658217430114746,34,8491.0
11720,0.34834185242652893,0.7097828984260559,72,9999.0,2.6993484497070312,7,8491.0
11730,0.34860748052597046,-1.5571773052215576,-169,9999.0,4.652973175048828,-99,8491.0
11740,0.34887367486953735,-1.984643816947937,100,9999.0,5.50069522857666,45,8491.0
11750,0.34836915135383606,-2.5679662227630615,-89,9999.0,-0.06330490112304688,43,8491.0
11760,0.3485710620880127,-3.914599657058716,-72,9999.0,0.4601909816265106,-35,8491.0
11770,0.34884506464004517,-1.9815236330032349,32,9999.0,-1.056490182876587,99,8491.0
11780,0.3490045666694641,-2.7503228187561035,-160,9999.0,-0.7092462778091431,-182,8491.0
11790,0.3470448851585388,-0.8734434247016907,123,9999.0,-2.4213569164276123,92,8491.0
11800,0.34693747758865356,0.2895434498786926,-105,9999.0,-8.602014541625977,-267,8491.0
11810,0.3468018174171448,0.8043157458305359,51,9999.0,-7.320653915405273,-11,8491.0
11820,0.3466697335243225,3.7863752841949463,126,9999.0,-6.053558349609375,-75,8491.0
11830,0.34647688269615173,5.582878589630127,95,9999.0,-4.696871280670166,-130,8491.0
11840,0.3461209237575531,6.87920618057251,57,9999.0,-2.7060861587524414,-88,8491.0
11850,0.34595799446105957,6.105099201202393,51,9999.0,-3.5076425075531006,6,8491.0
11860,0.3457682728767395,4.645086288452148,81,9999.0,-3.8745458126068115,-4,8491.0
11870,0.3455738425254822,2.0284502506256104,-22,9999.0,0.0059925043024122715,-16,8491.0
11880,0.343605637550354,0.36735403537750244,133,9999.0,-0.8938614130020142,211,8491.0
11890,0.3432559072971344,4.307342052459717,-50,9999.0,-4.805526256561279,-86,8491.0
11900,0.342855304479599,6.225677967071533,100,9999.0,0.5251857042312622,29,8491.0
11910,0.34247422218322754,5.240407466888428,84,9999.0,-2.6092638969421387,-21,8491.0
11920,0.34162208437919617,5.710919380187988,169,9999.0,-1.9261726140975952,-40,8491.0
11930,0.34127864241600037,7.585913181304932,-30,9999.0,3.0015716552734375,138,8491.0
11940,0.34096142649650574,5.518989562988281,230,9999.0,4.147830963134766,118,8491.0
11950,0.34063607454299927,6.372920989990234,80,9999.0,4.3954596519470215,22,8491.0
11960,0.34033623337745667,4.632850170135498,81,9999.0,4.15897798538208,25,8491.0
11970,0.34029242396354675,2.78428053855896,-71,9999.0,2.8703362941741943,-48,8491.0
11980,0.34000322222709656,-0.4286659359931946,113,9999.0,0.24576978385448456,2,8491.0
11990,0.3397568464279175,-2.652043342590332,-125,9999.0,-2.1969521045684814,-94,8491.0
12000,0.33955681324005127,-4.448547840118408,-85,9999.0,-4.4368696212768555,-80,8491.0
12010,0.33769556879997253,-4.4113616943359375,-78,9999.0,-4.71851110458374,44,8491.0
12020,0.3375486135482788,-3.904158115386963,49,9999.0,-4.6432929039001465,-223,8491.0
12030,0.33731991052627563,-1.5289851427078247,-137,9999.0,-3.930211067199707,-22,8491.0
12040,0.33709388971328735,0.2779270112514496,77,9999.0,3.1929075717926025,12,8491.0
12050,0.3377005159854889,1.736133337020874,54,9999.0,1.72666597366333,49,8491.0
12060,0.33755695819854736,2.8027467727661133,58,9999.0,4.138697147369385,-24,8491.0
12070,0.33744016289711,4.141035079956055,-24,9999.0,3.739279270172119,239,8491.0
12080,0.33741244673728943,0.16620227694511414,75,9999.0,2.7973108291625977,-7,8491.0
12090,0.33744168281555176,0.026777617633342743,-63,9999.0,0.5240122079849243,14,8491.0
12100,0.33813121914863586,-3.1608235836029053,-47,9999.0,-0.17623557150363922,-80,8491.0
12110,0.33825820684432983,-4.294491291046143,-82,9999.0,-1.989315390586853,141,8491.0
12120,0.3383866846561432,-4.528183460235596,-27,9999.0,-3.238447904586792,-164,8491.0
12130,0.33855071663856506,-3.8568174839019775,-166,9999.0,-4.154447078704834,35,8491.0
12140,0.33929890394210815,-5.714695930480957,7,9999.0,-1.3093011379241943,25,8491.0
12150,0.33955538272857666,-4.254918575286865,-75,9999.0,-1.0194603204727173,30,8491.0
12160,0.33985981345176697,-5.6574811935424805,-63,9999.0,0.670758843421936,-96,8491.0
12170,0.340199738740921,-3.993436098098755,-113,9999.0,0.8854100108146667,139,8491.0
12180,0.34052231907844543,-6.537609100341797,15,9999.0,-1.3185796737670898,126,8491.0
12190,0.3414110541343689,-5.441307067871094,-127,9999.0,1.047355055809021,22,8491.0
12200,0.3417040705680847,-2.0699448585510254,2,9999.0,-1.5878299474716187,57,8491.0
12210,0.34196731448173523,-0.7980903387069702,16,9999.0,1.199690341949463,129,8491.0
12220,0.3422582447528839,1.2257087230682373,86,9999.0,1.1584867238998413,-68,8491.0
12230,0.3439810276031494,2.3267836570739746,-37,9999.0,3.950756788253784,164,8491.0
12240,0.3444308638572693,2.363204002380371,156,9999.0,7.323380947113037,64,8491.0
12250,0.3448794186115265,1.5766798257827759,11,9999.0,4.211604595184326,47,8491.0
12260,0.3453054130077362,-0.033119674772024155,-9,9999.0,5.814517021179199,59,8491.0
12270,0.34580621123313904,-1.3069323301315308,-35,9999.0,2.6193394660949707,156,8491.0
12280,0.34621891379356384,-2.026730537414551,-21,9999.0,-0.4900822639465332,-152,8491.0
12290,0.3467102348804474,-4.166686058044434,-107,9999.0,-2.9754910469055176,12,8491.0
12300,0.34717220067977905,-1.8057408332824707,89,9999.0,-1.00155508518219,-122,8491.0
12310,0.3476933538913727,0.36505621671676636,-40,9999.0,-3.288240909576416,-11,8491.0
12320,0.34747254848480225,3.0045013427734375,67,9999.0,-0.514218270778656,10,8491.0
12330,0.34787729382514954,6.8256659507751465,113,9999.0,-0.48410937190055847,140,8491.0
12340,0.3481833338737488,8.652512550354004,148,9999.0,2.9090492725372314,-90,8491.0
12350,0.3483908176422119,8.839606285095215,58,9999.0,3.819235324859619,210,8491.0
12360,0.3491774797439575,5.583386421203613,170,9999.0,2.208955764770508,59,8491.0
12370,0.34942013025283813,8.152438163757324,57,9999.0,4.356207370758057,128,8491.0
12380,0.3497141897678375,0.7166324853897095,30,9999.0,3.3444252014160156,-25,8491.0
12390,0.350005567073822,-1.6981927156448364,68,9999.0,2.7227580547332764,109,8491.0
12400,0.35027751326560974,-1.9501084089279175,-127,9999.0,-0.1298656463623047,-110,8491.0
12410,0.351606547832489,-3.125215768814087,70,9999.0,3.7876648902893066,148,8491.0
12420,0.3518466353416443,-1.1804903745651245,-173,9999.0,-1.0485364198684692,-123,8491.0
12430,0.3520517945289612,-1.4172112941741943,46,9999.0,-2.966099262237549,57,8491.0
12440,0.35222387313842773,-0.7438101768493652,-2,9999.0,-1.121808409690857,-106,8491.0
12450,0.3510957658290863,0.7529538869857788,42,9999.0,-1.6783345937728882,10,8491.0
12460,0.3511798083782196,1.843554139137268,-6,9999.0,-3.370258331298828,-100,8491.0
12470,0.3511991798877716,1.8019094467163086,124,9999.0,-0.10262654721736908,-150,8491.0
12480,0.35120031237602234,4.629751682281494,-51,9999.0,0.8242120742797852,85,8491.0
12490,0.35030698776245117,5.076778888702393,207,9999.0,-1.292142629623413,-65,8491.0
12500,0.3501788079738617,5.798874855041504,33,9999.0,-1.201747179031372,-26,8491.0
12510,0.35002976655960083,5.938579082489014,139,9999.0,0.02176853083074093,24,8491.0
12520,0.3498774766921997,7.8381733894348145,88,9999.0,-1.5079636573791504,-16,8491.0
12530,0.3497525453567505,5.9735636711120605,112,9999.0,-1.9783904552459717,-60,8491.0
12540,0.34929341077804565,7.378150939941406,-41,9999.0,-3.882472038269043,76,8491.0
12550,0.3490617871284485,2.8247668743133545,176,9999.0,-2.0076777935028076,-76,8491.0
12560,0.34879106283187866,0.6142990589141846,-103,9999.0,-0.6183461546897888,-22,8491.0
12570,0.3485086262226105,-1.5858947038650513,3,9999.0,-0.43649062514305115,-5,8491.0
12580,0.34737610816955566,-3.698789119720459,-31,9999.0,-1.047197699546814,-33,8491.0
12590,0.34703442454338074,-2.562504291534424,53,9999.0,-4.331226825714111,-89,8491.0
12600,0.34672099351882935,0.8923472762107849,-146,9999.0,-3.2029387950897217,-43,8491.0
12610,0.3464212715625763,0.6452758312225342,129,9999.0,-5.982354640960693,39,8491.0
12620,0.34718412160873413,2.2885901927948,0,9999.0,-1.0536115169525146,-64,8491.0
12630,0.3469190299510956,1.7290581464767456,25,9999.0,-1.7061824798583984,15,8491.0
12640,0.34664472937583923,-0.871869683265686,-91,9999.0,1.6314727067947388,-31,8491.0
12650,0.34645819664001465,-3.4874799251556396,71,9999.0,-0.57084721326828,82,8491.0
12660,0.34621089696884155,-4.862942218780518,-60,9999.0,0.3054070472717285,-229,8491.0
12670,0.34625664353370667,-4.491449356079102,-107,9999.0,-0.47899171710014343,75,8491.0
12680,0.3460240066051483,-5.577561378479004,-59,9999.0,-0.8436644077301025,-69,8491.0
12690,0.3457898497581482,-4.746755123138428,-58,9999.0,-1.4388020038604736,82,8491.0
12700,0.34558048844337463,-1.8545846939086914,27,9999.0,-1.2105493545532227,-125,8491.0
12710,0.34525296092033386,-3.0456182956695557,-140,9999.0,2.063690662384033,1,8491.0
12720,0.345112681388855,0.2812184989452362,75,9999.0,-5.155840873718262,-39,8491.0
12730,0.34499868750572205,1.1481579542160034,-6,9999.0,-2.5278892517089844,-132,8491.0
12740,0.3448649048805237,0.35321861505508423,85,9999.0,1.0193564891815186,59,8491.0
12750,0.34474068880081177,0.3907819390296936,-64,9999.0,-1.4531551599502563,-62,8491.0
12760,0.34472715854644775,-2.808478355407715,-38,9999.0,-0.9245426058769226,116,8491.0
12770,0.3446510434150696,-1.2102341651916504,-39,9999.0,2.7912957668304443,152,8491.0
12780,0.3445848226547241,-4.148528099060059,-65,9999.0,3.9287283420562744,121,8491.0
12790,0.34449502825737,-4.149967193603516,43,9999.0,3.587651491165161,-74,8491.0
12800,0.34544438123703003,-3.5567467212677,-175,9999.0,3.156795024871826,23,8491.0
12810,0.3454359173774719,-3.2968764305114746,49,9999.0,-1.0185120105743408,19,8491.0
12820,0.34543901681900024,-1.7518125772476196,-18,9999.0,-1.2228752374649048,-72,8491.0
12830,0.3454294204711914,-0.5805575251579285,56,9999.0,-3.0304617881774902,42,8491.0
12840,0.3456183671951294,1.8783092498779297,58,9999.0,-2.917611837387085,-177,8491.0
12850,0.3455830216407776,1.6411503553390503,-103,9999.0,1.3749500513076782,29,8491.0
12860,0.3455718755722046,3.4280765056610107,148,9999.0,-1.6280572414398193,48,8491.0
12870,0.3455781638622284,3.9597530364990234,17,9999.0,2.665539264678955,30,8491.0
12880,0.34554722905158997,1.8721165657043457,78,9999.0,5.509359836578369,134,8491.0
12890,0.34691062569618225,1.642411231994629,-30,9999.0,4.454143047332764,-218,8491.0
12900,0.347016841173172,-1.9821192026138306,-86,9999.0,-1.3938301801681519,35,8491.0
12910,0.3471185863018036,-2.0793631076812744,-15,9999.0,-2.354482889175415,-59,8491.0
12920,0.3472430109977722,-3.333488702774048,-79,9999.0,-3.483761787414551,51,8491.0
12930,0.347210556268692,-3.7919681072235107,26,9999.0,-6.159892559051514,-56,8491.0
12940,0.34732621908187866,-7.501644611358643,-158,9999.0,-5.5854973793029785,-160,8491.0
12950,0.3474375307559967,-3.92850661277771,-29,9999.0,-5.339334011077881,-121,8491.0
12960,0.34753233194351196,-3.6416594982147217,-33,9999.0,-0.24293072521686554,-6,8491.0
12970,0.3477530777454376,-2.5408337116241455,-12,9999.0,2.7216522693634033,162,8491.0
12980,0.34835559129714966,-1.8400859832763672,-107,9999.0,2.967775583267212,-67,8491.0
12990,0.3484887182712555,-1.3637155294418335,31,9999.0,4.905605316162109,93,8491.0
13000,0.3486386239528656,0.6214120984077454,-33,9999.0,2.0165486335754395,-81,8491.0
13010,0.3488115072250366,-1.6667261123657227,153,9999.0,-2.075066328048706,104,8491.0
13020,0.35059109330177307,-0.9987707138061523,-100,9999.0,-2.266937494277954,-75,8491.0
13030,0.3508235216140747,-2.8822410106658936,-18,9999.0,0.8910647630691528,4,8491.0
13040,0.3509899973869324,-0.7182129621505737,-83,9999.0,0.3771608769893646,-163,8491.0
13050,0.3512378931045532,0.813197910785675,103,9999.0,-1.4676982164382935,88,8491.0
13060,0.3514242172241211,1.0869392156600952,-25,9999.0,0.005316707771271467,-3,8491.0
13070,0.35228192806243896,2.345510244369507,45,9999.0,-2.7080702781677246,13,8491.0
13080,0.3524801433086395,0.895670473575592,-22,9999.0,2.065326452255249,-39,8491.0
13090,0.35282301902770996,2.4724619388580322,32,9999.0,3.005129337310791,117,8491.0
13100,0.35303130745887756,0.34848010540008545,51,9999.0,4.922585487365723,-12,8491.0
13110,0.3535820245742798,2.026341199874878,36,9999.0,3.4342777729034424,77,8491.0
13120,0.35370969772338867,1.645272970199585,56,9999.0,4.588937282562256,-93,8491.0
13130,0.3539000451564789,-0.9678515195846558,-71,9999.0,6.414426326751709,198,8491.0
13140,0.354026734828949,-0.3267153799533844,34,9999.0,3.168919086456299,47,8491.0
13150,0.3533061444759369,1.3627194166183472,40,9999.0,1.0986696481704712,0,8491.0
13160,0.35331419110298157,-0.43033137917518616,66,9999.0,3.858043909072876,175,8491.0
13170,0.3533840477466583,-3.6241836547851562,-286,9999.0,4.639589309692383,45,8491.0
13180,0.3534206748008728,-5.1148271560668945,-14,9999.0,0.9394283890724182,93,8491.0
13190,0.3534266948699951,-4.764285564422607,-129,9999.0,1.618111252784729,24,8491.0
13200,0.3532276749610901,-2.5062003135681152,83,9999.0,-1.2347362041473389,7,8491.0
13210,0.3531554639339447,-0.5383017659187317,-170,9999.0,0.09784997254610062,-86,8491.0
13220,0.3530961573123932,-2.515285015106201,-28,9999.0,-2.324143171310425,83,8491.0
13230,0.35299667716026306,-1.5652345418930054,-30,9999.0,-3.8589608669281006,-71,8491.0
13240,0.35323718190193176,0.003884133417159319,75,9999.0,-3.709399938583374,32,8491.0
13250,0.353059858083725,1.0897448062896729,-52,9999.0,-0.24806232750415802,-164,8491.0
13260,0.3528788685798645,3.0919084548950195,45,9999.0,-3.282039165496826,15,8491.0
13270,0.3526061177253723,1.126975417137146,14,9999.0,2.3492116928100586,7,8491.0
13280,0.3530060350894928,1.755579948425293,83,9999.0,1.3293228149414062,167,8491.0
13290,0.35276520252227783,2.1541244983673096,-7,9999.0,3.499971628189087,-78,8491.0
13300,0.3525737226009369,-0.9237284660339355,-37,9999.0,5.348354339599609,97,8491.0
13310,0.35240715742111206,0.8580635190010071,-11,9999.0,4.2676615715026855,45,8491.0
13320,0.3522154688835144,2.0969698429107666,-10,9999.0,3.9059460163116455,221,8491.0
13330,0.3506639003753662,1.4961870908737183,161,9999.0,0.11933330446481705,-37,8491.0
13340,0.350344717502594,0.665735125541687,-51,9999.0,2.1019415855407715,72,8491.0
13350,0.35001635551452637,0.9282005429267883,12,9999.0,0.21994513273239136,30,8491.0
13360,0.34972748160362244,2.053187131881714,-58,9999.0,0.5035089254379272,26,8491.0
13370,0.34929171204566956,-1.4621241092681885,91,9999.0,-3.9028704166412354,170,8491.0
13380,0.3489401936531067,-2.0311691761016846,2,9999.0,-0.18687890470027924,-52,8491.0
13390,0.348536878824234,2.222888231277466,66,9999.0,-0.9950605034828186,36,8491.0
13400,0.3481227159500122,-0.7613107562065125,-17,9999.0,-1.7257221937179565,-174,8491.0
13410,0.3477292060852051,2.0377748012542725,-32,9999.0,0.27128562331199646,113,8491.0
13420,0.3479587733745575,-2.357191324234009,44,9999.0,4.070228099822998,31,8491.0
13430,0.34762465953826904,2.273157835006714,3,9999.0,6.028010368347168,194,8491.0
13440,0.34723904728889465,2.6918833255767822,192,9999.0,7.7836012840271,34,8491.0
13450,0.3469705581665039,0.477999210357666,-58,9999.0,10.42405891418457,69,8491.0
13460,0.34552961587905884,1.5205297470092773,43,9999.0,12.10645866394043,220,8491.0
13470,0.3452323079109192,-0.21028676629066467,-97,9999.0,9.555072784423828,-3,8491.0
13480,0.3449847400188446,-0.8548444509506226,-2,9999.0,2.872028112411499,187,8491.0
13490,0.3446987569332123,-3.1699156761169434,31,9999.0,-0.5324671864509583,120,8491.0
13500,0.34587034583091736,-1.4195902347564697,-23,9999.0,-2.2734732627868652,-39,8491.0
13510,0.3457369804382324,-2.731820583343506,41,9999.0,-1.5484360456466675,-96,8491.0
13520,0.3456328511238098,-1.8103599548339844,-175,9999.0,-4.21954870223999,-136,8491.0
13530,0.3455525040626526,-1.4980324506759644,-50,9999.0,-4.788088321685791,49,8491.0
13540,0.34547701478004456,-2.6078429222106934,-22,9999.0,-4.377196311950684,-40,8491.0
13550,0.3452492356300354,-4.869165420532227,-26,9999.0,1.3256617784500122,-30,8491.0
13560,0.34523239731788635,-2.4389469623565674,26,9999.0,3.5571236610412598,-69,8491.0
13570,0.34521618485450745,-3.912554979324341,-129,9999.0,6.72514009475708,109,8491.0
13580,0.34516191482543945,-3.239225149154663,-10,9999.0,7.401436805725098,69,8491.0
13590,0.3450566828250885,-3.291668176651001,-128,9999.0,5.454728126525879,59,8491.0
13600,0.3450237512588501,-3.8489978313446045,26,9999.0,5.930974006652832,140,8491.0
13610,0.3449982702732086,-3.490614175796509,-163,9999.0,0.21061450242996216,-139,8491.0
13620,0.34497591853141785,-1.532877802848816,9,9999.0,0.6308279633522034,-39,8491.0
13630,0.34497061371803284,1.1991273164749146,-3,9999.0,-6.452903747558594,-180,8491.0
13640,0.34417083859443665,1.1902153491973877,134,9999.0,-7.28256368637085,-107,8491.0
13650,0.344120055437088,4.150171279907227,101,9999.0,-10.069037437438965,44,8491.0
13660,0.344035267829895,5.257293224334717,13,9999.0,-6.800454616546631,-173,8491.0
13670,0.34392207860946655,3.0720856189727783,78,9999.0,-5.149686813354492,-183,8491.0
13680,0.3434233069419861,3.6027753353118896,-34,9999.0,-2.818796157836914,-154,8491.0
13690,0.3432695269584656,2.9944190979003906,132,9999.0,0.015316474251449108,136,8491.0
13700,0.3431030511856079,0.7459717392921448,19,9999.0,0.5172494649887085,7,8491.0
13710,0.3429160714149475,-0.7173300981521606,13,9999.0,5.4272918701171875,160,8491.0
13720,0.34321287274360657,-1.6900807619094849,-74,9999.0,6.638185024261475,-78,8491.0
13730,0.3430454730987549,-0.5688269734382629,-120,9999.0,2.7280941009521484,140,8491.0
13740,0.3429233729839325,-3.8944623470306396,11,9999.0,-2.9248650074005127,-47,8491.0
13750,0.3428421914577484,-1.8179404735565186,-76,9999.0,-6.5537872314453125,-83,8491.0
13760,0.34276536107063293,-2.070603370666504,68,9999.0,-10.764031410217285,-26,8491.0
13770,0.34315550327301025,0.07846572995185852,-19,9999.0,-11.46277904510498,-338,8491.0
13780,0.3431358337402344,-0.43427321314811707,10,9999.0,-11.009218215942383,-172,8491.0
13790,0.34311503171920776,1.1364561319351196,62,9999.0,-7.913618564605713,-175,8491.0
13800,0.3431171476840973,3.3101751804351807,2,9999.0,-4.092547416687012,-65,8491.0
13810,0.3427203595638275,2.5992419719696045,178,9999.0,-2.213517189025879,-62,8491.0
13820,0.3427751362323761,5.974287509918213,58,9999.0,0.5004323124885559,-52,8491.0
13830,0.3428870737552643,6.508762359619141,162,9999.0,0.6663407683372498,84,8491.0
13840,0.34306004643440247,7.8954691886901855,71,9999.0,1.8161168098449707,-93,8491.0
13850,0.3431195020675659,4.861112594604492,127,9999.0,3.1889891624450684,192,8491.0
13860,0.3432610034942627,2.030639171600342,33,9999.0,2.1593081951141357,-8,8491.0
13870,0.3434101641178131,-1.5984892845153809,-16,9999.0,1.2543587684631348,71,8491.0
13880,0.3436090648174286,-4.781292915344238,7,9999.0,-2.1317734718322754,-107,8491.0
13890,0.3437946140766144,-3.812000274658203,-210,9999.0,-8.518484115600586,-97,8491.0
13900,0.34322473406791687,-3.648494243621826,-24,9999.0,-6.419487953186035,-43,8491.0
13910,0.3433251976966858,-2.089116334915161,-88,9999.0,-3.9329774379730225,-7,8491.0
13920,0.34346601366996765,-0.44931742548942566,141,9999.0,-0.5245623588562012,27,8491.0
13930,0.34365564584732056,2.4963135719299316,1,9999.0,4.146771430969238,-105,8491.0
13940,0.34433332085609436,6.240276336669922,81,9999.0,4.113155364990234,131,8491.0
13950,0.3445506691932678,7.287890434265137,92,9999.0,7.239607810974121,105,8491.0
13960,0.34470871090888977,8.001259803771973,152,9999.0,6.326310157775879,252,8491.0
13970,0.34484630823135376,6.071302890777588,124,9999.0,5.971027851104736,-83,8491.0
13980,0.34504175186157227,4.609439373016357,-29,9999.0,1.1965785026550293,-32,8491.0
13990,0.3452242314815521,0.331714391708374,-1,9999.0,-1.0628474950790405,-88,8491.0
14000,0.3454374074935913,-2.9125778675079346,-66,9999.0,-3.968991279602051,103,8491.0
14010,0.3456137180328369,-6.69821834564209,-85,9999.0,-3.589038372039795,-88,8491.0
14020,0.34573689103126526,-8.444267272949219,-218,9999.0,-6.7688984870910645,-105,8491.0
14030,0.34511810541152954,-9.80109691619873,-134,9999.0,-6.196619987487793,-137,8491.0
14040,0.34514880180358887,-8.087504386901855,-140,9999.0,-3.316636323928833,42,8491.0
14050,0.3452261984348297,-5.893199920654297,39,9999.0,-3.2571372985839844,-135,8491.0
14060,0.3453211486339569,-1.4701448678970337,-180,9999.0,0.532493531703949,100,8491.0
14070,0.3444460332393646,0.40168488025665283,98,9999.0,1.9457627534866333,76,8491.0
14080,0.34448057413101196,3.487241268157959,57,9999.0,4.290177345275879,102,8491.0
14090,0.344539612531662,3.134411096572876,142,9999.0,4.5352983474731445,26,8491.0
14100,0.34457460045814514,5.390777111053467,-36,9999.0,6.346790790557861,-13,8491.0
14110,0.3446419835090637,5.711946964263916,125,9999.0,3.633300542831421,83,8491.0
14120,0.34241244196891785,5.405150413513184,94,9999.0,-1.2162147760391235,-132,8491.0
14130,0.34235405921936035,2.585825204849243,50,9999.0,-1.621754765510559,-68,8491.0
14140,0.3422587513923645,2.162404775619507,9,9999.0,-2.3803958892822266,-65,8491.0
14150,0.34215402603149414,0.383090615272522,-10,9999.0,-6.07804012298584,20,8491.0
14160,0.3420070707798004,-2.5534722805023193,2,9999.0,-3.4367027282714844,-178,8491.0
14170,0.34193331003189087,-2.2238807678222656,-133,9999.0,-5.534501075744629,-42,8491.0
14180,0.34185901284217834,-3.3160533905029297,-7,9999.0,-2.3417770862579346,-59,8491.0
14190,0.34178996086120605,-0.8692658543586731,-47,9999.0,-1.214233636856079,72,8491.0
14200,0.3417443335056305,1.2455101013183594,170,9999.0,1.456993579864502,-42,8491.0
14210,0.34141355752944946,4.2397332191467285,-45,9999.0,-5.533428192138672,-119,8491.0
14220,0.34143927693367004,4.228912830352783,157,9999.0,-1.1537772417068481,51,8491.0
