timestamp,kalman.stateZ,gyro.x,gyro.xRaw,gyro.xVariance,gyro.y,gyro.yRaw,gyro.yVariance
0,0.25340935587882996,-0.031335532665252686,-2,9999.0,0.7679484486579895,11,8491.0
10,0.25343436002731323,-0.023873604834079742,1,9999.0,1.0569441318511963,14,8491.0
20,0.2534788250923157,-0.13298512995243073,3,9999.0,0.7556782960891724,10,8491.0
30,0.2536879777908325,0.03436993435025215,-1,9999.0,0.5904434323310852,10,8491.0
40,0.2537122964859009,0.095773845911026,0,9999.0,0.9072067737579346,16,8491.0
50,0.2538822293281555,0.023669766262173653,0,9999.0,0.7369328141212463,10,8491.0
60,0.25420457124710083,-0.1681109219789505,1,9999.0,0.60477614402771,8,8491.0
70,0.25376245379447937,0.05521790310740471,2,9999.0,0.4156709611415863,11,8491.0
80,0.2538038194179535,-0.38082683086395264,-3,9999.0,0.24774903059005737,7,8491.0
90,0.25382816791534424,-0.057409439235925674,-2,9999.0,0.09365078061819077,4,8491.0
100,0.2538995146751404,0.16053739190101624,0,9999.0,0.4182760417461395,5,8491.0
110,0.2524168789386749,0.1679065227508545,6,9999.0,0.37158241868019104,5,8491.0
120,0.2523368000984192,0.02860202267765999,4,9999.0,0.15403573215007782,8,8491.0
130,0.25233668088912964,0.006128288805484772,2,9999.0,-0.02258571796119213,7,8491.0
140,0.25226521492004395,-0.12917955219745636,0,9999.0,-0.014066732488572598,0,8491.0
150,0.2522857189178467,0.3207073211669922,-2,9999.0,-0.017333151772618294,3,8491.0
160,0.2516635060310364,0.3358445167541504,2,9999.0,-0.2992483973503113,1,8491.0
170,0.2516636252403259,0.17641888558864594,-3,9999.0,-0.47846224904060364,-6,8491.0
180,0.25160208344459534,0.09785085916519165,0,9999.0,-0.4285547435283661,7,8491.0
190,0.2515607178211212,0.615057110786438,21,9999.0,0.4501160681247711,-3,8491.0
200,0.2513069212436676,0.8237932920455933,7,9999.0,-1.6428923606872559,-30,8491.0
210,0.2511976361274719,2.2907235622406006,61,9999.0,-0.4844669699668884,-23,8491.0
220,0.2513824999332428,3.7524588108062744,73,9999.0,-1.7764099836349487,-23,8491.0
230,0.2513662874698639,8.06309986114502,128,9999.0,-1.9181584119796753,-40,8491.0
240,0.25307753682136536,11.648676872253418,178,9999.0,-2.124375820159912,-38,8491.0
250,0.25330260396003723,12.936433792114258,182,9999.0,-3.1934773921966553,-28,8491.0
260,0.2533031105995178,12.153376579284668,220,9999.0,3.743051290512085,3,8491.0
270,0.25357887148857117,11.059964179992676,171,9999.0,2.7940828800201416,83,8491.0
280,0.2535468637943268,8.863446235656738,136,9999.0,3.193612575531006,100,8491.0
290,0.2530354857444763,5.518327236175537,116,9999.0,5.59869384765625,1,8491.0
300,0.25314828753471375,2.2813360691070557,42,9999.0,6.223936557769775,167,8491.0
310,0.2532585859298706,1.2673935890197754,-59,9999.0,4.9946818351745605,211,8491.0
320,0.2534090578556061,-2.509650468826294,-32,9999.0,3.7548868656158447,155,8491.0
330,0.25331467390060425,-2.4142534732818604,7,9999.0,2.936373233795166,85,8491.0
340,0.25340983271598816,-2.1466054916381836,42,9999.0,1.3408042192459106,46,8491.0
350,0.2535088360309601,-1.2869683504104614,-10,9999.0,0.01328134536743164,31,8491.0
360,0.25370004773139954,0.2528611719608307,-45,9999.0,-1.5866386890411377,82,8491.0
370,0.25387707352638245,1.821085810661316,-38,9999.0,-4.722521781921387,106,8491.0
380,0.2544432580471039,2.612787961959839,-67,9999.0,-5.552206039428711,130,8491.0
390,0.2547442615032196,4.113499164581299,-45,9999.0,-6.880314826965332,-45,8491.0
400,0.25507572293281555,3.886326313018799,-3,9999.0,-4.292308330535889,-159,8491.0
410,0.255380779504776,0.9998220205307007,98,9999.0,-0.5978612303733826,-159,8491.0
420,0.25654762983322144,-1.7349543571472168,43,9999.0,2.4783427715301514,-25,8491.0
430,0.25677114725112915,-2.1545753479003906,-24,9999.0,3.445172071456909,126,8491.0
440,0.25691819190979004,-1.819198727607727,-4,9999.0,5.199549198150635,204,8491.0
450,0.2571421265602112,-2.177736520767212,-117,9999.0,7.492613792419434,194,8491.0
460,0.2580046057701111,-2.0692663192749023,-134,9999.0,8.197549819946289,205,8491.0
470,0.2583072781562805,-1.8259049654006958,-129,9999.0,9.44750690460205,143,8491.0
480,0.25859299302101135,-2.3812859058380127,16,9999.0,8.843832969665527,64,8491.0
490,0.25884661078453064,-0.5645719170570374,81,9999.0,7.137101650238037,72,8491.0
500,0.25912365317344666,1.3245490789413452,-35,9999.0,4.445985317230225,224,8491.0
510,0.2588912844657898,1.9314988851547241,-5,9999.0,4.088596820831299,-42,8491.0
520,0.25916340947151184,2.40519380569458,82,9999.0,0.7850286960601807,19,8491.0
530,0.25940343737602234,1.246619701385498,25,9999.0,-0.6076149940490723,-35,8491.0
540,0.2595832645893097,-0.4607866108417511,22,9999.0,-2.0716187953948975,39,8491.0
550,0.2590363323688507,-0.7001595497131348,-88,9999.0,-1.23325777053833,15,8491.0
560,0.25900840759277344,-1.578331470489502,37,9999.0,-0.7288214564323425,-173,8491.0
570,0.25893834233283997,-1.6888558864593506,46,9999.0,-1.881267786026001,116,8491.0
580,0.25884711742401123,-1.0216671228408813,-112,9999.0,1.2658050060272217,33,8491.0
590,0.2584552466869354,-2.284857988357544,21,9999.0,2.992169141769409,-3,8491.0
600,0.25831225514411926,-1.2669014930725098,-50,9999.0,1.7866922616958618,68,8491.0
610,0.25821033120155334,-1.7021169662475586,-16,9999.0,3.30834698677063,83,8491.0
620,0.25818130373954773,0.15101993083953857,-45,9999.0,5.058900833129883,42,8491.0
630,0.25822576880455017,0.2201683521270752,80,9999.0,3.785025119781494,51,8491.0
640,0.2566721439361572,2.2789664268493652,-34,9999.0,3.456103801727295,175,8491.0
650,0.2567577362060547,1.5267282724380493,87,9999.0,2.4734907150268555,-124,8491.0
660,0.256827175617218,1.011237382888794,-11,9999.0,0.42730772495269775,165,8491.0
670,0.2568855583667755,1.039417028427124,-41,9999.0,-0.6264044642448425,-173,8491.0
680,0.2565898299217224,0.5997631549835205,112,9999.0,-1.5923289060592651,23,8491.0
690,0.2566697895526886,0.8845112323760986,-40,9999.0,-0.8320843577384949,-53,8491.0
700,0.25679200887680054,1.2977240085601807,4,9999.0,-1.903993844985962,-70,8491.0
710,0.25697392225265503,-0.2551247477531433,52,9999.0,-1.6876393556594849,-6,8491.0
720,0.2574971914291382,-0.38173675537109375,-99,9999.0,-0.3002271354198456,40,8491.0
730,0.2577506899833679,-1.628533959388733,88,9999.0,-0.7104964256286621,-64,8491.0
740,0.25797709822654724,-2.0144119262695312,-102,9999.0,0.49111059308052063,40,8491.0
750,0.2582060694694519,-3.9025962352752686,-7,9999.0,4.654805660247803,-64,8491.0
760,0.25838974118232727,-1.8744065761566162,-71,9999.0,0.9037294387817383,151,8491.0
770,0.25715410709381104,-1.098425030708313,-37,9999.0,3.3514914512634277,-18,8491.0
780,0.25726374983787537,-0.09139255434274673,16,9999.0,1.371554970741272,28,8491.0
790,0.2572668492794037,1.1483553647994995,14,9999.0,1.3277013301849365,76,8491.0
800,0.2571685016155243,3.1239523887634277,119,9999.0,1.1952825784683228,-116,8491.0
810,0.25815680623054504,4.240180015563965,0,9999.0,1.0289934873580933,253,8491.0
820,0.25810495018959045,3.4216344356536865,71,9999.0,2.004579782485962,-157,8491.0
830,0.2580798268318176,3.618311643600464,47,9999.0,1.9810818433761597,132,8491.0
840,0.25810328125953674,4.371826171875,116,9999.0,1.6401112079620361,-50,8491.0
850,0.2581360340118408,2.6575608253479004,9,9999.0,1.7922147512435913,65,8491.0
860,0.2581194043159485,1.2898848056793213,-21,9999.0,-1.0282834768295288,-36,8491.0
870,0.2582215964794159,-1.1516598463058472,42,9999.0,-0.42118021845817566,19,8491.0
880,0.2583277225494385,-0.36679548025131226,-155,9999.0,-1.7211802005767822,-75,8491.0
890,0.258394718170166,-2.328458309173584,62,9999.0,-3.455219030380249,-18,8491.0
900,0.2586522698402405,-3.438392400741577,-121,9999.0,-3.506927013397217,-177,8491.0
910,0.25868654251098633,-4.300482273101807,31,9999.0,-3.3156776428222656,56,8491.0
920,0.25870275497436523,-3.1561431884765625,-88,9999.0,-3.8040220737457275,-28,8491.0
930,0.2587575912475586,-2.264378070831299,-28,9999.0,-3.607414722442627,-51,8491.0
940,0.2592870593070984,-0.2564459443092346,-45,9999.0,-3.4102814197540283,-124,8491.0
950,0.25943371653556824,0.8865671753883362,101,9999.0,-1.5461695194244385,67,8491.0
960,0.2596417963504791,2.7125134468078613,-69,9999.0,-0.1633915901184082,-117,8491.0
970,0.259813517332077,1.5153062343597412,73,9999.0,0.2619903087615967,162,8491.0
980,0.2600107192993164,4.078056335449219,135,9999.0,0.1154426783323288,-44,8491.0
990,0.2601473033428192,4.148717403411865,59,9999.0,0.5161206722259521,19,8491.0
1000,0.2604057490825653,4.636319637298584,114,9999.0,1.400816559791565,46,8491.0
1010,0.26071280241012573,0.7833424210548401,43,9999.0,4.916506767272949,127,8491.0
1020,0.2610543668270111,1.0029797554016113,27,9999.0,2.829536199569702,-96,8491.0
1030,0.26203328371047974,-1.4641268253326416,-146,9999.0,1.403307318687439,125,8491.0
1040,0.2624248266220093,-2.4230191707611084,-78,9999.0,-0.6997240781784058,30,8491.0
1050,0.2628718912601471,-4.278491020202637,-111,9999.0,-1.0223267078399658,-167,8491.0
1060,0.26327452063560486,-3.3367831707000732,79,9999.0,-2.5686960220336914,72,8491.0
1070,0.26385191082954407,-3.930509567260742,-98,9999.0,-0.5937302708625793,-88,8491.0
1080,0.26557400822639465,-2.663762092590332,-36,9999.0,-7.099468231201172,-136,8491.0
1090,0.2661435008049011,-2.223264455795288,-54,9999.0,-3.9876296520233154,-39,8491.0
1100,0.2668296992778778,0.6432124376296997,112,9999.0,-3.3360283374786377,38,8491.0
1110,0.2675625681877136,2.435889959335327,-13,9999.0,-3.1134002208709717,-250,8491.0
1120,0.26732689142227173,1.4326446056365967,57,9999.0,0.7520079016685486,84,8491.0
1130,0.2679027318954468,-0.11519871652126312,191,9999.0,2.2616770267486572,-38,8491.0
1140,0.2685224711894989,1.1359237432479858,-42,9999.0,7.13154935836792,36,8491.0
1150,0.2691759765148163,-0.5847153067588806,-6,9999.0,0.7297490239143372,-50,8491.0
1160,0.26721853017807007,0.598771333694458,-42,9999.0,-1.245499849319458,2,8491.0
1170,0.26773926615715027,0.632682740688324,72,9999.0,-1.351623296737671,105,8491.0
1180,0.2682558596134186,0.6354743242263794,-1,9999.0,-0.09558805823326111,-130,8491.0
1190,0.268839955329895,-0.1313944309949875,-115,9999.0,-1.2346030473709106,24,8491.0
1200,0.2695370316505432,-1.7332313060760498,148,9999.0,-1.1481348276138306,8,8491.0
1210,0.26918038725852966,-1.5098644495010376,11,9999.0,-0.7601082921028137,-160,8491.0
1220,0.2698756456375122,-1.1988637447357178,69,9999.0,-2.461446523666382,-7,8491.0
1230,0.27047184109687805,1.7164254188537598,52,9999.0,-1.0515707731246948,-126,8491.0
1240,0.2711225152015686,3.333256721496582,-23,9999.0,-0.5812820196151733,62,8491.0
1250,0.27189627289772034,5.480388164520264,268,9999.0,-1.7064995765686035,86,8491.0
1260,0.2726101875305176,5.17725944519043,61,9999.0,0.6394814252853394,-151,8491.0
1270,0.273516982793808,3.383104085922241,-14,9999.0,-2.7798635959625244,46,8491.0
1280,0.2743610739707947,-2.8026888370513916,17,9999.0,4.5206756591796875,84,8491.0
1290,0.27481725811958313,1.6069536209106445,-48,9999.0,0.14602993428707123,-23,8491.0
1300,0.27564552426338196,1.6780019998550415,99,9999.0,-4.528730869293213,57,8491.0
1310,0.27648502588272095,1.0420576333999634,137,9999.0,0.7918967008590698,27,8491.0
1320,0.27762147784233093,2.3378331661224365,-100,9999.0,-1.9024581909179688,-29,8491.0
1330,0.27877309918403625,-4.663569450378418,-67,9999.0,2.9387078285217285,73,8491.0
1340,0.2799193263053894,-6.0453619956970215,-62,9999.0,4.25247859954834,72,8491.0
1350,0.2810816764831543,-0.9882773160934448,-51,9999.0,5.270641803741455,72,8491.0
1360,0.28228262066841125,0.22257673740386963,89,9999.0,10.364029884338379,356,8491.0
1370,0.2835879325866699,2.9839820861816406,110,9999.0,9.74870777130127,85,8491.0
1380,0.28371933102607727,2.4724254608154297,-100,9999.0,15.100432395935059,-73,8491.0
1390,0.2848845422267914,2.493821144104004,81,9999.0,4.323313236236572,119,8491.0
1400,0.2860233187675476,2.9625484943389893,51,9999.0,1.3594040870666504,-33,8491.0
1410,0.287238210439682,0.14736266434192657,-32,9999.0,-2.865971803665161,-29,8491.0
1420,0.28851455450057983,-2.940962553024292,40,9999.0,-3.784838914871216,-78,8491.0
1430,0.2888065576553345,-3.2730326652526855,-69,9999.0,-5.870542526245117,-349,8491.0
1440,0.2900480031967163,-3.242886543273926,-174,9999.0,-8.72525691986084,-97,8491.0
1450,0.2912524938583374,-7.193070888519287,24,9999.0,-7.580412864685059,-75,8491.0
1460,0.29239901900291443,-7.024327754974365,-149,9999.0,-0.4548812806606293,-50,8491.0
1470,0.29381921887397766,-10.035957336425781,-127,9999.0,1.3560285568237305,125,8491.0
1480,0.29473012685775757,-7.718738079071045,-202,9999.0,2.4846718311309814,-102,8491.0
1490,0.29612505435943604,-6.35679292678833,-148,9999.0,2.344071865081787,226,8491.0
1500,0.2971877157688141,-11.150708198547363,-35,9999.0,4.412038803100586,39,8491.0
1510,0.29873114824295044,-15.667534828186035,-327,9999.0,5.999250411987305,95,8491.0
1520,0.30023089051246643,-19.796024322509766,-290,9999.0,6.157652854919434,93,8491.0
1530,0.30153128504753113,-23.299150466918945,-491,9999.0,2.5063865184783936,-50,8491.0
1540,0.30266982316970825,-23.261857986450195,-302,9999.0,0.48387911915779114,182,8491.0
1550,0.3037204444408417,-23.43011474609375,-180,9999.0,0.4406755864620209,-194,8491.0
1560,0.30402544140815735,-14.630410194396973,-291,9999.0,-6.923932075500488,-131,8491.0
1570,0.3048888146877289,-11.830875396728516,-67,9999.0,-1.8193978071212769,-14,8491.0
1580,0.3059120178222656,-4.0465803146362305,-53,9999.0,-2.8347690105438232,-14,8491.0
1590,0.3067792057991028,1.49459707736969,89,9999.0,-2.3711929321289062,66,8491.0
1600,0.3072839081287384,5.6837239265441895,66,9999.0,-0.5036395192146301,-114,8491.0
1610,0.3079639673233032,7.498194217681885,66,9999.0,0.239146888256073,61,8491.0
1620,0.3086329400539398,9.261588096618652,384,9999.0,2.630255937576294,-69,8491.0
1630,0.30920079350471497,10.487607955932617,56,9999.0,2.176823139190674,-29,8491.0
1640,0.30972859263420105,8.537727355957031,127,9999.0,5.181313991546631,100,8491.0
1650,0.3106054663658142,9.546038627624512,104,9999.0,5.264866352081299,40,8491.0
1660,0.31092923879623413,7.889888763427734,87,9999.0,4.709991455078125,91,8491.0
1670,0.3112170696258545,6.9181976318359375,242,9999.0,3.9321303367614746,-173,8491.0
1680,0.31144264340400696,4.512553691864014,23,9999.0,6.882073879241943,143,8491.0
1690,0.31255343556404114,2.0896620750427246,168,9999.0,-0.9081175327301025,37,8491.0
1700,0.3127809464931488,1.1070544719696045,-55,9999.0,-0.4326408803462982,-1,8491.0
1710,0.3129896819591522,3.2880189418792725,90,9999.0,-1.953974723815918,97,8491.0
1720,0.31308987736701965,4.585169792175293,102,9999.0,-3.446059226989746,-138,8491.0
1730,0.3147122263908386,6.856114864349365,-76,9999.0,0.23415179550647736,35,8491.0
1740,0.3149343430995941,9.50052261352539,161,9999.0,9.244487762451172,329,8491.0
1750,0.3151147663593292,6.794291019439697,218,9999.0,-0.23789449036121368,12,8491.0
1760,0.31530439853668213,9.763659477233887,48,9999.0,1.621277093887329,49,8491.0
1770,0.31545692682266235,10.57420539855957,242,9999.0,2.9952504634857178,28,8491.0
1780,0.31622231006622314,10.050073623657227,109,9999.0,0.30649784207344055,-100,8491.0
1790,0.3163526952266693,7.996761798858643,42,9999.0,-1.1987452507019043,70,8491.0
1800,0.31647980213165283,6.21075439453125,252,9999.0,-1.1202737092971802,52,8491.0
1810,0.31657874584198,4.394967079162598,27,9999.0,0.5205344557762146,-126,8491.0
1820,0.3183025121688843,4.064645767211914,-80,9999.0,0.05118534341454506,126,8491.0
1830,0.3184854984283447,2.7354819774627686,85,9999.0,4.220359802246094,90,8491.0
1840,0.3185790479183197,6.8525190353393555,64,9999.0,3.2583651542663574,-73,8491.0
1850,0.3187093138694763,8.71265697479248,82,9999.0,-1.0342382192611694,134,8491.0
1860,0.3188571631908417,7.2686662673950195,289,9999.0,-0.4368464946746826,133,8491.0
1870,0.319445937871933,9.264575004577637,97,9999.0,0.007443579845130444,-193,8491.0
1880,0.31965968012809753,4.400411605834961,-20,9999.0,4.639951705932617,71,8491.0
1890,0.31985825300216675,1.965688943862915,94,9999.0,0.1661919802427292,-22,8491.0
1900,0.3200203478336334,-0.9153676629066467,-69,9999.0,2.523543119430542,-35,8491.0
1910,0.3189150094985962,-1.6717876195907593,-22,9999.0,-0.17623932659626007,227,8491.0
1920,0.3189643621444702,-2.2769112586975098,178,9999.0,4.181911945343018,-113,8491.0
1930,0.31896981596946716,-2.0070877075195312,-185,9999.0,-4.742793560028076,-151,8491.0
1940,0.31895333528518677,-2.919739246368408,-64,9999.0,-3.2782390117645264,97,8491.0
1950,0.32011106610298157,1.6459540128707886,51,9999.0,-2.8427600860595703,27,8491.0
1960,0.3201882541179657,3.7126705646514893,-48,9999.0,-3.250502586364746,-46,8491.0
1970,0.32023710012435913,2.5079638957977295,61,9999.0,-3.7287824153900146,135,8491.0
1980,0.32041341066360474,-0.09276733547449112,154,9999.0,-5.150974273681641,-75,8491.0
1990,0.3204995393753052,-3.380915641784668,-172,9999.0,-3.758652925491333,-96,8491.0
2000,0.3204212486743927,-4.789739608764648,-89,9999.0,-2.312612295150757,69,8491.0
2010,0.3205419182777405,-8.375386238098145,-146,9999.0,2.1168999671936035,-115,8491.0
2020,0.3206274211406708,-9.063450813293457,-231,9999.0,1.012569785118103,32,8491.0
2030,0.3207690417766571,-8.6242036819458,-10,9999.0,0.7108224630355835,169,8491.0
2040,0.3201324939727783,-5.959980487823486,-22,9999.0,2.083101272583008,-145,8491.0
2050,0.3202134966850281,-4.745219707489014,-319,9999.0,-2.6794955730438232,-118,8491.0
2060,0.3202647268772125,-5.868418216705322,-87,9999.0,-1.9530714750289917,41,8491.0
2070,0.3202718198299408,-4.0105462074279785,-59,9999.0,-6.6754255294799805,-100,8491.0
2080,0.3202625811100006,-0.8605908751487732,-57,9999.0,-4.670174598693848,35,8491.0
2090,0.319831907749176,2.069993257522583,140,9999.0,-3.71492600440979,59,8491.0
2100,0.3198396563529968,2.6336028575897217,27,9999.0,1.7145707607269287,-136,8491.0
2110,0.3197699189186096,4.204216003417969,-160,9999.0,-3.6914761066436768,50,8491.0
2120,0.3196820318698883,4.6770195960998535,98,9999.0,-0.5963390469551086,81,8491.0
2130,0.3193467855453491,2.9933712482452393,39,9999.0,5.370968341827393,-45,8491.0
2140,0.3192131221294403,2.6449971199035645,-4,9999.0,7.608191967010498,212,8491.0
2150,0.31906914710998535,4.804996013641357,226,9999.0,-5.770565986633301,-39,8491.0
2160,0.3188959062099457,0.7286410927772522,-35,9999.0,0.42152801156044006,-326,8491.0
2170,0.3196030259132385,-1.6756558418273926,-144,9999.0,-2.612877368927002,-31,8491.0
2180,0.3195095360279083,-1.7763444185256958,60,9999.0,0.5242937803268433,7,8491.0
2190,0.3194217383861542,-2.4919731616973877,-57,9999.0,2.6278038024902344,-12,8491.0
2200,0.3193218410015106,-1.977225422859192,-11,9999.0,3.5120275020599365,152,8491.0
2210,0.3192425072193146,0.40378251671791077,171,9999.0,0.7845525741577148,47,8491.0
2220,0.31750231981277466,7.970158100128174,36,9999.0,2.6477479934692383,-47,8491.0
2230,0.31738877296447754,1.9510602951049805,-172,9999.0,-2.954469919204712,-5,8491.0
2240,0.3173142671585083,2.078514575958252,102,9999.0,-2.141007423400879,-70,8491.0
2250,0.31729236245155334,2.0741827487945557,-46,9999.0,-7.118739128112793,-202,8491.0
2260,0.3171760141849518,0.8935961723327637,-45,9999.0,-5.60513973236084,103,8491.0
2270,0.3171592652797699,-0.7697198390960693,101,9999.0,-4.538978576660156,28,8491.0
2280,0.3171718120574951,-1.577728271484375,-123,9999.0,2.7063302993774414,-173,8491.0
2290,0.31723129749298096,-1.6995954513549805,-14,9999.0,1.1983574628829956,153,8491.0
2300,0.31725844740867615,2.4425158500671387,38,9999.0,2.2354187965393066,1,8491.0
2310,0.31795838475227356,4.746930122375488,19,9999.0,3.544762134552002,195,8491.0
2320,0.3180043399333954,4.097621917724609,208,9999.0,1.5458170175552368,192,8491.0
2330,0.31811678409576416,4.755518913269043,33,9999.0,4.6916117668151855,-314,8491.0
2340,0.3182516098022461,7.392782688140869,-73,9999.0,-2.1393325328826904,-89,8491.0
2350,0.31627532839775085,2.8949782848358154,104,9999.0,-4.6788434982299805,-18,8491.0
2360,0.316355437040329,2.000286102294922,-4,9999.0,-1.419637680053711,-92,8491.0
2370,0.3163861334323883,3.117255449295044,4,9999.0,-1.500012755393982,86,8491.0
2380,0.3164428472518921,0.48001012206077576,185,9999.0,-0.9226757884025574,-3,8491.0
2390,0.315524697303772,1.5733458995819092,27,9999.0,1.9470922946929932,-314,8491.0
2400,0.31547248363494873,6.930140495300293,-71,9999.0,-4.192715644836426,29,8491.0
2410,0.31541675329208374,3.8517181873321533,116,9999.0,3.7099852561950684,81,8491.0
2420,0.3154538869857788,4.824671268463135,88,9999.0,2.3566603660583496,-77,8491.0
2430,0.3155045211315155,7.605900764465332,78,9999.0,3.2028849124908447,200,8491.0
2440,0.3169029951095581,6.640633583068848,265,9999.0,3.0324559211730957,174,8491.0
2450,0.31705257296562195,6.486441612243652,150,9999.0,1.938322901725769,-94,8491.0
2460,0.31719812750816345,5.3773369789123535,-79,9999.0,-2.9854941368103027,-96,8491.0
2470,0.31733813881874084,1.0168170928955078,55,9999.0,0.054738789796829224,-24,8491.0
2480,0.31656548380851746,-0.8271991610527039,-61,9999.0,-2.1832964420318604,-86,8491.0
2490,0.31670308113098145,-5.091979026794434,-85,9999.0,-3.3102710247039795,89,8491.0
2500,0.3168479800224304,-6.3242597579956055,74,9999.0,-3.335261821746826,-48,8491.0
2510,0.3170342445373535,-3.7247960567474365,-61,9999.0,0.8617305755615234,-274,8491.0
2520,0.3172595202922821,-5.262832164764404,-221,9999.0,-1.7535514831542969,-46,8491.0
2530,0.31738921999931335,-1.876811146736145,47,9999.0,-3.259350061416626,-104,8491.0
2540,0.3175838887691498,-2.5647878646850586,-90,9999.0,3.678093671798706,4,8491.0
2550,0.31782984733581543,-1.2423540353775024,2,9999.0,3.3323445320129395,187,8491.0
2560,0.3180292248725891,-0.21917656064033508,175,9999.0,2.163429021835327,-61,8491.0
2570,0.3173404633998871,1.532524585723877,-68,9999.0,4.735351085662842,-112,8491.0
2580,0.3174625039100647,-0.07209966331720352,-36,9999.0,4.124128341674805,127,8491.0
2590,0.31756919622421265,-1.425156831741333,60,9999.0,7.698794364929199,66,8491.0
2600,0.31765684485435486,-1.397092580795288,-70,9999.0,-2.286939859390259,-64,8491.0
2610,0.31785979866981506,-0.46946248412132263,17,9999.0,-4.113420009613037,121,8491.0
2620,0.3179877698421478,-2.4347331523895264,29,9999.0,-3.2966971397399902,-99,8491.0
2630,0.31813278794288635,-6.148523330688477,-206,9999.0,-2.4398062229156494,-300,8491.0
2640,0.31830695271492004,-4.534289836883545,-118,9999.0,-1.3081122636795044,214,8491.0
2650,0.31848666071891785,-8.46319580078125,-30,9999.0,-4.253488063812256,49,8491.0
2660,0.31881627440452576,2.5692431926727295,-5,9999.0,1.2204355001449585,-19,8491.0
2670,0.31891730427742004,4.109927654266357,99,9999.0,-0.6315783262252808,108,8491.0
2680,0.31904181838035583,5.074732780456543,158,9999.0,3.6998114585876465,-12,8491.0
2690,0.3192228078842163,7.6848015785217285,-48,9999.0,2.070880889892578,-35,8491.0
2700,0.3196471035480499,7.057636737823486,134,9999.0,1.1466387510299683,136,8491.0
2710,0.31986114382743835,6.103893756866455,176,9999.0,0.8981083035469055,93,8491.0
2720,0.3200802505016327,5.505152702331543,24,9999.0,-1.1383172273635864,-61,8491.0
2730,0.3202655017375946,0.6059938669204712,77,9999.0,-3.6502726078033447,11,8491.0
2740,0.32042795419692993,-2.6592392921447754,-53,9999.0,-4.038261890411377,-211,8491.0
2750,0.32122665643692017,-5.077716827392578,-300,9999.0,-6.830224514007568,-184,8491.0
2760,0.3214099109172821,-4.728448867797852,-57,9999.0,-5.492076873779297,23,8491.0
2770,0.32159897685050964,-4.507577419281006,-68,9999.0,-3.1858651638031006,-71,8491.0
2780,0.3218235969543457,0.010668116621673107,29,9999.0,0.4294685125350952,29,8491.0
2790,0.32282719016075134,4.476876735687256,163,9999.0,4.034101963043213,71,8491.0
2800,0.32301566004753113,5.24021053314209,-93,9999.0,1.5635122060775757,-79,8491.0
2810,0.32303741574287415,-2.868162155151367,-188,9999.0,0.2929617166519165,84,8491.0
2820,0.3232642710208893,-9.49737548828125,-169,9999.0,3.8694491386413574,-21,8491.0
2830,0.32451310753822327,-16.68476104736328,-324,9999.0,-0.011585955508053303,-85,8491.0
2840,0.32490023970603943,-17.293746948242188,-232,9999.0,-1.699103832244873,122,8491.0
2850,0.325153648853302,-16.113351821899414,-155,9999.0,-4.744790554046631,-178,8491.0
2860,0.32531607151031494,-11.95949649810791,-341,9999.0,-2.56488299369812,-153,8491.0
2870,0.32558780908584595,-12.112467765808105,-207,9999.0,-10.777381896972656,85,8491.0
2880,0.32636111974716187,-12.088241577148438,-230,9999.0,-0.7276535630226135,75,8491.0
2890,0.3266083300113678,-17.082088470458984,-366,9999.0,5.605202674865723,159,8491.0
2900,0.3269127309322357,-22.828758239746094,-230,9999.0,7.351349830627441,276,8491.0
2910,0.32706281542778015,-17.92271614074707,-464,9999.0,9.220641136169434,132,8491.0
2920,0.32788750529289246,-14.700970649719238,-177,9999.0,6.0311126708984375,301,8491.0
2930,0.32805728912353516,-14.854410171508789,-11,9999.0,9.756052017211914,236,8491.0
2940,0.32843077182769775,-7.722169876098633,-151,9999.0,2.478787422180176,-341,8491.0
2950,0.32865971326828003,-5.350067138671875,-130,9999.0,-0.9446227550506592,73,8491.0
2960,0.3288484811782837,-4.211709022521973,11,9999.0,-4.165030002593994,-73,8491.0
2970,0.3290329873561859,-0.5608518123626709,-44,9999.0,-4.646915435791016,-86,8491.0
2980,0.3291110694408417,-3.558152437210083,-15,9999.0,-2.054299831390381,119,8491.0
2990,0.3291597366333008,-4.101724147796631,18,9999.0,-5.564133167266846,-156,8491.0
3000,0.3292807936668396,0.21043358743190765,-142,9999.0,-0.715191662311554,-63,8491.0
3010,0.32912835478782654,2.076533317565918,26,9999.0,2.2060766220092773,234,8491.0
3020,0.3290281593799591,6.883007049560547,187,9999.0,-0.012042206712067127,-13,8491.0
3030,0.3288257420063019,6.053821563720703,-31,9999.0,1.8500648736953735,44,8491.0
3040,0.3286497890949249,-4.100651741027832,-62,9999.0,3.3709051609039307,115,8491.0
3050,0.3282310664653778,-8.83687973022461,-250,9999.0,4.837630748748779,43,8491.0
3060,0.32793739438056946,-11.635586738586426,-298,9999.0,-4.950549125671387,-2,8491.0
3070,0.3277684152126312,-12.6944580078125,-149,9999.0,-5.308574199676514,157,8491.0
3080,0.32761573791503906,-9.661759376525879,-144,9999.0,-12.42593765258789,-158,8491.0
3090,0.327453076839447,0.10765992105007172,-228,9999.0,-6.948074817657471,-300,8491.0
3100,0.3271043598651886,3.614633321762085,38,9999.0,-8.472441673278809,-21,8491.0
3110,0.3269330561161041,9.731114387512207,243,9999.0,-4.541837215423584,-24,8491.0
3120,0.32675647735595703,19.04306411743164,253,9999.0,0.24840830266475677,35,8491.0
3130,0.3264724016189575,18.756479263305664,421,9999.0,2.820145606994629,115,8491.0
3140,0.32604050636291504,16.475248336791992,381,9999.0,7.126364231109619,-4,8491.0
3150,0.3256676197052002,11.175317764282227,88,9999.0,2.9882314205169678,-87,8491.0
3160,0.3253021240234375,6.491965293884277,148,9999.0,7.528557777404785,164,8491.0
3170,0.3248552083969116,4.9020280838012695,62,9999.0,6.779320240020752,-24,8491.0
3180,0.32450997829437256,5.47393274307251,-6,9999.0,4.908958911895752,37,8491.0
3190,0.32228726148605347,7.6036787033081055,198,9999.0,-0.3243507444858551,97,8491.0
3200,0.3219106197357178,5.2281880378723145,23,9999.0,-0.16431821882724762,-133,8491.0
3210,0.32141226530075073,0.4684578776359558,-49,9999.0,-0.5831787586212158,29,8491.0
3220,0.320930153131485,1.086173176765442,147,9999.0,-4.546442031860352,-18,8491.0
3230,0.32067736983299255,4.028495788574219,49,9999.0,-3.418361186981201,-322,8491.0
3240,0.32026010751724243,3.2316930294036865,-22,9999.0,-0.7005457282066345,-1,8491.0
3250,0.31989017128944397,5.040979862213135,170,9999.0,-5.3734917640686035,-107,8491.0
3260,0.31955596804618835,2.317523717880249,-42,9999.0,-1.1423754692077637,-163,8491.0
3270,0.31916093826293945,-2.395756244659424,-60,9999.0,0.3056078255176544,168,8491.0
3280,0.31887006759643555,-6.837587356567383,53,9999.0,-4.0610809326171875,-105,8491.0
3290,0.3186491131782532,-5.264559745788574,-145,9999.0,-0.4395996034145355,-59,8491.0
3300,0.31889528036117554,-5.988035678863525,-73,9999.0,1.3488794565200806,114,8491.0
3310,0.31875893473625183,-6.3864359855651855,-48,9999.0,3.3042287826538086,-56,8491.0
3320,0.3199416995048523,-4.586360454559326,-226,9999.0,2.822916269302368,-61,8491.0
3330,0.31997427344322205,-2.9113149642944336,-32,9999.0,2.15659236907959,89,8491.0
3340,0.32005611062049866,4.249294757843018,190,9999.0,1.6462180614471436,40,8491.0
3350,0.32019177079200745,4.935585975646973,43,9999.0,4.909036636352539,-98,8491.0
3360,0.32015126943588257,12.8933687210083,157,9999.0,-8.076775550842285,-109,8491.0
3370,0.3203399181365967,12.42951774597168,265,9999.0,-5.67427396774292,-60,8491.0
3380,0.320438027381897,15.665848731994629,213,9999.0,-1.8598753213882446,-116,8491.0
3390,0.3206835389137268,17.683216094970703,236,9999.0,-1.4966298341751099,149,8491.0
3400,0.3208942711353302,16.298067092895508,340,9999.0,6.5014495849609375,131,8491.0
3410,0.32156985998153687,10.397415161132812,121,9999.0,3.930790424346924,-28,8491.0
3420,0.32186004519462585,7.958552837371826,79,9999.0,8.754201889038086,174,8491.0
3430,0.32221513986587524,2.3091437816619873,63,9999.0,8.954257011413574,32,8491.0
3440,0.3225446343421936,-0.5413302779197693,-116,9999.0,3.7598798274993896,-56,8491.0
3450,0.3212966024875641,-4.656905651092529,-110,9999.0,2.283620834350586,188,8491.0
3460,0.32155126333236694,-4.699636459350586,113,9999.0,3.2214958667755127,-47,8491.0
3470,0.3218609094619751,-3.379940986633301,-28,9999.0,-3.5008304119110107,-332,8491.0
3480,0.3221612870693207,7.14896821975708,37,9999.0,-8.815113067626953,-73,8491.0
3490,0.32302919030189514,11.043319702148438,259,9999.0,-3.4161534309387207,-43,8491.0
3500,0.323316752910614,14.595754623413086,233,9999.0,-2.7593917846679688,-76,8491.0
3510,0.3235711455345154,15.977313041687012,268,9999.0,-0.3275737166404724,87,8491.0
3520,0.3239034414291382,14.636241912841797,288,9999.0,-1.5324640274047852,-26,8491.0
3530,0.324173241853714,12.982352256774902,145,9999.0,1.1999130249023438,134,8491.0
3540,0.3239459991455078,6.013731479644775,251,9999.0,0.6082784533500671,71,8491.0
3550,0.32413429021835327,3.9521214962005615,-3,9999.0,2.013856887817383,4,8491.0
3560,0.32432860136032104,1.0014737844467163,42,9999.0,1.2601667642593384,129,8491.0
3570,0.3246791362762451,-2.3194797039031982,-18,9999.0,-0.5434970855712891,-180,8491.0
3580,0.3268921971321106,-1.9156404733657837,-205,9999.0,-0.5288035869598389,110,8491.0
3590,0.3272648751735687,-3.669740915298462,86,9999.0,-3.822038412094116,64,8491.0
3600,0.3275469243526459,-2.2079601287841797,-53,9999.0,-2.354062795639038,-79,8491.0
3610,0.3278554379940033,-4.318796157836914,-68,9999.0,-1.9048221111297607,83,8491.0
3620,0.32813653349876404,-5.062355995178223,-66,9999.0,-1.6579976081848145,-168,8491.0
3630,0.3282898962497711,-5.825921058654785,-187,9999.0,-1.0234251022338867,47,8491.0
3640,0.32856810092926025,-8.255627632141113,35,9999.0,0.7609061598777771,68,8491.0
3650,0.32883667945861816,-3.5946521759033203,-94,9999.0,0.008033888414502144,-180,8491.0
3660,0.32921984791755676,0.9503086805343628,25,9999.0,-0.3601452708244324,78,8491.0
3670,0.3285942077636719,5.236972808837891,158,9999.0,3.056581974029541,43,8491.0
3680,0.3287159502506256,9.338138580322266,128,9999.0,5.8010125160217285,88,8491.0
3690,0.32877179980278015,12.041606903076172,271,9999.0,1.8531465530395508,62,8491.0
3700,0.32884079217910767,14.539319038391113,129,9999.0,1.8190029859542847,-85,8491.0
3710,0.32968443632125854,12.345853805541992,114,9999.0,-0.1644696742296219,179,8491.0
3720,0.32976335287094116,7.112425804138184,284,9999.0,-2.4530129432678223,16,8491.0
3730,0.329811692237854,0.20062950253486633,-71,9999.0,3.974421501159668,-106,8491.0
3740,0.3298249840736389,-0.4032402038574219,-41,9999.0,-3.725020408630371,67,8491.0
3750,0.3298078179359436,-4.8648762702941895,-58,9999.0,-4.522549152374268,-99,8491.0
3760,0.32943084836006165,-4.811607837677002,-141,9999.0,-6.485459804534912,-70,8491.0
3770,0.3293338119983673,-3.922907590866089,25,9999.0,-7.727698802947998,32,8491.0
3780,0.3292035162448883,-6.188075065612793,-123,9999.0,-5.2234578132629395,-237,8491.0
3790,0.32904717326164246,-1.2928860187530518,-177,9999.0,-0.6638922691345215,-128,8491.0
3800,0.3293454945087433,-0.9923514723777771,22,9999.0,0.23123425245285034,169,8491.0
3810,0.32920995354652405,0.7519165277481079,-4,9999.0,1.8210492134094238,44,8491.0
3820,0.32905781269073486,0.14564602077007294,-14,9999.0,6.370654106140137,129,8491.0
3830,0.3289138674736023,2.2880265712738037,111,9999.0,3.987175941467285,193,8491.0
3840,0.3287699222564697,-0.666458249092102,58,9999.0,2.4410383701324463,-106,8491.0
3850,0.3303188383579254,-4.932788372039795,-190,9999.0,-3.6081950664520264,-66,8491.0
3860,0.3302680253982544,-0.542448878288269,-28,9999.0,-2.7493860721588135,119,8491.0
3870,0.33020201325416565,-2.9842100143432617,42,9999.0,-1.525215744972229,-49,8491.0
3880,0.33012712001800537,-4.499425411224365,-126,9999.0,-0.33757609128952026,-8,8491.0
3890,0.32961592078208923,-3.0823142528533936,40,9999.0,0.28553834557533264,120,8491.0
3900,0.32956042885780334,-0.6488513946533203,71,9999.0,-0.1174866259098053,-3,8491.0
3910,0.32953137159347534,-1.0869529247283936,-121,9999.0,2.176382064819336,-192,8491.0
3920,0.3294994533061981,-4.551055908203125,-15,9999.0,-1.3212119340896606,90,8491.0
3930,0.3288772404193878,-2.2838265895843506,28,9999.0,-0.4355226159095764,-26,8491.0
3940,0.32879799604415894,-3.8053176403045654,-102,9999.0,2.8929760456085205,-39,8491.0
3950,0.328756719827652,-2.2841336727142334,-15,9999.0,2.0873148441314697,157,8491.0
3960,0.32871806621551514,-4.17572546005249,37,9999.0,2.3019165992736816,-11,8491.0
3970,0.32871294021606445,-1.14634108543396,-42,9999.0,-2.03875732421875,-320,8491.0
3980,0.32924726605415344,-3.8582258224487305,-204,9999.0,1.830609679222107,-45,8491.0
3990,0.3293069005012512,-1.0000061988830566,93,9999.0,-4.7286858558654785,-22,8491.0
4000,0.3293571472167969,1.2417298555374146,35,9999.0,-1.5871858596801758,-144,8491.0
4010,0.32939669489860535,4.364018440246582,65,9999.0,-3.3346011638641357,52,8491.0
4020,0.32802921533584595,4.733188629150391,206,9999.0,1.1038358211517334,24,8491.0
4030,0.3279830813407898,4.241485595703125,23,9999.0,2.059943437576294,-136,8491.0
4040,0.3279668986797333,0.36114364862442017,-53,9999.0,0.5208215117454529,87,8491.0
4050,0.32797980308532715,-0.9833161234855652,75,9999.0,3.1824238300323486,113,8491.0
4060,0.3280089497566223,-2.9879488945007324,-77,9999.0,2.7361161708831787,40,8491.0
4070,0.3276098370552063,-1.941813349723816,-40,9999.0,0.4630661904811859,149,8491.0
4080,0.3276234269142151,-1.2229770421981812,40,9999.0,0.4327085316181183,-42,8491.0
4090,0.3276379108428955,-0.7757697701454163,-131,9999.0,1.0769522190093994,-108,8491.0
4100,0.3276395797729492,-3.590648889541626,-162,9999.0,6.215822219848633,190,8491.0
4110,0.3277592957019806,-2.446467876434326,74,9999.0,-3.835625410079956,-98,8491.0
4120,0.3277478814125061,1.59428071975708,53,9999.0,-3.705653429031372,-63,8491.0
4130,0.3277747929096222,0.6280684471130371,10,9999.0,-2.0873825550079346,14,8491.0
4140,0.32781335711479187,-1.1203343868255615,-114,9999.0,0.02073795348405838,-156,8491.0
4150,0.3283281922340393,-2.4907901287078857,9,9999.0,2.127110004425049,-2,8491.0
4160,0.3284246027469635,-2.647329568862915,12,9999.0,2.279836893081665,-51,8491.0
4170,0.3285192847251892,-4.100107192993164,-176,9999.0,2.9307639598846436,-109,8491.0
4180,0.32858413457870483,-5.20709228515625,2,9999.0,-0.3594391942024231,24,8491.0
4190,0.3286663293838501,-4.067458152770996,-102,9999.0,-1.8922808170318604,-117,8491.0
4200,0.33009055256843567,-6.498403072357178,-125,9999.0,1.2663019895553589,75,8491.0
4210,0.33023494482040405,-4.979394912719727,124,9999.0,-2.237978935241699,-33,8491.0
4220,0.33038130402565,-5.126868724822998,-73,9999.0,-1.0312033891677856,-257,8491.0
4230,0.33058372139930725,-5.933253288269043,-171,9999.0,-2.0987279415130615,-52,8491.0
4240,0.3300611674785614,-5.476076126098633,30,9999.0,-4.89732551574707,-54,8491.0
4250,0.3301803767681122,-5.481900691986084,-98,9999.0,-0.15503482520580292,-44,8491.0
4260,0.3303225338459015,-2.9140801429748535,-17,9999.0,-1.2508841753005981,97,8491.0
4270,0.3304605484008789,-2.5844647884368896,87,9999.0,2.94331693649292,44,8491.0
4280,0.3305816352367401,-0.4244656264781952,-86,9999.0,8.417476654052734,-54,8491.0
4290,0.3300810158252716,-1.9981690645217896,-157,9999.0,8.50108814239502,219,8491.0
4300,0.3302067220211029,-1.6341248750686646,116,9999.0,3.128857374191284,103,8491.0
4310,0.3303399980068207,1.0660333633422852,-30,9999.0,4.884897708892822,-15,8491.0
4320,0.330445796251297,3.8153648376464844,81,9999.0,-1.6269150972366333,45,8491.0
4330,0.3311305642127991,1.3842427730560303,105,9999.0,-3.545191764831543,-112,8491.0
4340,0.3312338888645172,2.374774694442749,-88,9999.0,-4.608765602111816,-213,8491.0
4350,0.3313426375389099,-0.6993595361709595,-111,9999.0,-1.5321365594863892,35,8491.0
4360,0.33143332600593567,3.994220018386841,115,9999.0,0.881060779094696,111,8491.0
4370,0.3317406177520752,-0.4424644708633423,-48,9999.0,-0.5420706868171692,-81,8491.0
4380,0.33178961277008057,1.1686173677444458,-4,9999.0,1.5714439153671265,76,8491.0
4390,0.3318365514278412,0.6160686612129211,77,9999.0,1.9342998266220093,-30,8491.0
4400,0.331866592168808,2.6173555850982666,-44,9999.0,4.093638896942139,14,8491.0
4410,0.33186793327331543,1.5212852954864502,14,9999.0,2.0512232780456543,244,8491.0
4420,0.33152198791503906,-0.49299487471580505,136,9999.0,2.1490964889526367,-30,8491.0
4430,0.3315103054046631,-0.614410400390625,-98,9999.0,0.30832767486572266,-38,8491.0
4440,0.3314751088619232,-2.5357449054718018,-12,9999.0,2.8621926307678223,91,8491.0
4450,0.33141759037971497,-0.7445647120475769,-28,9999.0,3.671778440475464,-27,8491.0
4460,0.33081501722335815,0.7145180702209473,-100,9999.0,-0.830176830291748,-52,8491.0
4470,0.33073875308036804,-0.3042370676994324,107,9999.0,-3.154086112976074,110,8491.0
4480,0.33065393567085266,0.2054154872894287,213,9999.0,-5.462563991546631,-146,8491.0
4490,0.33057069778442383,-3.672844648361206,-168,9999.0,-5.9400410652160645,-151,8491.0
4500,0.33050504326820374,3.7225682735443115,73,9999.0,-3.2380053997039795,-24,8491.0
4510,0.33227306604385376,1.0925893783569336,78,9999.0,1.19145667552948,-30,8491.0
4520,0.3322513997554779,4.9046525955200195,17,9999.0,3.7076942920684814,125,8491.0
4530,0.33223727345466614,5.8107686042785645,233,9999.0,5.532039165496826,176,8491.0
4540,0.3322356641292572,7.884889125823975,82,9999.0,5.323991775512695,-105,8491.0
4550,0.33294621109962463,5.74039363861084,-59,9999.0,10.126897811889648,103,8491.0
4560,0.3330177068710327,3.69979190826416,107,9999.0,6.320597171783447,109,8491.0
4570,0.33311331272125244,2.673231363296509,0,9999.0,2.469417095184326,-47,8491.0
4580,0.3332681953907013,0.7631915211677551,-25,9999.0,-1.022909164428711,85,8491.0
4590,0.3320305049419403,-3.7030115127563477,67,9999.0,-4.575375556945801,-64,8491.0
4600,0.33210498094558716,-3.993351697921753,-144,9999.0,-6.711991786956787,-277,8491.0
4610,0.33214831352233887,-1.2751537561416626,-101,9999.0,-4.105738162994385,-11,8491.0
4620,0.3321695625782013,0.24605827033519745,140,9999.0,-4.441694259643555,-55,8491.0
4630,0.3321412205696106,1.481993317604065,3,9999.0,-1.9871104955673218,-115,8491.0
4640,0.3320852220058441,2.6038198471069336,42,9999.0,1.4400492906570435,191,8491.0
4650,0.3320741057395935,2.766345500946045,159,9999.0,1.9108319282531738,108,8491.0
4660,0.3320743441581726,3.476271867752075,-173,9999.0,4.063632965087891,126,8491.0
4670,0.33208516240119934,-0.049649715423583984,60,9999.0,-1.3350108861923218,91,8491.0
4680,0.33247390389442444,1.940649151802063,72,9999.0,-0.3059867024421692,-101,8491.0
4690,0.3324936628341675,-0.9025399088859558,-76,9999.0,-1.206526756286621,-40,8491.0
4700,0.33251890540122986,-0.727105438709259,88,9999.0,-4.881547927856445,20,8491.0
4710,0.33256006240844727,-0.7805318832397461,61,9999.0,-4.119166374206543,-156,8491.0
4720,0.33259081840515137,0.3437754213809967,-98,9999.0,-5.739161014556885,-166,8491.0
4730,0.3336874544620514,-2.3431508541107178,-11,9999.0,-5.22145414352417,-76,8491.0
4740,0.33385610580444336,-3.09131121635437,16,9999.0,-0.19125139713287354,-97,8491.0
4750,0.3340548574924469,-5.087682247161865,-116,9999.0,0.4547992944717407,88,8491.0
4760,0.33428341150283813,-3.4664692878723145,-5,9999.0,2.432492256164551,-22,8491.0
4770,0.334035187959671,-0.6856848001480103,-109,9999.0,2.4619834423065186,-128,8491.0
4780,0.3343285024166107,-5.690151691436768,-59,9999.0,5.1776275634765625,175,8491.0
4790,0.334612101316452,-1.3864786624908447,120,9999.0,-0.2040320634841919,37,8491.0
4800,0.3349132239818573,1.3080313205718994,-14,9999.0,6.535760402679443,-54,8491.0
4810,0.3335384428501129,3.355104684829712,62,9999.0,-2.5118303298950195,47,8491.0
4820,0.3337102234363556,0.649461030960083,79,9999.0,-3.630077838897705,-57,8491.0
4830,0.33390185236930847,1.3985927104949951,-97,9999.0,-2.822911500930786,-206,8491.0
4840,0.3341047465801239,1.9364678859710693,-45,9999.0,-1.6672004461288452,19,8491.0
4850,0.33423832058906555,-0.7159989476203918,78,9999.0,-11.265247344970703,-225,8491.0
4860,0.33344730734825134,-0.609632670879364,-66,9999.0,0.1379764974117279,-99,8491.0
4870,0.33354732394218445,0.8917760252952576,11,9999.0,2.055971384048462,111,8491.0
4880,0.3336561322212219,0.41776224970817566,-1,9999.0,6.48323392868042,40,8491.0
4890,0.3337418735027313,1.0360028743743896,-85,9999.0,6.44723653793335,91,8491.0
4900,0.3327512741088867,1.1663662195205688,17,9999.0,8.00662899017334,339,8491.0
4910,0.332790344953537,0.030905401334166527,12,9999.0,8.415452003479004,37,8491.0
4920,0.33279964327812195,-2.987807035446167,-112,9999.0,3.372617721557617,18,8491.0
4930,0.33279168605804443,-1.3914238214492798,8,9999.0,-1.8652198314666748,22,8491.0
4940,0.3332744538784027,-1.4567533731460571,-47,9999.0,-6.627996444702148,-186,8491.0
4950,0.3333287835121155,0.5791875720024109,-44,9999.0,-11.899748802185059,-187,8491.0
4960,0.3333728611469269,-0.9601845741271973,56,9999.0,-9.13613224029541,36,8491.0
4970,0.33342620730400085,-1.4123470783233643,52,9999.0,-9.395898818969727,-225,8491.0
4980,0.33348897099494934,0.8186684250831604,-144,9999.0,-1.3033572435379028,-121,8491.0
4990,0.3333739638328552,-0.6075068712234497,32,9999.0,-3.2753653526306152,189,8491.0
5000,0.333473801612854,-2.6222140789031982,-45,9999.0,7.446244716644287,47,8491.0
5010,0.3335340917110443,-2.1486902236938477,-115,9999.0,7.747674465179443,211,8491.0
5020,0.3336067497730255,-2.2244389057159424,101,9999.0,8.020506858825684,260,8491.0
5030,0.33188092708587646,2.3362648487091064,58,9999.0,5.178217887878418,-98,8491.0
5040,0.33189162611961365,0.09690570086240768,-165,9999.0,-1.1692445278167725,-32,8491.0
5050,0.33189067244529724,2.7240076065063477,55,9999.0,3.207920551300049,105,8491.0
5060,0.3318995237350464,2.7719430923461914,22,9999.0,-2.9075028896331787,-67,8491.0
5070,0.33187827467918396,1.7928085327148438,-35,9999.0,-4.238351345062256,-14,8491.0
5080,0.33066022396087646,2.724142074584961,148,9999.0,-9.924166679382324,-67,8491.0
5090,0.33055737614631653,0.48467957973480225,11,9999.0,-4.19267463684082,-176,8491.0
5100,0.33048585057258606,0.6824880838394165,-148,9999.0,-5.85422420501709,-39,8491.0
5110,0.3304954767227173,-1.6213206052780151,-11,9999.0,-3.283677101135254,150,8491.0
5120,0.3298889994621277,-3.5802481174468994,-75,9999.0,0.12327144294977188,-5,8491.0
5130,0.3298793435096741,-1.817025065422058,-108,9999.0,-0.0392359234392643,117,8491.0
5140,0.3298790752887726,-4.98239803314209,16,9999.0,4.801898956298828,212,8491.0
5150,0.3298795223236084,-5.73953914642334,-88,9999.0,7.439815044403076,38,8491.0
5160,0.33114466071128845,-3.311283826828003,-164,9999.0,5.246542453765869,-113,8491.0
5170,0.3312761187553406,-0.7282361388206482,-18,9999.0,9.390026092529297,179,8491.0
5180,0.3313778042793274,-1.4563125371932983,53,9999.0,0.6045581102371216,-68,8491.0
5190,0.3314710855484009,-0.9006978273391724,-75,9999.0,0.9604914784431458,-58,8491.0
5200,0.3316095769405365,-0.27267634868621826,66,9999.0,-4.887686729431152,18,8491.0
5210,0.3306673467159271,4.038240432739258,129,9999.0,-9.685286521911621,-142,8491.0
5220,0.3306989371776581,4.944712162017822,-47,9999.0,-3.03489089012146,-174,8491.0
5230,0.33072414994239807,9.092336654663086,96,9999.0,0.9727689027786255,99,8491.0
5240,0.3307429552078247,2.1235015392303467,143,9999.0,-2.063741683959961,-1,8491.0
5250,0.33045291900634766,1.6479781866073608,-39,9999.0,1.3748477697372437,-67,8491.0
5260,0.33046430349349976,-1.4544873237609863,18,9999.0,-0.6597003936767578,92,8491.0
5270,0.3304966390132904,-1.55806303024292,83,9999.0,1.9945635795593262,-17,8491.0
5280,0.33054155111312866,-2.4171440601348877,-82,9999.0,2.851438522338867,-189,8491.0
5290,0.3306017816066742,-6.05743408203125,-128,9999.0,1.940274953842163,48,8491.0
5300,0.3317146599292755,-3.004314422607422,39,9999.0,-3.284698486328125,128,8491.0
5310,0.33184173703193665,1.0286684036254883,-51,9999.0,-0.4612848162651062,-87,8491.0
5320,0.33196714520454407,-2.2230358123779297,-67,9999.0,-0.045825935900211334,59,8491.0
5330,0.3321252465248108,0.38959917426109314,53,9999.0,-1.9647011756896973,75,8491.0
5340,0.3318684995174408,-0.7578747272491455,-8,9999.0,-1.480434536933899,-196,8491.0
5350,0.3320772349834442,-1.6194297075271606,-267,9999.0,-1.7070884704589844,32,8491.0
5360,0.3323154151439667,-2.7461180686950684,52,9999.0,0.1444881558418274,146,8491.0
5370,0.3325127065181732,0.26758792996406555,36,9999.0,-1.8814030885696411,-75,8491.0
5380,0.3324093818664551,-3.1780381202697754,-11,9999.0,1.9486687183380127,113,8491.0
5390,0.3325119912624359,2.507675886154175,25,9999.0,-3.250133991241455,-67,8491.0
5400,0.332582950592041,1.5974477529525757,-73,9999.0,0.8639139533042908,-1,8491.0
5410,0.3326561450958252,1.9629182815551758,46,9999.0,1.824786901473999,304,8491.0
5420,0.33280590176582336,-1.553419589996338,161,9999.0,9.501301765441895,116,8491.0
5430,0.33472225069999695,0.2578439712524414,-76,9999.0,5.178065299987793,60,8491.0
5440,0.3348601758480072,2.5712649822235107,26,9999.0,3.581157922744751,142,8491.0
5450,0.335033655166626,0.8949853181838989,50,9999.0,2.945051908493042,-58,8491.0
5460,0.3352000415325165,0.6158499717712402,-43,9999.0,0.8735531568527222,-47,8491.0
5470,0.3349127173423767,0.04445001110434532,9,9999.0,-2.6003262996673584,83,8491.0
5480,0.3349840044975281,2.645054817199707,180,9999.0,1.0747311115264893,-5,8491.0
5490,0.33511459827423096,3.761568546295166,0,9999.0,-2.6756293773651123,-240,8491.0
5500,0.33518102765083313,-1.170686960220337,-134,9999.0,-3.1056759357452393,-63,8491.0
5510,0.3353257179260254,-3.1743290424346924,18,9999.0,-8.716435432434082,-138,8491.0
5520,0.3353152573108673,-5.199909687042236,-139,9999.0,-3.871250867843628,-211,8491.0
5530,0.3354353904724121,-4.973938941955566,-139,9999.0,-3.323303699493408,47,8491.0
5540,0.33556067943573,-5.473174571990967,80,9999.0,2.9248368740081787,99,8491.0
5550,0.3357050120830536,-1.8754146099090576,31,9999.0,4.825199127197266,-77,8491.0
5560,0.3363249897956848,-0.5217297077178955,-39,9999.0,1.3657394647598267,120,8491.0
5570,0.3364434242248535,-0.8762798309326172,106,9999.0,7.549093246459961,156,8491.0
5580,0.33655792474746704,3.651228427886963,-68,9999.0,2.998217821121216,-133,8491.0
5590,0.33668583631515503,-0.09014395624399185,-35,9999.0,4.374809741973877,175,8491.0
5600,0.3368893563747406,1.766778588294983,57,9999.0,4.98142147064209,89,8491.0
5610,0.3370589315891266,1.5106459856033325,-48,9999.0,6.487359523773193,88,8491.0
5620,0.33723074197769165,2.7101309299468994,122,9999.0,-0.030129525810480118,171,8491.0
5630,0.33738285303115845,2.6558468341827393,115,9999.0,2.0266528129577637,52,8491.0
5640,0.33755218982696533,0.6637771725654602,-82,9999.0,-3.556267023086548,-169,8491.0
5650,0.33807364106178284,-0.07516735792160034,-26,9999.0,-4.212169647216797,-2,8491.0
5660,0.3383166491985321,-1.5474411249160767,-58,9999.0,-4.054117679595947,-190,8491.0
5670,0.33855003118515015,-0.5494259595870972,-61,9999.0,-4.776286602020264,-23,8491.0
5680,0.3387913107872009,-4.906613349914551,89,9999.0,3.2598931789398193,139,8491.0
5690,0.3395159840583801,-0.5218535661697388,7,9999.0,-6.604447841644287,-224,8491.0
5700,0.33982908725738525,-3.2021355628967285,-29,9999.0,0.5596416592597961,81,8491.0
5710,0.3400982916355133,-1.2638375759124756,37,9999.0,1.3512033224105835,-21,8491.0
5720,0.3403542637825012,0.247715026140213,-143,9999.0,5.550502777099609,121,8491.0
5730,0.3406224846839905,-1.4099708795547485,75,9999.0,4.00123405456543,200,8491.0
5740,0.3414466679096222,-1.4260674715042114,-19,9999.0,-0.5221810936927795,-61,8491.0
5750,0.34169143438339233,-0.9394770860671997,-19,9999.0,2.1918814182281494,66,8491.0
5760,0.3418968915939331,1.6441603899002075,95,9999.0,-0.09701582789421082,21,8491.0
5770,0.34209075570106506,0.12157901376485825,-82,9999.0,1.336008906364441,-183,8491.0
5780,0.3426504135131836,1.7652541399002075,22,9999.0,-5.9834394454956055,89,8491.0
5790,0.34284648299217224,4.017961502075195,166,9999.0,-3.3923747539520264,3,8491.0
5800,0.34304895997047424,1.85478675365448,-18,9999.0,-0.015023353509604931,-48,8491.0
5810,0.3432665467262268,1.6772404909133911,53,9999.0,0.6940945982933044,145,8491.0
5820,0.34286248683929443,1.161827802658081,3,9999.0,1.0067558288574219,-131,8491.0
5830,0.3429960310459137,2.8303401470184326,-89,9999.0,1.2012678384780884,-22,8491.0
5840,0.343128502368927,0.6280792355537415,79,9999.0,-0.4420989155769348,40,8491.0
5850,0.3432222306728363,0.3718421757221222,-23,9999.0,1.377193570137024,0,8491.0
5860,0.34325844049453735,-1.0973718166351318,59,9999.0,2.0015852451324463,82,8491.0
5870,0.34194567799568176,-0.01825113035738468,29,9999.0,1.0524250268936157,-101,8491.0
5880,0.34191104769706726,4.196371555328369,-202,9999.0,0.17934979498386383,41,8491.0
5890,0.34191328287124634,-2.302610158920288,44,9999.0,-2.451517105102539,42,8491.0
5900,0.3418174684047699,-1.8794151544570923,-14,9999.0,1.6213289499282837,4,8491.0
5910,0.34215834736824036,-0.8264797329902649,-28,9999.0,3.5995209217071533,153,8491.0
5920,0.3420531153678894,1.9018678665161133,109,9999.0,-0.6479659676551819,45,8491.0
5930,0.3418927490711212,2.287919282913208,5,9999.0,1.7179784774780273,-116,8491.0
5940,0.3417236804962158,4.332347869873047,-49,9999.0,7.585175037384033,178,8491.0
5950,0.3415546417236328,4.191750526428223,177,9999.0,-3.338543176651001,89,8491.0
5960,0.3411634564399719,3.4338483810424805,55,9999.0,0.07859696447849274,-65,8491.0
5970,0.3409788906574249,5.760190486907959,92,9999.0,-5.255199432373047,50,8491.0
5980,0.34082624316215515,5.3373823165893555,169,9999.0,-1.4587639570236206,-43,8491.0
5990,0.3406918942928314,4.856406211853027,-27,9999.0,-2.0333991050720215,-31,8491.0
6000,0.3410946726799011,5.919818878173828,139,9999.0,-3.483403205871582,132,8491.0
6010,0.34101754426956177,1.4253573417663574,-33,9999.0,-2.35003662109375,-123,8491.0
6020,0.34095582365989685,0.6729175448417664,2,9999.0,-1.8483699560165405,84,8491.0
6030,0.3408805727958679,-1.93155837059021,74,9999.0,0.25279220938682556,-58,8491.0
6040,0.34079045057296753,1.2367488145828247,-151,9999.0,6.0194926261901855,-95,8491.0
6050,0.3420722782611847,-1.534631609916687,48,9999.0,0.9170266389846802,53,8491.0
6060,0.34207528829574585,-3.1685938835144043,70,9999.0,0.7298184633255005,-57,8491.0
6070,0.3420511782169342,-1.7370240688323975,-80,9999.0,2.9635562896728516,65,8491.0
6080,0.3420589864253998,-5.142263412475586,34,9999.0,5.480658531188965,127,8491.0
6090,0.34164127707481384,1.4364171028137207,99,9999.0,-6.91532564163208,-239,8491.0
6100,0.34164485335350037,-0.2984452247619629,-149,9999.0,0.396655410528183,-44,8491.0
6110,0.34164831042289734,-2.351665496826172,-45,9999.0,-4.947877407073975,41,8491.0
6120,0.3416665196418762,-0.9149665236473083,-38,9999.0,2.3698058128356934,3,8491.0
6130,0.3406561613082886,-0.20198030769824982,-33,9999.0,1.2632663249969482,174,8491.0
6140,0.340628981590271,0.6998277902603149,149,9999.0,2.4185378551483154,50,8491.0
6150,0.3406098186969757,-1.7526352405548096,-80,9999.0,2.2528014183044434,-101,8491.0
6160,0.3406192362308502,-0.06737777590751648,-56,9999.0,4.246036052703857,210,8491.0
6170,0.3406204283237457,0.17243097722530365,57,9999.0,-2.064415216445923,-94,8491.0
6180,0.33951160311698914,-1.774492621421814,-97,9999.0,-0.3657293915748596,-35,8491.0
6190,0.33941030502319336,-3.3174169063568115,-7,9999.0,-3.1030681133270264,106,8491.0
6200,0.3393057882785797,-3.941129684448242,65,9999.0,-5.270058631896973,-118,8491.0
6210,0.33918628096580505,-4.125430583953857,-165,9999.0,-2.6529295444488525,-149,8491.0
6220,0.3393975794315338,-3.6930954456329346,8,9999.0,-2.4093291759490967,16,8491.0
6230,0.3393014073371887,-2.193498134613037,-45,9999.0,0.9752534627914429,-85,8491.0
6240,0.33931219577789307,-0.6979479193687439,-101,9999.0,1.0208383798599243,0,8491.0
6250,0.33923599123954773,-2.9868366718292236,-11,9999.0,0.7037538290023804,150,8491.0
6260,0.3402654826641083,-1.6071207523345947,50,9999.0,1.8196582794189453,-82,8491.0
6270,0.3403818905353546,-0.48093917965888977,-123,9999.0,0.6201202869415283,13,8491.0
6280,0.3403819799423218,-2.4957380294799805,-10,9999.0,0.49762266874313354,120,8491.0
6290,0.34055936336517334,-1.4212678670883179,-73,9999.0,3.968665838241577,-42,8491.0
6300,0.3405560255050659,-3.1283183097839355,-147,9999.0,1.0831704139709473,-7,8491.0
6310,0.33961454033851624,1.7413482666015625,11,9999.0,-0.17676210403442383,318,8491.0
6320,0.33964377641677856,-3.656816005706787,98,9999.0,0.6145192384719849,11,8491.0
6330,0.33964547514915466,-0.9723666906356812,-28,9999.0,0.013414420187473297,-4,8491.0
6340,0.3396337628364563,-0.03982577100396156,85,9999.0,1.4762413501739502,78,8491.0
6350,0.3401472568511963,3.5086467266082764,74,9999.0,4.355528831481934,-105,8491.0
6360,0.3402513265609741,5.826818943023682,-76,9999.0,1.0475255250930786,7,8491.0
6370,0.3402458429336548,7.499125957489014,158,9999.0,-0.2610875368118286,238,8491.0
6380,0.34035828709602356,4.15496301651001,106,9999.0,-1.1608575582504272,-76,8491.0
6390,0.34035372734069824,1.415730595588684,-51,9999.0,1.563889741897583,77,8491.0
6400,0.3411446809768677,0.7761416435241699,81,9999.0,-0.3218825161457062,84,8491.0
6410,0.3411561846733093,-0.3913581967353821,-42,9999.0,-0.4249320924282074,-220,8491.0
6420,0.34132978320121765,2.9813640117645264,-75,9999.0,2.3557701110839844,34,8491.0
6430,0.34133151173591614,-4.733939170837402,2,9999.0,-1.7872390747070312,70,8491.0
6440,0.3408895432949066,-5.177679538726807,-119,9999.0,1.1343425512313843,-91,8491.0
6450,0.3409956693649292,-3.100092649459839,-60,9999.0,-1.6389896869659424,114,8491.0
6460,0.3410954773426056,-3.6146678924560547,103,9999.0,-2.555656909942627,-54,8491.0
6470,0.3411991596221924,-2.8721764087677,-31,9999.0,-7.18251895904541,-197,8491.0
6480,0.34043338894844055,-1.7096112966537476,-30,9999.0,-2.5405654907226562,9,8491.0
6490,0.34047505259513855,3.6504361629486084,79,9999.0,-0.7232198715209961,-45,8491.0
6500,0.34047406911849976,2.6070480346679688,-45,9999.0,-0.21378865838050842,-115,8491.0
6510,0.34045103192329407,3.1974589824676514,89,9999.0,0.6354241371154785,171,8491.0
6520,0.3404226303100586,5.694180488586426,199,9999.0,-2.580488443374634,-43,8491.0
6530,0.34143102169036865,4.040641784667969,0,9999.0,1.7600157260894775,-44,8491.0
6540,0.341424822807312,2.8124990463256836,71,9999.0,1.264498233795166,103,8491.0
6550,0.34143179655075073,1.5821937322616577,30,9999.0,3.263763189315796,-70,8491.0
6560,0.3414374589920044,1.033501148223877,-167,9999.0,1.1345720291137695,20,8491.0
6570,0.3408791720867157,-2.41511607170105,-37,9999.0,-4.209846019744873,180,8491.0
6580,0.34083619713783264,-1.6181854009628296,-40,9999.0,-2.419642686843872,-131,8491.0
6590,0.3407937288284302,-2.3206746578216553,-111,9999.0,-7.790645122528076,-59,8491.0
6600,0.340750515460968,-3.0285017490386963,-26,9999.0,-6.647853851318359,51,8491.0
6610,0.34073302149772644,-0.33154863119125366,-159,9999.0,-5.0894083976745605,-163,8491.0
6620,0.339226096868515,-2.3145318031311035,-36,9999.0,-5.005063056945801,98,8491.0
6630,0.33911171555519104,0.2638126611709595,-32,9999.0,-3.380326986312866,-74,8491.0
6640,0.33900192379951477,-0.7011004090309143,-67,9999.0,-1.0062150955200195,1,8491.0
6650,0.3389016091823578,1.4754396677017212,119,9999.0,-6.635879039764404,218,8491.0
6660,0.33964356780052185,-5.315934181213379,51,9999.0,3.5737242698669434,-25,8491.0
6670,0.339603066444397,-0.7506890892982483,-63,9999.0,1.0998098850250244,64,8491.0
6680,0.33958178758621216,0.27643999457359314,112,9999.0,0.06404381990432739,81,8491.0
6690,0.33957141637802124,-1.4114694595336914,15,9999.0,3.7959394454956055,-191,8491.0
6700,0.33971384167671204,-3.884467124938965,-173,9999.0,7.133077144622803,-84,8491.0
6710,0.33972421288490295,-0.6158885955810547,50,9999.0,-4.3799662590026855,54,8491.0
6720,0.3397609293460846,0.2883618175983429,14,9999.0,-3.9093170166015625,-72,8491.0
6730,0.33979499340057373,1.8743655681610107,-35,9999.0,-1.6945174932479858,-27,8491.0
6740,0.33982357382774353,3.022089719772339,111,9999.0,-5.378976345062256,117,8491.0
6750,0.3407091498374939,2.595874547958374,135,9999.0,-6.2097883224487305,-128,8491.0
6760,0.3408063054084778,3.440528631210327,-73,9999.0,-0.20633229613304138,-41,8491.0
6770,0.34093642234802246,0.41130200028419495,65,9999.0,-1.8480178117752075,88,8491.0
6780,0.34109973907470703,-0.10117900371551514,74,9999.0,-0.9984844326972961,-121,8491.0
6790,0.34193143248558044,-0.961112380027771,-151,9999.0,5.341909408569336,35,8491.0
6800,0.34217387437820435,-4.40939474105835,-127,9999.0,2.7869224548339844,160,8491.0
6810,0.3424396514892578,-1.473315715789795,82,9999.0,-0.9619204998016357,-24,8491.0
6820,0.3427324891090393,1.2669270038604736,-60,9999.0,-3.5447750091552734,-88,8491.0
6830,0.3426283299922943,-0.378167062997818,16,9999.0,1.6619714498519897,58,8491.0
6840,0.3428454101085663,0.004394092597067356,164,9999.0,-1.7884223461151123,-29,8491.0
6850,0.3430804908275604,0.2892278730869293,-76,9999.0,-3.8739755153656006,-206,8491.0
6860,0.34332045912742615,0.8647831678390503,-51,9999.0,-4.355370044708252,-32,8491.0
6870,0.34353727102279663,-0.5658391714096069,33,9999.0,-1.542677402496338,-77,8491.0
6880,0.3418838083744049,1.6101276874542236,-28,9999.0,-0.9703919887542725,-140,8491.0
6890,0.3420097529888153,1.4789544343948364,50,9999.0,0.15852156281471252,146,8491.0
6900,0.34212103486061096,1.8060405254364014,146,9999.0,0.5969221591949463,8,8491.0
6910,0.3422083258628845,3.35509991645813,88,9999.0,-0.4223634898662567,-199,8491.0
6920,0.3410107493400574,-2.4463083744049072,72,9999.0,3.7026071548461914,-19,8491.0
6930,0.3409295976161957,2.3894095420837402,74,9999.0,-0.8403686285018921,-126,8491.0
6940,0.34084030985832214,2.23604416847229,-122,9999.0,3.6745998859405518,-102,8491.0
6950,0.3407294750213623,-0.8146900534629822,54,9999.0,-0.407815545797348,190,8491.0
6960,0.34056544303894043,0.11918573081493378,72,9999.0,-1.7907862663269043,29,8491.0
6970,0.34015390276908875,-2.382949113845825,-68,9999.0,-0.33677634596824646,25,8491.0
6980,0.3399531841278076,0.9500322937965393,130,9999.0,-5.218581676483154,34,8491.0
6990,0.33973780274391174,3.034249782562256,76,9999.0,-1.0249419212341309,-77,8491.0
7000,0.3394983410835266,-1.5837202072143555,1,9999.0,2.269425868988037,-77,8491.0
7010,0.3399399518966675,-2.814453363418579,39,9999.0,-3.4291985034942627,9,8491.0
7020,0.33974507451057434,-2.1648383140563965,-54,9999.0,-0.5753120183944702,-114,8491.0
7030,0.33956199884414673,-2.0795187950134277,-130,9999.0,-0.28739166259765625,-123,8491.0
7040,0.3393957316875458,-0.9343267679214478,28,9999.0,-0.9785598516464233,11,8491.0
7050,0.3387863039970398,-0.8500152230262756,92,9999.0,-2.6847760677337646,-145,8491.0
7060,0.33864229917526245,-2.546532392501831,-135,9999.0,-4.714428901672363,-118,8491.0
7070,0.3385249376296997,-5.171621799468994,-13,9999.0,-3.3500537872314453,79,8491.0
7080,0.33844470977783203,-3.7143213748931885,51,9999.0,2.686107873916626,66,8491.0
7090,0.3383895456790924,-1.9051040410995483,-30,9999.0,5.732171058654785,-176,8491.0
7100,0.33824580907821655,-0.8804479241371155,-58,9999.0,5.656137466430664,104,8491.0
7110,0.3382956087589264,-0.24437277019023895,83,9999.0,2.3677077293395996,21,8491.0
7120,0.33831921219825745,1.2958797216415405,-67,9999.0,2.712183952331543,-147,8491.0
7130,0.33836522698402405,-0.774554431438446,-103,9999.0,0.5588030815124512,14,8491.0
7140,0.3386487066745758,1.9908322095870972,35,9999.0,-3.802907943725586,135,8491.0
7150,0.3387623131275177,2.546427011489868,10,9999.0,-1.9249334335327148,-96,8491.0
7160,0.3389154076576233,0.42398974299430847,-36,9999.0,0.24773141741752625,-4,8491.0
7170,0.33907628059387207,-0.8871312141418457,88,9999.0,2.1440062522888184,118,8491.0
7180,0.3392638564109802,-0.2438277006149292,63,9999.0,1.9338864088058472,-8,8491.0
7190,0.33856236934661865,-2.031696081161499,-135,9999.0,2.204585552215576,8,8491.0
7200,0.33872732520103455,-3.206516742706299,59,9999.0,4.673030376434326,110,8491.0
7210,0.3388808071613312,0.7164871692657471,-60,9999.0,3.921236991882324,-62,8491.0
7220,0.3390261232852936,-0.4418618977069855,-13,9999.0,4.692777633666992,221,8491.0
7230,0.33870095014572144,-1.8862547874450684,164,9999.0,4.437573432922363,103,8491.0
7240,0.33883431553840637,3.2632429599761963,5,9999.0,0.00878114067018032,-300,8491.0
7250,0.33899617195129395,3.1429481506347656,-70,9999.0,-0.6252821087837219,61,8491.0
7260,0.33917924761772156,1.2807537317276,57,9999.0,-4.389143466949463,-79,8491.0
7270,0.33961325883865356,0.23720203340053558,-42,9999.0,-3.3953123092651367,-265,8491.0
7280,0.3398298919200897,1.0755976438522339,-62,9999.0,-0.31752127408981323,-28,8491.0
7290,0.3400532305240631,1.9744536876678467,134,9999.0,-6.328555107116699,48,8491.0
7300,0.3402565121650696,3.9237658977508545,5,9999.0,0.07887447625398636,5,8491.0
7310,0.34044429659843445,0.6436346769332886,-50,9999.0,2.721242904663086,167,8491.0
7320,0.34078580141067505,-2.1239731311798096,52,9999.0,6.314744472503662,178,8491.0
7330,0.3410084843635559,-1.6935551166534424,-68,9999.0,6.634653568267822,-39,8491.0
7340,0.34121978282928467,-3.6024386882781982,-190,9999.0,7.293262958526611,72,8491.0
7350,0.34145793318748474,-0.8532913327217102,6,9999.0,2.856794834136963,156,8491.0
7360,0.34219813346862793,0.44740384817123413,-14,9999.0,4.799587249755859,-48,8491.0
7370,0.342471718788147,0.6124854683876038,-57,9999.0,1.7919012308120728,12,8491.0
7380,0.3427295684814453,1.5578382015228271,106,9999.0,-5.194124698638916,71,8491.0
7390,0.34298640489578247,0.7880484461784363,82,9999.0,-4.004854202270508,-167,8491.0
7400,0.3427882492542267,0.3263944685459137,-118,9999.0,-8.889450073242188,-232,8491.0
7410,0.34305664896965027,3.470688581466675,83,9999.0,-5.183966636657715,-16,8491.0
7420,0.3433000147342682,1.8608793020248413,30,9999.0,-2.303417682647705,-98,8491.0
7430,0.3435574769973755,1.9406962394714355,-26,9999.0,1.5926673412322998,61,8491.0
7440,0.3437640368938446,1.9396830797195435,130,9999.0,2.2239668369293213,174,8491.0
7450,0.3439839780330658,2.3750827312469482,128,9999.0,7.227031707763672,-128,8491.0
7460,0.34423694014549255,1.6072895526885986,-13,9999.0,7.040844917297363,79,8491.0
7470,0.34447914361953735,1.9688189029693604,81,9999.0,4.139151096343994,48,8491.0
7480,0.34467408061027527,0.5835160613059998,-41,9999.0,3.6194992065429688,-149,8491.0
7490,0.34378165006637573,0.5595614910125732,-98,9999.0,1.1710689067840576,145,8491.0
7500,0.3439117670059204,2.4053242206573486,141,9999.0,-3.0992631912231445,-53,8491.0
7510,0.34401485323905945,-1.4994370937347412,-40,9999.0,-0.7602080702781677,6,8491.0
7520,0.3440958857536316,0.5001688599586487,74,9999.0,-0.8096950054168701,88,8491.0
7530,0.34415334463119507,1.1784194707870483,78,9999.0,0.25695332884788513,-5,8491.0
7540,0.3437061905860901,-0.9848822355270386,-175,9999.0,5.742299556732178,-46,8491.0
7550,0.34366166591644287,2.9969143867492676,-5,9999.0,0.1784323900938034,186,8491.0
7560,0.3436353802680969,2.2437164783477783,31,9999.0,-0.07415816187858582,5,8491.0
7570,0.3436032831668854,2.6271884441375732,-52,9999.0,2.8677961826324463,48,8491.0
7580,0.3425467014312744,0.7018592953681946,27,9999.0,2.6558868885040283,273,8491.0
7590,0.34244105219841003,-0.1411573886871338,97,9999.0,4.564274787902832,6,8491.0
7600,0.34234124422073364,-0.9205635786056519,-128,9999.0,0.7020647525787354,-21,8491.0
7610,0.3422359228134155,-4.3951096534729,-21,9999.0,0.9451995491981506,49,8491.0
7620,0.34247350692749023,-3.2173357009887695,2,9999.0,-3.591649293899536,-152,8491.0
7630,0.342433899641037,-3.31056809425354,-157,9999.0,-3.9744715690612793,-116,8491.0
7640,0.3424281179904938,-1.604643702507019,-39,9999.0,-2.2523746490478516,107,8491.0
7650,0.3424435555934906,-1.0372798442840576,61,9999.0,-1.4436872005462646,30,8491.0
7660,0.34250202775001526,-0.537918746471405,-55,9999.0,0.5725253224372864,-47,8491.0
7670,0.3423486649990082,0.814185380935669,61,9999.0,0.5923997163772583,97,8491.0
7680,0.34244194626808167,1.1111717224121094,127,9999.0,0.16991257667541504,71,8491.0
7690,0.34256285429000854,0.3101891577243805,-48,9999.0,2.3317275047302246,-130,8491.0
7700,0.3426816165447235,0.01037080679088831,-109,9999.0,0.16492274403572083,70,8491.0
7710,0.3432566523551941,-1.1308666467666626,66,9999.0,2.932096004486084,9,8491.0
7720,0.3433883488178253,-2.467611074447632,-94,9999.0,0.8594875931739807,-94,8491.0
7730,0.34345757961273193,-2.646793842315674,-105,9999.0,-1.918574571609497,14,8491.0
7740,0.34351933002471924,-3.4300973415374756,11,9999.0,-1.6094778776168823,120,8491.0
7750,0.3435666263103485,-3.152637481689453,-5,9999.0,-5.293516159057617,-206,8491.0
7760,0.3429591953754425,-1.7758545875549316,-71,9999.0,-3.85288405418396,-108,8491.0
7770,0.34291455149650574,0.19396834075450897,66,9999.0,-2.9095969200134277,16,8491.0
7780,0.342883825302124,1.0737546682357788,51,9999.0,0.48756322264671326,-71,8491.0
7790,0.3428097665309906,0.47989436984062195,-149,9999.0,1.3516944646835327,-58,8491.0
7800,0.34284016489982605,-1.6118836402893066,33,9999.0,3.168886184692383,173,8491.0
7810,0.3427974283695221,0.27733466029167175,64,9999.0,4.057664394378662,76,8491.0
7820,0.34278979897499084,-0.20294512808322906,-84,9999.0,5.806595325469971,177,8491.0
7830,0.34281179308891296,0.2637287378311157,62,9999.0,1.8504797220230103,40,8491.0
7840,0.34253355860710144,1.170532464981079,-12,9999.0,5.631669521331787,-139,8491.0
7850,0.34258443117141724,-2.7299225330352783,-185,9999.0,1.310502529144287,30,8491.0
7860,0.34265318512916565,-1.682008147239685,58,9999.0,-7.746294021606445,-65,8491.0
7870,0.3427422344684601,-0.42028066515922546,17,9999.0,-4.660633563995361,-119,8491.0
7880,0.3428283929824829,2.0349841117858887,-47,9999.0,-5.704410552978516,-53,8491.0
7890,0.3425382077693939,1.3067152500152588,86,9999.0,-5.491307258605957,-26,8491.0
7900,0.34257033467292786,0.945953905582428,48,9999.0,-4.852999687194824,-150,8491.0
7910,0.34263187646865845,2.4839911460876465,-95,9999.0,-0.8388930559158325,25,8491.0
7920,0.3426981568336487,-2.7993719577789307,21,9999.0,5.865605354309082,181,8491.0
7930,0.3424655497074127,-0.3273972272872925,2,9999.0,8.382624626159668,0,8491.0
7940,0.34248438477516174,0.489457368850708,-125,9999.0,7.6623663902282715,127,8491.0
7950,0.3424859046936035,-0.09347813576459885,-2,9999.0,4.782382965087891,296,8491.0
7960,0.3424949049949646,-1.034757375717163,84,9999.0,1.1455411911010742,-31,8491.0
7970,0.34251269698143005,0.0004539591900538653,-43,9999.0,1.9781347513198853,-2,8491.0
7980,0.3423137366771698,2.5174899101257324,78,9999.0,-4.940501689910889,11,8491.0
7990,0.34229281544685364,1.8052080869674683,117,9999.0,-4.099135398864746,-39,8491.0
8000,0.34227922558784485,0.8015411496162415,-41,9999.0,-5.9533281326293945,-266,8491.0
8010,0.34226951003074646,1.5182863473892212,-85,9999.0,-4.977423667907715,-86,8491.0
8020,0.3417717516422272,-1.6562762260437012,9,9999.0,-3.075350522994995,33,8491.0
8030,0.3417954742908478,0.757738471031189,-57,9999.0,-3.5272486209869385,-131,8491.0
8040,0.341837078332901,1.1568154096603394,-56,9999.0,-3.596087694168091,89,8491.0
8050,0.3418729603290558,-0.2648019790649414,120,9999.0,1.1981171369552612,74,8491.0
8060,0.3419397473335266,2.086658239364624,19,9999.0,1.836671233177185,-17,8491.0
8070,0.3419555425643921,-0.9777688980102539,-34,9999.0,-1.3154237270355225,11,8491.0
8080,0.3419358432292938,1.0744481086730957,84,9999.0,1.8969476222991943,67,8491.0
8090,0.3419215977191925,0.8579501509666443,5,9999.0,6.721334457397461,-95,8491.0
8100,0.3419150114059448,-0.6520625948905945,-180,9999.0,6.288539886474609,18,8491.0
8110,0.3431142568588257,-1.6821773052215576,24,9999.0,6.3611979484558105,211,8491.0
8120,0.34323689341545105,-0.4583683907985687,110,9999.0,-5.157734394073486,-58,8491.0
8130,0.3433153033256531,-1.6359502077102661,-81,9999.0,-0.8628180623054504,-25,8491.0
8140,0.3434086740016937,-2.2876431941986084,31,9999.0,1.8725459575653076,126,8491.0
8150,0.3433162569999695,-1.645222783088684,56,9999.0,-0.8971992135047913,-111,8491.0
8160,0.34346339106559753,1.666349172592163,-45,9999.0,-4.077646732330322,-205,8491.0
8170,0.3435855209827423,0.36617475748062134,-66,9999.0,-7.6882219314575195,-86,8491.0
8180,0.3436885178089142,-2.3733341693878174,63,9999.0,1.1603233814239502,-38,8491.0
8190,0.34382519125938416,-0.5094454288482666,-41,9999.0,0.8754802942276001,-60,8491.0
8200,0.34518611431121826,0.3931366503238678,31,9999.0,-1.2826635837554932,185,8491.0
8210,0.3453057110309601,1.8267155885696411,247,9999.0,-0.8650285601615906,-9,8491.0
8220,0.3454248905181885,0.890902578830719,-15,9999.0,2.544987440109253,-220,8491.0
8230,0.34552228450775146,-1.6602116823196411,-41,9999.0,2.106536388397217,67,8491.0
8240,0.3457580804824829,-0.448481947183609,56,9999.0,1.4142268896102905,15,8491.0
8250,0.3458338975906372,-1.5517195463180542,-128,9999.0,4.2525410652160645,-108,8491.0
8260,0.34588807821273804,-1.5905859470367432,-65,9999.0,1.5212483406066895,124,8491.0
8270,0.34596991539001465,-1.734437108039856,124,9999.0,-0.9853467345237732,17,8491.0
8280,0.3460146486759186,-1.395616888999939,-55,9999.0,-2.658756732940674,-110,8491.0
8290,0.3461162745952606,-1.9840991497039795,-19,9999.0,-1.807600736618042,29,8491.0
8300,0.3462020754814148,0.22706037759780884,103,9999.0,-1.4620946645736694,27,8491.0
8310,0.3462485074996948,-0.23316621780395508,-36,9999.0,5.646881580352783,-123,8491.0
8320,0.3463135361671448,2.972383975982666,-195,9999.0,-0.5290718674659729,117,8491.0
8330,0.3454896807670593,5.0020952224731445,118,9999.0,-0.9361830353736877,47,8491.0
8340,0.34554600715637207,2.5059313774108887,-3,9999.0,1.6416361331939697,-56,8491.0
8350,0.34565356373786926,3.7060532569885254,41,9999.0,-3.1275248527526855,70,8491.0
8360,0.34580543637275696,2.9294915199279785,182,9999.0,-1.7859643697738647,57,8491.0
8370,0.3460058569908142,6.106919288635254,159,9999.0,-0.8213874101638794,-242,8491.0
8380,0.3461616337299347,2.9271199703216553,-67,9999.0,-2.0613043308258057,30,8491.0
8390,0.346278578042984,2.424563407897949,110,9999.0,0.4363342523574829,58,8491.0
8400,0.3463594317436218,4.5762939453125,3,9999.0,0.1299934834241867,-63,8491.0
8410,0.34642404317855835,2.996896266937256,25,9999.0,6.551031112670898,178,8491.0
8420,0.34630364179611206,3.2975707054138184,128,9999.0,4.341346263885498,224,8491.0
8430,0.3463097810745239,3.1771457195281982,15,9999.0,4.647032737731934,-1,8491.0
8440,0.3462947607040405,2.521574020385742,10,9999.0,2.6162402629852295,118,8491.0
8450,0.346286803483963,2.3926568031311035,0,9999.0,1.2602009773254395,-148,8491.0
8460,0.3465607762336731,1.6269211769104004,-81,9999.0,-1.1284865140914917,-75,8491.0
8470,0.34663674235343933,-1.7602007389068604,46,9999.0,-5.460261344909668,71,8491.0
8480,0.34665244817733765,-4.236263751983643,-57,9999.0,-4.047934532165527,-116,8491.0
8490,0.34665173292160034,-3.9843790531158447,-87,9999.0,-0.21291224658489227,69,8491.0
8500,0.3452431261539459,-4.251525402069092,68,9999.0,0.5434322357177734,-16,8491.0
8510,0.3451525568962097,-1.1582204103469849,-35,9999.0,3.409273624420166,-262,8491.0
8520,0.3450927734375,-1.4430387020111084,-86,9999.0,0.9002798795700073,-18,8491.0
8530,0.3449708819389343,0.03131547197699547,73,9999.0,1.1135066747665405,46,8491.0
8540,0.34480488300323486,1.240448236465454,-31,9999.0,5.121196269989014,-4,8491.0
8550,0.3438994586467743,1.6031864881515503,-20,9999.0,3.77691388130188,126,8491.0
8560,0.3436276614665985,-3.3199687004089355,83,9999.0,10.22024917602539,269,8491.0
8570,0.34334251284599304,2.703258752822876,35,9999.0,-2.226710319519043,-119,8491.0
8580,0.34302136301994324,3.2909200191497803,-14,9999.0,-2.076221227645874,11,8491.0
8590,0.34243249893188477,-1.1788921356201172,24,9999.0,1.517546534538269,37,8491.0
8600,0.342130571603775,-1.320613145828247,-63,9999.0,-4.378995418548584,-202,8491.0
8610,0.3418578505516052,1.923229694366455,16,9999.0,-10.564412117004395,-120,8491.0
8620,0.34158986806869507,-5.730726718902588,55,9999.0,-0.7745879888534546,84,8491.0
8630,0.34195464849472046,-3.871187448501587,-111,9999.0,2.8327322006225586,-52,8491.0
8640,0.34175318479537964,0.831372857093811,-103,9999.0,-1.5051602125167847,103,8491.0
8650,0.34159451723098755,-1.667326807975769,162,9999.0,-1.5238045454025269,2,8491.0
8660,0.34146371483802795,-0.5583454966545105,-47,9999.0,2.183405637741089,-59,8491.0
8670,0.3413807451725006,-6.523055553436279,-182,9999.0,5.756869792938232,206,8491.0
8680,0.34239646792411804,-3.9602556228637695,-3,9999.0,1.2145321369171143,14,8491.0
8690,0.3424481153488159,-6.508168697357178,-136,9999.0,4.192808628082275,-115,8491.0
8700,0.342488169670105,-5.713775634765625,-232,9999.0,5.157352447509766,24,8491.0
8710,0.342521995306015,-9.891924858093262,-129,9999.0,3.5064191818237305,195,8491.0
8720,0.3427324593067169,-9.00446605682373,-29,9999.0,3.391855239868164,-57,8491.0
8730,0.3427784740924835,-3.0485880374908447,-131,9999.0,1.5851519107818604,-57,8491.0
8740,0.3428820073604584,-1.7987127304077148,-49,9999.0,1.3861430883407593,162,8491.0
8750,0.3431297838687897,-1.3009247779846191,-8,9999.0,-1.4204344749450684,-125,8491.0
8760,0.3433077931404114,-0.4891396462917328,-109,9999.0,-4.58328104019165,-86,8491.0
8770,0.34215959906578064,-0.39497289061546326,26,9999.0,-5.835022449493408,75,8491.0
8780,0.3422614336013794,2.1295700073242188,166,9999.0,-4.255429267883301,-76,8491.0
8790,0.342318058013916,1.7845158576965332,-43,9999.0,-5.7193603515625,-69,8491.0
8800,0.34236687421798706,2.4244039058685303,70,9999.0,-0.2152048796415329,68,8491.0
8810,0.3414665758609772,1.1173619031906128,-9,9999.0,0.2081674486398697,-157,8491.0
8820,0.3415103852748871,1.7435617446899414,-147,9999.0,1.9522782564163208,150,8491.0
8830,0.3415648341178894,0.8973202705383301,160,9999.0,-2.2717719078063965,115,8491.0
8840,0.3416382968425751,-0.9654754400253296,-7,9999.0,2.3208346366882324,-130,8491.0
8850,0.3406822979450226,-1.979970932006836,-19,9999.0,-0.47219419479370117,123,8491.0
8860,0.3407088816165924,0.2578074336051941,137,9999.0,-2.567039966583252,-80,8491.0
8870,0.34070882201194763,0.6440576314926147,-52,9999.0,-1.6534675359725952,-316,8491.0
8880,0.3406929671764374,-1.8506985902786255,1,9999.0,-2.768017053604126,51,8491.0
8890,0.3406640589237213,-2.5720250606536865,6,9999.0,-3.7269556522369385,-112,8491.0
8900,0.34153151512145996,-2.4310462474823,-141,9999.0,-1.3594545125961304,-76,8491.0
8910,0.3415234088897705,-1.9646462202072144,55,9999.0,-1.2638887166976929,226,8491.0
8920,0.34156668186187744,-0.5455765724182129,80,9999.0,1.5997035503387451,-61,8491.0
8930,0.34160900115966797,1.7247012853622437,-90,9999.0,3.2266244888305664,1,8491.0
8940,0.3422015905380249,-0.7525681853294373,30,9999.0,1.3184055089950562,34,8491.0
8950,0.3422892093658447,0.3655949831008911,-28,9999.0,0.3291265070438385,-85,8491.0
8960,0.3423720598220825,-0.8223569393157959,-161,9999.0,-1.17875337600708,123,8491.0
8970,0.34247156977653503,1.4180724620819092,70,9999.0,-0.2536894679069519,181,8491.0
8980,0.3426024317741394,2.677729606628418,27,9999.0,-1.861551284790039,18,8491.0
8990,0.3429296016693115,-1.3066556453704834,-37,9999.0,4.474245071411133,133,8491.0
9000,0.34310197830200195,-0.9201922416687012,38,9999.0,8.269960403442383,150,8491.0
9010,0.34326282143592834,-2.306426763534546,-88,9999.0,6.657257080078125,-39,8491.0
9020,0.34345126152038574,-0.7806798219680786,-153,9999.0,3.3318605422973633,106,8491.0
9030,0.3438040614128113,0.7068007588386536,107,9999.0,4.636354446411133,285,8491.0
9040,0.34401780366897583,-3.2279751300811768,3,9999.0,2.5758109092712402,-4,8491.0
9050,0.3442518413066864,-1.0682774782180786,3,9999.0,3.6079585552215576,30,8491.0
9060,0.3445136845111847,-1.4128735065460205,58,9999.0,1.4128248691558838,-62,8491.0
9070,0.3444685935974121,0.6993703246116638,-93,9999.0,0.8158165216445923,10,8491.0
9080,0.3446994423866272,0.6807175874710083,35,9999.0,-1.2905080318450928,152,8491.0
9090,0.3449375629425049,-0.510809063911438,187,9999.0,-8.087230682373047,-118,8491.0
9100,0.3451712131500244,2.335811138153076,-75,9999.0,2.11466908454895,-92,8491.0
9110,0.345401793718338,0.07036804407835007,-47,9999.0,-4.499709129333496,19,8491.0
9120,0.3462607264518738,-2.285032033920288,7,9999.0,0.4476749002933502,27,8491.0
9130,0.3465612232685089,-0.8334042429924011,-100,9999.0,2.466402292251587,0,8491.0
9140,0.3468812108039856,0.48239460587501526,39,9999.0,3.0904858112335205,203,8491.0
9150,0.3472099006175995,3.5329105854034424,177,9999.0,3.9788320064544678,69,8491.0
9160,0.34731847047805786,-0.07998926192522049,-44,9999.0,3.996309757232666,-130,8491.0
9170,0.34763768315315247,5.502216339111328,-7,9999.0,0.6549701690673828,120,8491.0
9180,0.34793445467948914,-1.1353493928909302,94,9999.0,6.688686370849609,106,8491.0
9190,0.3482198715209961,5.285253047943115,12,9999.0,1.9703891277313232,12,8491.0
9200,0.3485487699508667,6.7634782791137695,117,9999.0,3.542968273162842,140,8491.0
9210,0.3476502001285553,6.797491550445557,205,9999.0,1.0268421173095703,-42,8491.0
9220,0.3478207290172577,7.3727006912231445,46,9999.0,3.5762577056884766,-132,8491.0
9230,0.3479660153388977,10.979180335998535,190,9999.0,2.100339889526367,147,8491.0
9240,0.3480977714061737,9.069164276123047,269,9999.0,3.424285650253296,15,8491.0
9250,0.3469347655773163,8.1373291015625,119,9999.0,4.635483741760254,-3,8491.0
9260,0.3469318747520447,6.077107906341553,208,9999.0,0.14135770499706268,65,8491.0
9270,0.34695401787757874,5.474700927734375,163,9999.0,-0.9849206209182739,-82,8491.0
9280,0.3469211459159851,6.742865562438965,-41,9999.0,-3.281947612762451,-164,8491.0
9290,0.3476618528366089,4.876774311065674,41,9999.0,-1.8996325731277466,152,8491.0
9300,0.3476276993751526,1.62019944190979,170,9999.0,2.3492090702056885,8,8491.0
9310,0.3475905656814575,1.1145894527435303,33,9999.0,4.189101696014404,50,8491.0
9320,0.34754258394241333,1.160582423210144,61,9999.0,3.2312734127044678,123,8491.0
9330,0.3474860191345215,3.5783963203430176,93,9999.0,3.5660452842712402,-29,8491.0
9340,0.3476533591747284,2.8380038738250732,-60,9999.0,1.5363740921020508,-32,8491.0
9350,0.3476605713367462,1.6141116619110107,52,9999.0,-0.4158198833465576,95,8491.0
9360,0.3476930558681488,-4.556856155395508,144,9999.0,-0.4077410101890564,-17,8491.0
9370,0.34773707389831543,-0.051656801253557205,12,9999.0,-4.379277229309082,-201,8491.0
9380,0.3482760787010193,-1.4381576776504517,39,9999.0,-6.547093868255615,-39,8491.0
9390,0.348331093788147,-1.7940927743911743,-14,9999.0,-2.0627729892730713,-124,8491.0
9400,0.348398894071579,1.6108952760696411,-27,9999.0,-3.311856985092163,-109,8491.0
9410,0.3484841287136078,1.9577711820602417,108,9999.0,-4.471801280975342,150,8491.0
9420,0.34858766198158264,3.452759265899658,179,9999.0,0.107094407081604,-48,8491.0
9430,0.3484607934951782,1.8218128681182861,-155,9999.0,7.725294589996338,-15,8491.0
9440,0.34855887293815613,2.460127353668213,28,9999.0,6.490161895751953,204,8491.0
9450,0.34870287775993347,2.1758644580841064,-8,9999.0,9.608175277709961,205,8491.0
9460,0.34880486130714417,1.3332144021987915,5,9999.0,1.198773980140686,27,8491.0
9470,0.34773439168930054,1.3099721670150757,29,9999.0,-2.3743834495544434,72,8491.0
9480,0.3477399945259094,-0.3711428642272949,-45,9999.0,-2.710223913192749,-73,8491.0
9490,0.34771791100502014,1.9623409509658813,-66,9999.0,-8.377878189086914,-99,8491.0
9500,0.34766119718551636,0.6071062088012695,78,9999.0,-5.734774112701416,94,8491.0
9510,0.3477439880371094,-1.5751615762710571,55,9999.0,-3.494016170501709,-167,8491.0
9520,0.3476695120334625,-0.9453907012939453,-232,9999.0,-4.709125995635986,-87,8491.0
9530,0.3475476801395416,-4.03793478012085,-29,9999.0,-0.986914873123169,196,8491.0
9540,0.34737324714660645,-3.12343168258667,126,9999.0,2.8943898677825928,-41,8491.0
9550,0.3472123444080353,-1.7497388124465942,-92,9999.0,1.9207961559295654,-74,8491.0
9560,0.3477432429790497,-1.415824055671692,24,9999.0,2.876769781112671,99,8491.0
9570,0.34758007526397705,-0.021397652104496956,27,9999.0,0.2771640121936798,31,8491.0
9580,0.34743180871009827,-0.5660202503204346,-22,9999.0,-1.4635676145553589,-58,8491.0
9590,0.34731656312942505,-0.008275938220322132,62,9999.0,-2.0940561294555664,-10,8491.0
9600,0.347934752702713,0.12363694608211517,12,9999.0,-5.885848045349121,-93,8491.0
9610,0.3479249179363251,0.7278439402580261,-50,9999.0,-4.43345832824707,-219,8491.0
9620,0.3479243516921997,-0.19636274874210358,-23,9999.0,-4.68572473526001,29,8491.0
9630,0.3479437828063965,0.5460338592529297,127,9999.0,-0.9138813614845276,107,8491.0
9640,0.3480062782764435,0.8113248348236084,-101,9999.0,-0.5725618004798889,-123,8491.0
9650,0.3480914533138275,-2.800367593765259,-188,9999.0,-0.7339441776275635,51,8491.0
9660,0.3482092618942261,-4.921550750732422,97,9999.0,-4.411270618438721,25,8491.0
9670,0.34832829236984253,-4.203737258911133,-79,9999.0,0.12176403403282166,-168,8491.0
9680,0.34843653440475464,-5.696331024169922,-45,9999.0,-0.5957984328269958,157,8491.0
9690,0.34872063994407654,-6.24854850769043,-55,9999.0,-0.6749240756034851,-41,8491.0
9700,0.3488064706325531,-7.755154132843018,-189,9999.0,-5.556517601013184,-61,8491.0
9710,0.3488929867744446,-7.765635967254639,-92,9999.0,-4.971756458282471,-83,8491.0
9720,0.34896379709243774,-7.9007158279418945,-136,9999.0,-5.968760967254639,-133,8491.0
9730,0.3490484952926636,-6.5895466804504395,-136,9999.0,-8.256843566894531,-97,8491.0
9740,0.3491390347480774,-3.917748212814331,-24,9999.0,-7.970910549163818,-91,8491.0
9750,0.3492209017276764,-2.1012799739837646,-42,9999.0,-6.453002452850342,-160,8491.0
9760,0.3493462800979614,2.401718854904175,-134,9999.0,-8.190861701965332,-22,8491.0
9770,0.3494843542575836,-0.8205333352088928,101,9999.0,-6.937045574188232,44,8491.0
9780,0.3501937687397003,-0.41508644819259644,10,9999.0,-2.3261497020721436,-180,8491.0
9790,0.35036715865135193,0.35605862736701965,-168,9999.0,5.037725925445557,92,8491.0
9800,0.3505196273326874,0.7811713218688965,74,9999.0,-0.8611259460449219,285,8491.0
9810,0.35066547989845276,0.8177804946899414,-14,9999.0,3.88008451461792,26,8491.0
9820,0.3516426086425781,-0.389358788728714,-70,9999.0,0.11718423664569855,24,8491.0
9830,0.3517411947250366,-1.7217051982879639,2,9999.0,-0.15981686115264893,20,8491.0
9840,0.3518105447292328,-2.8867411613464355,-20,9999.0,-4.2328009605407715,-84,8491.0
9850,0.3518936336040497,-2.2397868633270264,16,9999.0,-4.696118354797363,-100,8491.0
9860,0.3518977463245392,-1.550026297569275,43,9999.0,-5.922204971313477,-108,8491.0
9870,0.3511175215244293,0.9490606188774109,-63,9999.0,-6.05175256729126,-200,8491.0
9880,0.3510266840457916,4.824761867523193,71,9999.0,-9.349306106567383,25,8491.0
9890,0.35092705488204956,3.0287678241729736,212,9999.0,-2.5708765983581543,-64,8491.0
9900,0.3508220314979553,4.238630294799805,-13,9999.0,2.6799981594085693,-151,8491.0
9910,0.3512173593044281,8.854525566101074,119,9999.0,-0.9350640773773193,185,8491.0
9920,0.35109665989875793,3.5463104248046875,218,9999.0,4.551141262054443,57,8491.0
9930,0.35096848011016846,0.8814018964767456,-33,9999.0,5.216397762298584,32,8491.0
9940,0.35083210468292236,-1.8586053848266602,-22,9999.0,4.492815971374512,128,8491.0
9950,0.3508397340774536,-2.8420355319976807,-54,9999.0,1.2058446407318115,-39,8491.0
9960,0.3507143557071686,-3.022218942642212,-143,9999.0,-6.379088401794434,-138,8491.0
9970,0.3505830466747284,-6.931595325469971,23,9999.0,-9.054100036621094,-25,8491.0
9980,0.35042130947113037,-7.63801908493042,-36,9999.0,-9.245393753051758,-227,8491.0
9990,0.3502272665500641,-5.535840034484863,-256,9999.0,-11.729270935058594,-234,8491.0
10000,0.3495675027370453,-7.321402549743652,-72,9999.0,2.1224396228790283,187,8491.0
10010,0.349460631608963,-1.105223536491394,107,9999.0,2.2112724781036377,24,8491.0
10020,0.34933343529701233,2.8821475505828857,-34,9999.0,7.899208068847656,89,8491.0
10030,0.34920257329940796,3.5813958644866943,90,9999.0,6.841134071350098,122,8491.0
10040,0.3490479588508606,5.929048538208008,93,9999.0,6.990935325622559,30,8491.0
10050,0.34892141819000244,6.845509052276611,8,9999.0,4.4882941246032715,124,8491.0
10060,0.34879249334335327,5.887497901916504,137,9999.0,1.6982600688934326,172,8491.0
10070,0.34861963987350464,3.801243305206299,80,9999.0,0.26446643471717834,-113,8491.0
10080,0.3498363196849823,2.4999594688415527,-138,9999.0,-4.03941011428833,-94,8491.0
10090,0.3498072624206543,0.7062259316444397,66,9999.0,-8.412653923034668,139,8491.0
10100,0.34982556104660034,0.18781359493732452,38,9999.0,-1.4997036457061768,-32,8491.0
10110,0.3498119115829468,-0.4333151578903198,-61,9999.0,3.515498399734497,99,8491.0
10120,0.3498148024082184,-1.5044677257537842,60,9999.0,5.2123870849609375,106,8491.0
10130,0.3494829535484314,1.081303596496582,5,9999.0,5.179703235626221,-7,8491.0
10140,0.3494393229484558,0.7463117241859436,-87,9999.0,6.519730567932129,108,8491.0
10150,0.34937480092048645,-0.6592089533805847,149,9999.0,6.2910990715026855,212,8491.0
10160,0.3492997884750366,0.8603618144989014,60,9999.0,7.473265171051025,-56,8491.0
10170,0.3495335876941681,2.9952290058135986,-120,9999.0,0.4854029417037964,-2,8491.0
10180,0.349473774433136,0.4708876609802246,56,9999.0,3.042034149169922,167,8491.0
10190,0.34939971566200256,0.4718266427516937,74,9999.0,4.9857258796691895,104,8491.0
10200,0.3493120074272156,-1.0573394298553467,-52,9999.0,5.911388874053955,36,8491.0
10210,0.34922730922698975,-0.190557599067688,19,9999.0,2.8399946689605713,39,8491.0
10220,0.3490610420703888,0.30151286721229553,5,9999.0,2.531569004058838,-2,8491.0
10230,0.3489917516708374,1.3968267440795898,-21,9999.0,-0.609157383441925,-28,8491.0
10240,0.34894829988479614,-0.011797724291682243,59,9999.0,-1.1226760149002075,112,8491.0
10250,0.34899598360061646,2.5066745281219482,-45,9999.0,-1.8576669692993164,-22,8491.0
10260,0.34943312406539917,2.9020564556121826,-83,9999.0,1.9999732971191406,-135,8491.0
10270,0.34955069422721863,3.342541217803955,206,9999.0,0.3107120394706726,107,8491.0
10280,0.34966644644737244,4.517439365386963,75,9999.0,8.618451118469238,195,8491.0
10290,0.3498016893863678,2.9052093029022217,-95,9999.0,6.643339157104492,-59,8491.0
10300,0.348775178194046,3.4043004512786865,65,9999.0,8.862385749816895,363,8491.0
10310,0.34883514046669006,2.9108848571777344,30,9999.0,7.541083335876465,57,8491.0
10320,0.3488766849040985,0.8982970714569092,0,9999.0,6.488030910491943,156,8491.0
10330,0.34893739223480225,-2.387533187866211,11,9999.0,5.310980319976807,84,8491.0
10340,0.3490455150604248,-2.3908426761627197,-106,9999.0,2.9790680408477783,-1,8491.0
10350,0.3475017249584198,-4.705454349517822,-190,9999.0,1.1102901697158813,39,8491.0
10360,0.3474895656108856,-9.808636665344238,6,9999.0,-0.38946712017059326,54,8491.0
10370,0.34749671816825867,-5.37513542175293,37,9999.0,-9.781688690185547,-238,8491.0
10380,0.34745338559150696,-8.21265983581543,-209,9999.0,-0.6023485064506531,-46,8491.0
10390,0.34726235270500183,-2.2041594982147217,60,9999.0,-2.142357587814331,174,8491.0
10400,0.3473116457462311,-2.2894437313079834,138,9999.0,2.011253833770752,-39,8491.0
10410,0.3472607135772705,-0.8717999458312988,-61,9999.0,1.9443790912628174,-189,8491.0
10420,0.34721770882606506,-0.6822291016578674,-5,9999.0,7.51041316986084,143,8491.0
10430,0.3471672832965851,-0.23177935183048248,119,9999.0,0.8081068396568298,86,8491.0
10440,0.34621745347976685,3.5972728729248047,81,9999.0,-0.1457112431526184,-222,8491.0
10450,0.34604963660240173,5.7454915046691895,-4,9999.0,-6.759949207305908,-116,8491.0
10460,0.34590595960617065,5.268524169921875,114,9999.0,-5.24688196182251,-44,8491.0
10470,0.3457719385623932,7.6061577796936035,136,9999.0,-0.7134181261062622,-81,8491.0
10480,0.3445449769496918,11.622199058532715,141,9999.0,-6.628931999206543,-42,8491.0
10490,0.3443751633167267,7.941827774047852,172,9999.0,-0.9319157004356384,33,8491.0
10500,0.34419575333595276,8.105661392211914,62,9999.0,2.4479405879974365,-68,8491.0
10510,0.3440451920032501,1.9024041891098022,-100,9999.0,1.750312328338623,11,8491.0
10520,0.3439524173736572,0.2298024743795395,72,9999.0,3.7047007083892822,333,8491.0
10530,0.34392499923706055,-0.1227918192744255,29,9999.0,3.325735092163086,-28,8491.0
10540,0.3438403010368347,-1.0530563592910767,-66,9999.0,5.040468215942383,2,8491.0
10550,0.3438040316104889,-0.21799282729625702,10,9999.0,0.4505939483642578,39,8491.0
10560,0.3438141345977783,-0.2955457866191864,-10,9999.0,-4.170192718505859,-155,8491.0
10570,0.34512123465538025,1.0079787969589233,-33,9999.0,-8.299296379089355,-142,8491.0
10580,0.34520408511161804,-0.8121351003646851,98,9999.0,-10.229231834411621,-36,8491.0
10590,0.3453023135662079,1.342578649520874,128,9999.0,-7.761186599731445,-124,8491.0
10600,0.3454131484031677,-2.297503709793091,-213,9999.0,-8.924800872802734,-266,8491.0
10610,0.34697961807250977,2.6589150428771973,-4,9999.0,-6.038835048675537,-11,8491.0
10620,0.34729892015457153,2.076815128326416,53,9999.0,-4.118739604949951,-31,8491.0
10630,0.3476482629776001,3.9090850353240967,24,9999.0,-1.0809403657913208,41,8491.0
10640,0.3479372262954712,3.2882211208343506,145,9999.0,2.863041639328003,209,8491.0
10650,0.34838414192199707,2.182175636291504,21,9999.0,2.679722309112549,24,8491.0
10660,0.34939301013946533,0.23880836367607117,-109,9999.0,-0.670815110206604,125,8491.0
10670,0.3497551679611206,-1.368294358253479,5,9999.0,4.379514217376709,125,8491.0
10680,0.3500676453113556,-2.1386287212371826,-91,9999.0,-0.4934411942958832,-31,8491.0
10690,0.35038259625434875,0.7154470682144165,37,9999.0,-4.23942756652832,39,8491.0
10700,0.35011956095695496,1.0868934392929077,203,9999.0,-3.491114377975464,-94,8491.0
10710,0.35038551688194275,3.9815804958343506,-12,9999.0,-3.180635452270508,-270,8491.0
10720,0.3506523668766022,5.040801525115967,61,9999.0,0.7764758467674255,172,8491.0
10730,0.3509085774421692,6.782510280609131,183,9999.0,-0.16664913296699524,-3,8491.0
10740,0.35067853331565857,4.920236587524414,59,9999.0,2.617828607559204,78,8491.0
10750,0.35085028409957886,1.5866211652755737,66,9999.0,2.976093292236328,90,8491.0
10760,0.3510328531265259,1.418473482131958,-20,9999.0,1.4125323295593262,-107,8491.0
10770,0.35119736194610596,-1.912327527999878,-23,9999.0,4.991130828857422,149,8491.0
10780,0.3513115346431732,-4.033000469207764,68,9999.0,-0.9024924039840698,-30,8491.0
10790,0.35208433866500854,-1.009692668914795,-80,9999.0,0.5079532265663147,-47,8491.0
10800,0.35221847891807556,-4.503974914550781,39,9999.0,1.6068921089172363,-46,8491.0
10810,0.35235872864723206,-1.473333716392517,-57,9999.0,1.4420827627182007,-124,8491.0
10820,0.35247930884361267,-0.8830890655517578,-63,9999.0,-1.0946588516235352,72,8491.0
10830,0.35275086760520935,-0.8156039714813232,129,9999.0,1.580979824066162,3,8491.0
10840,0.35288065671920776,-2.1963868141174316,-170,9999.0,7.627203941345215,-55,8491.0
10850,0.3530029058456421,-1.1629061698913574,-23,9999.0,6.971736907958984,144,8491.0
10860,0.3531125783920288,1.7926162481307983,175,9999.0,-1.3046815395355225,73,8491.0
10870,0.35316774249076843,1.1125104427337646,-12,9999.0,3.3889083862304688,28,8491.0
10880,0.3525310754776001,1.2683054208755493,94,9999.0,0.9984886646270752,-135,8491.0
10890,0.3525051772594452,1.1007323265075684,-122,9999.0,-0.7672582268714905,97,8491.0
10900,0.3524371385574341,0.7572084069252014,-26,9999.0,0.9694250226020813,269,8491.0
10910,0.3523600995540619,1.6840813159942627,-122,9999.0,1.1130791902542114,-94,8491.0
10920,0.3525051772594452,-1.1117801666259766,-25,9999.0,1.3028569221496582,124,8491.0
10930,0.35242322087287903,-0.34176748991012573,-22,9999.0,4.032705307006836,57,8491.0
10940,0.35234227776527405,-0.3689248263835907,-14,9999.0,2.1812381744384766,130,8491.0
10950,0.35223588347435,-1.6504520177841187,58,9999.0,-0.5677472352981567,-96,8491.0
10960,0.35205817222595215,-2.2706148624420166,-196,9999.0,0.16315698623657227,-11,8491.0
10970,0.35189715027809143,-4.752200603485107,-46,9999.0,-1.378130316734314,104,8491.0
10980,0.35176709294319153,-5.165343284606934,-103,9999.0,-3.74442720413208,-92,8491.0
10990,0.35160213708877563,-7.086942195892334,-154,9999.0,-3.946000099182129,-9,8491.0
11000,0.35138648748397827,-7.124365329742432,-73,9999.0,-4.66395378112793,-129,8491.0
11010,0.3514430820941925,-6.231906890869141,-236,9999.0,-3.2666828632354736,-59,8491.0
11020,0.3513018786907196,-6.585168838500977,4,9999.0,0.15764133632183075,246,8491.0
11030,0.35117995738983154,-4.48862361907959,-51,9999.0,-0.8061076998710632,-97,8491.0
11040,0.3510527014732361,-3.6765987873077393,-91,9999.0,4.44891357421875,88,8491.0
11050,0.35018229484558105,-2.628380537033081,-53,9999.0,7.8564558029174805,95,8491.0
11060,0.35004469752311707,1.6409554481506348,-58,9999.0,0.5074148774147034,58,8491.0
11070,0.3499261140823364,-0.18094167113304138,85,9999.0,2.3200719356536865,179,8491.0
11080,0.3499116599559784,-2.0336132049560547,-5,9999.0,-1.6775840520858765,-252,8491.0
11090,0.34984737634658813,-1.9995523691177368,-154,9999.0,0.5384835600852966,22,8491.0
11100,0.3498786687850952,-3.124772787094116,68,9999.0,0.49021270871162415,43,8491.0
11110,0.3499336838722229,-1.0862709283828735,-40,9999.0,1.3073045015335083,-4,8491.0
11120,0.3499632775783539,-1.5970758199691772,23,9999.0,-0.19535167515277863,114,8491.0
11130,0.3498903214931488,-4.091783046722412,-124,9999.0,1.4374796152114868,-139,8491.0
11140,0.3491704761981964,-7.578689098358154,-181,9999.0,3.4930670261383057,146,8491.0
11150,0.3492046594619751,-6.586154937744141,-60,9999.0,0.6633120179176331,69,8491.0
11160,0.34921181201934814,-8.718024253845215,-177,9999.0,-2.0461888313293457,-10,8491.0
11170,0.3491828143596649,-9.95383071899414,-74,9999.0,-2.427809238433838,-16,8491.0
11180,0.34867578744888306,-7.855072021484375,-224,9999.0,-5.172750473022461,-238,8491.0
11190,0.34861499071121216,-6.641275405883789,-161,9999.0,-7.347290992736816,175,8491.0
11200,0.3485352396965027,-6.312123775482178,-19,9999.0,-5.006631374359131,-95,8491.0
11210,0.3484392762184143,-4.454343318939209,-89,9999.0,-3.2292518615722656,-54,8491.0
11220,0.34833452105522156,-3.784060001373291,4,9999.0,1.8260349035263062,9,8491.0
11230,0.3478013277053833,-2.7954516410827637,-109,9999.0,-1.2432068586349487,-188,8491.0
11240,0.3477742075920105,-1.3957545757293701,-22,9999.0,1.4514347314834595,167,8491.0
11250,0.34779125452041626,-3.0985212326049805,69,9999.0,1.5650484561920166,-84,8491.0
11260,0.34776172041893005,-3.202951192855835,-151,9999.0,0.11800887435674667,54,8491.0
11270,0.34823837876319885,-3.0089221000671387,-33,9999.0,-1.567641019821167,-7,8491.0
11280,0.34834757447242737,-2.8965907096862793,-154,9999.0,-0.9618140459060669,-159,8491.0
11290,0.34846681356430054,-2.858771800994873,-46,9999.0,-0.2388758659362793,100,8491.0
11300,0.34856757521629333,-0.9598054885864258,98,9999.0,-1.1288641691207886,-91,8491.0
11310,0.3500053584575653,-0.672795295715332,-81,9999.0,-4.08923864364624,50,8491.0
11320,0.3502543866634369,-0.4034399390220642,44,9999.0,0.6822072863578796,8,8491.0
11330,0.3505184054374695,1.198693871498108,-105,9999.0,4.100592136383057,49,8491.0
11340,0.3507862091064453,0.27379292249679565,55,9999.0,5.952906131744385,357,8491.0
11350,0.3510388433933258,5.710036754608154,114,9999.0,3.236621856689453,74,8491.0
11360,0.3508760333061218,6.314303398132324,120,9999.0,3.320472002029419,103,8491.0
11370,0.35116615891456604,7.571261405944824,208,9999.0,3.1743149757385254,-90,8491.0
11380,0.3514237105846405,9.027589797973633,-23,9999.0,1.309383749961853,18,8491.0
11390,0.3516548275947571,7.286942481994629,220,9999.0,1.5764381885528564,43,8491.0
11400,0.35112276673316956,8.572549819946289,93,9999.0,2.3085689544677734,42,8491.0
11410,0.3513062298297882,8.107478141784668,196,9999.0,0.08000441640615463,80,8491.0
11420,0.3514537811279297,8.325286865234375,117,9999.0,-0.6569239497184753,-199,8491.0
11430,0.35154327750205994,6.642004013061523,39,9999.0,0.19918611645698547,83,8491.0
11440,0.35170936584472656,5.291490077972412,71,9999.0,-0.47043654322624207,-58,8491.0
11450,0.3531399965286255,3.1460201740264893,14,9999.0,-0.21459874510765076,154,8491.0
11460,0.3532852232456207,2.1675658226013184,140,9999.0,1.100406289100647,-34,8491.0
11470,0.35342487692832947,2.6059343814849854,-22,9999.0,-0.46714240312576294,5,8491.0
11480,0.35357949137687683,3.502678155899048,113,9999.0,0.9727484583854675,-26,8491.0
11490,0.35426220297813416,3.606038808822632,-78,9999.0,-1.5262110233306885,-31,8491.0
11500,0.3543736934661865,4.610415935516357,131,9999.0,1.7690633535385132,89,8491.0
11510,0.35457831621170044,5.407768249511719,43,9999.0,2.98880934715271,45,8491.0
11520,0.3546447157859802,5.172016620635986,191,9999.0,6.5148606300354,55,8491.0
11530,0.35464903712272644,7.128640651702881,8,9999.0,7.753018379211426,122,8491.0
11540,0.3568119406700134,7.7563886642456055,143,9999.0,9.751338005065918,140,8491.0
11550,0.3567911684513092,7.99193811416626,34,9999.0,7.8767991065979,116,8491.0
11560,0.35675546526908875,7.177009582519531,183,9999.0,3.1968135833740234,222,8491.0
11570,0.3567267060279846,4.379366397857666,43,9999.0,1.394263505935669,-33,8491.0
11580,0.3576313853263855,4.286191940307617,55,9999.0,-0.11028046905994415,58,8491.0
11590,0.35761958360671997,0.3936890959739685,-9,9999.0,-3.5688023567199707,-318,8491.0
11600,0.3575739860534668,-0.40220004320144653,-100,9999.0,-6.673345565795898,-85,8491.0
11610,0.3574872612953186,-1.8707516193389893,-28,9999.0,-8.719669342041016,-84,8491.0
11620,0.35758176445961,-2.324692964553833,-109,9999.0,-4.551740646362305,68,8491.0
11630,0.35745128989219666,-3.8580636978149414,60,9999.0,1.8369697332382202,20,8491.0
11640,0.3573014438152313,-3.1763699054718018,-80,9999.0,2.2446584701538086,55,8491.0
11650,0.35712891817092896,-3.7976627349853516,33,9999.0,1.3010272979736328,52,8491.0
11660,0.35691672563552856,-3.449578046798706,-191,9999.0,5.6484375,41,8491.0
11670,0.3571324944496155,-3.4895730018615723,-56,9999.0,4.831457138061523,107,8491.0
11680,0.3569289743900299,-3.221538782119751,-118,9999.0,4.39224910736084,0,8491.0
11690,0.35672345757484436,-4.5235090255737305,-80,9999.0,4.3139753341674805,273,8491.0
11700,0.35647639632225037,-4.94797945022583,-15,9999.0,2.398376703262329,-5,8491.0
11710,0.3559891879558563,-5.892739295959473,-91,9999.0,7.9220356941223145,95,8491.0
11720,0.35565343499183655,-3.814103364944458,39,9999.0,-1.7371666431427002,-84,8491.0
11730,0.3553106188774109,-1.474255084991455,-137,9999.0,-4.8828864097595215,-261,8491.0
11740,0.354952871799469,-4.959402084350586,-60,9999.0,7.274292469024658,71,8491.0
11750,0.3543373644351959,-2.813624382019043,9,9999.0,-0.3060782253742218,-132,8491.0
11760,0.35387954115867615,-0.7922957539558411,-25,9999.0,-0.863270103931427,130,8491.0
11770,0.35349133610725403,-0.9083442091941833,86,9999.0,-0.8564109802246094,-19,8491.0
11780,0.353139191865921,-2.0491530895233154,-153,9999.0,4.217653751373291,-75,8491.0
11790,0.35278892517089844,-1.6461068391799927,44,9999.0,1.9234261512756348,-14,8491.0
11800,0.3533337116241455,-0.0819781944155693,-101,9999.0,3.7500181198120117,-89,8491.0
11810,0.35305729508399963,-3.3776257038116455,-99,9999.0,2.3991856575012207,127,8491.0
11820,0.35279589891433716,8.415817260742188,105,9999.0,-5.748002529144287,-12,8491.0
11830,0.3525201976299286,4.2487568855285645,-29,9999.0,0.6734135746955872,180,8491.0
11840,0.3524356782436371,-0.06103397160768509,155,9999.0,5.277744293212891,169,8491.0
11850,0.35217946767807007,1.636107087135315,-111,9999.0,3.5594658851623535,-80,8491.0
11860,0.3519565761089325,1.2662098407745361,19,9999.0,0.7251080274581909,63,8491.0
11870,0.35176244378089905,-2.9883742332458496,-56,9999.0,-2.5466291904449463,-159,8491.0
11880,0.351595401763916,-3.102139949798584,-73,9999.0,0.43244287371635437,-31,8491.0
11890,0.3520062565803528,-3.1047074794769287,115,9999.0,-5.273097038269043,-211,8491.0
11900,0.3519091308116913,-2.2089173793792725,-95,9999.0,-3.745229482650757,-72,8491.0
11910,0.3518660366535187,-4.266106128692627,17,9999.0,-3.8841609954833984,18,8491.0
11920,0.351762592792511,-3.3785476684570312,-105,9999.0,-4.779721260070801,-204,8491.0
11930,0.3523094654083252,-4.61609411239624,-84,9999.0,-6.724578380584717,-7,8491.0
11940,0.3522884249687195,-3.866316556930542,-78,9999.0,-0.5631704330444336,-102,8491.0
11950,0.3522890508174896,-3.256037950515747,-76,9999.0,-0.1653321385383606,137,8491.0
11960,0.35226958990097046,-1.0317429304122925,108,9999.0,1.0563900470733643,-15,8491.0
11970,0.35216158628463745,-1.4334607124328613,-61,9999.0,5.572210311889648,50,8491.0
11980,0.3521878719329834,-2.1229307651519775,59,9999.0,4.143450736999512,44,8491.0
11990,0.3521781861782074,-2.4980733394622803,-179,9999.0,-1.2365086078643799,-175,8491.0
12000,0.35225576162338257,-3.8978629112243652,-59,9999.0,-2.7907140254974365,-15,8491.0
12010,0.3522949814796448,-5.803956508636475,-162,9999.0,-1.5137180089950562,-44,8491.0
12020,0.3535376787185669,-7.620956897735596,-82,9999.0,-3.316418170928955,119,8491.0
12030,0.35365378856658936,-4.806142330169678,-115,9999.0,-5.988264083862305,-130,8491.0
12040,0.3537582755088806,-7.2374348640441895,-137,9999.0,-1.011269450187683,-43,8491.0
12050,0.3538699746131897,-4.01140022277832,-60,9999.0,-4.731958866119385,-150,8491.0
12060,0.3548683226108551,-1.7897663116455078,-55,9999.0,-3.7550883293151855,82,8491.0
12070,0.35504937171936035,0.8845569491386414,114,9999.0,0.6077420711517334,33,8491.0
12080,0.35521799325942993,4.493534564971924,59,9999.0,-0.1105182021856308,24,8491.0
12090,0.355338990688324,4.66085147857666,164,9999.0,-1.0732840299606323,-100,8491.0
12100,0.35541781783103943,4.821817874908447,-101,9999.0,-0.4323568046092987,76,8491.0
12110,0.3544374704360962,3.785496234893799,132,9999.0,-3.482001304626465,-112,8491.0
12120,0.3544285297393799,2.6833913326263428,-6,9999.0,-4.433396339416504,-34,8491.0
12130,0.3544226586818695,1.0621610879898071,-10,9999.0,-4.7938737869262695,-248,8491.0
12140,0.3543897867202759,-0.07138889282941818,-26,9999.0,-9.211149215698242,-64,8491.0
12150,0.35454270243644714,-1.1264798641204834,-28,9999.0,-3.25298810005188,-97,8491.0
12160,0.35442546010017395,-0.090189129114151,-14,9999.0,-2.7937450408935547,115,8491.0
12170,0.35425838828086853,-0.32624804973602295,7,9999.0,-0.9568846821784973,-51,8491.0
12180,0.3540703356266022,-0.09650648385286331,-12,9999.0,-0.8313093781471252,49,8491.0
12190,0.3542401194572449,0.07566266506910324,51,9999.0,0.022356735542416573,-184,8491.0
12200,0.35403475165367126,1.7090775966644287,-75,9999.0,-1.6878348588943481,-42,8491.0
12210,0.3538050651550293,2.873117685317993,131,9999.0,-5.352910995483398,-81,8491.0
12220,0.35351067781448364,1.9425954818725586,-37,9999.0,-4.611412525177002,-43,8491.0
12230,0.3531665802001953,3.444063901901245,158,9999.0,-3.8681280612945557,-29,8491.0
12240,0.35357916355133057,0.8934916853904724,-2,9999.0,-1.8943274021148682,-89,8491.0
12250,0.35328346490859985,0.32895374298095703,110,9999.0,-3.550279378890991,-23,8491.0
12260,0.3529749810695648,-1.669632911682129,6,9999.0,-0.8213625550270081,-163,8491.0
12270,0.3526519536972046,-0.8917139768600464,-12,9999.0,-5.8828349113464355,-100,8491.0
12280,0.35238873958587646,-1.6432820558547974,5,9999.0,-2.4204890727996826,-189,8491.0
12290,0.35197171568870544,-0.26829439401626587,-127,9999.0,0.13694971799850464,2,8491.0
12300,0.35157912969589233,-1.7449153661727905,24,9999.0,0.7225258946418762,55,8491.0
12310,0.35118478536605835,1.0258539915084839,-61,9999.0,5.365494251251221,-24,8491.0
12320,0.35225990414619446,3.373666763305664,95,9999.0,7.950333118438721,207,8491.0
12330,0.351912260055542,4.692673683166504,106,9999.0,3.583242177963257,-11,8491.0
12340,0.35155925154685974,9.00776481628418,37,9999.0,3.1355979442596436,98,8491.0
12350,0.3511784076690674,10.725262641906738,288,9999.0,-4.991591453552246,63,8491.0
12360,0.3507528305053711,8.654330253601074,87,9999.0,-1.0186718702316284,-100,8491.0
12370,0.3508464992046356,4.8792948722839355,58,9999.0,-3.7333693504333496,114,8491.0
12380,0.350411981344223,2.0024025440216064,103,9999.0,-3.430997848510742,-36,8491.0
12390,0.3504250943660736,-2.829188108444214,-114,9999.0,-1.2832728624343872,-54,8491.0
12400,0.34968510270118713,-2.2437026500701904,-38,9999.0,-4.766880989074707,178,8491.0
12410,0.3517204523086548,-4.448644638061523,-99,9999.0,-4.685168743133545,-160,8491.0
12420,0.35127684473991394,-3.7471506595611572,-83,9999.0,-2.9816012382507324,41,8491.0
12430,0.3512756824493408,-3.0361487865448,82,9999.0,-0.5022792220115662,-52,8491.0
12440,0.35109779238700867,-2.4827568531036377,-71,9999.0,1.0681276321411133,-84,8491.0
12450,0.3509211540222168,-0.5898444056510925,-11,9999.0,3.22817063331604,222,8491.0
12460,0.35044679045677185,1.4581339359283447,78,9999.0,2.3948163986206055,26,8491.0
12470,0.3502792418003082,-0.6087737083435059,-88,9999.0,7.010280132293701,68,8491.0
12480,0.35011026263237,-1.3465903997421265,14,9999.0,2.1422536373138428,236,8491.0
12490,0.34994828701019287,-2.710390329360962,-3,9999.0,5.371926784515381,51,8491.0
12500,0.3498842716217041,-2.2846133708953857,-108,9999.0,5.205845355987549,108,8491.0
12510,0.3496893346309662,-1.5659122467041016,21,9999.0,1.1308965682983398,128,8491.0
12520,0.349717378616333,-0.012124811299145222,-7,9999.0,-0.24519485235214233,-59,8491.0
12530,0.3496195375919342,-0.5053713321685791,-52,9999.0,-0.17421752214431763,51,8491.0
12540,0.3501361012458801,-0.7997795939445496,111,9999.0,-0.4973750114440918,8,8491.0
12550,0.35015806555747986,0.0940604954957962,-34,9999.0,-2.4635069370269775,-174,8491.0
12560,0.35015782713890076,-1.6690268516540527,-29,9999.0,-2.052206039428711,32,8491.0
12570,0.35023409128189087,-1.7926781177520752,131,9999.0,-3.7513840198516846,-56,8491.0
12580,0.3502337634563446,-1.7482199668884277,-46,9999.0,-0.4302286207675934,-225,8491.0
12590,0.3514852821826935,-1.3687232732772827,46,9999.0,0.13662037253379822,92,8491.0
12600,0.35148927569389343,-0.6559076309204102,121,9999.0,3.965959310531616,25,8491.0
12610,0.3516162931919098,2.392104148864746,-77,9999.0,-4.68269681930542,44,8491.0
12620,0.3517179489135742,1.1431204080581665,31,9999.0,7.992023944854736,237,8491.0
12630,0.3507075905799866,0.25031206011772156,31,9999.0,9.434303283691406,-71,8491.0
12640,0.3506820499897003,1.4516791105270386,-92,9999.0,6.796561241149902,49,8491.0
12650,0.3506435751914978,0.6641120314598083,56,9999.0,3.0957987308502197,127,8491.0
12660,0.3505646586418152,0.32963547110557556,-39,9999.0,4.858109474182129,-16,8491.0
12670,0.3504441976547241,0.4891539216041565,-37,9999.0,3.985874891281128,138,8491.0
12680,0.3505862355232239,1.0597962141036987,131,9999.0,4.337152481079102,54,8491.0
12690,0.35048988461494446,1.7883583307266235,-24,9999.0,2.307742118835449,-26,8491.0
12700,0.350391149520874,3.1229629516601562,41,9999.0,0.7735741138458252,133,8491.0
12710,0.3502618968486786,3.7024500370025635,206,9999.0,-3.3374996185302734,-90,8491.0
12720,0.35047271847724915,2.478516101837158,-22,9999.0,-1.0325679779052734,-53,8491.0
12730,0.3503429889678955,2.206754207611084,67,9999.0,-4.222805023193359,30,8491.0
12740,0.35018154978752136,1.9287691116333008,68,9999.0,-7.956393718719482,-114,8491.0
12750,0.35001376271247864,1.0811737775802612,54,9999.0,-4.027822017669678,42,8491.0
12760,0.34952738881111145,-0.5157819390296936,3,9999.0,-0.49889543652534485,-110,8491.0
12770,0.3493296205997467,-0.13277633488178253,-115,9999.0,-1.598250150680542,-23,8491.0
12780,0.3491257429122925,-0.2671261131763458,66,9999.0,2.862642765045166,98,8491.0
12790,0.34893810749053955,-1.792548656463623,-27,9999.0,4.800224781036377,-57,8491.0
12800,0.34878644347190857,0.29961660504341125,-3,9999.0,4.1718244552612305,193,8491.0
12810,0.3491783142089844,1.8935496807098389,91,9999.0,3.4835774898529053,52,8491.0
12820,0.3490777015686035,1.533136248588562,-6,9999.0,2.823723316192627,-48,8491.0
12830,0.34901493787765503,0.8313183188438416,72,9999.0,-0.8958767056465149,94,8491.0
12840,0.3489968478679657,3.8315207958221436,182,9999.0,-6.6702094078063965,-147,8491.0
12850,0.350134938955307,-0.26625657081604004,-82,9999.0,-1.5278598070144653,-213,8491.0
12860,0.3501947522163391,-0.9246119856834412,76,9999.0,-12.856757164001465,-143,8491.0
12870,0.35027357935905457,-1.2193806171417236,13,9999.0,-9.210127830505371,-361,8491.0
12880,0.35032954812049866,-2.7058393955230713,-154,9999.0,-6.172634124755859,-134,8491.0
12890,0.35098695755004883,-2.2515928745269775,35,9999.0,-5.762506484985352,-132,8491.0
12900,0.35105758905410767,-2.611898422241211,-79,9999.0,-0.14161741733551025,-95,8491.0
12910,0.3511337637901306,-0.1791808158159256,30,9999.0,-0.10748527944087982,52,8491.0
12920,0.35119807720184326,-2.460484266281128,-38,9999.0,3.729407787322998,-50,8491.0
12930,0.3512200117111206,-2.6514196395874023,-104,9999.0,4.36293363571167,55,8491.0
12940,0.3499090075492859,-1.9697071313858032,55,9999.0,-0.192605659365654,105,8491.0
12950,0.3499062955379486,-1.071402668952942,-22,9999.0,1.710475206375122,-56,8491.0
12960,0.349788635969162,2.989591121673584,87,9999.0,-1.4694207906723022,26,8491.0
12970,0.3498055040836334,6.7418293952941895,205,9999.0,-5.115157604217529,-75,8491.0
12980,0.3506016135215759,7.697585105895996,52,9999.0,-2.4216067790985107,-184,8491.0
12990,0.35059329867362976,10.733256340026855,232,9999.0,-5.632298469543457,-8,8491.0
13000,0.3505939543247223,9.64946174621582,185,9999.0,-6.428145408630371,-236,8491.0
13010,0.3504941761493683,8.011855125427246,67,9999.0,-6.266801357269287,-50,8491.0
13020,0.35035592317581177,8.85395336151123,183,9999.0,-5.415032386779785,-26,8491.0
13030,0.3493995666503906,3.4114630222320557,-23,9999.0,0.5596029162406921,-27,8491.0
13040,0.34925681352615356,2.5090150833129883,57,9999.0,2.358741283416748,238,8491.0
13050,0.3490923047065735,2.007187604904175,102,9999.0,2.382439613342285,52,8491.0
13060,0.34890684485435486,2.1264350414276123,46,9999.0,2.524588108062744,136,8491.0
13070,0.3480917811393738,1.4883166551589966,168,9999.0,1.8862677812576294,56,8491.0
13080,0.3479340076446533,5.377571105957031,56,9999.0,-7.549932956695557,-206,8491.0
13090,0.34777840971946716,1.2237918376922607,36,9999.0,-6.414177417755127,-49,8491.0
13100,0.34762826561927795,-1.0671589374542236,36,9999.0,-4.202935218811035,-136,8491.0
13110,0.3461722731590271,-0.6825248599052429,-154,9999.0,-3.18215274810791,-82,8491.0
13120,0.34592533111572266,-2.073911666870117,88,9999.0,-3.005585193634033,24,8491.0
13130,0.3457089364528656,0.1307261735200882,-16,9999.0,-1.0831631422042847,-79,8491.0
13140,0.34553053975105286,0.6344414353370667,-25,9999.0,-0.6730186939239502,76,8491.0
13150,0.3453340232372284,-0.6579372882843018,112,9999.0,1.1644374132156372,-10,8491.0
13160,0.345462828874588,1.2946758270263672,16,9999.0,-1.3087505102157593,-75,8491.0
13170,0.34528496861457825,1.18674635887146,101,9999.0,0.010517844930291176,109,8491.0
13180,0.3450942933559418,2.541541814804077,151,9999.0,-0.6008484363555908,-104,8491.0
13190,0.34493762254714966,1.6508766412734985,-53,9999.0,3.720207452774048,63,8491.0
13200,0.3432944416999817,1.863561749458313,46,9999.0,6.662041664123535,118,8491.0
13210,0.3430256247520447,0.2612907886505127,-21,9999.0,-0.32839375734329224,-126,8491.0
13220,0.34277063608169556,0.6144834756851196,63,9999.0,-1.546414852142334,-53,8491.0
13230,0.34251561760902405,2.7299458980560303,120,9999.0,-6.6513519287109375,-204,8491.0
13240,0.3423592448234558,3.031038761138916,-6,9999.0,-7.0189642906188965,-189,8491.0
13250,0.34165146946907043,2.24878191947937,85,9999.0,-7.745870113372803,43,8491.0
13260,0.34151479601860046,3.1397039890289307,72,9999.0,-7.09166955947876,-184,8491.0
13270,0.3413356840610504,0.8892995715141296,-6,9999.0,-2.7670977115631104,41,8491.0
13280,0.34117430448532104,2.914771795272827,134,9999.0,0.11930149793624878,-21,8491.0
13290,0.3429562449455261,3.3626413345336914,-68,9999.0,7.248149871826172,-6,8491.0
13300,0.3429396450519562,1.8113508224487305,45,9999.0,3.172618865966797,113,8491.0
13310,0.34295448660850525,-1.5165259838104248,17,9999.0,1.6178665161132812,-122,8491.0
13320,0.34300345182418823,-0.7031504511833191,-144,9999.0,0.42109471559524536,88,8491.0
13330,0.34229451417922974,-2.4883604049682617,18,9999.0,2.117635488510132,154,8491.0
13340,0.34237268567085266,1.661947250366211,-20,9999.0,-1.6622672080993652,-19,8491.0
13350,0.3425227999687195,-4.0368218421936035,-48,9999.0,2.19950795173645,152,8491.0
13360,0.34269773960113525,2.626671552658081,-76,9999.0,-8.574350357055664,-269,8491.0
13370,0.34287646412849426,-0.16441123187541962,-6,9999.0,-4.500770092010498,61,8491.0
13380,0.3438376486301422,-1.4373551607131958,13,9999.0,-1.4788378477096558,-126,8491.0
13390,0.3441140651702881,-0.09622609615325928,-178,9999.0,0.7872539758682251,0,8491.0
13400,0.3443986773490906,0.5359050035476685,44,9999.0,1.1288516521453857,48,8491.0
13410,0.34466806054115295,-0.03970488905906677,-67,9999.0,5.552365303039551,86,8491.0
13420,0.344181627035141,-0.21560674905776978,39,9999.0,6.46525239944458,310,8491.0
13430,0.3443847596645355,0.0010908331023529172,3,9999.0,6.71187162399292,39,8491.0
13440,0.34455734491348267,-2.3214099407196045,-65,9999.0,5.636053085327148,144,8491.0
13450,0.34469932317733765,-4.041569709777832,-2,9999.0,4.215928554534912,47,8491.0
13460,0.34484922885894775,-4.569345474243164,-241,9999.0,-2.550865888595581,-81,8491.0
13470,0.3445919156074524,-7.471293926239014,-93,9999.0,-1.7979501485824585,44,8491.0
13480,0.3447427749633789,-7.875375270843506,-194,9999.0,-0.48665985465049744,-164,8491.0
13490,0.3448883295059204,-5.471115589141846,-102,9999.0,-3.0037217140197754,-24,8491.0
13500,0.3450240194797516,-5.30511999130249,34,9999.0,-0.9663865566253662,-56,8491.0
13510,0.3462564945220947,-4.313064098358154,-106,9999.0,5.7705397605896,76,8491.0
13520,0.34645211696624756,-3.332151412963867,33,9999.0,3.761291265487671,150,8491.0
13530,0.34660589694976807,-3.8891406059265137,-71,9999.0,6.747020721435547,-116,8491.0
13540,0.34672480821609497,-1.6216517686843872,-40,9999.0,2.472874641418457,83,8491.0
13550,0.34728389978408813,-2.680128335952759,23,9999.0,1.2407021522521973,5,8491.0
13560,0.3474721908569336,0.19076411426067352,-90,9999.0,2.289280891418457,-37,8491.0
13570,0.34766194224357605,4.137983798980713,146,9999.0,-4.020203113555908,157,8491.0
13580,0.3478533625602722,1.953691005706787,94,9999.0,0.6219171285629272,-106,8491.0
13590,0.34802764654159546,2.692552089691162,67,9999.0,0.9090859293937683,10,8491.0
13600,0.34655630588531494,0.6360946893692017,56,9999.0,0.08214794844388962,-188,8491.0
13610,0.3466652035713196,0.21038416028022766,-169,9999.0,-1.7039062976837158,-89,8491.0
13620,0.34673944115638733,0.16689224541187286,33,9999.0,-2.2460482120513916,-1,8491.0
13630,0.3468013107776642,0.22779418528079987,32,9999.0,-1.2531938552856445,-132,8491.0
13640,0.3457757532596588,3.874608039855957,72,9999.0,2.221468210220337,198,8491.0
13650,0.3457889258861542,7.002213001251221,218,9999.0,2.657524585723877,5,8491.0
13660,0.3457561731338501,3.888725996017456,4,9999.0,2.2110421657562256,143,8491.0
13670,0.34569087624549866,0.6423837542533875,104,9999.0,10.18142318725586,158,8491.0
13680,0.34562328457832336,-0.6128798723220825,-64,9999.0,7.115222930908203,-29,8491.0
13690,0.3456972539424896,0.6684153079986572,19,9999.0,3.2991888523101807,110,8491.0
13700,0.3456420302391052,-1.3064807653427124,-25,9999.0,0.017314158380031586,-103,8491.0
13710,0.345520943403244,-0.9716526865959167,-87,9999.0,-2.7234725952148438,-15,8491.0
13720,0.3453860580921173,-3.353672742843628,86,9999.0,-5.262182712554932,-20,8491.0
13730,0.3447619080543518,-3.2178595066070557,-84,9999.0,-5.562334060668945,-109,8491.0
13740,0.344603568315506,-1.8085253238677979,34,9999.0,-2.7914154529571533,97,8491.0
13750,0.3444160223007202,-3.556121349334717,-23,9999.0,-0.6124997735023499,-122,8491.0
13760,0.3443189859390259,0.3983495831489563,-32,9999.0,1.227413296699524,138,8491.0
13770,0.3456785976886749,1.148457646369934,93,9999.0,4.232490062713623,83,8491.0
13780,0.3457132577896118,0.5320829749107361,-105,9999.0,9.097179412841797,60,8491.0
13790,0.34574368596076965,5.105851173400879,108,9999.0,4.160445213317871,152,8491.0
13800,0.34576132893562317,3.2830216884613037,63,9999.0,2.8328778743743896,6,8491.0
13810,0.3457687497138977,1.0835614204406738,-18,9999.0,3.049745798110962,120,8491.0
13820,0.34545931220054626,0.49569690227508545,97,9999.0,4.190656661987305,19,8491.0
13830,0.34544944763183594,-0.07566873729228973,-78,9999.0,2.648911237716675,23,8491.0
13840,0.3454398214817047,0.02007763460278511,104,9999.0,0.1683143526315689,84,8491.0
13850,0.34543681144714355,-1.015403151512146,-37,9999.0,-1.3224778175354004,-93,8491.0
13860,0.3452776372432709,-2.5800929069519043,22,9999.0,-1.6144514083862305,-2,8491.0
13870,0.34529587626457214,0.3872835040092468,36,9999.0,-3.489511728286743,-111,8491.0
13880,0.34529462456703186,0.8593442440032959,-80,9999.0,-3.820669174194336,-62,8491.0
13890,0.3452797830104828,-1.1389657258987427,50,9999.0,-2.0631320476531982,-64,8491.0
13900,0.3452628254890442,-0.13363336026668549,-136,9999.0,-1.1625170707702637,-7,8491.0
13910,0.34554338455200195,-2.9816524982452393,15,9999.0,4.386237144470215,49,8491.0
13920,0.3455350697040558,-0.3480941951274872,-50,9999.0,2.1861369609832764,6,8491.0
13930,0.345507949590683,-0.9905508756637573,16,9999.0,5.452187538146973,249,8491.0
13940,0.3454718589782715,-0.9541459679603577,-45,9999.0,6.455779552459717,72,8491.0
13950,0.3464709520339966,-2.6883018016815186,-53,9999.0,5.267387866973877,141,8491.0
13960,0.34656625986099243,-4.042148113250732,-27,9999.0,6.550701141357422,69,8491.0
13970,0.34669768810272217,-6.127706527709961,-187,9999.0,6.129675388336182,246,8491.0
13980,0.3468612730503082,-3.984853982925415,-88,9999.0,4.432196617126465,-21,8491.0
13990,0.3466021716594696,-4.614692687988281,-85,9999.0,0.5828624367713928,91,8491.0
14000,0.34671348333358765,-5.349632740020752,20,9999.0,-2.506098747253418,-119,8491.0
14010,0.3468230664730072,-3.737492084503174,-140,9999.0,-4.002358913421631,-111,8491.0
14020,0.3469665050506592,-1.2288610935211182,-2,9999.0,-7.7907490730285645,-101,8491.0
14030,0.34711816906929016,-0.8485674858093262,-106,9999.0,-3.2804696559906006,-105,8491.0
14040,0.34717628359794617,-1.5413081645965576,46,9999.0,-5.5701494216918945,27,8491.0
14050,0.34733009338378906,-0.9909964203834534,-34,9999.0,2.279909372329712,-10,8491.0
14060,0.3475446105003357,-0.7150712609291077,76,9999.0,2.120903730392456,132,8491.0
14070,0.3477591276168823,0.3667297959327698,-63,9999.0,7.807219982147217,-37,8491.0
14080,0.3475872874259949,-1.4633569717407227,-25,9999.0,4.462479114532471,137,8491.0
14090,0.3477296233177185,-2.332310438156128,-103,9999.0,4.064178466796875,-16,8491.0
14100,0.34782296419143677,-4.168079853057861,-89,9999.0,1.73326575756073,199,8491.0
14110,0.347880095243454,-2.05777907371521,-8,9999.0,-0.035587165504693985,-9,8491.0
14120,0.3479442596435547,-3.514194965362549,-81,9999.0,-0.10580983012914658,11,8491.0
14130,0.3476392328739166,-3.927280902862549,4,9999.0,-1.9930784702301025,-138,8491.0
14140,0.3476710021495819,0.09120040386915207,-89,9999.0,-5.183142185211182,-4,8491.0
14150,0.3476714789867401,1.8586044311523438,126,9999.0,-7.715120315551758,-58,8491.0
14160,0.3476468622684479,0.3390825092792511,25,9999.0,-2.285039186477661,-19,8491.0
14170,0.34777218103408813,3.9045636653900146,198,9999.0,-0.982067346572876,2,8491.0
14180,0.34780630469322205,3.647300958633423,-15,9999.0,3.455348491668701,-89,8491.0
14190,0.3478325307369232,3.233290195465088,54,9999.0,2.503967523574829,13,8491.0
14200,0.3477826416492462,1.8762134313583374,-13,9999.0,4.246420383453369,9,8491.0
