timestamp,kalman.stateZ,gyro.x,gyro.xRaw,gyro.xVariance,gyro.y,gyro.yRaw,gyro.yVariance
0,0.2543436288833618,-2.189204216003418,-48,5497.0,-0.16361822187900543,-9,9926.0
10,0.2544063329696655,0.287479966878891,3,5497.0,-0.5939711332321167,-8,9926.0
20,0.25379857420921326,-0.14393967390060425,23,5497.0,-0.8760841488838196,-9,9926.0
30,0.2536378800868988,1.0551105737686157,9,5497.0,-0.38297411799430847,-6,9926.0
40,0.2532291114330292,1.5672228336334229,18,5497.0,-0.01987675204873085,7,9926.0
50,0.2530442178249359,-0.1631055623292923,-3,5497.0,1.783929467201233,36,9926.0
60,0.25305992364883423,-2.1089565753936768,-49,5497.0,2.9829888343811035,47,9926.0
70,0.2531719207763672,-3.3782291412353516,-50,5497.0,3.5456788539886475,59,9926.0
80,0.25329920649528503,-2.8665714263916016,-34,5497.0,3.371999979019165,54,9926.0
90,0.2532570958137512,0.42170000076293945,24,5497.0,2.4416985511779785,41,9926.0
100,0.2531217336654663,3.6273915767669678,69,5497.0,1.2871767282485962,16,9926.0
110,0.25292181968688965,5.477215766906738,84,5497.0,0.047409504652023315,0,9926.0
120,0.2528989613056183,3.9311904907226562,54,5497.0,-0.03335519880056381,2,9926.0
130,0.2528345584869385,0.4725728929042816,1,5497.0,-0.02477831020951271,4,9926.0
140,0.252866268157959,-2.3587756156921387,-51,5497.0,0.7086881995201111,16,9926.0
150,0.25287607312202454,-3.969961404800415,-72,5497.0,0.8826862573623657,12,9926.0
160,0.25415605306625366,-3.339987277984619,-46,5497.0,0.42936795949935913,8,9926.0
170,0.25410908460617065,-1.5261555910110474,-17,5497.0,-0.25006040930747986,-7,9926.0
180,0.254160612821579,0.4684107303619385,16,5497.0,-0.28832459449768066,-2,9926.0
190,0.2545897960662842,1.5158209800720215,35,5497.0,0.39515185356140137,18,9926.0
200,0.2546924650669098,1.6263082027435303,15,5497.0,3.005359172821045,87,9926.0
210,0.25374743342399597,0.2683173418045044,25,5497.0,10.482640266418457,196,9926.0
220,0.25390297174453735,2.716906785964966,22,5497.0,16.438709259033203,339,9926.0
230,0.2541876435279846,6.1615729331970215,92,5497.0,27.5771484375,517,9926.0
240,0.25402623414993286,7.657444953918457,129,5497.0,41.36961364746094,738,9926.0
250,0.25406429171562195,7.051162242889404,84,5497.0,56.7590446472168,1018,9926.0
260,0.2539449632167816,5.820029258728027,69,5497.0,71.00045013427734,1257,9926.0
270,0.2537252902984619,3.3242175579071045,77,5497.0,85.5743179321289,1452,9926.0
280,0.2534162104129791,2.4048962593078613,49,5497.0,96.93597412109375,1581,9926.0
290,0.2504366636276245,2.4241740703582764,64,5497.0,100.30511474609375,1663,9926.0
300,0.24951671063899994,5.040813446044922,19,5497.0,98.42872619628906,1643,9926.0
310,0.24702677130699158,6.1025614738464355,79,5497.0,92.91262817382812,1495,9926.0
320,0.24960191547870636,8.162866592407227,196,5497.0,77.82837677001953,1123,9926.0
330,0.24845604598522186,8.167670249938965,87,5497.0,56.00813293457031,876,9926.0
340,0.24860359728336334,4.698056697845459,84,5497.0,35.265098571777344,448,9926.0
350,0.2485598623752594,4.67899227142334,89,5497.0,10.923859596252441,85,9926.0
360,0.24825040996074677,5.1404032707214355,98,5497.0,-9.908026695251465,-252,9926.0
370,0.24807313084602356,5.481224536895752,51,5497.0,-27.67876625061035,-465,9926.0
380,0.24757948517799377,3.9168076515197754,117,5497.0,-37.06327438354492,-731,9926.0
390,0.24723508954048157,2.6199276447296143,1,5497.0,-41.89563751220703,-598,9926.0
400,0.24712738394737244,0.13538283109664917,10,5497.0,-39.955074310302734,-517,9926.0
410,0.24673116207122803,-2.304293394088745,-42,5497.0,-29.797119140625,-478,9926.0
420,0.24637794494628906,-5.531164169311523,-35,5497.0,-17.13340187072754,-298,9926.0
430,0.2470078468322754,-6.034724712371826,-50,5497.0,-1.261699914932251,-22,9926.0
440,0.24695561826229095,-6.308093070983887,-87,5497.0,15.17123794555664,312,9926.0
450,0.24690796434879303,-6.157155513763428,-141,5497.0,31.812719345092773,511,9926.0
460,0.2469145953655243,-6.105988502502441,-140,5497.0,43.92689895629883,837,9926.0
470,0.24678191542625427,-6.936797142028809,-128,5497.0,53.854888916015625,943,9926.0
480,0.24673356115818024,-5.059726715087891,-131,5497.0,56.04233932495117,1012,9926.0
490,0.24665658175945282,-3.62911319732666,-125,5497.0,55.73830032348633,980,9926.0
500,0.24637490510940552,-2.7290701866149902,-74,5497.0,47.263023376464844,885,9926.0
510,0.24575836956501007,-0.1780635267496109,19,5497.0,35.98160934448242,541,9926.0
520,0.24732616543769836,2.452836751937866,116,5497.0,23.40276527404785,154,9926.0
530,0.24765264987945557,4.937484264373779,81,5497.0,7.272467136383057,-53,9926.0
540,0.24756644666194916,6.486724853515625,88,5497.0,-10.707391738891602,-200,9926.0
550,0.24775078892707825,7.298335075378418,84,5497.0,-24.129728317260742,-374,9926.0
560,0.24791854619979858,6.934783935546875,22,5497.0,-33.10865020751953,-625,9926.0
570,0.24795499444007874,6.227333068847656,15,5497.0,-36.48386001586914,-656,9926.0
580,0.24791482090950012,4.967645168304443,6,5497.0,-34.81239318847656,-546,9926.0
590,0.247783362865448,1.4412944316864014,7,5497.0,-29.75458335876465,-416,9926.0
600,0.24809867143630981,-2.8831307888031006,-14,5497.0,-19.302448272705078,-450,9926.0
610,0.24794375896453857,-4.597057819366455,-75,5497.0,-6.993839740753174,-210,9926.0
620,0.2478194385766983,-7.0387372970581055,-58,5497.0,4.412310600280762,47,9926.0
630,0.24810536205768585,-8.176220893859863,-33,5497.0,15.93410587310791,245,9926.0
640,0.2483258694410324,-5.516066074371338,-77,5497.0,24.779037475585938,429,9926.0
650,0.24796123802661896,-4.075096607208252,-56,5497.0,33.77396011352539,667,9926.0
660,0.24861793220043182,-5.016273498535156,-97,5497.0,35.66971969604492,773,9926.0
670,0.24835115671157837,-4.684488773345947,-79,5497.0,33.003665924072266,698,9926.0
680,0.24887175858020782,-2.7599875926971436,-42,5497.0,27.716506958007812,551,9926.0
690,0.24886253476142883,-1.8091086149215698,-29,5497.0,20.25599479675293,344,9926.0
700,0.24868586659431458,-0.7005961537361145,-8,5497.0,11.318257331848145,163,9926.0
710,0.24864207208156586,2.8813960552215576,-8,5497.0,-2.1107113361358643,16,9926.0
720,0.24867907166481018,4.967126846313477,25,5497.0,-11.80512523651123,-130,9926.0
730,0.24843637645244598,6.439801216125488,42,5497.0,-20.93181037902832,-219,9926.0
740,0.2484056055545807,6.809401035308838,28,5497.0,-26.975950241088867,-271,9926.0
750,0.2482760101556778,5.052280426025391,27,5497.0,-29.512022018432617,-429,9926.0
760,0.2483549416065216,3.7364823818206787,-13,5497.0,-28.00957679748535,-563,9926.0
770,0.2482980638742447,-0.8289629220962524,6,5497.0,-23.683635711669922,-589,9926.0
780,0.25006407499313354,-1.3011255264282227,23,5497.0,-17.302316665649414,-436,9926.0
790,0.2503887116909027,-3.9461426734924316,-73,5497.0,-8.624486923217773,-145,9926.0
800,0.25065532326698303,-3.17179799079895,-137,5497.0,-2.2349185943603516,163,9926.0
810,0.25081494450569153,-0.9368875622749329,-91,5497.0,5.233209609985352,285,9926.0
820,0.2515265643596649,1.33536696434021,-8,5497.0,12.968360900878906,179,9926.0
830,0.251838356256485,1.2610220909118652,127,5497.0,17.096284866333008,190,9926.0
840,0.2523130178451538,2.380087375640869,174,5497.0,16.785903930664062,166,9926.0
850,0.25268110632896423,4.098805904388428,97,5497.0,15.351338386535645,205,9926.0
860,0.25329333543777466,3.6728179454803467,63,5497.0,11.850762367248535,198,9926.0
870,0.25351372361183167,0.9774609804153442,-15,5497.0,6.956014156341553,8,9926.0
880,0.2546077072620392,0.4295867085456848,-20,5497.0,0.7162898778915405,-187,9926.0
890,0.25600168108940125,-0.07576022297143936,32,5497.0,-6.884278297424316,-274,9926.0
900,0.25735706090927124,0.4923957288265228,43,5497.0,-11.900388717651367,-292,9926.0
910,0.25696519017219543,2.140892744064331,18,5497.0,-15.866759300231934,-236,9926.0
920,0.25828441977500916,4.379045009613037,37,5497.0,-18.182716369628906,-111,9926.0
930,0.25961917638778687,5.962789535522461,40,5497.0,-16.82831382751465,-232,9926.0
940,0.260956734418869,5.364062309265137,64,5497.0,-14.234941482543945,-224,9926.0
950,0.2604389488697052,3.255317449569702,79,5497.0,-9.604422569274902,-22,9926.0
960,0.26172637939453125,0.644046425819397,-54,5497.0,-4.548408031463623,73,9926.0
970,0.26302269101142883,-2.6287591457366943,-105,5497.0,0.26469340920448303,133,9926.0
980,0.2642969787120819,-8.267677307128906,-36,5497.0,6.1370530128479,84,9926.0
990,0.2654610872268677,-6.16057014465332,-42,5497.0,10.172075271606445,114,9926.0
1000,0.2658187747001648,-6.063843250274658,-126,5497.0,10.747213363647461,205,9926.0
1010,0.2666102647781372,-5.900997161865234,-104,5497.0,11.67144775390625,40,9926.0
1020,0.26732784509658813,-1.4434725046157837,-12,5497.0,9.539365768432617,-37,9926.0
1030,0.2677599787712097,0.1615399271249771,192,5497.0,6.267935276031494,-72,9926.0
1040,0.26736730337142944,2.8689842224121094,119,5497.0,2.6787052154541016,-50,9926.0
1050,0.26803553104400635,3.1703317165374756,70,5497.0,-2.0791690349578857,-109,9926.0
1060,0.2687525749206543,3.917185068130493,79,5497.0,-8.054362297058105,-347,9926.0
1070,0.2694561779499054,2.427668333053589,169,5497.0,-11.58459186553955,-352,9926.0
1080,0.2700624465942383,0.23499642312526703,33,5497.0,-15.12536907196045,-277,9926.0
1090,0.26918816566467285,-1.1062501668930054,-38,5497.0,-17.27161979675293,-255,9926.0
1100,0.2694545090198517,-2.16772198677063,37,5497.0,-15.717138290405273,-190,9926.0
1110,0.2696670591831207,-3.57446026802063,22,5497.0,-12.457474708557129,-11,9926.0
1120,0.2695813477039337,-2.1416683197021484,-78,5497.0,-3.555344820022583,-64,9926.0
1130,0.2683005630970001,-3.664320945739746,40,5497.0,2.7127063274383545,124,9926.0
1140,0.26804202795028687,-0.0774373933672905,-128,5497.0,7.824042320251465,341,9926.0
1150,0.267763614654541,0.4309251308441162,18,5497.0,15.47799015045166,236,9926.0
1160,0.267427533864975,3.1386702060699463,-1,5497.0,21.095396041870117,177,9926.0
1170,0.2671857178211212,6.13299036026001,225,5497.0,20.030126571655273,244,9926.0
1180,0.2673335075378418,6.07666015625,34,5497.0,18.325496673583984,331,9926.0
1190,0.26738429069519043,5.3313984870910645,106,5497.0,14.1967134475708,211,9926.0
1200,0.2674337923526764,2.387401580810547,69,5497.0,8.37774658203125,-19,9926.0
1210,0.26761189103126526,3.467259168624878,47,5497.0,1.7735339403152466,120,9926.0
1220,0.2684973478317261,1.627020239830017,42,5497.0,-1.8162883520126343,-94,9926.0
1230,0.2689061164855957,0.4692230820655823,-25,5497.0,-4.305233001708984,-99,9926.0
1240,0.2693427503108978,-0.36650508642196655,-10,5497.0,-6.503134727478027,35,9926.0
1250,0.26989543437957764,-0.7467074394226074,-49,5497.0,-4.943357467651367,-221,9926.0
1260,0.2694363594055176,-2.2280659675598145,-41,5497.0,-1.8197073936462402,-21,9926.0
1270,0.27017971873283386,-1.8307411670684814,-80,5497.0,2.311239004135132,133,9926.0
1280,0.2711613178253174,-3.394685983657837,37,5497.0,6.8668904304504395,36,9926.0
1290,0.2720189392566681,-4.165095329284668,-110,5497.0,9.439783096313477,214,9926.0
1300,0.2729737460613251,-5.019161701202393,-117,5497.0,14.092432022094727,144,9926.0
1310,0.2737113833427429,-2.8234071731567383,17,5497.0,16.40981674194336,415,9926.0
1320,0.2746196389198303,-1.4563130140304565,-45,5497.0,16.544307708740234,257,9926.0
1330,0.27576005458831787,2.3214499950408936,53,5497.0,18.377094268798828,290,9926.0
1340,0.2768543064594269,7.114593982696533,29,5497.0,14.372217178344727,160,9926.0
1350,0.2772795557975769,7.5738935470581055,237,5497.0,11.185393333435059,258,9926.0
1360,0.27758175134658813,6.259790897369385,58,5497.0,10.389928817749023,91,9926.0
1370,0.2798997163772583,5.695496559143066,49,5497.0,3.434964179992676,89,9926.0
1380,0.2800613045692444,6.68271541595459,-13,5497.0,0.3768503963947296,38,9926.0
1390,0.28248757123947144,2.3569581508636475,149,5497.0,0.1767929345369339,-43,9926.0
1400,0.28171637654304504,0.5805826783180237,-8,5497.0,0.6197882294654846,-49,9926.0
1410,0.28401994705200195,-3.442554235458374,-91,5497.0,3.124070644378662,-76,9926.0
1420,0.28411057591438293,-3.442168712615967,-62,5497.0,1.5262424945831299,220,9926.0
1430,0.2852559983730316,-4.1847639083862305,-48,5497.0,4.630426406860352,-15,9926.0
1440,0.28538280725479126,-4.907296180725098,31,5497.0,5.741086483001709,25,9926.0
1450,0.2866545021533966,-3.7714173793792725,-144,5497.0,7.527090549468994,209,9926.0
1460,0.28786683082580566,-3.30903697013855,22,5497.0,8.71433162689209,143,9926.0
1470,0.28933367133140564,-3.456242561340332,-22,5497.0,8.357110977172852,166,9926.0
1480,0.29111406207084656,-4.282351016998291,-174,5497.0,8.117827415466309,47,9926.0
1490,0.2913793921470642,-4.839956760406494,-1,5497.0,5.418607711791992,184,9926.0
1500,0.2937624454498291,-1.5625724792480469,-45,5497.0,4.466246604919434,167,9926.0
1510,0.2938837707042694,-2.3681931495666504,-96,5497.0,6.176639556884766,-26,9926.0
1520,0.29601386189460754,-1.557773232460022,77,5497.0,5.958005428314209,166,9926.0
1530,0.29513466358184814,-0.14807045459747314,-57,5497.0,4.862616539001465,159,9926.0
1540,0.2971871793270111,0.23820249736309052,-28,5497.0,5.1038737297058105,-8,9926.0
1550,0.29717308282852173,0.6296229958534241,153,5497.0,6.304930686950684,117,9926.0
1560,0.298175573348999,1.1661773920059204,-57,5497.0,4.177074432373047,84,9926.0
1570,0.29851746559143066,1.2457561492919922,-15,5497.0,2.1115877628326416,20,9926.0
1580,0.2991425096988678,0.20286618173122406,128,5497.0,4.454644680023193,37,9926.0
1590,0.2997208833694458,2.1418168544769287,-59,5497.0,2.9786455631256104,28,9926.0
1600,0.3002496063709259,2.7731823921203613,111,5497.0,2.942310333251953,-14,9926.0
1610,0.30068305134773254,3.2623488903045654,110,5497.0,1.6585638523101807,45,9926.0
1620,0.2985447943210602,3.1594419479370117,-67,5497.0,3.418808698654175,119,9926.0
1630,0.2986391484737396,2.900623321533203,120,5497.0,3.5632364749908447,89,9926.0
1640,0.2986380457878113,3.5912790298461914,55,5497.0,1.8422883749008179,26,9926.0
1650,0.29856953024864197,3.7418742179870605,-6,5497.0,0.744642972946167,-29,9926.0
1660,0.29596686363220215,3.0387461185455322,136,5497.0,0.5079460144042969,-4,9926.0
1670,0.29566648602485657,1.3169043064117432,-6,5497.0,-2.341266393661499,-116,9926.0
1680,0.2953290343284607,-0.7905084490776062,-6,5497.0,-4.372379779815674,-138,9926.0
1690,0.2949371337890625,-1.7071696519851685,-18,5497.0,-4.887526512145996,100,9926.0
1700,0.2946494519710541,-1.6176315546035767,-42,5497.0,-2.901775598526001,-225,9926.0
1710,0.29423558712005615,-2.0208122730255127,14,5497.0,-4.964468002319336,-37,9926.0
1720,0.2938726842403412,-1.2584407329559326,-56,5497.0,-6.198627948760986,-41,9926.0
1730,0.29345500469207764,-1.572170376777649,71,5497.0,-5.494647026062012,-279,9926.0
1740,0.29304859042167664,1.6143721342086792,-78,5497.0,-8.879815101623535,-142,9926.0
1750,0.29359200596809387,1.4582388401031494,62,5497.0,-4.860952377319336,-102,9926.0
1760,0.29319944977760315,2.069056272506714,3,5497.0,-5.954329967498779,-6,9926.0
1770,0.2927570343017578,0.7352009415626526,158,5497.0,-3.1513800621032715,-119,9926.0
1780,0.29230549931526184,2.3562862873077393,25,5497.0,-3.2942118644714355,-50,9926.0
1790,0.2926449775695801,1.692518949508667,40,5497.0,-1.7606087923049927,-106,9926.0
1800,0.29230406880378723,2.015897512435913,-79,5497.0,-0.5454517602920532,49,9926.0
1810,0.29199928045272827,-0.9914083480834961,104,5497.0,-4.738087177276611,-84,9926.0
1820,0.2915954887866974,1.0429171323776245,-3,5497.0,-5.0094404220581055,-37,9926.0
1830,0.29115134477615356,-0.45485803484916687,118,5497.0,-7.515356063842773,-131,9926.0
1840,0.2908291816711426,-1.543495774269104,-124,5497.0,-4.469051361083984,-197,9926.0
1850,0.2905323803424835,-3.398366928100586,-31,5497.0,-7.996912479400635,-164,9926.0
1860,0.2902536988258362,-4.800827980041504,-133,5497.0,-7.5481390953063965,-236,9926.0
1870,0.28993988037109375,-3.370729923248291,32,5497.0,-10.338983535766602,-10,9926.0
1880,0.28884315490722656,-4.012974739074707,-44,5497.0,-4.0132527351379395,-137,9926.0
1890,0.28862249851226807,-0.05754376947879791,49,5497.0,-7.585908889770508,-21,9926.0
1900,0.28841331601142883,2.315382242202759,79,5497.0,-4.810824871063232,-220,9926.0
1910,0.28825321793556213,2.0295677185058594,5,5497.0,-0.7015857696533203,32,9926.0
1920,0.2881200313568115,2.8563668727874756,36,5497.0,-0.09185951203107834,-95,9926.0
1930,0.2880136966705322,2.798906087875366,9,5497.0,2.476975679397583,122,9926.0
1940,0.287921667098999,1.8499928712844849,62,5497.0,1.647219181060791,24,9926.0
1950,0.28788501024246216,2.6044116020202637,70,5497.0,1.817057490348816,49,9926.0
1960,0.28800418972969055,2.439094305038452,155,5497.0,-3.032222032546997,-167,9926.0
1970,0.2884471118450165,1.6183085441589355,-73,5497.0,-3.0459001064300537,-88,9926.0
1980,0.2886015772819519,1.1351075172424316,44,5497.0,-3.2095115184783936,-118,9926.0
1990,0.2887701392173767,-0.3077006936073303,-122,5497.0,-3.6314480304718018,46,9926.0
2000,0.2889571189880371,-3.0875189304351807,50,5497.0,-4.8157806396484375,25,9926.0
2010,0.2891210913658142,-2.2858259677886963,-40,5497.0,-3.0206990242004395,-6,9926.0
2020,0.28941670060157776,-3.1749250888824463,40,5497.0,-3.6745500564575195,-143,9926.0
2030,0.28978070616722107,-1.043395757675171,-167,5497.0,-7.919730186462402,-77,9926.0
2040,0.2900822162628174,-2.488646984100342,-50,5497.0,-3.5680956840515137,-79,9926.0
2050,0.2910265624523163,-1.7471622228622437,-77,5497.0,-4.733345985412598,75,9926.0
2060,0.2914854884147644,-3.369626045227051,103,5497.0,-2.8501193523406982,-99,9926.0
2070,0.29196831583976746,1.3773595094680786,-49,5497.0,-8.561890602111816,-96,9926.0
2080,0.29242974519729614,0.1246221587061882,44,5497.0,-3.7323391437530518,-169,9926.0
2090,0.29287227988243103,0.38469523191452026,-83,5497.0,-4.365936756134033,-26,9926.0
2100,0.2939518392086029,0.7983414530754089,49,5497.0,-0.4229426085948944,2,9926.0
2110,0.29436662793159485,1.1549056768417358,47,5497.0,3.248173236846924,183,9926.0
2120,0.2947898209095001,1.01931893825531,6,5497.0,-0.2917609214782715,-116,9926.0
2130,0.2952304482460022,0.7818884253501892,1,5497.0,4.080015659332275,79,9926.0
2140,0.2958090603351593,0.00653478130698204,-41,5497.0,10.118382453918457,45,9926.0
2150,0.29625844955444336,-1.2422659397125244,36,5497.0,5.294239521026611,166,9926.0
2160,0.29662778973579407,0.09603126347064972,-7,5497.0,5.31814432144165,14,9926.0
2170,0.2968778610229492,-3.362751007080078,-23,5497.0,8.359095573425293,44,9926.0
2180,0.29711177945137024,-2.951991081237793,-181,5497.0,2.4530017375946045,91,9926.0
2190,0.2959763705730438,-3.303393602371216,38,5497.0,0.8877199292182922,52,9926.0
2200,0.2960236370563507,-4.706967830657959,-75,5497.0,1.9329661130905151,-64,9926.0
2210,0.29605934023857117,-4.010480880737305,-28,5497.0,-3.1297080516815186,-228,9926.0
2220,0.29608529806137085,-3.745647430419922,-125,5497.0,-3.2925336360931396,24,9926.0
2230,0.2960513234138489,-1.2416020631790161,5,5497.0,-4.000023365020752,-18,9926.0
2240,0.2959858477115631,-0.940674901008606,-4,5497.0,-0.6468966603279114,142,9926.0
2250,0.2958924472332001,0.8460158705711365,-53,5497.0,1.2409460544586182,-168,9926.0
2260,0.29578325152397156,1.0656235218048096,35,5497.0,2.689617395401001,82,9926.0
2270,0.2956608235836029,2.080439805984497,6,5497.0,6.107111930847168,47,9926.0
2280,0.2948459982872009,1.5367478132247925,133,5497.0,7.260562419891357,297,9926.0
2290,0.2946907877922058,1.858618974685669,-83,5497.0,9.81620979309082,161,9926.0
2300,0.29468345642089844,1.7779731750488281,-3,5497.0,11.707818031311035,123,9926.0
2310,0.29471465945243835,3.58105206489563,-4,5497.0,8.78183364868164,281,9926.0
2320,0.29517215490341187,3.9008352756500244,170,5497.0,7.78475284576416,59,9926.0
2330,0.29508039355278015,2.0957391262054443,20,5497.0,10.285542488098145,207,9926.0
2340,0.2949576675891876,3.6014065742492676,87,5497.0,4.9124531745910645,-3,9926.0
2350,0.29485657811164856,1.2979073524475098,-125,5497.0,6.298588752746582,128,9926.0
2360,0.2944710850715637,0.11572672426700592,79,5497.0,3.927797317504883,59,9926.0
2370,0.29446864128112793,-0.1454484760761261,-48,5497.0,3.221134662628174,108,9926.0
2380,0.2944483458995819,-0.02418551594018936,131,5497.0,4.55012845993042,95,9926.0
2390,0.2944435775279999,1.7746435403823853,-107,5497.0,-0.7186644077301025,18,9926.0
2400,0.2945203483104706,1.3123233318328857,83,5497.0,4.392124176025391,58,9926.0
2410,0.2940230369567871,1.7629085779190063,-64,5497.0,9.733315467834473,108,9926.0
2420,0.29427263140678406,0.19841738045215607,39,5497.0,10.558798789978027,324,9926.0
2430,0.2945154011249542,3.2880313396453857,10,5497.0,5.725725173950195,210,9926.0
2440,0.2948848009109497,1.2256494760513306,63,5497.0,5.893864631652832,219,9926.0
2450,0.29550689458847046,1.082647681236267,6,5497.0,3.564664602279663,-4,9926.0
2460,0.29591476917266846,-1.3252580165863037,-67,5497.0,3.9594709873199463,1,9926.0
2470,0.2963719964027405,-1.736745834350586,-5,5497.0,2.0118494033813477,-89,9926.0
2480,0.29683470726013184,-1.7480062246322632,-110,5497.0,0.8518310785293579,-2,9926.0
2490,0.2971867322921753,-0.7741225957870483,58,5497.0,-1.226816177368164,36,9926.0
2500,0.2976803183555603,1.1118395328521729,-2,5497.0,-0.867313027381897,15,9926.0
2510,0.2982313632965088,1.1181834936141968,90,5497.0,-1.7170780897140503,55,9926.0
2520,0.29874712228775024,2.0628159046173096,-64,5497.0,-0.9478026628494263,-110,9926.0
2530,0.29922205209732056,0.9317117929458618,-6,5497.0,0.5470340251922607,19,9926.0
2540,0.29863667488098145,0.2344008833169937,-58,5497.0,4.573880195617676,-15,9926.0
2550,0.29898297786712646,-0.19698502123355865,52,5497.0,2.8470096588134766,168,9926.0
2560,0.2993115484714508,-0.14371877908706665,-11,5497.0,2.0792200565338135,3,9926.0
2570,0.2995981276035309,-2.3817784786224365,17,5497.0,0.8158913850784302,109,9926.0
2580,0.2995074987411499,-3.924935817718506,-106,5497.0,6.279049873352051,-79,9926.0
2590,0.29967138171195984,-1.4547542333602905,-8,5497.0,-1.2837848663330078,11,9926.0
2600,0.29982754588127136,-0.6302959322929382,-21,5497.0,-3.7490735054016113,-147,9926.0
2610,0.2999877631664276,0.6817681193351746,-12,5497.0,-4.163440704345703,111,9926.0
2620,0.3001205325126648,2.3074848651885986,190,5497.0,-3.4375321865081787,-135,9926.0
2630,0.3005196154117584,1.5679482221603394,17,5497.0,-4.296815872192383,-17,9926.0
2640,0.30055955052375793,1.3271032571792603,72,5497.0,-2.547531843185425,-145,9926.0
2650,0.30058813095092773,1.2555315494537354,-81,5497.0,-4.839095592498779,-80,9926.0
2660,0.30064529180526733,2.1175496578216553,146,5497.0,0.2281116098165512,-67,9926.0
2670,0.303584486246109,0.9947235584259033,-38,5497.0,3.4517576694488525,117,9926.0
2680,0.3037930130958557,0.8801653385162354,75,5497.0,2.053938865661621,170,9926.0
2690,0.3040049374103546,-0.6733802556991577,-41,5497.0,4.879140377044678,103,9926.0
2700,0.3042323589324951,-0.790742039680481,14,5497.0,1.6198111772537231,46,9926.0
2710,0.3050526976585388,-1.155670404434204,-33,5497.0,0.20411236584186554,-251,9926.0
2720,0.30533453822135925,-1.1308835744857788,16,5497.0,-2.8600568771362305,36,9926.0
2730,0.30557817220687866,-0.6235505938529968,-3,5497.0,-2.3489937782287598,-78,9926.0
2740,0.30579811334609985,0.1168965995311737,-23,5497.0,-6.050141334533691,68,9926.0
2750,0.30600371956825256,0.422670841217041,149,5497.0,-6.292993545532227,-75,9926.0
2760,0.30813050270080566,0.7157701849937439,-24,5497.0,-4.995502471923828,-8,9926.0
2770,0.3084121346473694,0.837844967842102,62,5497.0,-4.964949131011963,-153,9926.0
2780,0.30866551399230957,0.12078731507062912,-105,5497.0,-0.17377987504005432,-79,9926.0
2790,0.30887478590011597,1.2467541694641113,53,5497.0,-3.7638180255889893,-14,9926.0
2800,0.30944955348968506,-1.0435847043991089,-76,5497.0,-2.477742910385132,-18,9926.0
2810,0.309699684381485,-4.527370452880859,17,5497.0,-0.30732932686805725,69,9926.0
2820,0.3099372982978821,-2.9488601684570312,-78,5497.0,-2.0355517864227295,-11,9926.0
2830,0.3101007640361786,-4.037805557250977,-20,5497.0,-0.28056392073631287,-4,9926.0
2840,0.31021133065223694,-3.7128825187683105,-75,5497.0,-2.5685551166534424,-280,9926.0
2850,0.30978327989578247,-2.5297069549560547,-39,5497.0,-1.599640130996704,49,9926.0
2860,0.3098404109477997,-0.26404011249542236,-49,5497.0,-3.1841280460357666,-9,9926.0
2870,0.30985015630722046,-1.8794037103652954,-98,5497.0,-1.0793604850769043,21,9926.0
2880,0.30988946557044983,-0.1640823781490326,-74,5497.0,-3.3440499305725098,-87,9926.0
2890,0.3110223412513733,-0.776720404624939,15,5497.0,3.042910575866699,13,9926.0
2900,0.3110004663467407,0.009584646672010422,39,5497.0,2.3192408084869385,31,9926.0
2910,0.31098657846450806,-0.9912251830101013,-10,5497.0,2.0591237545013428,260,9926.0
2920,0.3109336495399475,-0.397639662027359,-60,5497.0,4.573755264282227,90,9926.0
2930,0.3108007609844208,-1.5774152278900146,27,5497.0,1.7218445539474487,120,9926.0
2940,0.3103393018245697,-0.44872504472732544,-22,5497.0,2.609138011932373,-244,9926.0
2950,0.310165673494339,-1.1270928382873535,3,5497.0,1.7609015703201294,-2,9926.0
2960,0.30999067425727844,-1.2213159799575806,8,5497.0,-1.791479229927063,-78,9926.0
2970,0.3098168671131134,0.5901269316673279,28,5497.0,1.2896363735198975,154,9926.0
2980,0.3097763955593109,-2.230792284011841,71,5497.0,-0.5382404923439026,-38,9926.0
2990,0.30960866808891296,0.10795712471008301,-18,5497.0,-2.0256292819976807,88,9926.0
3000,0.30945464968681335,0.953141450881958,113,5497.0,-2.3642868995666504,-65,9926.0
3010,0.30931776762008667,-0.5514185428619385,-96,5497.0,-0.5416001081466675,-4,9926.0
3020,0.30910688638687134,1.8122611045837402,19,5497.0,1.392966389656067,9,9926.0
3030,0.30894044041633606,1.0754505395889282,-88,5497.0,5.074899196624756,7,9926.0
3040,0.30877813696861267,-0.46787869930267334,63,5497.0,4.632406711578369,62,9926.0
3050,0.3086543679237366,-0.020733719691634178,-35,5497.0,8.404776573181152,150,9926.0
3060,0.30860665440559387,1.062966227531433,93,5497.0,4.25204610824585,161,9926.0
3070,0.3083452880382538,-0.8281877040863037,-17,5497.0,5.028865814208984,-26,9926.0
3080,0.30831673741340637,-0.9071813225746155,-36,5497.0,4.885158061981201,125,9926.0
3090,0.3082713782787323,-2.5592312812805176,-38,5497.0,1.6545747518539429,-115,9926.0
3100,0.30821505188941956,-0.5543625950813293,-112,5497.0,-3.69986629486084,34,9926.0
3110,0.306914746761322,1.1422723531723022,49,5497.0,0.24845480918884277,7,9926.0
3120,0.30682384967803955,1.3518105745315552,-37,5497.0,2.853640079498291,38,9926.0
3130,0.3067709803581238,0.6402392387390137,173,5497.0,0.5380052924156189,-5,9926.0
3140,0.30674120783805847,2.5151760578155518,54,5497.0,0.20294800400733948,-64,9926.0
3150,0.30571699142456055,0.26274457573890686,64,5497.0,4.49275016784668,145,9926.0
3160,0.30568408966064453,-0.0867406576871872,25,5497.0,6.775942325592041,-65,9926.0
3170,0.30567219853401184,0.731216311454773,-15,5497.0,8.163601875305176,136,9926.0
3180,0.3057202696800232,-0.061597034335136414,-37,5497.0,1.2288097143173218,-33,9926.0
3190,0.3057776987552643,-2.899766206741333,-173,5497.0,6.9997053146362305,115,9926.0
3200,0.30708831548690796,-4.333810329437256,44,5497.0,5.282163619995117,70,9926.0
3210,0.30720117688179016,-3.67122745513916,-88,5497.0,5.0100932121276855,65,9926.0
3220,0.3073212206363678,-2.2332065105438232,55,5497.0,2.3216779232025146,155,9926.0
3230,0.30751073360443115,-0.8744426965713501,-44,5497.0,1.6029138565063477,-76,9926.0
3240,0.3059213161468506,1.497306227684021,29,5497.0,1.9863574504852295,38,9926.0
3250,0.3060150444507599,1.0427422523498535,29,5497.0,3.57257342338562,-71,9926.0
3260,0.30601635575294495,-1.818843960762024,-107,5497.0,9.615575790405273,85,9926.0
3270,0.30619287490844727,-1.3862833976745605,57,5497.0,2.902770757675171,-75,9926.0
3280,0.3063054382801056,-2.3644790649414062,-93,5497.0,-2.068218231201172,-55,9926.0
3290,0.30597826838493347,-4.097914218902588,40,5497.0,-4.858836650848389,-78,9926.0
3300,0.30610892176628113,-5.361789703369141,-82,5497.0,-1.2728666067123413,-65,9926.0
3310,0.3063453435897827,-6.564812183380127,-46,5497.0,-0.7546959519386292,85,9926.0
3320,0.3065979778766632,-4.039842128753662,-80,5497.0,0.9185773730278015,-177,9926.0
3330,0.3069404065608978,-5.4716572761535645,-60,5497.0,2.264707326889038,78,9926.0
3340,0.30725282430648804,-4.391601085662842,-67,5497.0,3.7357730865478516,14,9926.0
3350,0.30757951736450195,-2.381437063217163,-172,5497.0,3.7285404205322266,244,9926.0
3360,0.30794060230255127,-4.3453803062438965,-23,5497.0,-0.38129037618637085,98,9926.0
3370,0.3082994520664215,-1.1819581985473633,-96,5497.0,1.2595772743225098,78,9926.0
3380,0.30895182490348816,-1.0289610624313354,55,5497.0,2.2159228324890137,178,9926.0
3390,0.3093409538269043,0.9453542232513428,42,5497.0,1.5489650964736938,-126,9926.0
3400,0.3097504675388336,0.060701288282871246,22,5497.0,0.5643190145492554,-58,9926.0
3410,0.3101767301559448,3.690260648727417,106,5497.0,-1.9929884672164917,-216,9926.0
3420,0.3087480366230011,3.052414894104004,-37,5497.0,-5.645530700683594,-100,9926.0
3430,0.3090401887893677,5.434024810791016,134,5497.0,-3.518949508666992,-88,9926.0
3440,0.30932265520095825,4.4375319480896,-15,5497.0,-4.172183036804199,-98,9926.0
3450,0.3096243441104889,4.219397068023682,117,5497.0,-2.958362579345703,149,9926.0
3460,0.308400422334671,0.953591525554657,-26,5497.0,1.47962486743927,31,9926.0
3470,0.30858469009399414,-1.96200430393219,15,5497.0,4.186157703399658,-33,9926.0
3480,0.30873602628707886,-1.6809613704681396,-155,5497.0,3.9372658729553223,83,9926.0
3490,0.3089146018028259,0.3551245927810669,15,5497.0,0.10614869743585587,64,9926.0
3500,0.30917778611183167,2.41048526763916,-21,5497.0,5.658695697784424,-55,9926.0
3510,0.3089601695537567,2.75758957862854,43,5497.0,7.850864410400391,302,9926.0
3520,0.30920660495758057,2.200052499771118,19,5497.0,4.657148361206055,44,9926.0
3530,0.3094453811645508,2.3981516361236572,41,5497.0,-1.4221314191818237,138,9926.0
3540,0.30970585346221924,2.9041385650634766,160,5497.0,-1.812532901763916,-73,9926.0
3550,0.3103804290294647,3.136427164077759,-71,5497.0,-2.5108296871185303,-55,9926.0
3560,0.3106800317764282,0.40955644845962524,38,5497.0,-4.931800365447998,-61,9926.0
3570,0.3109613060951233,2.2206432819366455,10,5497.0,-5.806346893310547,-313,9926.0
3580,0.31123724579811096,-0.4193659722805023,20,5497.0,-3.8021442890167236,-106,9926.0
3590,0.311315655708313,-0.2008683979511261,13,5497.0,2.774765729904175,-71,9926.0
3600,0.31158071756362915,0.22101953625679016,-74,5497.0,4.04475736618042,133,9926.0
3610,0.31182861328125,-2.140371322631836,46,5497.0,6.366394519805908,40,9926.0
3620,0.31212180852890015,-0.230634868144989,-67,5497.0,4.338991641998291,82,9926.0
3630,0.3124532699584961,1.3833606243133545,115,5497.0,3.4245212078094482,160,9926.0
3640,0.3124900758266449,0.5049633979797363,-17,5497.0,-1.5748190879821777,-95,9926.0
3650,0.3128374218940735,-0.4269813895225525,-23,5497.0,0.5376281142234802,159,9926.0
3660,0.3132328391075134,-1.3752720355987549,45,5497.0,-1.788578987121582,-75,9926.0
3670,0.3136346638202667,-0.7480700612068176,-106,5497.0,-1.2366441488265991,13,9926.0
3680,0.31513461470603943,-1.255444884300232,34,5497.0,-2.2917404174804688,-83,9926.0
3690,0.31552648544311523,-0.8508691787719727,-95,5497.0,-5.918599605560303,-242,9926.0
3700,0.31589475274086,-3.864234685897827,21,5497.0,-3.011237382888794,-14,9926.0
3710,0.3162369728088379,-3.2275164127349854,-40,5497.0,-1.2209241390228271,-122,9926.0
3720,0.31658560037612915,-3.3816640377044678,-39,5497.0,1.1202290058135986,66,9926.0
3730,0.31743958592414856,-0.38689976930618286,38,5497.0,-1.2514287233352661,6,9926.0
3740,0.3178035318851471,0.5127460956573486,-15,5497.0,-0.040057506412267685,127,9926.0
3750,0.31820207834243774,2.844738245010376,179,5497.0,-2.1717841625213623,36,9926.0
3760,0.3185950517654419,3.724702835083008,13,5497.0,2.1846745014190674,21,9926.0
3770,0.31819331645965576,3.5681569576263428,112,5497.0,2.1407828330993652,79,9926.0
3780,0.3185421824455261,2.972963333129883,25,5497.0,-0.06899920105934143,-178,9926.0
3790,0.31892499327659607,1.0256752967834473,17,5497.0,3.2584128379821777,16,9926.0
3800,0.3192856013774872,1.965566873550415,20,5497.0,-3.832352638244629,-178,9926.0
3810,0.3193843960762024,2.5519635677337646,-51,5497.0,-6.654293537139893,11,9926.0
3820,0.3197128474712372,-0.7775645852088928,37,5497.0,-3.0681986808776855,-54,9926.0
3830,0.3200609087944031,-2.0784685611724854,-73,5497.0,-3.534477710723877,120,9926.0
3840,0.32041269540786743,-4.187628269195557,43,5497.0,-0.14663754403591156,62,9926.0
3850,0.32073238492012024,-1.7368265390396118,-64,5497.0,-0.7518846988677979,39,9926.0
3860,0.32059600949287415,-1.3907170295715332,80,5497.0,0.5314127206802368,27,9926.0
3870,0.32079488039016724,0.6722301840782166,-26,5497.0,2.0768280029296875,-66,9926.0
3880,0.3209967613220215,-0.261959433555603,13,5497.0,2.280712842941284,82,9926.0
3890,0.32119250297546387,1.2256999015808105,31,5497.0,2.9360053539276123,-127,9926.0
3900,0.3223781883716583,2.663315773010254,-15,5497.0,3.141268491744995,96,9926.0
3910,0.322590172290802,2.763800621032715,67,5497.0,-1.2194576263427734,0,9926.0
3920,0.3228554427623749,4.391803741455078,-10,5497.0,-0.26491579413414,121,9926.0
3930,0.3230992555618286,5.781229496002197,141,5497.0,-2.3487892150878906,-41,9926.0
3940,0.3233269453048706,0.9704540371894836,-52,5497.0,-6.221695423126221,-60,9926.0
3950,0.322599858045578,-0.21048542857170105,88,5497.0,-2.1385514736175537,32,9926.0
3960,0.32276400923728943,-1.2018266916275024,-42,5497.0,-2.6246426105499268,-184,9926.0
3970,0.3229350745677948,-2.3601715564727783,7,5497.0,-1.1390643119812012,-31,9926.0
3980,0.323057621717453,-3.534090042114258,-47,5497.0,3.2260613441467285,-167,9926.0
3990,0.3235330581665039,-5.653994083404541,-55,5497.0,4.568497657775879,113,9926.0
4000,0.323672890663147,-4.3356733322143555,-70,5497.0,5.944231033325195,10,9926.0
4010,0.32384660840034485,-4.3446760177612305,-136,5497.0,8.779036521911621,280,9926.0
4020,0.32400307059288025,-0.9232290983200073,23,5497.0,2.7160909175872803,111,9926.0
4030,0.32414236664772034,-2.2912614345550537,-104,5497.0,6.120914459228516,113,9926.0
4040,0.32540273666381836,-0.47171708941459656,92,5497.0,2.7962889671325684,61,9926.0
4050,0.3255760073661804,-0.805738091468811,-50,5497.0,0.5030812621116638,-82,9926.0
4060,0.3257561922073364,1.2192373275756836,21,5497.0,-4.898288249969482,79,9926.0
4070,0.325933039188385,0.6224101185798645,-118,5497.0,-5.049762725830078,-82,9926.0
4080,0.3260631263256073,0.27682027220726013,43,5497.0,-5.964648723602295,-33,9926.0
4090,0.3262275457382202,0.11933394521474838,-60,5497.0,-4.2511982917785645,-80,9926.0
4100,0.32641172409057617,0.1539689600467682,6,5497.0,-6.45015287399292,116,9926.0
4110,0.32659491896629333,-3.120335578918457,-90,5497.0,0.2571975886821747,-77,9926.0
4120,0.3256930410861969,-4.016380786895752,-20,5497.0,0.3369370698928833,139,9926.0
4130,0.3257259726524353,-3.991264820098877,-50,5497.0,2.133690595626831,-120,9926.0
4140,0.3257569372653961,-0.7037264704704285,-37,5497.0,0.6170348525047302,53,9926.0
4150,0.32583585381507874,-1.054734468460083,74,5497.0,2.1636569499969482,-45,9926.0
4160,0.32588496804237366,0.016498249024152756,-128,5497.0,1.6716893911361694,23,9926.0
4170,0.32437530159950256,1.5927965641021729,50,5497.0,-1.1665104627609253,16,9926.0
4180,0.3243194818496704,3.0944674015045166,-33,5497.0,-1.5809828042984009,-45,9926.0
4190,0.3242643177509308,-0.08075153082609177,31,5497.0,2.7245028018951416,115,9926.0
4200,0.3242167830467224,2.515894889831543,-46,5497.0,-1.4039981365203857,-25,9926.0
4210,0.32370525598526,1.6211248636245728,-6,5497.0,-0.9416750073432922,188,9926.0
4220,0.3236907720565796,0.031394265592098236,66,5497.0,0.4945068657398224,-4,9926.0
4230,0.3236214518547058,-0.19377903640270233,-34,5497.0,0.8710514307022095,50,9926.0
4240,0.32365643978118896,-2.1064367294311523,90,5497.0,0.36355388164520264,46,9926.0
4250,0.3233814835548401,-3.9368367195129395,-123,5497.0,1.2666032314300537,13,9926.0
4260,0.32328420877456665,-3.1287806034088135,52,5497.0,-0.047917839139699936,116,9926.0
4270,0.32321274280548096,-3.3650169372558594,-61,5497.0,3.1523220539093018,-118,9926.0
4280,0.3232482969760895,-1.5393915176391602,-46,5497.0,-2.0146312713623047,65,9926.0
4290,0.32331231236457825,-4.937150001525879,12,5497.0,-3.1204164028167725,-153,9926.0
4300,0.3236454427242279,-6.761330604553223,-169,5497.0,-0.39799460768699646,-65,9926.0
4310,0.32373884320259094,-5.1898064613342285,2,5497.0,-4.398198127746582,-55,9926.0
4320,0.32389476895332336,-3.1164333820343018,-89,5497.0,-6.408949375152588,-257,9926.0
4330,0.32409584522247314,-2.951754331588745,-19,5497.0,-8.451249122619629,-58,9926.0
4340,0.3225822448730469,-3.2079646587371826,-35,5497.0,0.4526887834072113,-55,9926.0
4350,0.32266488671302795,-1.6399476528167725,-138,5497.0,-0.4853910803794861,20,9926.0
4360,0.32273605465888977,-3.8309216499328613,-34,5497.0,4.018121719360352,42,9926.0
4370,0.3228071331977844,-2.2392971515655518,-126,5497.0,7.548450469970703,66,9926.0
4380,0.3228995203971863,-1.0538972616195679,57,5497.0,5.826201915740967,104,9926.0
4390,0.32263240218162537,0.43457257747650146,18,5497.0,5.204797267913818,-86,9926.0
4400,0.3227553367614746,0.9826679229736328,-41,5497.0,2.445115327835083,39,9926.0
4410,0.3229146897792816,0.8962497711181641,106,5497.0,3.6759674549102783,-33,9926.0
4420,0.3230941593647003,0.9991785287857056,-56,5497.0,4.831361770629883,49,9926.0
4430,0.32117486000061035,1.6192059516906738,23,5497.0,2.3544602394104004,200,9926.0
4440,0.3212626576423645,1.0505893230438232,9,5497.0,-0.959438681602478,-18,9926.0
4450,0.3213541805744171,0.8742719292640686,-1,5497.0,1.943314552307129,112,9926.0
4460,0.321440190076828,2.000448703765869,202,5497.0,3.508342981338501,-26,9926.0
4470,0.32093051075935364,2.772308111190796,13,5497.0,3.5143332481384277,15,9926.0
4480,0.32097217440605164,3.396329879760742,96,5497.0,0.15952757000923157,116,9926.0
4490,0.3210183382034302,3.790832996368408,19,5497.0,-4.30311393737793,-141,9926.0
4500,0.3211151659488678,1.4978294372558594,-52,5497.0,-3.405790328979492,36,9926.0
4510,0.321269690990448,0.5141816735267639,93,5497.0,-1.839943766593933,-12,9926.0
4520,0.32175391912460327,0.82924884557724,-84,5497.0,-2.4396724700927734,-75,9926.0
4530,0.3219672441482544,-2.0596742630004883,-28,5497.0,2.1636197566986084,106,9926.0
4540,0.32217657566070557,-1.4127742052078247,-31,5497.0,1.2091681957244873,-144,9926.0
4550,0.32240721583366394,-3.92659330368042,-103,5497.0,5.565426349639893,179,9926.0
4560,0.3227872848510742,-2.2477304935455322,36,5497.0,2.198082447052002,6,9926.0
4570,0.32305869460105896,1.3497387170791626,-28,5497.0,-1.6910024881362915,-39,9926.0
4580,0.3233790993690491,2.149556875228882,125,5497.0,1.7533878087997437,23,9926.0
4590,0.3237500488758087,5.210761547088623,164,5497.0,-0.8101682066917419,-211,9926.0
4600,0.32414886355400085,9.02131462097168,53,5497.0,-7.356478214263916,-59,9926.0
4610,0.32488584518432617,5.760226726531982,168,5497.0,-1.1390089988708496,-6,9926.0
4620,0.32529476284980774,3.9808707237243652,34,5497.0,-0.32176467776298523,-118,9926.0
4630,0.32571399211883545,0.7728925943374634,51,5497.0,4.819559097290039,119,9926.0
4640,0.32611581683158875,0.7571709752082825,16,5497.0,1.3935528993606567,-143,9926.0
4650,0.3266977071762085,-2.5268189907073975,-121,5497.0,0.8195521831512451,28,9926.0
4660,0.32708993554115295,-4.208567142486572,-94,5497.0,2.082258939743042,-39,9926.0
4670,0.3274911344051361,-1.5895922183990479,-19,5497.0,1.8940061330795288,179,9926.0
4680,0.32789498567581177,0.10417568683624268,33,5497.0,1.0395668745040894,-3,9926.0
4690,0.32830744981765747,1.153806447982788,-36,5497.0,0.5379620790481567,18,9926.0
4700,0.3286136984825134,1.7866603136062622,186,5497.0,1.1454914808273315,-7,9926.0
4710,0.32903334498405457,1.6010040044784546,34,5497.0,-0.3731539845466614,-41,9926.0
4720,0.3294455409049988,1.0267934799194336,97,5497.0,-0.9941118955612183,113,9926.0
4730,0.3298594653606415,0.5115780830383301,-1,5497.0,0.9800277948379517,-85,9926.0
4740,0.32955852150917053,3.1873879432678223,50,5497.0,-1.1530823707580566,119,9926.0
4750,0.3299705386161804,5.9094414710998535,183,5497.0,-3.4513537883758545,-65,9926.0
4760,0.33035004138946533,3.928009033203125,12,5497.0,2.998414993286133,140,9926.0
4770,0.3306792378425598,2.131802797317505,93,5497.0,2.0454788208007812,14,9926.0
4780,0.33217689394950867,2.948256015777588,-57,5497.0,1.2440329790115356,43,9926.0
4790,0.33253541588783264,0.4861937463283539,51,5497.0,1.8982430696487427,-24,9926.0
4800,0.3328927457332611,0.6221374869346619,-100,5497.0,0.6482940912246704,-78,9926.0
4810,0.33325818181037903,-0.26216188073158264,18,5497.0,-0.2758486270904541,6,9926.0
4820,0.33356162905693054,-0.14009644091129303,-57,5497.0,-1.108465552330017,-131,9926.0
4830,0.3351914584636688,-3.0008089542388916,-67,5497.0,1.249393105506897,99,9926.0
4840,0.3355126678943634,0.4948137700557709,22,5497.0,-3.540523052215576,-137,9926.0
4850,0.3358149826526642,1.4351695775985718,4,5497.0,-4.638280868530273,17,9926.0
4860,0.3360826373100281,2.7811386585235596,105,5497.0,-8.032963752746582,-107,9926.0
4870,0.3354257345199585,0.8103510141372681,-15,5497.0,-4.748928546905518,66,9926.0
4880,0.3356929123401642,2.5519559383392334,168,5497.0,-1.3386061191558838,-57,9926.0
4890,0.3359369933605194,3.7407584190368652,5,5497.0,0.6967882513999939,98,9926.0
4900,0.33615821599960327,-0.9745829105377197,78,5497.0,0.8644864559173584,-13,9926.0
4910,0.33659395575523376,-2.3256378173828125,-115,5497.0,7.586139678955078,108,9926.0
4920,0.3367687165737152,-2.6249773502349854,39,5497.0,5.267059803009033,18,9926.0
4930,0.33692556619644165,-1.507396936416626,-171,5497.0,6.433686256408691,-43,9926.0
4940,0.3371027708053589,-3.1938350200653076,33,5497.0,3.4885880947113037,-14,9926.0
4950,0.3373044729232788,-0.12734593451023102,-44,5497.0,0.8284658193588257,-85,9926.0
4960,0.33857792615890503,3.646045446395874,97,5497.0,-2.610635995864868,13,9926.0
4970,0.33879876136779785,3.872262716293335,19,5497.0,-3.3046607971191406,-126,9926.0
4980,0.33898288011550903,3.2284858226776123,86,5497.0,-3.0814380645751953,122,9926.0
4990,0.339139848947525,2.2926688194274902,-14,5497.0,-2.674873113632202,-18,9926.0
5000,0.33878210186958313,-0.26510152220726013,22,5497.0,-2.6957859992980957,96,9926.0
5010,0.338853657245636,-1.4993797540664673,-59,5497.0,-1.7583727836608887,-31,9926.0
5020,0.33889275789260864,-2.278198480606079,-31,5497.0,-0.5381878018379211,121,9926.0
5030,0.3388764560222626,-2.510221481323242,-48,5497.0,-1.988147258758545,-102,9926.0
5040,0.3388822078704834,-0.941271960735321,-35,5497.0,-1.4289966821670532,76,9926.0
5050,0.3389308452606201,-2.198427438735962,5,5497.0,1.9297263622283936,-118,9926.0
5060,0.3389548659324646,-0.7246419787406921,9,5497.0,5.133326530456543,51,9926.0
5070,0.33891773223876953,0.4555574059486389,9,5497.0,1.5917054414749146,-75,9926.0
5080,0.338832288980484,1.1361345052719116,-66,5497.0,-1.1387979984283447,1,9926.0
5090,0.33765745162963867,2.4256606101989746,19,5497.0,-4.786777019500732,-120,9926.0
5100,0.3375875949859619,0.8284212946891785,9,5497.0,-3.096938371658325,8,9926.0
5110,0.337533563375473,3.0973763465881348,149,5497.0,-0.22445301711559296,-135,9926.0
5120,0.3374837040901184,2.8261892795562744,48,5497.0,-3.011651039123535,46,9926.0
5130,0.3374289572238922,0.7229358553886414,180,5497.0,-3.6482436656951904,-128,9926.0
5140,0.3372204005718231,1.1568100452423096,28,5497.0,-2.328307628631592,37,9926.0
5150,0.33722254633903503,1.0368722677230835,51,5497.0,3.1398086547851562,-56,9926.0
5160,0.3373009264469147,1.525058388710022,-67,5497.0,3.5094876289367676,100,9926.0
5170,0.3373352587223053,1.6777045726776123,76,5497.0,4.857395172119141,7,9926.0
5180,0.3348212242126465,2.2561421394348145,-69,5497.0,4.186558723449707,70,9926.0
5190,0.3347512483596802,1.6656646728515625,49,5497.0,3.0533974170684814,90,9926.0
5200,0.3346673846244812,2.715492010116577,-42,5497.0,-2.509227991104126,-40,9926.0
5210,0.3346017003059387,1.236470341682434,110,5497.0,0.9249081015586853,-54,9926.0
5220,0.3338910639286041,0.2785252630710602,-11,5497.0,-4.055659770965576,-61,9926.0
5230,0.33371853828430176,0.333539754152298,64,5497.0,-3.1534266471862793,156,9926.0
5240,0.33350870013237,-3.736522674560547,-111,5497.0,-3.0102269649505615,-16,9926.0
5250,0.3333136737346649,-6.074100494384766,-26,5497.0,-2.2807750701904297,-157,9926.0
5260,0.33315232396125793,-4.059052467346191,-181,5497.0,-2.59116530418396,26,9926.0
5270,0.3329533040523529,-4.277648448944092,2,5497.0,-0.056091178208589554,22,9926.0
5280,0.33281612396240234,-2.7721378803253174,-152,5497.0,4.851256847381592,65,9926.0
5290,0.3326961100101471,-0.74031662940979,54,5497.0,3.769425868988037,84,9926.0
5300,0.3326024115085602,-0.7280016541481018,-36,5497.0,3.8131155967712402,-64,9926.0
5310,0.33189675211906433,0.574603796005249,46,5497.0,0.9435734152793884,77,9926.0
5320,0.3317613899707794,0.6746395230293274,-1,5497.0,2.2105135917663574,-116,9926.0
5330,0.3316549062728882,0.9072008728981018,-32,5497.0,-1.1488059759140015,-4,9926.0
5340,0.3315923810005188,0.6448776721954346,4,5497.0,-1.1481688022613525,-15,9926.0
5350,0.3315979242324829,-1.9479206800460815,-132,5497.0,2.316737174987793,65,9926.0
5360,0.33180394768714905,-0.5476661324501038,36,5497.0,2.5602471828460693,68,9926.0
5370,0.3318662941455841,1.5272507667541504,-76,5497.0,1.580629587173462,11,9926.0
5380,0.33194658160209656,0.15554963052272797,11,5497.0,2.450157642364502,156,9926.0
5390,0.33209875226020813,-1.785419225692749,-59,5497.0,1.151576280593872,-66,9926.0
5400,0.33304521441459656,-1.5185546875,-62,5497.0,2.591179370880127,220,9926.0
5410,0.3332976996898651,-0.47833147644996643,-18,5497.0,-1.3823843002319336,22,9926.0
5420,0.33355382084846497,3.4127564430236816,-6,5497.0,0.14062581956386566,55,9926.0
5430,0.3338157534599304,3.060037612915039,118,5497.0,5.995352268218994,39,9926.0
5440,0.3340795636177063,3.6155738830566406,-13,5497.0,3.9364819526672363,64,9926.0
5450,0.33441415429115295,0.8867694735527039,77,5497.0,2.9259839057922363,144,9926.0
5460,0.33474040031433105,-0.8645365834236145,-90,5497.0,3.146512746810913,47,9926.0
5470,0.33506709337234497,-2.533914804458618,-37,5497.0,-0.45935630798339844,130,9926.0
5480,0.33545565605163574,-1.5425240993499756,-88,5497.0,0.9569478631019592,16,9926.0
5490,0.33525335788726807,-1.5445067882537842,-69,5497.0,-4.683413028717041,102,9926.0
5500,0.3356378674507141,1.9842448234558105,29,5497.0,-3.747310161590576,-48,9926.0
5510,0.3359948992729187,1.9999666213989258,15,5497.0,-3.8586933612823486,59,9926.0
5520,0.33631840348243713,3.895951509475708,152,5497.0,-1.068359613418579,-15,9926.0
5530,0.3365233838558197,3.5872912406921387,-6,5497.0,-1.5920994281768799,29,9926.0
5540,0.33691540360450745,1.6096196174621582,149,5497.0,1.0969842672348022,31,9926.0
5550,0.337289422750473,0.2522963285446167,-55,5497.0,1.6807106733322144,38,9926.0
5560,0.33763447403907776,-1.5241093635559082,103,5497.0,4.629757404327393,71,9926.0
5570,0.33798858523368835,0.24924889206886292,-26,5497.0,2.7856719493865967,-18,9926.0
5580,0.338329941034317,-1.5513581037521362,66,5497.0,1.1507279872894287,48,9926.0
5590,0.3386860191822052,0.3940018117427826,-5,5497.0,-2.677935838699341,-168,9926.0
5600,0.33902356028556824,1.6537030935287476,110,5497.0,-3.278024435043335,5,9926.0
5610,0.33935844898223877,0.9783961176872253,-9,5497.0,-0.9132727980613708,-108,9926.0
5620,0.3407331109046936,2.1800613403320312,75,5497.0,-5.040930271148682,-7,9926.0
5630,0.3411024808883667,0.2325327843427658,20,5497.0,-2.7588493824005127,-167,9926.0
5640,0.3415117561817169,-0.8832116723060608,-9,5497.0,-3.1842734813690186,75,9926.0
5650,0.34185507893562317,-2.911931037902832,-63,5497.0,-0.12964001297950745,-126,9926.0
5660,0.34294629096984863,0.250137060880661,-6,5497.0,-2.4556210041046143,68,9926.0
5670,0.34326815605163574,-2.583845376968384,-64,5497.0,-2.2739617824554443,-91,9926.0
5680,0.34373876452445984,-1.5991792678833008,-32,5497.0,-2.4565229415893555,87,9926.0
5690,0.34419238567352295,-3.274916887283325,-52,5497.0,3.1584482192993164,-96,9926.0
5700,0.34460222721099854,-3.7253665924072266,-40,5497.0,2.364849805831909,89,9926.0
5710,0.3438194692134857,-5.09329891204834,-96,5497.0,1.5725607872009277,-86,9926.0
5720,0.3439972698688507,-7.028356552124023,-80,5497.0,-0.22125457227230072,41,9926.0
5730,0.344172865152359,-10.214468955993652,-171,5497.0,3.53181529045105,-161,9926.0
5740,0.34425053000450134,-11.06944751739502,-89,5497.0,-0.1839858442544937,-79,9926.0
5750,0.341398149728775,-8.101310729980469,-134,5497.0,1.6506497859954834,-116,9926.0
5760,0.3413159251213074,-9.684135437011719,-91,5497.0,2.152723550796509,6,9926.0
5770,0.3411681056022644,-5.953147888183594,-77,5497.0,-1.3842238187789917,-144,9926.0
5780,0.34094327688217163,-4.836155414581299,-61,5497.0,-6.756064414978027,-8,9926.0
5790,0.3407140374183655,1.5975782871246338,40,5497.0,-3.3086979389190674,-119,9926.0
5800,0.3402174115180969,3.193100929260254,35,5497.0,-3.6741714477539062,37,9926.0
5810,0.3400427997112274,4.335790157318115,139,5497.0,-1.8527919054031372,-43,9926.0
5820,0.3398573696613312,6.053724765777588,1,5497.0,0.45334723591804504,151,9926.0
5830,0.3396506607532501,6.397061824798584,108,5497.0,-0.9270148873329163,-103,9926.0
5840,0.33956989645957947,4.918728351593018,51,5497.0,0.18551519513130188,139,9926.0
5850,0.3393060564994812,2.6728157997131348,60,5497.0,1.963253378868103,-37,9926.0
5860,0.3390561640262604,2.4122798442840576,33,5497.0,-2.3251919746398926,157,9926.0
5870,0.3388192653656006,2.274015188217163,78,5497.0,-0.2059318870306015,11,9926.0
5880,0.3371414244174957,3.543285369873047,54,5497.0,3.3068008422851562,132,9926.0
5890,0.3368053436279297,4.850433826446533,166,5497.0,1.9916311502456665,43,9926.0
5900,0.3364904820919037,4.938379764556885,-2,5497.0,2.7915875911712646,59,9926.0
5910,0.3361853063106537,4.796816349029541,162,5497.0,0.9149158000946045,84,9926.0
5920,0.33590343594551086,5.936589241027832,41,5497.0,-1.3866771459579468,-52,9926.0
5930,0.33523616194725037,6.042916774749756,124,5497.0,-0.628720223903656,16,9926.0
5940,0.3349546790122986,5.455986499786377,17,5497.0,-2.611661434173584,-70,9926.0
5950,0.3346966505050659,3.748798370361328,52,5497.0,-1.6849662065505981,116,9926.0
5960,0.33448150753974915,3.238933801651001,59,5497.0,-3.0425992012023926,-90,9926.0
5970,0.33487293124198914,4.36773681640625,32,5497.0,-6.507002353668213,-34,9926.0
5980,0.33471038937568665,1.1928824186325073,105,5497.0,-4.772463798522949,-23,9926.0
5990,0.3346047103404999,-2.025937557220459,-126,5497.0,2.2388226985931396,4,9926.0
6000,0.33451470732688904,-0.8812099099159241,28,5497.0,-0.8824471235275269,-31,9926.0
6010,0.3354364335536957,0.3981958329677582,-42,5497.0,0.9615492224693298,-75,9926.0
6020,0.33540937304496765,0.185141459107399,63,5497.0,-0.9475929737091064,80,9926.0
6030,0.3354377746582031,-1.049858570098877,12,5497.0,3.9652538299560547,-110,9926.0
6040,0.33551350235939026,1.0285236835479736,20,5497.0,0.5660804510116577,102,9926.0
6050,0.33565160632133484,0.664307177066803,41,5497.0,3.284569263458252,36,9926.0
6060,0.33719268441200256,-0.5434669256210327,-53,5497.0,2.9395110607147217,98,9926.0
6070,0.33748650550842285,0.626022219657898,119,5497.0,2.05670428276062,54,9926.0
6080,0.337852418422699,1.383225917816162,-45,5497.0,2.611130952835083,-65,9926.0
6090,0.3382296562194824,-0.3254217505455017,12,5497.0,0.3895952105522156,127,9926.0
6100,0.3392000198364258,0.6041910648345947,-23,5497.0,-2.8803582191467285,-81,9926.0
6110,0.33966609835624695,0.49863189458847046,17,5497.0,1.2503843307495117,146,9926.0
6120,0.34015026688575745,1.7158674001693726,52,5497.0,2.3824095726013184,3,9926.0
6130,0.34071314334869385,1.5659765005111694,21,5497.0,6.503712177276611,220,9926.0
6140,0.34126871824264526,0.9463008642196655,101,5497.0,6.931107521057129,77,9926.0
6150,0.34252941608428955,1.4217253923416138,-14,5497.0,5.981202125549316,163,9926.0
6160,0.3431660830974579,2.169706344604492,115,5497.0,0.12621939182281494,-12,9926.0
6170,0.34370020031929016,1.8437751531600952,-10,5497.0,3.7362563610076904,58,9926.0
6180,0.34425610303878784,0.3227885663509369,101,5497.0,1.5362941026687622,-17,9926.0
6190,0.3451186418533325,0.5229642391204834,-118,5497.0,-2.7313852310180664,24,9926.0
6200,0.34568774700164795,0.35490548610687256,60,5497.0,-4.028715133666992,-31,9926.0
6210,0.3461785316467285,-1.711377739906311,-64,5497.0,-2.3775713443756104,-93,9926.0
6220,0.3466722071170807,2.2034857273101807,46,5497.0,-6.793317794799805,-91,9926.0
6230,0.34749987721443176,3.0014595985412598,-81,5497.0,-3.456066846847534,-46,9926.0
6240,0.3480018973350525,-0.43092605471611023,11,5497.0,-3.4625604152679443,-27,9926.0
6250,0.34843406081199646,3.530273675918579,-34,5497.0,-4.183539390563965,-47,9926.0
6260,0.3488079905509949,1.3107993602752686,115,5497.0,-3.1072916984558105,48,9926.0
6270,0.3490771949291229,3.2712934017181396,-14,5497.0,-0.6848523020744324,63,9926.0
6280,0.34801027178764343,2.344353675842285,120,5497.0,2.4359843730926514,78,9926.0
6290,0.3481409549713135,2.148968458175659,-30,5497.0,3.2123312950134277,86,9926.0
6300,0.3482435345649719,-0.47358939051628113,85,5497.0,3.545485734939575,75,9926.0
6310,0.3483354151248932,-0.8349536061286926,-54,5497.0,-0.8370634317398071,29,9926.0
6320,0.3494504988193512,-2.5303261280059814,5,5497.0,-2.241952419281006,-93,9926.0
6330,0.349529504776001,-1.7448538541793823,-141,5497.0,-0.41286346316337585,-126,9926.0
6340,0.3495810627937317,-0.15231311321258545,0,5497.0,-2.9837069511413574,-119,9926.0
6350,0.3496161699295044,2.7889626026153564,-84,5497.0,-1.4279643297195435,-14,9926.0
6360,0.3496228754520416,0.7571666836738586,114,5497.0,2.2274303436279297,15,9926.0
6370,0.34813082218170166,4.80950927734375,31,5497.0,0.8902125954627991,-3,9926.0
6380,0.3480144143104553,4.852614402770996,160,5497.0,1.6810721158981323,41,9926.0
6390,0.3478153645992279,6.011700630187988,32,5497.0,0.7225614786148071,56,9926.0
6400,0.34755465388298035,0.19641099870204926,121,5497.0,7.203868389129639,49,9926.0
6410,0.34625115990638733,-1.7380740642547607,-48,5497.0,-2.8931195735931396,-46,9926.0
6420,0.34595298767089844,-4.975233554840088,-80,5497.0,-1.637452483177185,-202,9926.0
6430,0.3456284999847412,-3.5190703868865967,-67,5497.0,-8.585670471191406,-128,9926.0
6440,0.3452596068382263,-6.427794933319092,-149,5497.0,-3.1660239696502686,-121,9926.0
6450,0.34484928846359253,-3.9882431030273438,-102,5497.0,-1.4118555784225464,94,9926.0
6460,0.3445093035697937,0.060673199594020844,17,5497.0,-3.1054434776306152,-41,9926.0
6470,0.34416335821151733,0.022102760151028633,-29,5497.0,0.9469941854476929,183,9926.0
6480,0.34384685754776,1.1298366785049438,55,5497.0,2.5406250953674316,26,9926.0
6490,0.3435647487640381,0.8095091581344604,-40,5497.0,2.7728359699249268,168,9926.0
6500,0.3430899679660797,1.9854204654693604,43,5497.0,-2.4166488647460938,-39,9926.0
6510,0.3428458273410797,-1.1321706771850586,-52,5497.0,0.12760759890079498,100,9926.0
6520,0.3426125943660736,-3.656677007675171,46,5497.0,3.941020965576172,-52,9926.0
6530,0.34243151545524597,-1.4649443626403809,-40,5497.0,0.4986601173877716,86,9926.0
6540,0.34214338660240173,-1.239531397819519,72,5497.0,3.37703800201416,39,9926.0
6550,0.34202316403388977,0.5949812531471252,-50,5497.0,5.75706148147583,163,9926.0
6560,0.3419613540172577,0.8269971609115601,124,5497.0,5.375009536743164,126,9926.0
6570,0.34187665581703186,4.217034339904785,-81,5497.0,5.424836158752441,56,9926.0
6580,0.34181278944015503,2.6239593029022217,109,5497.0,2.4552340507507324,71,9926.0
6590,0.33897823095321655,0.6355204582214355,-69,5497.0,0.3441232442855835,-54,9926.0
6600,0.33879554271698,-0.8127936720848083,0,5497.0,-2.321530818939209,-15,9926.0
6610,0.3386233150959015,-4.16563606262207,-109,5497.0,-3.1734061241149902,-166,9926.0
6620,0.33841362595558167,-6.907241344451904,-78,5497.0,-2.4966139793395996,-43,9926.0
6630,0.3376651406288147,-8.724367141723633,-114,5497.0,-3.1375033855438232,-194,9926.0
6640,0.33749282360076904,-9.480602264404297,-112,5497.0,-1.6442830562591553,0,9926.0
6650,0.33733364939689636,-5.816249370574951,6,5497.0,-4.993757724761963,-176,9926.0
6660,0.3372085392475128,-3.023118734359741,-152,5497.0,-0.9777013659477234,19,9926.0
6670,0.3370901644229889,-1.753179907798767,14,5497.0,0.9978688955307007,0,9926.0
6680,0.33697471022605896,-1.2314305305480957,-120,5497.0,0.5396424531936646,-19,9926.0
6690,0.3369390368461609,-0.6983153223991394,48,5497.0,2.1324284076690674,76,9926.0
6700,0.3369317352771759,-1.993557333946228,-42,5497.0,5.025355339050293,-57,9926.0
6710,0.33695247769355774,-1.64109468460083,28,5497.0,6.196516036987305,120,9926.0
6720,0.3362541198730469,-0.37449127435684204,-14,5497.0,3.7725770473480225,-41,9926.0
6730,0.33636561036109924,0.07214526832103729,-73,5497.0,3.0975420475006104,51,9926.0
6740,0.33653023838996887,3.2582709789276123,110,5497.0,-2.20120906829834,-20,9926.0
6750,0.33671778440475464,3.5617001056671143,-30,5497.0,-0.6142668128013611,-81,9926.0
6760,0.336259126663208,1.8778579235076904,20,5497.0,-1.4434313774108887,41,9926.0
6770,0.33652836084365845,0.9626704454421997,-20,5497.0,1.7076796293258667,-98,9926.0
6780,0.3368460536003113,-1.3617159128189087,2,5497.0,3.8517262935638428,133,9926.0
6790,0.33716195821762085,-1.066179871559143,6,5497.0,5.5691819190979,-35,9926.0
6800,0.3374861180782318,-0.21292831003665924,-40,5497.0,4.3806562423706055,122,9926.0
6810,0.3364022672176361,0.3700968027114868,35,5497.0,5.37777853012085,0,9926.0
6820,0.3367465138435364,1.5165643692016602,-130,5497.0,1.8692421913146973,70,9926.0
6830,0.3370751142501831,-0.2893548905849457,-3,5497.0,0.005045486148446798,39,9926.0
6840,0.33738580346107483,1.6523964405059814,-74,5497.0,-2.18786883354187,-80,9926.0
6850,0.3379276394844055,-0.4223101735115051,19,5497.0,-5.675861835479736,-1,9926.0
6860,0.33843836188316345,-0.6289520263671875,1,5497.0,-5.325904369354248,-182,9926.0
6870,0.33883580565452576,2.478624105453491,-9,5497.0,-8.471635818481445,25,9926.0
6880,0.3392063081264496,3.5680410861968994,67,5497.0,-4.48606538772583,-21,9926.0
6890,0.3395921587944031,3.8013498783111572,-10,5497.0,-4.488276958465576,93,9926.0
6900,0.3401764929294586,4.643693447113037,124,5497.0,6.163378715515137,116,9926.0
6910,0.34069177508354187,0.09386186301708221,-65,5497.0,5.349398612976074,112,9926.0
6920,0.3411838114261627,0.6164188981056213,53,5497.0,3.497324228286743,177,9926.0
6930,0.3416811525821686,-0.33253252506256104,-49,5497.0,4.231606960296631,89,9926.0
6940,0.342353880405426,-2.57505202293396,6,5497.0,5.612485885620117,176,9926.0
6950,0.3429763913154602,-2.386420726776123,-33,5497.0,2.673098564147949,-46,9926.0
6960,0.3435412347316742,0.8952240943908691,1,5497.0,2.1395814418792725,114,9926.0
6970,0.34408360719680786,1.4084011316299438,29,5497.0,2.1682991981506348,-102,9926.0
6980,0.3445934057235718,1.1228772401809692,-1,5497.0,-4.711524486541748,-60,9926.0
6990,0.34521496295928955,5.195969581604004,90,5497.0,-6.329777240753174,-189,9926.0
7000,0.3457959294319153,5.352951526641846,-12,5497.0,-9.745652198791504,-149,9926.0
7010,0.3463149070739746,4.441715717315674,96,5497.0,-6.766158580780029,-125,9926.0
7020,0.3467738926410675,4.896274566650391,41,5497.0,-4.15346097946167,-42,9926.0
7030,0.3489357531070709,2.6966288089752197,19,5497.0,-1.5882797241210938,-147,9926.0
7040,0.3494251072406769,1.6944892406463623,58,5497.0,-2.2654647827148438,40,9926.0
7050,0.34992310404777527,-3.094973087310791,23,5497.0,3.4553170204162598,-60,9926.0
7060,0.35039272904396057,-4.267687797546387,-6,5497.0,-0.33357295393943787,-11,9926.0
7070,0.348654568195343,-1.2651790380477905,-57,5497.0,3.6847455501556396,-54,9926.0
7080,0.34892192482948303,-0.15430887043476105,4,5497.0,4.178781986236572,184,9926.0
7090,0.3491199314594269,0.3788851201534271,-25,5497.0,3.8372061252593994,-36,9926.0
7100,0.3492593765258789,0.9130492210388184,12,5497.0,0.3452721834182739,186,9926.0
7110,0.34934529662132263,2.070981025695801,11,5497.0,-6.422194004058838,-63,9926.0
7120,0.3492676913738251,2.841981887817383,35,5497.0,-1.9240975379943848,98,9926.0
7130,0.34928208589553833,1.3442434072494507,26,5497.0,-1.5928987264633179,-166,9926.0
7140,0.3492262065410614,0.2547861635684967,-54,5497.0,-5.870952129364014,-43,9926.0
7150,0.34909430146217346,1.4960333108901978,26,5497.0,-4.903713226318359,-178,9926.0
7160,0.34846433997154236,0.1363476812839508,-37,5497.0,-2.094399929046631,-35,9926.0
7170,0.3482462465763092,0.8220176100730896,11,5497.0,0.17772312462329865,-104,9926.0
7180,0.34804481267929077,1.691542148590088,-69,5497.0,1.6740161180496216,90,9926.0
7190,0.34780147671699524,0.9208414554595947,87,5497.0,4.216292381286621,16,9926.0
7200,0.34720152616500854,2.191132068634033,-55,5497.0,7.719692707061768,107,9926.0
7210,0.34689024090766907,-0.9732822775840759,100,5497.0,6.593056678771973,53,9926.0
7220,0.3466339111328125,1.9510387182235718,8,5497.0,2.1005587577819824,-15,9926.0
7230,0.3463782072067261,2.3925628662109375,84,5497.0,0.35549503564834595,87,9926.0
7240,0.3460747301578522,1.2511053085327148,22,5497.0,-1.2083359956741333,-96,9926.0
7250,0.34564876556396484,-0.058316901326179504,-6,5497.0,-2.557405948638916,14,9926.0
7260,0.3450350761413574,-2.221215009689331,27,5497.0,0.9305877089500427,-77,9926.0
7270,0.3450356721878052,-1.4286025762557983,-99,5497.0,-0.20247362554073334,-50,9926.0
7280,0.34441009163856506,-5.30250358581543,-7,5497.0,0.8734191060066223,32,9926.0
7290,0.3446345329284668,-2.3197505474090576,-106,5497.0,-1.256365180015564,-49,9926.0
7300,0.34406203031539917,-4.0986247062683105,1,5497.0,3.835540771484375,94,9926.0
7310,0.34405937790870667,-2.377925157546997,-15,5497.0,5.2658467292785645,-115,9926.0
7320,0.3438207507133484,-2.788248062133789,-83,5497.0,2.6527516841888428,7,9926.0
7330,0.3433815538883209,0.3714089095592499,20,5497.0,-0.7519665360450745,-74,9926.0
7340,0.343004435300827,-3.6621532440185547,-153,5497.0,2.6232712268829346,-11,9926.0
7350,0.34300497174263,-3.445643424987793,-2,5497.0,-5.454562187194824,-72,9926.0
7360,0.3428376019001007,-1.9334431886672974,-20,5497.0,-6.127121925354004,-216,9926.0
7370,0.3425333797931671,-1.1557154655456543,-159,5497.0,-7.592585563659668,-57,9926.0
7380,0.3427194058895111,-1.702532410621643,6,5497.0,-4.102952480316162,-34,9926.0
7390,0.3425871729850769,-1.906001091003418,-119,5497.0,-2.1622884273529053,-82,9926.0
7400,0.34258487820625305,-3.3672680854797363,-10,5497.0,1.292649507522583,122,9926.0
7410,0.3425534963607788,-4.5875325202941895,-56,5497.0,4.800227642059326,-27,9926.0
7420,0.3419579565525055,-6.301645755767822,-187,5497.0,2.8909850120544434,117,9926.0
7430,0.3419772982597351,-1.5082956552505493,8,5497.0,5.237814426422119,99,9926.0
7440,0.3419967293739319,-0.09833438694477081,-88,5497.0,4.5341267585754395,-34,9926.0
7450,0.3421241044998169,2.0715789794921875,29,5497.0,1.2445526123046875,95,9926.0
7460,0.3421236574649811,0.45282572507858276,8,5497.0,1.0863858461380005,-70,9926.0
7470,0.34296196699142456,1.6133925914764404,-111,5497.0,-3.3523080348968506,15,9926.0
7480,0.3431779444217682,2.7234740257263184,107,5497.0,-3.3009328842163086,-107,9926.0
7490,0.3434346914291382,3.2610745429992676,-42,5497.0,-3.6982367038726807,-107,9926.0
7500,0.3437407314777374,2.315025806427002,56,5497.0,-4.312154293060303,90,9926.0
7510,0.34403038024902344,0.4172326922416687,-28,5497.0,0.3546237051486969,-80,9926.0
7520,0.34432750940322876,-1.2507734298706055,-46,5497.0,0.22946789860725403,147,9926.0
7530,0.3446228504180908,-2.747551441192627,-22,5497.0,2.4329233169555664,-35,9926.0
7540,0.3449539244174957,-3.90649676322937,-131,5497.0,1.7365676164627075,100,9926.0
7550,0.3453267812728882,-3.159146547317505,41,5497.0,2.6469850540161133,32,9926.0
7560,0.34459617733955383,-3.8547818660736084,-96,5497.0,-3.561156749725342,-26,9926.0
7570,0.34487926959991455,-2.0961527824401855,44,5497.0,-3.4603466987609863,70,9926.0
7580,0.3451536297798157,-2.2155263423919678,-26,5497.0,-3.3984179496765137,-85,9926.0
7590,0.34544554352760315,0.15701964497566223,55,5497.0,-2.797741651535034,-63,9926.0
7600,0.3458227515220642,0.1928001046180725,-122,5497.0,-0.9499024152755737,-86,9926.0
7610,0.3461085855960846,-0.017332877963781357,34,5497.0,-1.094641089439392,-37,9926.0
7620,0.34642624855041504,-0.43805450201034546,-92,5497.0,0.05994195118546486,-151,9926.0
7630,0.34673696756362915,-0.3529756963253021,32,5497.0,-1.494829535484314,-28,9926.0
7640,0.34554019570350647,-2.049257755279541,-80,5497.0,3.97808837890625,-23,9926.0
7650,0.34575673937797546,-0.9132308959960938,-18,5497.0,6.099026679992676,195,9926.0
7660,0.345944881439209,-3.326880931854248,-58,5497.0,8.17311954498291,3,9926.0
7670,0.3461291193962097,-2.5829215049743652,-24,5497.0,7.117651462554932,204,9926.0
7680,0.3463585376739502,-1.5119693279266357,57,5497.0,2.9210240840911865,15,9926.0
7690,0.34553319215774536,0.22580787539482117,-48,5497.0,-1.706616759300232,-5,9926.0
7700,0.3456588685512543,1.9480684995651245,152,5497.0,-4.014700412750244,-41,9926.0
7710,0.3457799553871155,4.598204135894775,35,5497.0,-11.92029094696045,-219,9926.0
7720,0.34593719244003296,6.471286773681641,179,5497.0,-9.504961967468262,-117,9926.0
7730,0.344155877828598,6.67695426940918,98,5497.0,-8.559979438781738,-216,9926.0
7740,0.3441900908946991,5.266480922698975,132,5497.0,-2.694176435470581,-34,9926.0
7750,0.3441784679889679,2.9388222694396973,87,5497.0,-1.8530683517456055,-223,9926.0
7760,0.3441273868083954,3.322556257247925,11,5497.0,-0.8188431859016418,-26,9926.0
7770,0.3440295159816742,0.6358808279037476,30,5497.0,5.342594146728516,-10,9926.0
7780,0.34476494789123535,-0.453357070684433,-64,5497.0,1.3489662408828735,95,9926.0
7790,0.34472793340682983,-1.9709120988845825,10,5497.0,4.992066860198975,60,9926.0
7800,0.3446686267852783,-1.1494661569595337,-93,5497.0,3.6972732543945312,77,9926.0
7810,0.3445858359336853,0.12379429489374161,96,5497.0,1.147144079208374,-51,9926.0
7820,0.3454749286174774,0.5705682039260864,-37,5497.0,-3.0503878593444824,-148,9926.0
7830,0.34547463059425354,-0.08839666098356247,-17,5497.0,-6.757379531860352,59,9926.0
7840,0.34545058012008667,0.2533579170703888,60,5497.0,-11.986712455749512,-308,9926.0
7850,0.34540730714797974,0.09324423968791962,-9,5497.0,-10.371198654174805,-109,9926.0
7860,0.34486034512519836,-1.820328950881958,41,5497.0,-3.658095598220825,-160,9926.0
7870,0.3448183834552765,-0.3238528072834015,-24,5497.0,-5.2276835441589355,-58,9926.0
7880,0.34475043416023254,-2.192213535308838,74,5497.0,-2.4571261405944824,-27,9926.0
7890,0.344697505235672,-2.42946457862854,-90,5497.0,5.051850318908691,85,9926.0
7900,0.344648152589798,-1.3027278184890747,63,5497.0,5.0311360359191895,86,9926.0
7910,0.3451920449733734,-1.2068302631378174,-64,5497.0,9.583675384521484,22,9926.0
7920,0.34523463249206543,2.4305202960968018,43,5497.0,4.474299430847168,107,9926.0
7930,0.34528160095214844,2.8250606060028076,81,5497.0,0.8844705820083618,-121,9926.0
7940,0.34531503915786743,2.9786717891693115,-25,5497.0,-0.14183232188224792,92,9926.0
7950,0.34485551714897156,3.1716041564941406,74,5497.0,-1.8875476121902466,-54,9926.0
7960,0.3449510931968689,2.469097852706909,-99,5497.0,-0.5779377818107605,17,9926.0
7970,0.3450598418712616,2.427821397781372,97,5497.0,-7.076511859893799,-36,9926.0
7980,0.3452097177505493,-0.08058246970176697,-56,5497.0,-3.8795220851898193,-160,9926.0
7990,0.34561887383461,-1.2751282453536987,-17,5497.0,-8.864137649536133,40,9926.0
8000,0.3458400070667267,-2.771674633026123,-92,5497.0,-3.4316325187683105,-67,9926.0
8010,0.346089631319046,-2.3275692462921143,-30,5497.0,-3.24306058883667,162,9926.0
8020,0.3463776707649231,-3.37237811088562,9,5497.0,4.663840293884277,-66,9926.0
8030,0.34663718938827515,-1.8110542297363281,-47,5497.0,3.0659520626068115,137,9926.0
8040,0.34656405448913574,-0.654289722442627,119,5497.0,3.692704677581787,35,9926.0
8050,0.34689828753471375,-0.6209536194801331,-91,5497.0,2.0401690006256104,102,9926.0
8060,0.34721916913986206,1.5200493335723877,95,5497.0,5.195967197418213,107,9926.0
8070,0.3475121259689331,2.2708652019500732,-68,5497.0,3.901369333267212,-48,9926.0
8080,0.34593501687049866,1.4195685386657715,69,5497.0,0.09250735491514206,27,9926.0
8090,0.346164345741272,4.47398567199707,14,5497.0,-0.6691539883613586,-67,9926.0
8100,0.34638485312461853,0.35460832715034485,-26,5497.0,-2.9409756660461426,164,9926.0
8110,0.34658539295196533,-1.2387551069259644,-41,5497.0,-7.783807277679443,-81,9926.0
8120,0.3467428982257843,-4.266097068786621,-53,5497.0,-3.5512313842773438,65,9926.0
8130,0.3465242385864258,-5.031697750091553,23,5497.0,-2.7281441688537598,-162,9926.0
8140,0.34662699699401855,-4.615654468536377,-101,5497.0,-2.9977831840515137,73,9926.0
8150,0.3466949462890625,-3.641195774078369,36,5497.0,0.30386313796043396,-19,9926.0
8160,0.34673282504081726,-1.1043944358825684,-140,5497.0,3.052379846572876,84,9926.0
8170,0.345685750246048,1.9223260879516602,-38,5497.0,1.4766440391540527,-39,9926.0
8180,0.3456343710422516,0.5449610352516174,-2,5497.0,3.4563117027282715,255,9926.0
8190,0.345585435628891,0.7700937986373901,64,5497.0,7.079200267791748,59,9926.0
8200,0.3455033004283905,2.002481460571289,51,5497.0,6.708876132965088,126,9926.0
8210,0.34537774324417114,2.7977993488311768,122,5497.0,2.36444091796875,30,9926.0
8220,0.3435070514678955,3.15503191947937,-72,5497.0,1.5991406440734863,31,9926.0
8230,0.3433155417442322,2.5392556190490723,51,5497.0,-0.7228012084960938,-39,9926.0
8240,0.34313198924064636,3.5878188610076904,-49,5497.0,-2.6565563678741455,-74,9926.0
8250,0.34292757511138916,1.8359092473983765,81,5497.0,0.7918906807899475,158,9926.0
8260,0.34044215083122253,1.7484054565429688,-29,5497.0,3.0011188983917236,-23,9926.0
8270,0.3400953412055969,-1.419020175933838,-19,5497.0,1.054060935974121,177,9926.0
8280,0.3397527039051056,-2.5040247440338135,-34,5497.0,-0.6231129169464111,-64,9926.0
8290,0.33941614627838135,0.5420215129852295,-34,5497.0,-1.5267285108566284,55,9926.0
8300,0.33868280053138733,-1.9605004787445068,119,5497.0,2.639486789703369,55,9926.0
8310,0.3383640944957733,0.04134230688214302,20,5497.0,3.6829185485839844,-4,9926.0
8320,0.33811789751052856,3.2325336933135986,91,5497.0,2.782193183898926,120,9926.0
8330,0.3379402160644531,1.9873731136322021,2,5497.0,4.791833877563477,-89,9926.0
8340,0.33780184388160706,-0.5625051259994507,-19,5497.0,3.6557211875915527,1,9926.0
8350,0.33855926990509033,-1.4302194118499756,56,5497.0,2.617480754852295,-20,9926.0
8360,0.3385322093963623,0.6145915389060974,-97,5497.0,-0.6621779799461365,-68,9926.0
8370,0.33853229880332947,1.1007214784622192,43,5497.0,0.6835283041000366,87,9926.0
8380,0.33852458000183105,0.18894512951374054,-16,5497.0,4.90626859664917,-71,9926.0
8390,0.3371537923812866,3.7102701663970947,-60,5497.0,-2.006589412689209,87,9926.0
8400,0.3371439278125763,1.106250524520874,135,5497.0,-1.8612412214279175,-39,9926.0
8410,0.33719542622566223,1.6413371562957764,-35,5497.0,4.057122707366943,4,9926.0
8420,0.33726078271865845,-2.5155410766601562,21,5497.0,5.129580974578857,135,9926.0
8430,0.33737844228744507,-0.26806995272636414,-6,5497.0,3.5570924282073975,-7,9926.0
8440,0.33856749534606934,-0.7538504004478455,-111,5497.0,3.2810676097869873,56,9926.0
8450,0.3388133943080902,0.8229272365570068,102,5497.0,-2.256674289703369,33,9926.0
8460,0.3391363024711609,-1.874144434928894,0,5497.0,0.9963643550872803,-147,9926.0
8470,0.33947789669036865,5.198840141296387,106,5497.0,-3.5211548805236816,45,9926.0
8480,0.3415025770664215,3.7150466442108154,125,5497.0,-5.450791835784912,-150,9926.0
8490,0.34198442101478577,5.894097328186035,1,5497.0,-8.719985008239746,-80,9926.0
8500,0.3425368368625641,1.9942375421524048,108,5497.0,-4.275717735290527,-18,9926.0
8510,0.3431379795074463,1.9278281927108765,9,5497.0,-3.631547451019287,-183,9926.0
8520,0.34461063146591187,-0.3815520107746124,19,5497.0,-4.9170966148376465,50,9926.0
8530,0.34529778361320496,-0.6117770671844482,-8,5497.0,4.883202075958252,-82,9926.0
8540,0.34604498744010925,-0.28200992941856384,-13,5497.0,5.695809364318848,153,9926.0
8550,0.3468780517578125,0.520167350769043,-7,5497.0,6.769370079040527,15,9926.0
8560,0.3476997911930084,-0.837990939617157,-47,5497.0,7.519180774688721,164,9926.0
8570,0.34789901971817017,-1.6091903448104858,88,5497.0,5.453110218048096,78,9926.0
8580,0.3486922085285187,-0.4552963674068451,-39,5497.0,6.300168991088867,134,9926.0
8590,0.34937795996665955,0.341497540473938,209,5497.0,2.8929078578948975,-50,9926.0
8600,0.3500761389732361,3.1163110733032227,35,5497.0,-0.22896552085876465,-94,9926.0
8610,0.3500584661960602,6.951645851135254,138,5497.0,-3.631960868835449,19,9926.0
8620,0.3505955636501312,7.126648426055908,-12,5497.0,-6.084296703338623,-30,9926.0
8630,0.3510642349720001,7.001400947570801,174,5497.0,-6.352686405181885,-96,9926.0
8640,0.3514576852321625,6.452517986297607,61,5497.0,-6.771432876586914,-47,9926.0
8650,0.3518398702144623,5.425221920013428,193,5497.0,-1.1087900400161743,-51,9926.0
8660,0.35225337743759155,5.69677734375,79,5497.0,0.23266182839870453,34,9926.0
8670,0.352510005235672,5.567394733428955,148,5497.0,1.1661977767944336,39,9926.0
8680,0.3527013659477234,4.874372482299805,-42,5497.0,2.851734161376953,-27,9926.0
8690,0.3527996242046356,2.4255361557006836,36,5497.0,1.0071672201156616,10,9926.0
8700,0.35287997126579285,1.9817590713500977,-37,5497.0,3.474994659423828,81,9926.0
8710,0.35284045338630676,-2.8831472396850586,71,5497.0,3.423572301864624,37,9926.0
8720,0.3527626693248749,-1.8727498054504395,-43,5497.0,1.7799431085586548,111,9926.0
8730,0.35265833139419556,-3.144805908203125,87,5497.0,1.785233497619629,46,9926.0
8740,0.3530851900577545,1.0690627098083496,-81,5497.0,-0.19436201453208923,-27,9926.0
8750,0.35289645195007324,-0.9396946430206299,17,5497.0,-3.874267578125,-58,9926.0
8760,0.3526093661785126,1.9431933164596558,-65,5497.0,-3.8497979640960693,26,9926.0
8770,0.3522528111934662,0.8189746737480164,42,5497.0,-5.9223175048828125,-74,9926.0
8780,0.3518723249435425,2.1305341720581055,-9,5497.0,-2.136343002319336,-13,9926.0
8790,0.35151469707489014,-3.232538938522339,37,5497.0,1.6867107152938843,72,9926.0
8800,0.3511018753051758,-3.7654407024383545,-185,5497.0,-3.0021963119506836,-24,9926.0
8810,0.35067373514175415,-5.594287395477295,-75,5497.0,2.807389259338379,61,9926.0
8820,0.3502556085586548,-4.6438679695129395,-185,5497.0,2.2057695388793945,-58,9926.0
8830,0.35111063718795776,-3.51513671875,-48,5497.0,-1.1475237607955933,24,9926.0
8840,0.3507806956768036,-1.4810830354690552,-41,5497.0,3.4197683334350586,-96,9926.0
8850,0.35043489933013916,0.012917773798108101,-28,5497.0,-0.6505581736564636,76,9926.0
8860,0.35009637475013733,-3.6691715717315674,68,5497.0,2.10695481300354,-37,9926.0
8870,0.3497980833053589,4.344494819641113,1,5497.0,-1.6304681301116943,7,9926.0
8880,0.35079649090766907,2.8678996562957764,104,5497.0,0.3347371518611908,46,9926.0
8890,0.35058343410491943,2.2738213539123535,-27,5497.0,-0.027423977851867676,-58,9926.0
8900,0.3504113256931305,1.4644118547439575,35,5497.0,1.277714490890503,161,9926.0
8910,0.3503095805644989,-1.1615692377090454,-82,5497.0,8.630622863769531,6,9926.0
8920,0.34934332966804504,-6.183168888092041,-115,5497.0,2.4517698287963867,-74,9926.0
8930,0.34922927618026733,-5.182905197143555,-31,5497.0,1.8062132596969604,-35,9926.0
8940,0.34908780455589294,-2.8081164360046387,-154,5497.0,-3.22586989402771,-49,9926.0
8950,0.3489862382411957,-2.788552761077881,-18,5497.0,-3.4861507415771484,-4,9926.0
8960,0.34973350167274475,-3.5395171642303467,-99,5497.0,-0.39610785245895386,-126,9926.0
8970,0.3497796952724457,-2.8715174198150635,-2,5497.0,-2.4501101970672607,12,9926.0
8980,0.3498440980911255,-0.783078670501709,79,5497.0,-2.7669763565063477,-115,9926.0
8990,0.3499617278575897,1.4295786619186401,-58,5497.0,3.9835503101348877,53,9926.0
9000,0.3501419723033905,-0.007512625306844711,81,5497.0,2.117384195327759,34,9926.0
9010,0.35098809003829956,1.4924330711364746,-29,5497.0,2.3542938232421875,2,9926.0
9020,0.35120511054992676,2.1696221828460693,82,5497.0,1.4634368419647217,192,9926.0
9030,0.35140684247016907,-0.3621944785118103,-13,5497.0,4.412517547607422,38,9926.0
9040,0.3516278862953186,-1.482445240020752,-21,5497.0,-1.6460603475570679,40,9926.0
9050,0.35266634821891785,-3.3699843883514404,-10,5497.0,-1.9387398958206177,-19,9926.0
9060,0.35289260745048523,-4.140702247619629,-103,5497.0,-5.833038806915283,-89,9926.0
9070,0.353132039308548,-3.533202648162842,1,5497.0,-6.944118022918701,-81,9926.0
9080,0.35337162017822266,-3.8797926902770996,-188,5497.0,-1.2977784872055054,-17,9926.0
9090,0.3535955548286438,-1.5814050436019897,5,5497.0,-3.2159852981567383,-14,9926.0
9100,0.3535453677177429,0.7204573750495911,-72,5497.0,2.7632405757904053,-43,9926.0
9110,0.3536830544471741,1.6404931545257568,43,5497.0,3.582385540008545,91,9926.0
9120,0.3537929356098175,1.3562580347061157,-19,5497.0,4.769289493560791,9,9926.0
9130,0.3538701832294464,2.276962995529175,47,5497.0,6.286945819854736,141,9926.0
9140,0.35395658016204834,1.7568994760513306,32,5497.0,-0.4857899248600006,-9,9926.0
9150,0.3539462089538574,0.4319463074207306,9,5497.0,-0.3992224931716919,211,9926.0
9160,0.35388195514678955,-2.8071646690368652,-87,5497.0,-1.2872861623764038,-86,9926.0
9170,0.3537638783454895,-1.0168668031692505,-26,5497.0,-4.165228366851807,36,9926.0
9180,0.35376572608947754,-1.0336785316467285,-56,5497.0,-7.172695159912109,-190,9926.0
9190,0.3535912334918976,-3.3521888256073,-30,5497.0,-3.673360586166382,-65,9926.0
9200,0.35338374972343445,-2.2321970462799072,-100,5497.0,-0.11432234197854996,-105,9926.0
9210,0.35319358110427856,-2.3813140392303467,1,5497.0,1.3697073459625244,112,9926.0
9220,0.35298052430152893,-0.9329349994659424,-116,5497.0,1.5220602750778198,-10,9926.0
9230,0.3528400957584381,-1.9171464443206787,8,5497.0,4.696679592132568,158,9926.0
9240,0.3525896370410919,-2.0730645656585693,-95,5497.0,2.5832016468048096,27,9926.0
9250,0.3523814082145691,-0.8061050176620483,12,5497.0,1.9654816389083862,118,9926.0
9260,0.3521972596645355,-2.3743066787719727,-8,5497.0,0.8098053932189941,-64,9926.0
9270,0.3535704016685486,-3.0669572353363037,40,5497.0,-0.9240762591362,48,9926.0
9280,0.35341915488243103,-0.010366711765527725,-49,5497.0,-3.521193265914917,-191,9926.0
9290,0.35324549674987793,-0.008042298257350922,40,5497.0,0.08145028352737427,-28,9926.0
9300,0.35306316614151,2.4596800804138184,5,5497.0,-1.289849877357483,-183,9926.0
9310,0.35285359621047974,2.095294237136841,68,5497.0,-0.5388587117195129,74,9926.0
9320,0.35269272327423096,0.9294023513793945,-42,5497.0,0.05469640716910362,-53,9926.0
9330,0.35251733660697937,1.120315670967102,25,5497.0,3.755642890930176,113,9926.0
9340,0.35231125354766846,-2.514786958694458,-70,5497.0,3.963456630706787,-32,9926.0
9350,0.3520982265472412,-4.460842132568359,-55,5497.0,3.0925779342651367,159,9926.0
9360,0.3531314730644226,-5.741270542144775,-78,5497.0,0.9030025601387024,10,9926.0
9370,0.35306093096733093,-6.001035690307617,-58,5497.0,3.1461830139160156,130,9926.0
9380,0.35305529832839966,-5.003209590911865,-139,5497.0,0.8189681172370911,-101,9926.0
9390,0.3530636131763458,-2.87206768989563,-41,5497.0,-3.9154036045074463,-51,9926.0
9400,0.35303056240081787,-3.1124789714813232,-191,5497.0,-1.3234038352966309,13,9926.0
9410,0.35300254821777344,-2.8396520614624023,71,5497.0,1.3927476406097412,47,9926.0
9420,0.353034645318985,-0.20393826067447662,-65,5497.0,5.1087260246276855,103,9926.0
9430,0.3530341684818268,-0.29250746965408325,77,5497.0,2.4984395503997803,96,9926.0
9440,0.35307374596595764,-1.5285160541534424,-42,5497.0,4.162965774536133,45,9926.0
9450,0.3538370430469513,-2.3353958129882812,2,5497.0,2.261159658432007,125,9926.0
9460,0.35382571816444397,-4.916306018829346,-126,5497.0,1.8725675344467163,-66,9926.0
9470,0.35380423069000244,-4.690121173858643,-18,5497.0,-0.3554544150829315,38,9926.0
9480,0.353802353143692,-3.9621169567108154,-122,5497.0,-4.5196309089660645,-226,9926.0
9490,0.3542391359806061,-3.7747464179992676,-65,5497.0,-9.637748718261719,-26,9926.0
9500,0.3541719615459442,-0.38880038261413574,-10,5497.0,-5.433684349060059,-156,9926.0
9510,0.35403740406036377,1.568260669708252,55,5497.0,-5.9035844802856445,89,9926.0
9520,0.35386398434638977,3.7880754470825195,69,5497.0,-2.6249685287475586,32,9926.0
9530,0.35372379422187805,3.5909268856048584,64,5497.0,-0.8030312061309814,144,9926.0
9540,0.3545067310333252,3.763566255569458,61,5497.0,5.989301681518555,66,9926.0
9550,0.3544235825538635,3.7305402755737305,45,5497.0,2.579862594604492,177,9926.0
9560,0.35427582263946533,0.6251712441444397,22,5497.0,1.7211655378341675,-127,9926.0
9570,0.3540779650211334,-0.4224455952644348,23,5497.0,5.363674640655518,92,9926.0
9580,0.35315102338790894,-2.1314213275909424,28,5497.0,3.6104753017425537,-120,9926.0
9590,0.35295772552490234,-1.7171145677566528,-2,5497.0,-1.5318711996078491,-80,9926.0
9600,0.3527747690677643,-2.349929094314575,-18,5497.0,-0.38381075859069824,-111,9926.0
9610,0.3525956869125366,-0.8202537894248962,-90,5497.0,-2.0599279403686523,6,9926.0
9620,0.3541713356971741,1.600699543952942,46,5497.0,-1.8852479457855225,-82,9926.0
9630,0.3540652394294739,3.7749617099761963,29,5497.0,-2.7963531017303467,55,9926.0
9640,0.3539281189441681,4.71976900100708,169,5497.0,-0.8717345595359802,-78,9926.0
9650,0.3538269102573395,6.191918849945068,50,5497.0,-2.0927765369415283,34,9926.0
9660,0.3537670373916626,5.450658798217773,175,5497.0,3.0789315700531006,33,9926.0
9670,0.3534112870693207,2.9430742263793945,41,5497.0,-4.6287713050842285,-96,9926.0
9680,0.3532959520816803,1.1070215702056885,124,5497.0,-0.8513444066047668,16,9926.0
9690,0.3531467020511627,1.686297059059143,-6,5497.0,-1.4979372024536133,6,9926.0
9700,0.352985143661499,0.04475900158286095,69,5497.0,-1.623848795890808,-92,9926.0
9710,0.3529050350189209,-2.5782413482666016,-94,5497.0,3.6279921531677246,80,9926.0
9720,0.3527775704860687,-1.1091755628585815,52,5497.0,1.8194478750228882,-29,9926.0
9730,0.3526611030101776,-1.1386374235153198,-58,5497.0,2.485399007797241,83,9926.0
9740,0.35256221890449524,3.7269577980041504,90,5497.0,1.5947673320770264,28,9926.0
9750,0.3524661958217621,1.7603051662445068,-92,5497.0,3.8337903022766113,27,9926.0
9760,0.3533835709095001,2.0801453590393066,114,5497.0,2.682687997817993,-21,9926.0
9770,0.35335126519203186,1.381584644317627,-74,5497.0,-0.8837255239486694,-96,9926.0
9780,0.35334712266921997,-1.0418184995651245,78,5497.0,-3.202317476272583,-116,9926.0
9790,0.3533305525779724,-1.0546214580535889,-64,5497.0,-3.4512405395507812,-46,9926.0
9800,0.3531576693058014,0.8410241007804871,125,5497.0,-0.9103529453277588,8,9926.0
9810,0.3530709445476532,1.6668332815170288,4,5497.0,-0.44362378120422363,34,9926.0
9820,0.35302481055259705,3.4608051776885986,177,5497.0,2.3025081157684326,46,9926.0
9830,0.35303202271461487,4.170330047607422,-28,5497.0,2.1933388710021973,99,9926.0
9840,0.3538041114807129,2.0477540493011475,66,5497.0,1.988906979560852,20,9926.0
9850,0.3538476228713989,-0.7449272274971008,-94,5497.0,1.7083094120025635,13,9926.0
9860,0.3538570702075958,-1.8600318431854248,-20,5497.0,1.6337546110153198,-57,9926.0
9870,0.35387131571769714,-0.2339007556438446,-115,5497.0,-4.038201332092285,2,9926.0
9880,0.3539203703403473,-1.0423897504806519,47,5497.0,0.39262503385543823,-9,9926.0
9890,0.3536314368247986,1.4682080745697021,-40,5497.0,-3.747417449951172,11,9926.0
9900,0.3537082076072693,0.6796754598617554,104,5497.0,0.31060290336608887,24,9926.0
9910,0.35378262400627136,0.9175707101821899,-4,5497.0,-0.6428630352020264,38,9926.0
9920,0.3538122773170471,-1.1570202112197876,79,5497.0,0.5943194031715393,15,9926.0
9930,0.3534887433052063,-0.08478082716464996,-11,5497.0,1.796059250831604,95,9926.0
9940,0.3534528613090515,-1.550861120223999,17,5497.0,5.131956577301025,-40,9926.0
9950,0.3534013628959656,-0.39328715205192566,-71,5497.0,5.21902322769165,137,9926.0
9960,0.35334131121635437,-0.03315550088882446,-51,5497.0,7.699525356292725,-9,9926.0
9970,0.3532940149307251,-1.3964875936508179,33,5497.0,7.666942596435547,214,9926.0
9980,0.3531157672405243,-2.746032238006592,-86,5497.0,4.323517322540283,66,9926.0
9990,0.3530087172985077,-3.2101998329162598,15,5497.0,-2.800870418548584,14,9926.0
10000,0.35287562012672424,-4.163527965545654,-151,5497.0,-5.499548435211182,-210,9926.0
10010,0.35275760293006897,-1.7502106428146362,12,5497.0,-6.294826030731201,-81,9926.0
10020,0.3527883291244507,-0.7171036005020142,-61,5497.0,-2.992269277572632,-202,9926.0
10030,0.35268649458885193,-2.0873706340789795,-19,5497.0,-7.59533166885376,-37,9926.0
10040,0.3525486886501312,-1.1855335235595703,-45,5497.0,-2.3352270126342773,-108,9926.0
10050,0.3523845076560974,-1.1871862411499023,28,5497.0,-2.7059712409973145,137,9926.0
10060,0.3518117666244507,-2.110710382461548,-43,5497.0,2.1385295391082764,46,9926.0
10070,0.3516829311847687,-2.276660442352295,24,5497.0,2.4084320068359375,159,9926.0
10080,0.35153692960739136,-0.910957396030426,-7,5497.0,6.629459381103516,-86,9926.0
10090,0.351380854845047,0.729992151260376,28,5497.0,6.333708763122559,87,9926.0
10100,0.3511980473995209,-1.022058129310608,50,5497.0,2.6251330375671387,-103,9926.0
10110,0.3505416214466095,-1.631914734840393,-67,5497.0,1.2497469186782837,-31,9926.0
10120,0.3503723740577698,-0.5923235416412354,28,5497.0,-1.1575194597244263,-93,9926.0
10130,0.3502572476863861,1.5012422800064087,-133,5497.0,-6.018106937408447,-76,9926.0
10140,0.35015830397605896,2.2707278728485107,96,5497.0,-5.007474422454834,-39,9926.0
10150,0.34884339570999146,6.567539215087891,43,5497.0,-5.594172477722168,-107,9926.0
10160,0.348611056804657,5.669276237487793,157,5497.0,-4.0934906005859375,58,9926.0
10170,0.3484014570713043,4.384597301483154,26,5497.0,0.3832566440105438,-70,9926.0
10180,0.3482079803943634,3.053313732147217,105,5497.0,-3.3783984184265137,-12,9926.0
10190,0.34809839725494385,0.9942201972007751,-43,5497.0,-0.5941491723060608,-22,9926.0
10200,0.3487415909767151,-2.941560745239258,-5,5497.0,1.334749460220337,137,9926.0
10210,0.3486250638961792,-2.5590388774871826,-79,5497.0,2.663776397705078,-26,9926.0
10220,0.34853395819664,-5.414910316467285,-53,5497.0,-1.7361022233963013,114,9926.0
10230,0.3485105335712433,-4.395681381225586,-99,5497.0,0.28656309843063354,-112,9926.0
10240,0.3483048975467682,-2.9811460971832275,-55,5497.0,-3.4137184619903564,-17,9926.0
10250,0.348279744386673,-0.8513672947883606,9,5497.0,-0.4403383135795593,-144,9926.0
10260,0.34827110171318054,2.3467774391174316,-52,5497.0,-2.360473155975342,8,9926.0
10270,0.34830185770988464,1.2644914388656616,73,5497.0,-1.7023729085922241,-20,9926.0
10280,0.34666192531585693,3.249476671218872,-13,5497.0,3.048020362854004,-20,9926.0
10290,0.34667354822158813,2.81719970703125,80,5497.0,1.5944455862045288,20,9926.0
10300,0.34668484330177307,3.2001986503601074,-38,5497.0,3.1318867206573486,29,9926.0
10310,0.34669405221939087,1.205105185508728,77,5497.0,3.1893112659454346,52,9926.0
10320,0.34676292538642883,3.033818483352661,-2,5497.0,1.0954846143722534,-99,9926.0
10330,0.3461568355560303,2.0562829971313477,82,5497.0,1.6662129163742065,146,9926.0
10340,0.3462250828742981,0.9178465604782104,-45,5497.0,-5.460396766662598,-47,9926.0
10350,0.3462640345096588,-0.8984386324882507,-15,5497.0,0.6731337308883667,148,9926.0
10360,0.3462623953819275,-3.6216259002685547,-95,5497.0,0.8178923726081848,-50,9926.0
10370,0.34777969121932983,-2.132340908050537,-40,5497.0,3.709721803665161,210,9926.0
10380,0.3479345142841339,-1.9463143348693848,-8,5497.0,3.2610878944396973,25,9926.0
10390,0.34807971119880676,-3.1717255115509033,-43,5497.0,5.258996486663818,189,9926.0
10400,0.34820204973220825,-2.7033822536468506,-2,5497.0,3.0334975719451904,48,9926.0
10410,0.3483302891254425,-1.9061912298202515,-48,5497.0,4.273873805999756,63,9926.0
10420,0.3483542501926422,-0.8896210193634033,75,5497.0,2.167787551879883,-11,9926.0
10430,0.3485341966152191,-0.7277839183807373,-117,5497.0,-2.645900249481201,9,9926.0
10440,0.348710834980011,0.8344356417655945,-1,5497.0,-2.803457498550415,-4,9926.0
10450,0.34885621070861816,2.0407521724700928,-45,5497.0,-2.736384391784668,-123,9926.0
10460,0.3502101004123688,2.1656765937805176,77,5497.0,-0.7135089635848999,-20,9926.0
10470,0.3504389822483063,3.601857900619507,-16,5497.0,-0.9815783500671387,-57,9926.0
10480,0.35070884227752686,1.140725016593933,36,5497.0,-1.2661943435668945,106,9926.0
10490,0.35101062059402466,-2.4915049076080322,-1,5497.0,3.45036244392395,-35,9926.0
10500,0.3503919243812561,-0.5142542719841003,-45,5497.0,1.1027276515960693,191,9926.0
10510,0.3505770266056061,-2.460312604904175,-51,5497.0,1.8005315065383911,-62,9926.0
10520,0.35077497363090515,-3.8702192306518555,-35,5497.0,3.865642547607422,184,9926.0
10530,0.35100266337394714,-3.074383497238159,-11,5497.0,5.512471675872803,18,9926.0
10540,0.35125014185905457,-2.7360188961029053,-33,5497.0,2.676973581314087,74,9926.0
10550,0.3510069251060486,-1.2459837198257446,-105,5497.0,7.972485065460205,-20,9926.0
10560,0.35126033425331116,-0.8573867082595825,12,5497.0,0.3118985593318939,16,9926.0
10570,0.3515375256538391,1.7504843473434448,38,5497.0,-0.8320220708847046,-76,9926.0
10580,0.3518073558807373,5.259066581726074,93,5497.0,-1.7826149463653564,198,9926.0
10590,0.35125935077667236,5.8371171951293945,85,5497.0,-3.7048892974853516,-63,9926.0
10600,0.3514241874217987,3.887526273727417,56,5497.0,-2.1743600368499756,111,9926.0
10610,0.3515629470348358,0.7126174569129944,43,5497.0,-1.3588757514953613,-80,9926.0
10620,0.3516658842563629,2.6198935508728027,-10,5497.0,-3.493034601211548,136,9926.0
10630,0.35176897048950195,-1.4886760711669922,10,5497.0,3.530446767807007,11,9926.0
10640,0.35275158286094666,-1.2391231060028076,-20,5497.0,0.36979228258132935,100,9926.0
10650,0.35282695293426514,-1.865813970565796,3,5497.0,4.357547760009766,-59,9926.0
10660,0.3528282046318054,-1.4168931245803833,-75,5497.0,4.324697017669678,112,9926.0
10670,0.3527437448501587,-0.547538697719574,-5,5497.0,1.9526845216751099,-18,9926.0
10680,0.3527560532093048,1.8785518407821655,-78,5497.0,2.2610020637512207,74,9926.0
10690,0.3525823950767517,3.5188162326812744,55,5497.0,-3.6053929328918457,-34,9926.0
10700,0.3524118959903717,2.711782455444336,-24,5497.0,1.8060423135757446,83,9926.0
10710,0.3522067964076996,3.471791982650757,177,5497.0,-1.6763585805892944,-6,9926.0
10720,0.3542451560497284,4.683514595031738,-13,5497.0,-1.9350541830062866,19,9926.0
10730,0.35405564308166504,3.0763025283813477,128,5497.0,1.200495958328247,54,9926.0
10740,0.35385432839393616,2.948413133621216,9,5497.0,-0.6703790426254272,8,9926.0
10750,0.3537036180496216,1.5654255151748657,125,5497.0,-1.0832124948501587,-17,9926.0
10760,0.35356226563453674,-0.677061140537262,-49,5497.0,-1.2894771099090576,-46,9926.0
10770,0.35237741470336914,-2.7889928817749023,4,5497.0,0.750985860824585,109,9926.0
10780,0.35208743810653687,-5.468984127044678,-143,5497.0,0.9644113779067993,-12,9926.0
10790,0.3518013656139374,-4.363647937774658,-68,5497.0,2.9167983531951904,170,9926.0
10800,0.3515903353691101,-4.561923027038574,-100,5497.0,3.5822713375091553,-39,9926.0
10810,0.35162171721458435,-0.2397579550743103,-3,5497.0,2.2243235111236572,97,9926.0
10820,0.35140663385391235,-0.8634628057479858,3,5497.0,3.6671338081359863,-79,9926.0
10830,0.3511936068534851,0.5535086393356323,6,5497.0,2.781754493713379,95,9926.0
10840,0.3509771525859833,0.5748462677001953,63,5497.0,1.180771827697754,-73,9926.0
10850,0.35075485706329346,1.3304862976074219,-96,5497.0,4.120471477508545,85,9926.0
10860,0.3502245545387268,0.3779774308204651,21,5497.0,3.792022705078125,69,9926.0
10870,0.3499952256679535,0.0524081215262413,-93,5497.0,-2.4628798961639404,-54,9926.0
10880,0.349800169467926,-1.0983035564422607,-22,5497.0,-2.8122596740722656,13,9926.0
10890,0.3496473729610443,-0.5519798994064331,-67,5497.0,-1.242276668548584,-92,9926.0
10900,0.3508531153202057,-0.5206664800643921,4,5497.0,-2.929090738296509,52,9926.0
10910,0.3508472740650177,-0.49333396553993225,-45,5497.0,-2.662357807159424,-119,9926.0
10920,0.35084977746009827,-0.38150760531425476,-31,5497.0,-4.907230377197266,134,9926.0
10930,0.3508676588535309,1.024159550666809,30,5497.0,-3.2823686599731445,-74,9926.0
10940,0.3513456881046295,-0.432678759098053,-80,5497.0,-1.5989189147949219,107,9926.0
10950,0.35145097970962524,-0.40524426102638245,11,5497.0,-6.686542510986328,-108,9926.0
10960,0.3515723645687103,-0.4979082942008972,-96,5497.0,-0.5613569021224976,-22,9926.0
10970,0.3517051935195923,-3.052182674407959,94,5497.0,-1.1701215505599976,-98,9926.0
10980,0.3518446683883667,-3.9283602237701416,-99,5497.0,1.1509274244308472,27,9926.0
10990,0.35083818435668945,-3.971672296524048,59,5497.0,0.6247438788414001,-3,9926.0
11000,0.3509701192378998,-2.5399179458618164,-89,5497.0,-1.9445805549621582,4,9926.0
11010,0.3510878384113312,-2.1036674976348877,147,5497.0,-0.22908897697925568,-41,9926.0
11020,0.3511869013309479,-0.8422350883483887,16,5497.0,-2.797947645187378,-112,9926.0
11030,0.3503290116786957,-0.8009951710700989,93,5497.0,-2.1428635120391846,-55,9926.0
11040,0.35028648376464844,-0.6776405572891235,-88,5497.0,-3.1099026203155518,-87,9926.0
11050,0.3502565920352936,-1.5818796157836914,23,5497.0,-0.19665022194385529,-41,9926.0
11060,0.3502788543701172,-3.0423247814178467,-131,5497.0,-0.5944708585739136,-33,9926.0
11070,0.35033807158470154,-1.4325309991836548,44,5497.0,-2.7222723960876465,-52,9926.0
11080,0.3506946563720703,2.0237529277801514,-102,5497.0,-1.4132862091064453,-7,9926.0
11090,0.3508056104183197,1.4715694189071655,97,5497.0,-2.9185128211975098,-38,9926.0
11100,0.35092228651046753,0.43807172775268555,-72,5497.0,0.07162991166114807,73,9926.0
11110,0.3510477840900421,-1.1040507555007935,5,5497.0,4.625019073486328,42,9926.0
11120,0.35196301341056824,0.6337653994560242,14,5497.0,0.2846231460571289,40,9926.0
11130,0.3521687090396881,-0.170749232172966,-32,5497.0,1.629490852355957,0,9926.0
11140,0.35237210988998413,0.36525049805641174,7,5497.0,1.5452042818069458,79,9926.0
11150,0.3525174856185913,1.7842183113098145,-20,5497.0,-0.331740140914917,-98,9926.0
11160,0.35197392106056213,0.9169114828109741,-23,5497.0,-3.0358872413635254,174,9926.0
11170,0.35202842950820923,0.1389375478029251,56,5497.0,-6.856794834136963,-115,9926.0
11180,0.3520856201648712,-1.6466437578201294,-14,5497.0,-2.5769293308258057,90,9926.0
11190,0.35211455821990967,-1.4926555156707764,-50,5497.0,-4.218786716461182,-18,9926.0
11200,0.35211291909217834,-2.567615270614624,-29,5497.0,0.6309710144996643,177,9926.0
11210,0.35203760862350464,-3.9279072284698486,-89,5497.0,4.066243648529053,-13,9926.0
11220,0.35197392106056213,-2.5057461261749268,-33,5497.0,0.6365550756454468,41,9926.0
11230,0.3519134521484375,-2.847926616668701,-64,5497.0,-0.6202044486999512,-160,9926.0
11240,0.3518524765968323,-0.679162323474884,-48,5497.0,1.0023713111877441,135,9926.0
11250,0.3518739640712738,4.008856296539307,106,5497.0,0.370866984128952,-7,9926.0
11260,0.35185810923576355,1.653856635093689,-1,5497.0,-1.9293791055679321,98,9926.0
11270,0.35182443261146545,-0.31600427627563477,93,5497.0,-4.016008377075195,-184,9926.0
11280,0.35176998376846313,1.0799589157104492,-10,5497.0,-7.153834819793701,-49,9926.0
11290,0.3517047166824341,0.0638054758310318,33,5497.0,-2.8826088905334473,-92,9926.0
11300,0.3506124019622803,-0.34753483533859253,-61,5497.0,-2.7478017807006836,36,9926.0
11310,0.3505306541919708,1.1626167297363281,56,5497.0,-0.08823726326227188,-89,9926.0
11320,0.35044464468955994,2.2592551708221436,-27,5497.0,-0.23326295614242554,89,9926.0
11330,0.35036221146583557,2.212455987930298,72,5497.0,4.118147373199463,-14,9926.0
11340,0.35012444853782654,-0.056846074759960175,-62,5497.0,-0.18392014503479004,52,9926.0
11350,0.35001686215400696,-4.0463128089904785,73,5497.0,3.962029218673706,88,9926.0
11360,0.3499537706375122,-3.0099730491638184,-51,5497.0,1.4954686164855957,50,9926.0
11370,0.34985700249671936,0.8191749453544617,131,5497.0,-1.0798265933990479,26,9926.0
11380,0.34907692670822144,2.6383869647979736,7,5497.0,-1.8766891956329346,-43,9926.0
11390,0.3489498198032379,3.048865795135498,93,5497.0,-0.5450432896614075,69,9926.0
11400,0.34883248805999756,5.9918131828308105,9,5497.0,1.0886778831481934,-120,9926.0
11410,0.34874799847602844,2.6642472743988037,45,5497.0,4.810792446136475,128,9926.0
11420,0.348681777715683,1.9293677806854248,35,5497.0,5.369193077087402,-54,9926.0
11430,0.34671950340270996,-0.08586245775222778,-79,5497.0,5.23429536819458,143,9926.0
11440,0.3465149402618408,-0.8390725255012512,-20,5497.0,4.286871910095215,37,9926.0
11450,0.3463156223297119,-3.238011598587036,-208,5497.0,5.456073760986328,87,9926.0
11460,0.34612688422203064,-4.472249984741211,-28,5497.0,0.5276600122451782,95,9926.0
11470,0.3467426896095276,-3.6660497188568115,-112,5497.0,1.2111881971359253,-148,9926.0
11480,0.3465784788131714,-1.7993601560592651,-79,5497.0,3.229637861251831,297,9926.0
11490,0.3464556038379669,-0.8380522727966309,-22,5497.0,0.8506212830543518,-5,9926.0
11500,0.34639686346054077,0.3941163718700409,-25,5497.0,-3.865119695663452,43,9926.0
11510,0.34636715054512024,1.5487748384475708,126,5497.0,-4.962714672088623,-136,9926.0
11520,0.3462126553058624,-0.15787523984909058,-19,5497.0,-1.923802375793457,-40,9926.0
11530,0.34624868631362915,2.9809317588806152,41,5497.0,2.676936626434326,156,9926.0
11540,0.3463187515735626,-0.07392914593219757,3,5497.0,-2.220869779586792,10,9926.0
11550,0.34639641642570496,1.7092994451522827,-25,5497.0,2.1558749675750732,169,9926.0
11560,0.34551650285720825,0.37660881876945496,89,5497.0,5.504402160644531,109,9926.0
11570,0.34556466341018677,1.4194425344467163,-58,5497.0,3.208209276199341,51,9926.0
11580,0.34560468792915344,0.7018721103668213,17,5497.0,5.924769401550293,172,9926.0
11590,0.34567776322364807,0.2842622399330139,18,5497.0,6.59063720703125,-110,9926.0
11600,0.3454629182815552,-2.120305299758911,-36,5497.0,-0.44479721784591675,-81,9926.0
11610,0.34556570649147034,-1.5115267038345337,8,5497.0,2.6574361324310303,36,9926.0
11620,0.34568968415260315,2.3303966522216797,-87,5497.0,1.6067956686019897,-50,9926.0
11630,0.34581324458122253,4.5215678215026855,37,5497.0,1.4473143815994263,141,9926.0
11640,0.3459368944168091,1.947297215461731,-3,5497.0,1.1121809482574463,-55,9926.0
11650,0.3457053303718567,1.5350195169448853,-8,5497.0,-0.1648966372013092,117,9926.0
11660,0.3458714187145233,2.062751531600952,60,5497.0,1.4021445512771606,57,9926.0
11670,0.34606289863586426,4.354147911071777,-20,5497.0,1.3069050312042236,134,9926.0
11680,0.3462710976600647,4.069127559661865,153,5497.0,2.4286386966705322,77,9926.0
11690,0.3459196090698242,1.7024508714675903,-13,5497.0,1.616529107093811,25,9926.0
11700,0.3461870849132538,-0.23465563356876373,-3,5497.0,0.6460596323013306,-38,9926.0
11710,0.34646183252334595,-1.2776650190353394,-42,5497.0,1.2041385173797607,11,9926.0
11720,0.3467286229133606,-0.8196226358413696,-46,5497.0,-3.3072335720062256,-68,9926.0
11730,0.3469943404197693,-1.8959465026855469,-88,5497.0,-1.1318639516830444,-112,9926.0
11740,0.34806275367736816,-1.146477222442627,7,5497.0,-1.2673674821853638,72,9926.0
11750,0.34837624430656433,0.23692107200622559,-20,5497.0,-3.6852853298187256,-186,9926.0
11760,0.3486814498901367,1.1080870628356934,-3,5497.0,-3.1343228816986084,43,9926.0
11770,0.34898972511291504,0.23733000457286835,19,5497.0,0.8704143166542053,-64,9926.0
11780,0.35009637475013733,0.24208709597587585,5,5497.0,3.452662706375122,170,9926.0
11790,0.35047033429145813,1.2697737216949463,84,5497.0,2.205781936645508,17,9926.0
11800,0.35083797574043274,1.7464921474456787,-20,5497.0,0.04123133048415184,80,9926.0
11810,0.3511783182621002,1.2298264503479004,114,5497.0,-0.6554432511329651,-32,9926.0
11820,0.35169506072998047,1.1767935752868652,29,5497.0,0.18353596329689026,-14,9926.0
11830,0.3520355224609375,2.0147082805633545,79,5497.0,-3.2615578174591064,44,9926.0
11840,0.3523505628108978,2.8910322189331055,-28,5497.0,-4.421550750732422,-89,9926.0
11850,0.35265275835990906,4.8568525314331055,154,5497.0,-7.512073993682861,8,9926.0
11860,0.3529157340526581,4.378246784210205,-23,5497.0,-4.0368123054504395,-145,9926.0
11870,0.3531728982925415,4.363997936248779,108,5497.0,-4.937270164489746,-16,9926.0
11880,0.3533652424812317,6.476444244384766,81,5497.0,-4.52293586730957,-259,9926.0
11890,0.3535556197166443,6.389100074768066,123,5497.0,-2.4180045127868652,-9,9926.0
11900,0.3537549078464508,2.9854331016540527,-5,5497.0,3.5567896366119385,-34,9926.0
11910,0.3548389673233032,0.21922412514686584,45,5497.0,4.756539821624756,175,9926.0
11920,0.35505783557891846,-2.339883327484131,-81,5497.0,8.213401794433594,8,9926.0
11930,0.3552490770816803,-4.578382968902588,-16,5497.0,3.8022918701171875,147,9926.0
11940,0.355398952960968,-4.914916038513184,-108,5497.0,3.247063398361206,6,9926.0
11950,0.35557010769844055,-3.511397361755371,-28,5497.0,0.47565725445747375,149,9926.0
11960,0.35508543252944946,-4.286499977111816,52,5497.0,-1.7007673978805542,-68,9926.0
11970,0.3551517724990845,-0.324577271938324,38,5497.0,0.217178076505661,84,9926.0
11980,0.3551645874977112,4.54606819152832,143,5497.0,-5.233706951141357,-200,9926.0
11990,0.35512661933898926,4.917246341705322,29,5497.0,-2.5006301403045654,-45,9926.0
12000,0.3534679710865021,3.2070889472961426,103,5497.0,-3.658021926879883,-179,9926.0
12010,0.35333335399627686,2.4342057704925537,-57,5497.0,-0.818804919719696,58,9926.0
12020,0.35316190123558044,-1.2803689241409302,40,5497.0,3.0817153453826904,16,9926.0
12030,0.3529638648033142,0.9945907592773438,-15,5497.0,0.1113276407122612,102,9926.0
12040,0.35323143005371094,-1.9786968231201172,43,5497.0,0.641650378704071,-5,9926.0
12050,0.3530019223690033,-1.356115698814392,-77,5497.0,2.6457979679107666,222,9926.0
12060,0.35277295112609863,-5.355766296386719,28,5497.0,7.197119235992432,93,9926.0
12070,0.3525483310222626,-2.24723219871521,-57,5497.0,3.4941246509552,144,9926.0
12080,0.3523319661617279,-1.716151475906372,29,5497.0,3.055781126022339,32,9926.0
12090,0.3507762551307678,0.1637374758720398,-70,5497.0,4.769237041473389,65,9926.0
12100,0.35046759247779846,2.3859922885894775,109,5497.0,-0.4644014537334442,-24,9926.0
12110,0.3501327335834503,5.61412239074707,29,5497.0,-2.9074251651763916,-74,9926.0
12120,0.34977978467941284,5.015115261077881,107,5497.0,-2.192948579788208,-26,9926.0
12130,0.3494635820388794,4.115370273590088,-16,5497.0,0.5568752288818359,-11,9926.0
12140,0.34902846813201904,3.626527786254883,76,5497.0,-0.3042912781238556,112,9926.0
12150,0.348572701215744,3.00950288772583,-13,5497.0,1.3701962232589722,-44,9926.0
12160,0.3481253683567047,-1.535666584968567,-22,5497.0,1.9085851907730103,171,9926.0
12170,0.34770816564559937,-1.6248778104782104,-53,5497.0,0.03904891759157181,-32,9926.0
12180,0.3474287986755371,-3.0073165893554688,-51,5497.0,-1.544262170791626,129,9926.0
12190,0.34707674384117126,-3.485095739364624,-49,5497.0,-0.9151986837387085,-77,9926.0
12200,0.34672585129737854,-5.565831661224365,-109,5497.0,-0.9965104460716248,76,9926.0
12210,0.3463844358921051,-6.31516170501709,0,5497.0,0.04869994893670082,-92,9926.0
12220,0.34714457392692566,-2.9510140419006348,-106,5497.0,-1.031818151473999,-31,9926.0
12230,0.34693846106529236,-3.065014600753784,52,5497.0,-0.05757974833250046,45,9926.0
12240,0.34678006172180176,-0.46502336859703064,15,5497.0,-0.5531352758407593,-162,9926.0
12250,0.3466547727584839,3.8155770301818848,33,5497.0,-3.977400779724121,62,9926.0
12260,0.34553202986717224,2.4854347705841064,19,5497.0,-3.798588275909424,-91,9926.0
12270,0.34543725848197937,0.24234580993652344,-38,5497.0,-3.9900600910186768,-8,9926.0
12280,0.3453674912452698,-5.436372756958008,1,5497.0,-0.41801920533180237,-106,9926.0
12290,0.34533363580703735,-4.879222393035889,-138,5497.0,-2.1974265575408936,-98,9926.0
12300,0.3453678786754608,-3.540515184402466,-125,5497.0,-4.824856281280518,149,9926.0
12310,0.34570905566215515,-4.009963035583496,-103,5497.0,-7.1094794273376465,-65,9926.0
12320,0.3458596467971802,-3.4373223781585693,-42,5497.0,2.3191616535186768,79,9926.0
12330,0.346070796251297,-2.91969895362854,-95,5497.0,5.286116600036621,104,9926.0
12340,0.3463525176048279,-1.7929620742797852,57,5497.0,4.985083103179932,152,9926.0
12350,0.3477638363838196,-0.039859842509031296,-37,5497.0,5.313387393951416,-8,9926.0
12360,0.34822598099708557,-1.1586925983428955,6,5497.0,5.939314842224121,212,9926.0
12370,0.3487127125263214,-1.4428948163986206,-42,5497.0,4.4288010597229,-9,9926.0
12380,0.34918850660324097,-1.3861278295516968,-82,5497.0,2.167705774307251,160,9926.0
12390,0.34967002272605896,-4.829629898071289,-23,5497.0,0.4776720404624939,47,9926.0
12400,0.35155633091926575,-3.835932493209839,-102,5497.0,-2.8170087337493896,-16,9926.0
12410,0.3521568477153778,-3.1965057849884033,31,5497.0,-5.561746120452881,-146,9926.0
12420,0.35277479887008667,-2.221306324005127,-67,5497.0,-5.744865417480469,-73,9926.0
12430,0.3533949851989746,-1.689883828163147,65,5497.0,-1.7247569561004639,-9,9926.0
12440,0.35307127237319946,0.3087162375450134,6,5497.0,-3.5785374641418457,-39,9926.0
12450,0.35367560386657715,-0.03777050971984863,125,5497.0,2.642942428588867,-15,9926.0
12460,0.3542787432670593,2.838298797607422,-34,5497.0,3.9990081787109375,-26,9926.0
12470,0.354841023683548,1.4665038585662842,108,5497.0,-0.5983989238739014,-51,9926.0
12480,0.3544187545776367,0.28422701358795166,-30,5497.0,4.060579776763916,-20,9926.0
12490,0.35481908917427063,2.1878602504730225,136,5497.0,0.958037257194519,-120,9926.0
12500,0.35515111684799194,2.4254696369171143,-29,5497.0,2.097423791885376,-7,9926.0
12510,0.3554701805114746,1.4880379438400269,58,5497.0,-0.3512532711029053,-163,9926.0
12520,0.35579919815063477,1.8420401811599731,-34,5497.0,-2.9928019046783447,64,9926.0
12530,0.35500895977020264,-0.29488757252693176,-32,5497.0,-3.1799025535583496,-144,9926.0
12540,0.3552066683769226,-1.5402470827102661,-3,5497.0,-7.321481227874756,8,9926.0
12550,0.35534369945526123,-1.1050424575805664,-85,5497.0,-2.897505521774292,-63,9926.0
12560,0.3554157614707947,-3.1523847579956055,15,5497.0,-3.252537965774536,-10,9926.0
12570,0.35523897409439087,-3.4325551986694336,-87,5497.0,-1.866486668586731,30,9926.0
12580,0.35513490438461304,-3.5070114135742188,47,5497.0,-0.2685225009918213,-13,9926.0
12590,0.35498738288879395,-6.555156230926514,-116,5497.0,0.22967486083507538,94,9926.0
12600,0.3548153042793274,-4.865939140319824,22,5497.0,3.898418664932251,-52,9926.0
12610,0.35464808344841003,-4.862897872924805,-40,5497.0,1.3148330450057983,82,9926.0
12620,0.3541826903820038,-3.6096696853637695,-7,5497.0,6.726033687591553,-84,9926.0
12630,0.3539285659790039,-2.4629201889038086,-79,5497.0,5.9315032958984375,73,9926.0
12640,0.353633314371109,-3.92110013961792,-55,5497.0,-1.2723912000656128,-149,9926.0
12650,0.35326284170150757,-0.5854727029800415,-110,5497.0,-3.092310905456543,-12,9926.0
12660,0.3535667061805725,0.04972023516893387,-21,5497.0,-6.364348888397217,-150,9926.0
12670,0.35318318009376526,-1.7022064924240112,-65,5497.0,-4.907003402709961,-45,9926.0
12680,0.35277026891708374,-1.6728957891464233,-10,5497.0,-3.101902961730957,-130,9926.0
12690,0.3523618280887604,-0.6215624213218689,-50,5497.0,-5.58695125579834,6,9926.0
12700,0.35234373807907104,0.36835113167762756,67,5497.0,-1.343945860862732,19,9926.0
12710,0.3519231677055359,1.4572906494140625,-39,5497.0,-0.5098194479942322,126,9926.0
12720,0.3514815866947174,-0.30706778168678284,93,5497.0,5.677508354187012,58,9926.0
12730,0.35103848576545715,2.5337252616882324,-34,5497.0,6.764859199523926,169,9926.0
12740,0.3506109118461609,0.832129716873169,83,5497.0,5.702789783477783,127,9926.0
12750,0.34950944781303406,3.698291778564453,-10,5497.0,7.925837993621826,142,9926.0
12760,0.3490143120288849,1.5656825304031372,127,5497.0,2.3800528049468994,54,9926.0
12770,0.34854093194007874,0.977293848991394,-18,5497.0,0.4724380671977997,-44,9926.0
12780,0.3481203019618988,1.6816142797470093,63,5497.0,1.1871957778930664,112,9926.0
12790,0.3476910889148712,4.7025556564331055,98,5497.0,-2.083275556564331,-121,9926.0
12800,0.347326397895813,5.847245216369629,94,5497.0,-0.7056826949119568,27,9926.0
12810,0.3469898998737335,7.3739399909973145,202,5497.0,-0.8879022598266602,-35,9926.0
12820,0.34668615460395813,6.88062047958374,18,5497.0,1.4209126234054565,54,9926.0
12830,0.34644871950149536,4.850115776062012,181,5497.0,3.9138317108154297,39,9926.0
12840,0.34644320607185364,3.645632266998291,16,5497.0,2.491952657699585,-8,9926.0
12850,0.34621503949165344,2.0164389610290527,78,5497.0,5.282128810882568,133,9926.0
12860,0.34599217772483826,2.3936240673065186,39,5497.0,3.0815839767456055,-121,9926.0
12870,0.3458402454853058,1.511314034461975,10,5497.0,0.41164299845695496,36,9926.0
12880,0.34534358978271484,1.3599618673324585,42,5497.0,-1.6912951469421387,-148,9926.0
12890,0.3451724648475647,-0.3647148311138153,-119,5497.0,1.7487069368362427,26,9926.0
12900,0.3450722098350525,-1.2926743030548096,16,5497.0,-0.1150260716676712,-25,9926.0
12910,0.34498628973960876,-0.7117611169815063,-149,5497.0,0.9697902798652649,136,9926.0
12920,0.34493786096572876,-1.5477855205535889,18,5497.0,3.9001777172088623,-34,9926.0
12930,0.34406864643096924,-3.184142589569092,-80,5497.0,2.2470808029174805,83,9926.0
12940,0.3440229594707489,-1.699265718460083,24,5497.0,0.46438929438591003,2,9926.0
12950,0.34399572014808655,-1.755781650543213,-97,5497.0,0.0882352814078331,-14,9926.0
12960,0.34401631355285645,-0.2330126017332077,62,5497.0,1.0912508964538574,14,9926.0
12970,0.3449266254901886,-1.3926831483840942,-37,5497.0,3.20747971534729,-46,9926.0
12980,0.34510642290115356,-1.8753987550735474,37,5497.0,1.9742857217788696,15,9926.0
12990,0.3452754020690918,-2.526933193206787,-27,5497.0,2.792017936706543,-177,9926.0
13000,0.34547409415245056,-0.07287290692329407,17,5497.0,-5.534980773925781,-24,9926.0
13010,0.345144659280777,-0.7037103176116943,38,5497.0,-2.8087899684906006,-161,9926.0
13020,0.34536856412887573,1.621482014656067,-19,5497.0,-3.5270068645477295,-29,9926.0
13030,0.34558913111686707,2.45991849899292,120,5497.0,-3.4603917598724365,-73,9926.0
13040,0.3458118438720703,1.6303468942642212,11,5497.0,-1.700600266456604,-34,9926.0
13050,0.34606844186782837,3.8233609199523926,181,5497.0,-2.7273952960968018,-66,9926.0
13060,0.3471461832523346,4.2583513259887695,58,5497.0,-0.9865593314170837,-35,9926.0
13070,0.3474646806716919,3.1135435104370117,122,5497.0,-1.3407998085021973,62,9926.0
13080,0.3477260172367096,1.1141579151153564,-48,5497.0,2.288085699081421,28,9926.0
13090,0.3479529023170471,1.1833966970443726,17,5497.0,-0.5937111377716064,61,9926.0
13100,0.34819677472114563,-2.1883444786071777,-109,5497.0,3.0441110134124756,-3,9926.0
13110,0.34845826029777527,-2.465822219848633,47,5497.0,0.487642765045166,68,9926.0
13120,0.3487548232078552,-3.503201484680176,-93,5497.0,2.1571316719055176,-31,9926.0
13130,0.3490217924118042,-1.4713793992996216,-24,5497.0,-2.3369696140289307,22,9926.0
13140,0.34884771704673767,-1.3131216764450073,-89,5497.0,-3.8744924068450928,-152,9926.0
13150,0.34901148080825806,0.33370092511177063,41,5497.0,-6.601267337799072,-63,9926.0
13160,0.34900587797164917,-0.26723888516426086,-41,5497.0,-5.913066864013672,-191,9926.0
13170,0.349327027797699,-0.6467984318733215,40,5497.0,-4.987546443939209,-96,9926.0
13180,0.34933409094810486,-1.349471092224121,-99,5497.0,-2.8128719329833984,-131,9926.0
13190,0.349872350692749,-1.069379448890686,81,5497.0,2.2595560550689697,42,9926.0
13200,0.34987935423851013,-0.49571606516838074,-88,5497.0,2.817516803741455,117,9926.0
13210,0.35015952587127686,-0.9546961188316345,60,5497.0,4.235991477966309,94,9926.0
13220,0.3501664698123932,1.2803548574447632,-50,5497.0,6.966556549072266,142,9926.0
13230,0.35053348541259766,-0.17866557836532593,78,5497.0,3.025247812271118,27,9926.0
13240,0.35063496232032776,-1.387453556060791,-101,5497.0,1.8213963508605957,67,9926.0
13250,0.3507722020149231,-1.5656999349594116,65,5497.0,-3.588036060333252,-78,9926.0
13260,0.35090407729148865,-3.4488234519958496,-121,5497.0,-4.638866424560547,-2,9926.0
13270,0.3511170446872711,-3.1389999389648438,30,5497.0,-5.410916805267334,-178,9926.0
13280,0.3503490388393402,-4.436863422393799,-103,5497.0,-0.014790911227464676,28,9926.0
13290,0.3503482937812805,-3.539585828781128,-7,5497.0,-0.6541556715965271,-5,9926.0
13300,0.35032200813293457,-3.8774948120117188,-103,5497.0,1.509467363357544,90,9926.0
13310,0.350321501493454,-4.671607494354248,-24,5497.0,6.092235088348389,65,9926.0
13320,0.35021963715553284,-2.739337921142578,-127,5497.0,6.036485195159912,183,9926.0
13330,0.35022416710853577,-5.573976993560791,-101,5497.0,8.288420677185059,53,9926.0
13340,0.3502064049243927,-2.7399845123291016,-155,5497.0,3.5925192832946777,130,9926.0
13350,0.35020217299461365,-1.168365240097046,48,5497.0,-2.293327808380127,-7,9926.0
13360,0.34855717420578003,1.6681129932403564,-70,5497.0,2.0357115268707275,25,9926.0
13370,0.34837961196899414,4.709173202514648,117,5497.0,0.6712825894355774,-56,9926.0
13380,0.34820911288261414,6.310197353363037,-3,5497.0,0.22480881214141846,39,9926.0
13390,0.34805533289909363,4.246872901916504,131,5497.0,1.107120394706726,-13,9926.0
13400,0.34789958596229553,4.829691410064697,-9,5497.0,4.72169828414917,49,9926.0
13410,0.3478297293186188,2.530796527862549,83,5497.0,5.115880966186523,179,9926.0
13420,0.3476523756980896,0.9130478501319885,-44,5497.0,5.804967880249023,-2,9926.0
13430,0.34754881262779236,-1.1801267862319946,-9,5497.0,3.2113561630249023,155,9926.0
13440,0.3474535644054413,-1.1052968502044678,-87,5497.0,4.507881164550781,-4,9926.0
13450,0.34722191095352173,-3.285270929336548,-12,5497.0,-0.21626082062721252,64,9926.0
13460,0.3471139371395111,-1.3153671026229858,-2,5497.0,1.499894380569458,-121,9926.0
13470,0.3470230996608734,-1.7800452709197998,-38,5497.0,-1.340264916419983,-1,9926.0
13480,0.34696078300476074,-0.5093638896942139,61,5497.0,0.25309261679649353,-42,9926.0
13490,0.3469167649745941,-0.5720503330230713,-73,5497.0,2.681788444519043,-23,9926.0
13500,0.34813690185546875,-0.2231152057647705,88,5497.0,0.7518368363380432,35,9926.0
13510,0.3481801450252533,-0.4425429105758667,-43,5497.0,0.6864011883735657,73,9926.0
13520,0.34824299812316895,-1.1097965240478516,48,5497.0,-0.5058895349502563,-54,9926.0
13530,0.34836074709892273,1.8890113830566406,-57,5497.0,-2.006875991821289,22,9926.0
13540,0.3471522629261017,2.1323440074920654,95,5497.0,-1.7664843797683716,14,9926.0
13550,0.347208172082901,1.7562477588653564,-62,5497.0,-1.9937660694122314,-108,9926.0
13560,0.3472220301628113,0.8048384785652161,45,5497.0,-0.4367670714855194,43,9926.0
13570,0.34728294610977173,1.4959832429885864,23,5497.0,-6.187958717346191,-197,9926.0
13580,0.3472425937652588,5.973636150360107,100,5497.0,-1.692179560661316,91,9926.0
13590,0.34733861684799194,4.171510219573975,129,5497.0,-0.0634470283985138,-122,9926.0
13600,0.3474443256855011,6.260732173919678,94,5497.0,0.9355899095535278,157,9926.0
13610,0.34755396842956543,4.507760047912598,126,5497.0,2.072906017303467,-57,9926.0
13620,0.3477243483066559,4.637582778930664,-2,5497.0,-1.1200116872787476,138,9926.0
13630,0.3479521870613098,0.7649668455123901,136,5497.0,0.021985437721014023,-7,9926.0
13640,0.3481641113758087,-0.8585510849952698,-69,5497.0,3.5896363258361816,75,9926.0
13650,0.34836167097091675,-2.6334705352783203,52,5497.0,0.6665367484092712,53,9926.0
13660,0.34859126806259155,-2.1116836071014404,-60,5497.0,0.679553747177124,-6,9926.0
13670,0.35004010796546936,1.062730312347412,40,5497.0,-0.7821140885353088,100,9926.0
13680,0.3503984212875366,3.4761319160461426,42,5497.0,-1.028522253036499,-147,9926.0
13690,0.3507733941078186,4.152364730834961,86,5497.0,-3.9936840534210205,61,9926.0
13700,0.3511618375778198,2.7267091274261475,138,5497.0,-2.871725082397461,-94,9926.0
13710,0.3515634834766388,5.5294599533081055,27,5497.0,-5.723507881164551,-27,9926.0
13720,0.35202693939208984,5.518998146057129,181,5497.0,-6.9935126304626465,-174,9926.0
13730,0.3525084853172302,4.297065734863281,7,5497.0,-8.259637832641602,-143,9926.0
13740,0.3529645502567291,1.6019669771194458,100,5497.0,-5.5519633293151855,-90,9926.0
13750,0.3533174395561218,1.509466528892517,-64,5497.0,-4.762699604034424,-129,9926.0
13760,0.35342225432395935,-2.025205612182617,35,5497.0,-6.123339653015137,-113,9926.0
13770,0.3537764847278595,-6.243625640869141,-167,5497.0,-0.38011252880096436,-52,9926.0
13780,0.35408636927604675,-6.8309760093688965,-55,5497.0,-0.604729175567627,32,9926.0
13790,0.35435056686401367,-6.315885543823242,-186,5497.0,2.111309766769409,58,9926.0
13800,0.3535941243171692,-7.248246669769287,-19,5497.0,6.00445556640625,92,9926.0
13810,0.35366368293762207,-3.117781639099121,-113,5497.0,9.036421775817871,71,9926.0
13820,0.3537696599960327,-0.8813590407371521,85,5497.0,6.776819705963135,173,9926.0
13830,0.35384321212768555,0.38555145263671875,-22,5497.0,6.395927906036377,66,9926.0
13840,0.3538821041584015,3.689286708831787,117,5497.0,0.4425276517868042,149,9926.0
13850,0.3531459867954254,5.141807556152344,70,5497.0,-1.1980371475219727,-144,9926.0
13860,0.3530561625957489,3.267106771469116,74,5497.0,-3.2628366947174072,113,9926.0
13870,0.35292357206344604,1.1154955625534058,-20,5497.0,-2.1346817016601562,-224,9926.0
13880,0.35274919867515564,0.29066556692123413,12,5497.0,-10.066238403320312,-99,9926.0
13890,0.3519556522369385,-0.7832704186439514,23,5497.0,-6.399278163909912,-168,9926.0
13900,0.35165244340896606,-1.6918269395828247,-35,5497.0,-4.191038131713867,88,9926.0
13910,0.35133418440818787,-2.542288064956665,-63,5497.0,-0.8831982016563416,-39,9926.0
13920,0.35094091296195984,-2.206894636154175,-71,5497.0,2.809755802154541,170,9926.0
13930,0.350546658039093,-0.3149300813674927,33,5497.0,4.433421611785889,-18,9926.0
13940,0.3505174517631531,2.9023876190185547,8,5497.0,3.0954604148864746,139,9926.0
13950,0.3501931130886078,-0.6475501656532288,10,5497.0,5.4395432472229,16,9926.0
13960,0.3498547673225403,0.642332911491394,-88,5497.0,0.06132346764206886,-4,9926.0
13970,0.3495043218135834,-1.343461513519287,21,5497.0,0.5894495248794556,-77,9926.0
13980,0.3498693108558655,-1.2845181226730347,-75,5497.0,-3.8977603912353516,-90,9926.0
13990,0.3495878577232361,-2.4746508598327637,40,5497.0,-6.726943016052246,-159,9926.0
14000,0.3493140935897827,-1.3471299409866333,-25,5497.0,-8.426833152770996,-240,9926.0
14010,0.34908241033554077,0.7677863836288452,85,5497.0,-5.289749622344971,-61,9926.0
14020,0.34929099678993225,1.5967926979064941,43,5497.0,-2.8245348930358887,-166,9926.0
14030,0.34910932183265686,4.165918827056885,127,5497.0,-4.144339084625244,28,9926.0
14040,0.34895431995391846,5.19869327545166,46,5497.0,2.2525851726531982,-144,9926.0
14050,0.34882763028144836,3.9004299640655518,52,5497.0,1.3007088899612427,112,9926.0
14060,0.34873682260513306,2.9530563354492188,51,5497.0,1.6536322832107544,-97,9926.0
14070,0.3491562008857727,-0.40084370970726013,74,5497.0,1.6754180192947388,108,9926.0
14080,0.3490108549594879,0.7211048603057861,-32,5497.0,2.406562328338623,-37,9926.0
14090,0.3489135503768921,-0.1752048134803772,-51,5497.0,1.3031575679779053,103,9926.0
14100,0.3487794101238251,2.825190782546997,41,5497.0,-0.47021934390068054,-97,9926.0
14110,0.34918904304504395,4.738225936889648,112,5497.0,-4.7032904624938965,36,9926.0
14120,0.34910354018211365,2.689276695251465,57,5497.0,-1.7213999032974243,-156,9926.0
14130,0.34901800751686096,1.7154831886291504,19,5497.0,-0.9463487267494202,62,9926.0
14140,0.3489342927932739,0.3863704800605774,4,5497.0,-0.7262796759605408,-102,9926.0
14150,0.3488991856575012,0.02442919835448265,9,5497.0,-0.9036146998405457,1,9926.0
14160,0.3493518829345703,-2.8081462383270264,6,5497.0,1.3005311489105225,-75,9926.0
14170,0.34935900568962097,-0.7940735220909119,28,5497.0,2.1395089626312256,90,9926.0
14180,0.3493223786354065,-2.695357322692871,10,5497.0,-0.3684093654155731,-24,9926.0
14190,0.3492874801158905,-0.5158618092536926,-76,5497.0,2.1736748218536377,77,9926.0
14200,0.3476432263851166,-1.0734527111053467,47,5497.0,1.756629467010498,-20,9926.0
14210,0.3476027846336365,-1.3835474252700806,-128,5497.0,3.899099111557007,111,9926.0
14220,0.34754905104637146,-4.570496082305908,3,5497.0,4.896515846252441,31,9926.0
14230,0.3474961817264557,-2.9231157302856445,-129,5497.0,1.0842339992523193,35,9926.0
