timestamp,kalman.stateZ,gyro.x,gyro.xRaw,gyro.xVariance,gyro.y,gyro.yRaw,gyro.yVariance
0,0.2646045386791229,-0.43952029943466187,-3,5897.0,1.2770402431488037,20,9950.0
10,0.2647196352481842,-0.40763142704963684,-3,5897.0,1.3712866306304932,22,9950.0
20,0.26478832960128784,0.41980284452438354,15,5897.0,0.893172562122345,19,9950.0
30,0.26480627059936523,0.7920947670936584,24,5897.0,0.3482277989387512,2,9950.0
40,0.2649270296096802,1.1217436790466309,20,5897.0,-0.416242778301239,-7,9950.0
50,0.265313059091568,0.9711659550666809,11,5897.0,-0.513522744178772,-11,9950.0
60,0.2654203474521637,0.309718519449234,4,5897.0,-1.1204943656921387,-19,9950.0
70,0.26549461483955383,-0.224016934633255,-4,5897.0,-1.8471388816833496,-29,9950.0
80,0.2655598223209381,-0.6898834705352783,-4,5897.0,-2.1924588680267334,-43,9950.0
90,0.26562079787254333,-1.2257018089294434,-21,5897.0,-2.279850721359253,-39,9950.0
100,0.2653498649597168,-1.2259217500686646,-25,5897.0,-2.2271804809570312,-29,9950.0
110,0.2654087245464325,-1.290780782699585,-24,5897.0,-2.808183193206787,-44,9950.0
120,0.2654416561126709,-1.1933882236480713,-16,5897.0,-2.821582078933716,-48,9950.0
130,0.2654813826084137,-0.6402493119239807,-6,5897.0,-3.295362949371338,-56,9950.0
140,0.2640590965747833,-0.16649167239665985,-4,5897.0,-3.43298602104187,-59,9950.0
150,0.26404571533203125,0.5998709797859192,10,5897.0,-3.398329496383667,-52,9950.0
160,0.26401278376579285,0.959729015827179,14,5897.0,-3.1239776611328125,-48,9950.0
170,0.263978511095047,1.0077282190322876,23,5897.0,-2.8856348991394043,-39,9950.0
180,0.26390495896339417,1.2354302406311035,24,5897.0,-2.583495616912842,-33,9950.0
190,0.2638684809207916,1.5408189296722412,27,5897.0,-1.9959678649902344,-31,9950.0
200,0.26383596658706665,1.733563780784607,26,5897.0,-1.6073650121688843,-23,9950.0
210,0.26382967829704285,1.5232632160186768,24,5897.0,-1.3833584785461426,-25,9950.0
220,0.26379522681236267,1.5451663732528687,29,5897.0,-1.7692919969558716,-30,9950.0
230,0.26261603832244873,1.4905925989151,23,5897.0,-1.403243064880371,-34,9950.0
240,0.2625347375869751,1.873620867729187,35,5897.0,-6.069173812866211,-99,9950.0
250,0.26247021555900574,0.5539436340332031,-10,5897.0,-9.596843719482422,-148,9950.0
260,0.26243287324905396,4.538456916809082,68,5897.0,-17.93496322631836,-321,9950.0
270,0.26373282074928284,2.066805839538574,96,5897.0,-23.311861038208008,-446,9950.0
280,0.2638777494430542,3.928631544113159,47,5897.0,-32.15595626831055,-564,9950.0
290,0.26386088132858276,5.532508373260498,61,5897.0,-40.873138427734375,-659,9950.0
300,0.2640255391597748,6.200091361999512,43,5897.0,-47.176063537597656,-734,9950.0
310,0.2639612853527069,5.399873733520508,24,5897.0,-49.60850524902344,-755,9950.0
320,0.2639921009540558,3.9235763549804688,65,5897.0,-48.37128829956055,-808,9950.0
330,0.26385992765426636,5.01121711730957,55,5897.0,-49.884613037109375,-812,9950.0
340,0.26384618878364563,4.346712589263916,43,5897.0,-35.81228256225586,-562,9950.0
350,0.2642518877983093,3.523794174194336,64,5897.0,-26.141616821289062,-348,9950.0
360,0.26294487714767456,4.952140808105469,102,5897.0,-10.81647777557373,-176,9950.0
370,0.2631019353866577,2.3922510147094727,24,5897.0,-2.086822032928467,16,9950.0
380,0.26306959986686707,2.6491336822509766,55,5897.0,7.386415958404541,252,9950.0
390,0.2634146511554718,0.8277851343154907,45,5897.0,18.206830978393555,302,9950.0
400,0.26437240839004517,0.2424560785293579,53,5897.0,26.57579803466797,329,9950.0
410,0.26460060477256775,1.307309627532959,26,5897.0,29.78826904296875,444,9950.0
420,0.26477953791618347,1.0200234651565552,10,5897.0,28.916017532348633,589,9950.0
430,0.26479360461235046,1.8524079322814941,21,5897.0,24.864049911499023,506,9950.0
440,0.26528459787368774,2.458204984664917,11,5897.0,21.47430419921875,358,9950.0
450,0.2657526135444641,1.7815409898757935,94,5897.0,18.439483642578125,225,9950.0
460,0.26605549454689026,2.6181719303131104,60,5897.0,14.577884674072266,80,9950.0
470,0.26624301075935364,2.9228365421295166,57,5897.0,9.774043083190918,58,9950.0
480,0.266653835773468,3.387399435043335,54,5897.0,5.7174811363220215,-66,9950.0
490,0.26751381158828735,2.5635664463043213,37,5897.0,2.6035473346710205,36,9950.0
500,0.26782381534576416,1.4682308435440063,129,5897.0,3.366079568862915,-138,9950.0
510,0.26795628666877747,2.829819679260254,39,5897.0,0.04587460681796074,-106,9950.0
520,0.26841652393341064,4.485562324523926,-22,5897.0,2.2893216609954834,-45,9950.0
530,0.2687705159187317,-1.389913558959961,-8,5897.0,-0.7311656475067139,-106,9950.0
540,0.2695760428905487,-3.635190010070801,-24,5897.0,0.9187367558479309,-60,9950.0
550,0.2699052691459656,-4.511856555938721,-4,5897.0,3.742628812789917,2,9950.0
560,0.2704593241214752,-5.057971477508545,-26,5897.0,8.447358131408691,56,9950.0
570,0.2707223892211914,-5.576944351196289,-71,5897.0,9.914165496826172,167,9950.0
580,0.27019044756889343,-6.470684051513672,-86,5897.0,10.423881530761719,318,9950.0
590,0.2703979015350342,-4.4625067710876465,-103,5897.0,12.225297927856445,250,9950.0
600,0.2710011899471283,-2.1034812927246094,-29,5897.0,11.283693313598633,309,9950.0
610,0.27136144042015076,2.929973840713501,-57,5897.0,12.759136199951172,355,9950.0
620,0.2703707218170166,0.041392188519239426,-40,5897.0,15.598937034606934,281,9950.0
630,0.27072882652282715,-0.7915145754814148,-7,5897.0,18.35284423828125,151,9950.0
640,0.27113988995552063,0.13653694093227386,38,5897.0,16.781307220458984,261,9950.0
650,0.2719151973724365,-1.2267366647720337,35,5897.0,15.340452194213867,180,9950.0
660,0.27234992384910583,-0.9984025955200195,98,5897.0,12.437694549560547,88,9950.0
670,0.2718234360218048,-1.5797905921936035,-42,5897.0,9.849504470825195,186,9950.0
680,0.2721230685710907,-0.33499693870544434,-87,5897.0,2.6065187454223633,245,9950.0
690,0.27244383096694946,0.7190038561820984,-45,5897.0,-1.4592925310134888,93,9950.0
700,0.27271366119384766,-0.3386751711368561,25,5897.0,-2.6124091148376465,-255,9950.0
710,0.273127943277359,1.8768054246902466,22,5897.0,-3.463414192199707,-182,9950.0
720,0.27319929003715515,-0.3617962896823883,82,5897.0,-7.784387111663818,-31,9950.0
730,0.2732481062412262,0.025026017799973488,20,5897.0,-4.879817485809326,61,9950.0
740,0.2733422815799713,1.0452395677566528,-42,5897.0,-3.8788022994995117,-83,9950.0
750,0.2734145224094391,0.49165743589401245,-22,5897.0,-2.2616374492645264,-85,9950.0
760,0.2732131779193878,3.1537163257598877,58,5897.0,-3.9118010997772217,-60,9950.0
770,0.2731148898601532,2.846212387084961,89,5897.0,-4.353710651397705,-66,9950.0
780,0.2730184495449066,2.8650944232940674,78,5897.0,-3.342074155807495,-14,9950.0
790,0.27292507886886597,3.7223284244537354,-9,5897.0,-1.158470869064331,-19,9950.0
800,0.2727832496166229,3.5718674659729004,27,5897.0,-2.867558240890503,-30,9950.0
810,0.272485613822937,4.639423370361328,64,5897.0,-3.837998151779175,-116,9950.0
820,0.2720736265182495,1.158302903175354,182,5897.0,-2.6993377208709717,34,9950.0
830,0.27173060178756714,1.328527808189392,-37,5897.0,-3.49214506149292,-9,9950.0
840,0.2728058397769928,-0.2487190216779709,-61,5897.0,-4.971312999725342,-51,9950.0
850,0.2725716233253479,-2.28281569480896,18,5897.0,-6.340364933013916,-187,9950.0
860,0.2722451388835907,-1.2673848867416382,76,5897.0,-9.562485694885254,-237,9950.0
870,0.27183473110198975,-1.8310718536376953,-71,5897.0,-9.656628608703613,-154,9950.0
880,0.27139538526535034,-1.7795976400375366,-95,5897.0,-14.465476989746094,-129,9950.0
890,0.27112120389938354,-3.9117796421051025,-58,5897.0,-13.087946891784668,-187,9950.0
900,0.2706674337387085,-5.012901306152344,-2,5897.0,-12.37784481048584,-311,9950.0
910,0.2701575756072998,-3.6235413551330566,-66,5897.0,-13.515462875366211,-255,9950.0
920,0.2695242762565613,-3.7189669609069824,-146,5897.0,-11.978888511657715,-98,9950.0
930,0.27137652039527893,0.11157504469156265,-29,5897.0,-14.196405410766602,-213,9950.0
940,0.27079933881759644,-0.4130384027957916,108,5897.0,-15.474773406982422,-367,9950.0
950,0.27031514048576355,0.8592430949211121,129,5897.0,-13.87773323059082,-233,9950.0
960,0.269869327545166,0.5356596112251282,-80,5897.0,-12.496599197387695,-184,9950.0
970,0.2709670066833496,0.9486719369888306,-49,5897.0,-15.660699844360352,-196,9950.0
980,0.27076661586761475,-2.9112043380737305,28,5897.0,-14.936861991882324,-220,9950.0
990,0.27054354548454285,-1.4672036170959473,-34,5897.0,-15.884453773498535,-261,9950.0
1000,0.2702970504760742,-0.9311044812202454,-60,5897.0,-13.29648494720459,-282,9950.0
1010,0.27007389068603516,0.5509627461433411,50,5897.0,-9.128053665161133,-205,9950.0
1020,0.27029022574424744,-0.05748048052191734,4,5897.0,-6.31499719619751,33,9950.0
1030,0.27022942900657654,0.5805667638778687,-13,5897.0,-7.079128742218018,-21,9950.0
1040,0.2702522575855255,-0.5901650786399841,35,5897.0,-6.4437360763549805,-174,9950.0
1050,0.27039477229118347,1.7825533151626587,47,5897.0,-5.914983749389648,-51,9950.0
1060,0.26993441581726074,2.568441867828369,-21,5897.0,-4.388564109802246,-203,9950.0
1070,0.27021023631095886,2.0761194229125977,70,5897.0,-2.0886898040771484,4,9950.0
1080,0.2705658972263336,-0.7972298860549927,-53,5897.0,-2.264456272125244,44,9950.0
1090,0.2710360884666443,-1.2994260787963867,5,5897.0,-1.3597617149353027,-13,9950.0
1100,0.271576464176178,-1.8379267454147339,-18,5897.0,-0.29094356298446655,52,9950.0
1110,0.2723495662212372,-2.473339796066284,-54,5897.0,2.078280448913574,-34,9950.0
1120,0.2730613946914673,-1.7146062850952148,40,5897.0,2.6446404457092285,-8,9950.0
1130,0.27385932207107544,-1.34916353225708,-75,5897.0,3.9061338901519775,44,9950.0
1140,0.27468711137771606,0.6627578735351562,54,5897.0,4.186622142791748,79,9950.0
1150,0.273305207490921,1.1096817255020142,-22,5897.0,5.137322425842285,253,9950.0
1160,0.27417296171188354,1.4022819995880127,12,5897.0,7.250303745269775,173,9950.0
1170,0.27507704496383667,-0.8125078082084656,1,5897.0,7.973331451416016,233,9950.0
1180,0.27614936232566833,-0.49463799595832825,-36,5897.0,7.868519306182861,128,9950.0
1190,0.27470627427101135,-1.8093829154968262,18,5897.0,9.873027801513672,39,9950.0
1200,0.27571016550064087,0.28317517042160034,-35,5897.0,7.937488555908203,64,9950.0
1210,0.276715487241745,-1.6960697174072266,66,5897.0,8.951809883117676,-15,9950.0
1220,0.27774497866630554,0.6662708520889282,38,5897.0,8.830718994140625,79,9950.0
1230,0.278774619102478,1.046372890472412,-21,5897.0,8.911935806274414,27,9950.0
1240,0.27653640508651733,0.8590054512023926,49,5897.0,10.212250709533691,167,9950.0
1250,0.27727916836738586,2.0151283740997314,-4,5897.0,10.486166000366211,263,9950.0
1260,0.27805110812187195,2.7453362941741943,73,5897.0,11.05186939239502,217,9950.0
1270,0.27870097756385803,1.2533771991729736,-58,5897.0,9.227829933166504,202,9950.0
1280,0.27647125720977783,0.2156442254781723,40,5897.0,9.218573570251465,235,9950.0
1290,0.2769298255443573,0.21472401916980743,-63,5897.0,7.377610683441162,184,9950.0
1300,0.2775205373764038,0.43717581033706665,-8,5897.0,8.228976249694824,250,9950.0
1310,0.2782490849494934,1.2951196432113647,23,5897.0,9.462265014648438,135,9950.0
1320,0.2788679003715515,1.7679165601730347,-45,5897.0,9.685726165771484,244,9950.0
1330,0.27880555391311646,3.253689765930176,84,5897.0,9.11896800994873,110,9950.0
1340,0.2794487476348877,1.1400567293167114,1,5897.0,10.5114164352417,73,9950.0
1350,0.2800646126270294,-0.23817981779575348,48,5897.0,9.114450454711914,154,9950.0
1360,0.280885249376297,-0.5833912491798401,113,5897.0,11.562151908874512,-49,9950.0
1370,0.28100040555000305,-3.0984318256378174,-22,5897.0,10.165984153747559,102,9950.0
1380,0.2816638946533203,-0.20174625515937805,25,5897.0,9.982608795166016,308,9950.0
1390,0.2826673686504364,-2.149218797683716,6,5897.0,10.07552433013916,269,9950.0
1400,0.28345581889152527,0.9945799708366394,-78,5897.0,7.281243801116943,138,9950.0
1410,0.28266385197639465,-1.1121015548706055,-89,5897.0,12.77479076385498,154,9950.0
1420,0.28382477164268494,2.1468589305877686,69,5897.0,10.522844314575195,139,9950.0
1430,0.28499650955200195,-0.2910439074039459,80,5897.0,9.427066802978516,47,9950.0
1440,0.28627029061317444,-1.0643600225448608,-32,5897.0,10.075754165649414,111,9950.0
1450,0.28730934858322144,0.4040847718715668,-38,5897.0,8.236538887023926,185,9950.0
1460,0.2875969409942627,1.315386414527893,-33,5897.0,11.77199649810791,284,9950.0
1470,0.2888929545879364,1.176049828529358,89,5897.0,6.97914981842041,154,9950.0
1480,0.2901540994644165,0.14792680740356445,78,5897.0,11.625704765319824,74,9950.0
1490,0.2914000451564789,0.20270296931266785,-32,5897.0,8.612336158752441,74,9950.0
1500,0.29069972038269043,1.4047691822052002,-71,5897.0,7.06876802444458,172,9950.0
1510,0.2919483482837677,4.133113861083984,40,5897.0,6.415870189666748,127,9950.0
1520,0.2935490608215332,4.482309341430664,156,5897.0,5.129001140594482,90,9950.0
1530,0.2948811650276184,6.340176105499268,159,5897.0,6.925333499908447,213,9950.0
1540,0.2963161766529083,2.673666000366211,-10,5897.0,7.584591388702393,126,9950.0
1550,0.29632991552352905,1.924989104270935,-32,5897.0,8.240384101867676,47,9950.0
1560,0.29770156741142273,-1.5350465774536133,-47,5897.0,7.504638671875,55,9950.0
1570,0.29896867275238037,-1.386751413345337,23,5897.0,5.866640090942383,80,9950.0
1580,0.30027878284454346,0.6946764588356018,19,5897.0,6.519481658935547,219,9950.0
1590,0.3010510206222534,1.0926260948181152,26,5897.0,6.13704776763916,179,9950.0
1600,0.3023568093776703,1.9021110534667969,37,5897.0,4.68043327331543,123,9950.0
1610,0.3035849630832672,3.240726947784424,46,5897.0,5.336391925811768,-98,9950.0
1620,0.3047788441181183,3.416668653488159,39,5897.0,3.245652914047241,-62,9950.0
1630,0.3035789430141449,4.241626262664795,57,5897.0,1.443729043006897,144,9950.0
1640,0.30464890599250793,4.031959533691406,101,5897.0,0.4645354151725769,207,9950.0
1650,0.3055438697338104,4.993345737457275,19,5897.0,0.636187732219696,24,9950.0
1660,0.3063576817512512,6.608705043792725,81,5897.0,0.08057623356580734,-205,9950.0
1670,0.30716970562934875,5.410943508148193,66,5897.0,0.8066673874855042,-77,9950.0
1680,0.30617615580558777,4.513875961303711,140,5897.0,-1.4767934083938599,6,9950.0
1690,0.3067393898963928,4.978397369384766,179,5897.0,-1.549322247505188,-87,9950.0
1700,0.3071688413619995,2.8600072860717773,129,5897.0,-2.1633710861206055,-85,9950.0
1710,0.3075670301914215,3.244352102279663,-35,5897.0,-5.528728485107422,39,9950.0
1720,0.307983934879303,3.509793281555176,-74,5897.0,-6.569915294647217,-9,9950.0
1730,0.3082444667816162,1.3344603776931763,-21,5897.0,-7.228442192077637,-38,9950.0
1740,0.3084201514720917,0.2100067287683487,-26,5897.0,-9.204194068908691,-61,9950.0
1750,0.3085018992424011,-1.3631129264831543,-73,5897.0,-9.096598625183105,-187,9950.0
1760,0.3084484934806824,-3.4500417709350586,-96,5897.0,-10.760611534118652,-322,9950.0
1770,0.30712491273880005,-1.6958900690078735,28,5897.0,-9.421490669250488,-184,9950.0
1780,0.30677178502082825,1.5429370403289795,141,5897.0,-6.792582035064697,-107,9950.0
1790,0.30642491579055786,0.27008041739463806,116,5897.0,-3.5028579235076904,-127,9950.0
1800,0.30603811144828796,2.1522533893585205,16,5897.0,-2.066737174987793,-32,9950.0
1810,0.3051641285419464,6.076032638549805,-27,5897.0,-3.2422680854797363,9,9950.0
1820,0.30479326844215393,3.4709601402282715,-13,5897.0,-0.6425580382347107,76,9950.0
1830,0.3043566346168518,3.846212863922119,-28,5897.0,1.1177380084991455,57,9950.0
1840,0.3037634789943695,1.4518218040466309,51,5897.0,-1.2408332824707031,-124,9950.0
1850,0.30303484201431274,2.192922830581665,129,5897.0,-2.4145658016204834,-163,9950.0
1860,0.30249616503715515,-2.638066530227661,48,5897.0,-3.0207793712615967,-122,9950.0
1870,0.3018294870853424,-2.698862314224243,-54,5897.0,-7.3283491134643555,-145,9950.0
1880,0.30099961161613464,-0.9704561233520508,-147,5897.0,-10.684014320373535,-32,9950.0
1890,0.3003976345062256,-2.266098976135254,-103,5897.0,-17.979366302490234,-186,9950.0
1900,0.3004079759120941,-3.253349542617798,-18,5897.0,-17.85153579711914,-320,9950.0
1910,0.29983216524124146,-3.35292649269104,23,5897.0,-17.416683197021484,-424,9950.0
1920,0.2992902994155884,-5.060085296630859,31,5897.0,-18.576663970947266,-362,9950.0
1930,0.29873356223106384,-4.588846206665039,-93,5897.0,-16.57316017150879,-152,9950.0
1940,0.2975553870201111,-2.895332098007202,-159,5897.0,-10.695917129516602,-97,9950.0
1950,0.29712581634521484,-3.89150071144104,-119,5897.0,-12.238496780395508,-156,9950.0
1960,0.2967710494995117,-3.3350608348846436,-41,5897.0,-8.978667259216309,-257,9950.0
1970,0.2963739037513733,-4.235533237457275,-29,5897.0,-8.976395606994629,-65,9950.0
1980,0.2975645363330841,-3.116328716278076,-89,5897.0,-5.5258708000183105,20,9950.0
1990,0.2972601354122162,-2.365438938140869,-74,5897.0,-5.970616817474365,-61,9950.0
2000,0.2969987988471985,-5.421571254730225,-17,5897.0,-4.301085472106934,-178,9950.0
2010,0.29678335785865784,-1.7882288694381714,-1,5897.0,-8.147488594055176,-9,9950.0
2020,0.2966209053993225,-3.5065371990203857,-87,5897.0,-6.847226142883301,-50,9950.0
2030,0.29705536365509033,-1.8925220966339111,-67,5897.0,-7.799554824829102,-171,9950.0
2040,0.2970269024372101,-3.435103416442871,49,5897.0,-5.530516624450684,-108,9950.0
2050,0.29706424474716187,-0.3868323862552643,12,5897.0,-1.4074970483779907,20,9950.0
2060,0.2971736490726471,-0.544317364692688,-29,5897.0,-2.543179750442505,34,9950.0
2070,0.2984566390514374,-1.474632740020752,12,5897.0,3.319613456726074,-159,9950.0
2080,0.2988126277923584,0.2683071792125702,80,5897.0,3.799596071243286,42,9950.0
2090,0.2992365062236786,1.993647813796997,-24,5897.0,4.6280517578125,106,9950.0
2100,0.2998071312904358,2.3700568675994873,-10,5897.0,6.383522033691406,125,9950.0
2110,0.3003934919834137,2.970104694366455,93,5897.0,4.241017818450928,-22,9950.0
2120,0.3004111647605896,2.4430928230285645,74,5897.0,6.554166316986084,150,9950.0
2130,0.30091604590415955,4.917999744415283,-19,5897.0,6.88938570022583,131,9950.0
2140,0.3014141321182251,4.268417835235596,-35,5897.0,10.778643608093262,143,9950.0
2150,0.3018958866596222,3.9243881702423096,100,5897.0,12.298694610595703,99,9950.0
2160,0.30208274722099304,4.145300388336182,-4,5897.0,11.780696868896484,176,9950.0
2170,0.3026755154132843,0.4810011386871338,-41,5897.0,12.530679702758789,286,9950.0
2180,0.30330079793930054,0.08111527562141418,-24,5897.0,9.173664093017578,95,9950.0
2190,0.30387410521507263,-1.1132428646087646,62,5897.0,11.211788177490234,231,9950.0
2200,0.30420517921447754,-0.6224735379219055,16,5897.0,11.068418502807617,244,9950.0
2210,0.3046856224536896,-1.6418472528457642,-45,5897.0,9.78774356842041,299,9950.0
2220,0.3051351308822632,-1.223023772239685,-7,5897.0,11.25290584564209,166,9950.0
2230,0.3056427538394928,-1.2354724407196045,63,5897.0,7.714151859283447,-41,9950.0
2240,0.3061842620372772,-1.5851361751556396,46,5897.0,7.157845497131348,132,9950.0
2250,0.3070419132709503,-1.9767982959747314,-56,5897.0,5.07198429107666,118,9950.0
2260,0.3074725270271301,0.9552844166755676,-49,5897.0,3.031125068664551,1,9950.0
2270,0.3078196048736572,1.1503431797027588,39,5897.0,3.5235350131988525,-62,9950.0
2280,0.3081956207752228,2.1107594966888428,59,5897.0,1.1322780847549438,-23,9950.0
2290,0.31001994013786316,1.7877174615859985,4,5897.0,0.1605638712644577,131,9950.0
2300,0.31042221188545227,-0.5869609713554382,-11,5897.0,2.929729461669922,180,9950.0
2310,0.31074991822242737,-3.960911989212036,-54,5897.0,4.679057598114014,52,9950.0
2320,0.31094419956207275,-2.760693073272705,25,5897.0,5.077391147613525,84,9950.0
2330,0.3110063076019287,-0.6797927618026733,34,5897.0,4.8820695877075195,138,9950.0
2340,0.3105447590351105,0.9445754885673523,37,5897.0,7.834216594696045,135,9950.0
2350,0.3105020225048065,2.4662108421325684,8,5897.0,2.9602086544036865,117,9950.0
2360,0.31042224168777466,1.8251453638076782,74,5897.0,2.7274997234344482,-118,9950.0
2370,0.3102562427520752,-1.2383641004562378,32,5897.0,3.7526400089263916,-38,9950.0
2380,0.31149643659591675,0.2718591094017029,-6,5897.0,0.7670744061470032,35,9950.0
2390,0.3111698031425476,3.1268293857574463,-32,5897.0,-2.3294730186462402,-45,9950.0
2400,0.3107834756374359,1.9095470905303955,12,5897.0,-2.868258237838745,-121,9950.0
2410,0.3103647232055664,0.40666815638542175,88,5897.0,-3.4397876262664795,-42,9950.0
2420,0.3128357231616974,0.7972592115402222,-19,5897.0,-4.640859127044678,-3,9950.0
2430,0.3125971555709839,1.4099208116531372,-6,5897.0,-3.298987627029419,73,9950.0
2440,0.3122694492340088,1.218734622001648,14,5897.0,-0.46397092938423157,-99,9950.0
2450,0.31183457374572754,2.1873059272766113,108,5897.0,2.7260959148406982,3,9950.0
2460,0.31137967109680176,2.763819932937622,126,5897.0,-1.9874606132507324,94,9950.0
2470,0.3132614195346832,5.218146324157715,27,5897.0,-3.7671027183532715,121,9950.0
2480,0.3129956126213074,3.826667070388794,42,5897.0,0.23146826028823853,22,9950.0
2490,0.31272104382514954,3.2892324924468994,98,5897.0,-0.06502418220043182,-4,9950.0
2500,0.31235116720199585,2.035676956176758,60,5897.0,0.15570387244224548,61,9950.0
2510,0.31215256452560425,1.3073605298995972,-34,5897.0,-3.2031450271606445,33,9950.0
2520,0.3117557168006897,0.6547520756721497,-2,5897.0,-5.953620433807373,-112,9950.0
2530,0.31131917238235474,-0.3271159529685974,59,5897.0,-6.1253252029418945,-211,9950.0
2540,0.31090080738067627,-2.6521408557891846,89,5897.0,-6.339667320251465,-42,9950.0
2550,0.31054189801216125,-2.71014142036438,-38,5897.0,-2.1975438594818115,52,9950.0
2560,0.31076955795288086,-1.6965945959091187,-82,5897.0,-1.85824453830719,14,9950.0
2570,0.31038591265678406,-1.5287013053894043,-68,5897.0,-3.475647449493408,-47,9950.0
2580,0.31000006198883057,-1.2345538139343262,13,5897.0,0.36262598633766174,-205,9950.0
2590,0.309671550989151,-0.689124584197998,55,5897.0,-1.824305534362793,-28,9950.0
2600,0.3091706335544586,0.30525651574134827,-55,5897.0,0.41729843616485596,33,9950.0
2610,0.30900201201438904,-0.3300028145313263,-35,5897.0,2.1057114601135254,-4,9950.0
2620,0.3088338077068329,-2.2321181297302246,23,5897.0,-1.931226134300232,-111,9950.0
2630,0.30860772728919983,-3.5412023067474365,-22,5897.0,-0.8420498371124268,26,9950.0
2640,0.3089614510536194,-2.076934576034546,-131,5897.0,-3.2250752449035645,14,9950.0
2650,0.308610737323761,-2.7650554180145264,-66,5897.0,-1.8661974668502808,-85,9950.0
2660,0.3083329200744629,-2.717910051345825,13,5897.0,-0.7654449343681335,-161,9950.0
2670,0.30811208486557007,-0.7822843790054321,-66,5897.0,-5.858612537384033,13,9950.0
2680,0.308000773191452,0.8791355490684509,-67,5897.0,-4.594308376312256,-22,9950.0
2690,0.30995360016822815,1.1626510620117188,-21,5897.0,-1.628336787223816,-100,9950.0
2700,0.31001487374305725,-1.301836371421814,15,5897.0,0.18279434740543365,-60,9950.0
2710,0.31005534529685974,-1.8828011751174927,-59,5897.0,1.4143253564834595,164,9950.0
2720,0.31008240580558777,-1.1414095163345337,-90,5897.0,4.499366760253906,123,9950.0
2730,0.30850884318351746,-3.3251166343688965,-20,5897.0,5.236291885375977,-4,9950.0
2740,0.30849140882492065,-1.894476056098938,-4,5897.0,7.029880046844482,40,9950.0
2750,0.3085118234157562,-0.03969252482056618,-30,5897.0,2.6436989307403564,111,9950.0
2760,0.30856233835220337,1.4903199672698975,-29,5897.0,1.3741852045059204,-22,9950.0
2770,0.30860570073127747,2.7464795112609863,142,5897.0,1.1731832027435303,-7,9950.0
2780,0.3108464479446411,3.666072368621826,40,5897.0,-4.381519317626953,-10,9950.0
2790,0.3109514117240906,3.4886372089385986,-13,5897.0,-3.2194314002990723,58,9950.0
2800,0.31102046370506287,0.651746392250061,-24,5897.0,-7.346027374267578,-144,9950.0
2810,0.3110957145690918,-0.6895731091499329,69,5897.0,-2.262254476547241,-68,9950.0
2820,0.31162020564079285,-0.6165205240249634,-38,5897.0,-1.1982003450393677,22,9950.0
2830,0.31184297800064087,-1.0279737710952759,-43,5897.0,-0.7122507691383362,41,9950.0
2840,0.3121052384376526,-2.2703769207000732,-12,5897.0,2.693113327026367,-79,9950.0
2850,0.31233471632003784,-1.2818682193756104,49,5897.0,5.611927509307861,72,9950.0
2860,0.3134955167770386,0.3199397325515747,-13,5897.0,1.9924119710922241,79,9950.0
2870,0.3136175870895386,-0.48311731219291687,-46,5897.0,3.58174729347229,163,9950.0
2880,0.3137049973011017,-0.7574388384819031,-3,5897.0,5.238412380218506,60,9950.0
2890,0.3138200044631958,-1.7685763835906982,-28,5897.0,5.870572090148926,125,9950.0
2900,0.3140050768852234,0.08084917813539505,-9,5897.0,4.077348232269287,249,9950.0
2910,0.3142108619213104,0.7715475559234619,-22,5897.0,6.206296920776367,65,9950.0
2920,0.31439143419265747,2.71750807762146,167,5897.0,5.440023422241211,19,9950.0
2930,0.31452274322509766,5.546078681945801,91,5897.0,-0.4416159391403198,63,9950.0
2940,0.3145950436592102,6.499477386474609,45,5897.0,-0.691013753414154,139,9950.0
2950,0.3144019842147827,3.7997446060180664,30,5897.0,0.8907097578048706,-41,9950.0
2960,0.31446781754493713,1.2360421419143677,43,5897.0,0.9991884827613831,11,9950.0
2970,0.3145820200443268,0.5884473323822021,-22,5897.0,-0.9542205929756165,75,9950.0
2980,0.31475624442100525,-1.4958285093307495,-102,5897.0,0.9245284795761108,116,9950.0
2990,0.3149576187133789,-3.4813475608825684,-53,5897.0,1.6111572980880737,-45,9950.0
3000,0.3155519366264343,-4.268338680267334,-17,5897.0,1.5207825899124146,-22,9950.0
3010,0.315646767616272,-2.5546422004699707,-25,5897.0,1.528596043586731,147,9950.0
3020,0.3156621754169464,-2.8619205951690674,-87,5897.0,3.1750271320343018,70,9950.0
3030,0.31561192870140076,-3.217796802520752,15,5897.0,3.06807541847229,5,9950.0
3040,0.31489184498786926,-2.155050039291382,-5,5897.0,-1.7075878381729126,-69,9950.0
3050,0.31481656432151794,-0.8255917429924011,-69,5897.0,0.2979530990123749,111,9950.0
3060,0.31471192836761475,-0.359575092792511,-38,5897.0,-2.3729889392852783,-85,9950.0
3070,0.31453460454940796,-1.0298972129821777,26,5897.0,1.0540635585784912,-91,9950.0
3080,0.3142651617527008,-1.2232574224472046,54,5897.0,-1.0477958917617798,59,9950.0
3090,0.315105676651001,-1.49885094165802,-49,5897.0,-1.0475412607192993,105,9950.0
3100,0.31478002667427063,2.2653887271881104,14,5897.0,-1.9193800687789917,-7,9950.0
3110,0.31446129083633423,1.4641839265823364,69,5897.0,-3.493600606918335,-84,9950.0
3120,0.3142251670360565,2.084052324295044,4,5897.0,-1.743323802947998,103,9950.0
3130,0.3144024908542633,2.219959020614624,3,5897.0,1.39892578125,-22,9950.0
3140,0.31436458230018616,2.1822986602783203,89,5897.0,1.3530280590057373,-49,9950.0
3150,0.31437942385673523,2.16566801071167,68,5897.0,2.834167718887329,15,9950.0
3160,0.31437748670578003,2.191910982131958,8,5897.0,1.5562981367111206,137,9950.0
3170,0.3137674033641815,1.069846749305725,-3,5897.0,5.394152641296387,-68,9950.0
3180,0.313612699508667,1.6670805215835571,142,5897.0,2.5230607986450195,-50,9950.0
3190,0.3133985102176666,1.2250773906707764,21,5897.0,-2.01613450050354,-19,9950.0
3200,0.31318873167037964,-0.10412958264350891,-30,5897.0,0.22659777104854584,99,9950.0
3210,0.31301337480545044,1.105668544769287,-41,5897.0,-1.4760279655456543,21,9950.0
3220,0.3132556080818176,1.1649752855300903,17,5897.0,-6.284627914428711,-148,9950.0
3230,0.313109427690506,-1.6077070236206055,32,5897.0,-3.9389302730560303,-74,9950.0
3240,0.3129415214061737,-1.6919001340866089,-71,5897.0,-4.41158390045166,78,9950.0
3250,0.31274428963661194,-2.817730188369751,-35,5897.0,-3.368828058242798,-57,9950.0
3260,0.31343528628349304,-1.7786619663238525,26,5897.0,-2.9967260360717773,-64,9950.0
3270,0.3132903575897217,-0.5560217499732971,-9,5897.0,0.4650452435016632,17,9950.0
3280,0.31318050622940063,-0.8230991363525391,-52,5897.0,3.4130563735961914,86,9950.0
3290,0.31313133239746094,-1.1329057216644287,18,5897.0,4.647162437438965,-68,9950.0
3300,0.31316906213760376,-1.5296862125396729,45,5897.0,4.742442607879639,161,9950.0
3310,0.31318193674087524,1.7895212173461914,-27,5897.0,4.322142601013184,167,9950.0
3320,0.3132418990135193,0.43665212392807007,-48,5897.0,5.882256507873535,79,9950.0
3330,0.3132825195789337,-1.0203508138656616,29,5897.0,6.010250568389893,-5,9950.0
3340,0.31327661871910095,-0.4759117662906647,-52,5897.0,4.00651741027832,210,9950.0
3350,0.31391075253486633,0.5087602734565735,-57,5897.0,2.6102559566497803,-48,9950.0
3360,0.31386885046958923,-1.3765501976013184,51,5897.0,-1.9354939460754395,-127,9950.0
3370,0.3138565421104431,-0.9938767552375793,6,5897.0,-4.624878406524658,-86,9950.0
3380,0.31389132142066956,-2.445650815963745,-66,5897.0,-7.341561317443848,-53,9950.0
3390,0.31361839175224304,-2.8342583179473877,-10,5897.0,-5.4500861167907715,-230,9950.0
3400,0.3137352466583252,-2.8748624324798584,8,5897.0,-4.750912666320801,-5,9950.0
3410,0.3139173090457916,-0.7858800292015076,-74,5897.0,-2.590623140335083,24,9950.0
3420,0.3141280710697174,0.19282184541225433,45,5897.0,-1.3314592838287354,-97,9950.0
3430,0.31432268023490906,-0.23196594417095184,83,5897.0,3.606438159942627,-8,9950.0
3440,0.31476789712905884,3.0050675868988037,-4,5897.0,1.5305771827697754,254,9950.0
3450,0.3148961663246155,4.125645637512207,17,5897.0,8.796692848205566,35,9950.0
3460,0.3149477243423462,4.783653259277344,118,5897.0,7.786225318908691,165,9950.0
3470,0.31494301557540894,3.728271722793579,25,5897.0,7.246550559997559,174,9950.0
3480,0.3154071569442749,4.11281156539917,6,5897.0,8.764477729797363,138,9950.0
3490,0.31544068455696106,1.5750746726989746,77,5897.0,7.570834159851074,19,9950.0
3500,0.315501868724823,0.9605444073677063,9,5897.0,1.5465400218963623,138,9950.0
3510,0.3155229091644287,-0.6154220104217529,-57,5897.0,3.4028189182281494,6,9950.0
3520,0.3178595304489136,-0.6892143487930298,32,5897.0,0.3916749656200409,-85,9950.0
3530,0.31787922978401184,-2.834336996078491,-35,5897.0,-3.4956374168395996,-15,9950.0
3540,0.318179190158844,-2.756571054458618,-86,5897.0,-5.242553234100342,-18,9950.0
3550,0.3184989094734192,-2.340740919113159,-29,5897.0,-6.081055164337158,-251,9950.0
3560,0.3187772035598755,-2.4069554805755615,11,5897.0,-5.224946022033691,-61,9950.0
3570,0.3186166286468506,-1.5437127351760864,-118,5897.0,-3.396510362625122,-1,9950.0
3580,0.31878823041915894,-0.3510940670967102,-39,5897.0,-4.792104244232178,-65,9950.0
3590,0.31889209151268005,-0.6747297644615173,43,5897.0,-1.0872554779052734,-131,9950.0
3600,0.3189581036567688,0.3582385182380676,19,5897.0,-0.5158201456069946,109,9950.0
3610,0.3194032907485962,-0.4764363467693329,-50,5897.0,2.4242513179779053,76,9950.0
3620,0.3195377588272095,-0.8354644775390625,34,5897.0,2.854363203048706,60,9950.0
3630,0.31989598274230957,-1.8763277530670166,36,5897.0,2.467299461364746,64,9950.0
3640,0.3198985755443573,-0.008895915932953358,-63,5897.0,0.9133394956588745,141,9950.0
3650,0.32038578391075134,-1.6473538875579834,-43,5897.0,3.274855375289917,-1,9950.0
3660,0.32024085521698,-0.7973604202270508,10,5897.0,1.7294974327087402,69,9950.0
3670,0.32037848234176636,0.0935230627655983,-29,5897.0,2.860010862350464,103,9950.0
3680,0.32036733627319336,1.4185653924942017,-44,5897.0,1.6684844493865967,25,9950.0
3690,0.32035088539123535,0.4676622152328491,96,5897.0,4.03240442276001,-31,9950.0
3700,0.32017141580581665,3.667659282684326,68,5897.0,2.6410136222839355,115,9950.0
3710,0.3200840950012207,4.193920612335205,29,5897.0,5.155418872833252,96,9950.0
3720,0.3200191259384155,4.406179428100586,43,5897.0,3.8623101711273193,-45,9950.0
3730,0.3200039267539978,3.144038438796997,86,5897.0,1.317082166671753,35,9950.0
3740,0.3203626871109009,2.840074062347412,-62,5897.0,2.355980396270752,175,9950.0
3750,0.3203854560852051,1.1315224170684814,-36,5897.0,1.541966438293457,-52,9950.0
3760,0.32034093141555786,0.45290622115135193,9,5897.0,1.8923001289367676,-30,9950.0
3770,0.32024821639060974,-1.3354096412658691,12,5897.0,1.1194825172424316,14,9950.0
3780,0.320064902305603,-1.9839000701904297,-101,5897.0,-2.2203171253204346,24,9950.0
3790,0.3214908838272095,-2.340754270553589,16,5897.0,-0.5362712740898132,-146,9950.0
3800,0.3213145136833191,-2.5240161418914795,32,5897.0,0.5568760633468628,56,9950.0
3810,0.3211909234523773,-0.7790505290031433,-28,5897.0,0.2195132076740265,28,9950.0
3820,0.3211243450641632,1.1916940212249756,40,5897.0,0.34029334783554077,-20,9950.0
3830,0.32223331928253174,0.22340601682662964,110,5897.0,0.5466896295547485,-77,9950.0
3840,0.3223331868648529,-0.01663535088300705,-47,5897.0,-1.9021188020706177,113,9950.0
3850,0.32243460416793823,-0.1991683542728424,-46,5897.0,0.23765906691551208,-64,9950.0
3860,0.32247182726860046,-0.6251928210258484,60,5897.0,1.2097042798995972,-39,9950.0
3870,0.3224436044692993,-1.3012250661849976,68,5897.0,2.433213233947754,-3,9950.0
3880,0.3230285942554474,-1.2415111064910889,-24,5897.0,3.041553258895874,154,9950.0
3890,0.3230026066303253,-2.9224040508270264,-20,5897.0,0.6403951048851013,77,9950.0
3900,0.32301515340805054,0.0043243179097771645,25,5897.0,3.5312185287475586,19,9950.0
3910,0.3230922222137451,-1.1149622201919556,42,5897.0,-0.2529585063457489,78,9950.0
3920,0.3223976492881775,-0.4269217848777771,-95,5897.0,-2.012035846710205,94,9950.0
3930,0.32255446910858154,-1.6619457006454468,-39,5897.0,0.48441281914711,-82,9950.0
3940,0.3227025866508484,-2.1292614936828613,-49,5897.0,-1.0153626203536987,-2,9950.0
3950,0.3228146731853485,-3.4005281925201416,-106,5897.0,-2.5943102836608887,10,9950.0
3960,0.3221644461154938,-2.3363139629364014,-79,5897.0,-4.958807468414307,-136,9950.0
3970,0.3221052587032318,-1.2013362646102905,59,5897.0,-3.9116225242614746,-130,9950.0
3980,0.32198867201805115,0.6727447509765625,-30,5897.0,-5.391454696655273,20,9950.0
3990,0.32185623049736023,1.861473560333252,15,5897.0,-1.3074136972427368,-109,9950.0
4000,0.32175782322883606,3.3802058696746826,93,5897.0,-0.6971692442893982,-62,9950.0
4010,0.320672869682312,3.2551090717315674,69,5897.0,-2.2239718437194824,37,9950.0
4020,0.3206501603126526,3.708678722381592,4,5897.0,0.2852296829223633,37,9950.0
4030,0.32071277499198914,2.012510299682617,75,5897.0,0.6056570410728455,-70,9950.0
4040,0.32083478569984436,1.7071382999420166,16,5897.0,0.3532852828502655,64,9950.0
4050,0.31982529163360596,-0.962720513343811,-65,5897.0,1.980249285697937,116,9950.0
4060,0.31981921195983887,-2.3098762035369873,-9,5897.0,3.5036237239837646,18,9950.0
4070,0.3197527229785919,-0.8669799566268921,8,5897.0,-0.21332179009914398,4,9950.0
4080,0.3196798264980316,-0.07955291122198105,-75,5897.0,-0.5125849843025208,72,9950.0
4090,0.31951478123664856,-2.1491856575012207,-7,5897.0,-2.8182191848754883,-157,9950.0
4100,0.31877589225769043,-3.7181944847106934,-10,5897.0,-1.417823076248169,0,9950.0
4110,0.31847259402275085,-2.198214530944824,-113,5897.0,-0.3667510151863098,56,9950.0
4120,0.3181736469268799,-2.687018394470215,10,5897.0,0.7764506340026855,-109,9950.0
4130,0.3178679943084717,0.012338180094957352,57,5897.0,-1.8473634719848633,-10,9950.0
4140,0.31891950964927673,0.284090518951416,-57,5897.0,-3.0316312313079834,69,9950.0
4150,0.31880322098731995,0.36478543281555176,43,5897.0,-1.2528138160705566,-112,9950.0
4160,0.31874221563339233,-0.013794888742268085,-15,5897.0,1.347106695175171,133,9950.0
4170,0.3187517523765564,1.712539792060852,-50,5897.0,0.34656888246536255,34,9950.0
4180,0.319259375333786,0.1213180348277092,31,5897.0,2.2274372577667236,0,9950.0
4190,0.3193962872028351,0.480450838804245,-24,5897.0,1.8634843826293945,63,9950.0
4200,0.31962862610816956,1.843770146369934,-31,5897.0,0.4971550405025482,10,9950.0
4210,0.31986185908317566,0.04137875884771347,48,5897.0,3.0913517475128174,41,9950.0
4220,0.3201213777065277,-0.9662705659866333,-17,5897.0,4.023281097412109,123,9950.0
4230,0.32063546776771545,-0.5067337155342102,-68,5897.0,0.33633705973625183,-74,9950.0
4240,0.32090044021606445,-2.122870922088623,53,5897.0,3.9562854766845703,-26,9950.0
4250,0.32115140557289124,0.6931818723678589,-22,5897.0,-0.7225204110145569,84,9950.0
4260,0.3213962912559509,1.2692785263061523,15,5897.0,2.2457146644592285,1,9950.0
4270,0.3225165903568268,0.4429403245449066,80,5897.0,2.3328299522399902,26,9950.0
4280,0.3227531313896179,0.7825700044631958,-24,5897.0,3.3924124240875244,120,9950.0
4290,0.3229600787162781,1.9123278856277466,-26,5897.0,1.257300615310669,-28,9950.0
4300,0.323109894990921,0.32576775550842285,95,5897.0,1.2222473621368408,-8,9950.0
4310,0.3232026994228363,1.0108561515808105,-1,5897.0,1.2487733364105225,133,9950.0
4320,0.32277220487594604,2.401871919631958,7,5897.0,4.614380836486816,14,9950.0
4330,0.3228761851787567,1.5412943363189697,77,5897.0,5.7322096824646,112,9950.0
4340,0.32306310534477234,0.23420767486095428,7,5897.0,4.918848991394043,133,9950.0
4350,0.32326453924179077,1.049241542816162,4,5897.0,0.37756338715553284,-22,9950.0
4360,0.32293254137039185,0.06173335760831833,69,5897.0,1.7308305501937866,-75,9950.0
4370,0.3231784701347351,-0.1409343034029007,-20,5897.0,1.7492308616638184,138,9950.0
4380,0.32338905334472656,1.2486255168914795,-34,5897.0,3.284134864807129,-53,9950.0
4390,0.3235523998737335,-0.47610563039779663,86,5897.0,1.6008353233337402,-36,9950.0
4400,0.32419106364250183,0.6798658967018127,-2,5897.0,1.1137858629226685,72,9950.0
4410,0.32431328296661377,0.4346895217895508,-16,5897.0,2.8839874267578125,57,9950.0
4420,0.32436659932136536,1.1395224332809448,56,5897.0,2.8625855445861816,-42,9950.0
4430,0.32438188791275024,1.8820875883102417,86,5897.0,0.7311082482337952,119,9950.0
4440,0.32437804341316223,3.396635055541992,-43,5897.0,-1.103267788887024,72,9950.0
4450,0.3262108862400055,1.4130138158798218,64,5897.0,0.4570164084434509,-110,9950.0
4460,0.32623082399368286,-0.504534125328064,-31,5897.0,-0.3279961943626404,-4,9950.0
4470,0.3262602686882019,-1.1715797185897827,-72,5897.0,-3.761265277862549,-8,9950.0
4480,0.3262937664985657,-1.582290768623352,-82,5897.0,-3.384504795074463,-132,9950.0
4490,0.3250385820865631,-2.554367780685425,20,5897.0,-3.6784255504608154,-25,9950.0
4500,0.3250349462032318,-3.1848366260528564,-31,5897.0,-0.4568976163864136,64,9950.0
4510,0.32506924867630005,-0.9509810209274292,-80,5897.0,-0.569810688495636,-94,9950.0
4520,0.3250877559185028,-3.6916611194610596,-35,5897.0,-0.4567359685897827,59,9950.0
4530,0.32506561279296875,-0.5534255504608154,-34,5897.0,-1.3775787353515625,111,9950.0
4540,0.32579395174980164,0.4903164207935333,-70,5897.0,1.1452252864837646,-2,9950.0
4550,0.32569628953933716,1.5313130617141724,69,5897.0,-2.4378297328948975,-116,9950.0
4560,0.3255419433116913,2.2539501190185547,72,5897.0,-0.15405398607254028,-32,9950.0
4570,0.3253456950187683,1.6332471370697021,2,5897.0,-2.2622241973876953,-15,9950.0
4580,0.3254726231098175,1.3784394264221191,43,5897.0,1.9386236667633057,-71,9950.0
4590,0.3253287672996521,-0.8120614886283875,37,5897.0,2.2513139247894287,103,9950.0
4600,0.32521024346351624,-0.6973330974578857,-71,5897.0,5.376285076141357,128,9950.0
4610,0.3251015245914459,-1.5171070098876953,23,5897.0,2.7875285148620605,-22,9950.0
4620,0.3250155746936798,-1.8757020235061646,-5,5897.0,-2.616729736328125,68,9950.0
4630,0.32499364018440247,-2.1575870513916016,-77,5897.0,2.969545602798462,-16,9950.0
4640,0.3249923288822174,-0.3316320478916168,18,5897.0,-2.579669952392578,-70,9950.0
4650,0.32503214478492737,-0.30585139989852905,-25,5897.0,-4.116120338439941,-70,9950.0
4660,0.32510265707969666,0.5704649686813354,-32,5897.0,-6.055721759796143,-52,9950.0
4670,0.32551005482673645,0.4247618317604065,33,5897.0,-3.040498971939087,-168,9950.0
4680,0.3255785405635834,1.7570675611495972,9,5897.0,-3.0582969188690186,93,9950.0
4690,0.32558441162109375,1.0426501035690308,-40,5897.0,0.5880528688430786,4,9950.0
4700,0.3255127966403961,0.6015524864196777,87,5897.0,1.1846963167190552,-34,9950.0
4710,0.3267492949962616,-0.3292921185493469,-40,5897.0,2.2944557666778564,107,9950.0
4720,0.326673686504364,-3.1190881729125977,-87,5897.0,8.178184509277344,110,9950.0
4730,0.32656896114349365,0.08563543856143951,31,5897.0,8.00871467590332,135,9950.0
4740,0.32647642493247986,0.28908005356788635,20,5897.0,6.268991470336914,142,9950.0
4750,0.3264056444168091,1.479841709136963,27,5897.0,4.390101909637451,2,9950.0
4760,0.3257920742034912,2.3735544681549072,130,5897.0,-0.6707160472869873,-32,9950.0
4770,0.3257167339324951,3.700981378555298,27,5897.0,-5.560014247894287,13,9950.0
4780,0.3256790041923523,5.223377227783203,53,5897.0,-11.137918472290039,-258,9950.0
4790,0.32567065954208374,5.355822563171387,113,5897.0,-12.952535629272461,-170,9950.0
4800,0.3250042200088501,8.03810977935791,45,5897.0,-11.718052864074707,-185,9950.0
4810,0.3249632716178894,6.0461578369140625,93,5897.0,-10.584155082702637,-273,9950.0
4820,0.32483577728271484,1.9655003547668457,49,5897.0,-9.918232917785645,-103,9950.0
4830,0.3247959315776825,-2.7568881511688232,-89,5897.0,-4.354057312011719,3,9950.0
4840,0.3255842924118042,-4.858120441436768,-127,5897.0,-2.87363338470459,-77,9950.0
4850,0.3254114091396332,-7.029940605163574,-57,5897.0,3.6299562454223633,25,9950.0
4860,0.32526513934135437,-8.585700035095215,-155,5897.0,4.504959583282471,218,9950.0
4870,0.3250247538089752,-10.787420272827148,-199,5897.0,7.204350471496582,96,9950.0
4880,0.32447320222854614,-12.856111526489258,-122,5897.0,9.844712257385254,84,9950.0
4890,0.32680654525756836,-13.692234992980957,-240,5897.0,6.659907341003418,146,9950.0
4900,0.32626429200172424,-10.131332397460938,-145,5897.0,6.642594814300537,92,9950.0
4910,0.325750470161438,1.9298722743988037,108,5897.0,7.3114542961120605,99,9950.0
4920,0.3247580826282501,2.128204345703125,21,5897.0,5.472231388092041,170,9950.0
4930,0.3227958679199219,-7.1503729820251465,-229,5897.0,8.548686981201172,107,9950.0
4940,0.32204586267471313,-17.22316551208496,-254,5897.0,11.321430206298828,123,9950.0
4950,0.32147806882858276,-25.367250442504883,-457,5897.0,14.957610130310059,357,9950.0
4960,0.32097163796424866,-27.729860305786133,-542,5897.0,16.793916702270508,264,9950.0
4970,0.3195861876010895,-31.111454010009766,-415,5897.0,19.84309196472168,302,9950.0
4980,0.31967005133628845,-30.80613136291504,-489,5897.0,20.448320388793945,399,9950.0
4990,0.3191164433956146,-28.883182525634766,-486,5897.0,25.181095123291016,401,9950.0
5000,0.31877195835113525,-22.902786254882812,-271,5897.0,26.2283878326416,428,9950.0
5010,0.3172622323036194,-16.911602020263672,-260,5897.0,27.29361343383789,518,9950.0
5020,0.31899410486221313,-14.025869369506836,-241,5897.0,29.26760482788086,410,9950.0
5030,0.31824785470962524,-11.26608943939209,-155,5897.0,27.266260147094727,464,9950.0
5040,0.31774553656578064,-3.7171223163604736,-41,5897.0,27.75798988342285,504,9950.0
5050,0.31608209013938904,4.616464614868164,156,5897.0,32.17398452758789,496,9950.0
5060,0.31716471910476685,4.198347568511963,2,5897.0,30.987224578857422,559,9950.0
5070,0.3165985941886902,0.4177406430244446,-14,5897.0,31.364315032958984,419,9950.0
5080,0.31583309173583984,-1.0028231143951416,-76,5897.0,28.528514862060547,459,9950.0
5090,0.31429845094680786,-10.728023529052734,-250,5897.0,27.70266342163086,425,9950.0
5100,0.31368809938430786,-16.848716735839844,-287,5897.0,25.07740592956543,453,9950.0
5110,0.31582269072532654,-23.827985763549805,-390,5897.0,26.366092681884766,402,9950.0
5120,0.3150479197502136,-20.509946823120117,-224,5897.0,22.387470245361328,360,9950.0
5130,0.31357213854789734,-8.554849624633789,-158,5897.0,19.780942916870117,386,9950.0
5140,0.3129161298274994,-5.599587440490723,-80,5897.0,18.183807373046875,312,9950.0
5150,0.313161164522171,-5.616324424743652,-123,5897.0,22.008556365966797,429,9950.0
5160,0.312288373708725,-3.82773494720459,-79,5897.0,23.46749496459961,282,9950.0
5170,0.3111754357814789,-3.026064872741699,-62,5897.0,22.307170867919922,396,9950.0
5180,0.3106438219547272,-2.0482394695281982,-90,5897.0,22.260562896728516,345,9950.0
5190,0.31052500009536743,1.4242216348648071,120,5897.0,22.05217742919922,412,9950.0
5200,0.3087508976459503,4.497345924377441,28,5897.0,22.36158561706543,406,9950.0
5210,0.30818429589271545,7.009777545928955,212,5897.0,20.13014030456543,331,9950.0
5220,0.30730652809143066,9.010147094726562,112,5897.0,16.431514739990234,237,9950.0
5230,0.3068365752696991,8.090653419494629,216,5897.0,15.414202690124512,212,9950.0
5240,0.30849891901016235,6.551886081695557,47,5897.0,14.260527610778809,383,9950.0
5250,0.30749428272247314,6.393036365509033,122,5897.0,11.171651840209961,112,9950.0
5260,0.3070385158061981,4.754408836364746,83,5897.0,9.880287170410156,233,9950.0
5270,0.30664846301078796,1.7474703788757324,7,5897.0,12.154596328735352,236,9950.0
5280,0.30687230825424194,1.6542019844055176,52,5897.0,17.162137985229492,292,9950.0
5290,0.30591803789138794,3.378333330154419,-9,5897.0,19.276159286499023,359,9950.0
5300,0.30528968572616577,3.408479928970337,114,5897.0,20.499509811401367,228,9950.0
5310,0.30518558621406555,1.1408497095108032,55,5897.0,22.123193740844727,468,9950.0
5320,0.3046552240848541,0.5161959528923035,-61,5897.0,19.89785385131836,318,9950.0
5330,0.3056275248527527,0.4281294643878937,49,5897.0,15.603477478027344,205,9950.0
5340,0.3051539361476898,3.0006773471832275,10,5897.0,14.50383186340332,257,9950.0
5350,0.30463624000549316,3.73826003074646,139,5897.0,13.726949691772461,152,9950.0
5360,0.30464616417884827,6.13873291015625,95,5897.0,9.273172378540039,314,9950.0
5370,0.30695489048957825,6.324794769287109,16,5897.0,7.414172649383545,121,9950.0
5380,0.3064788579940796,6.501119136810303,175,5897.0,1.3951373100280762,20,9950.0
5390,0.30618008971214294,7.757518768310547,48,5897.0,-4.2773895263671875,38,9950.0
5400,0.3059215545654297,5.585665225982666,115,5897.0,-0.3959398567676544,-112,9950.0
5410,0.30536794662475586,5.04664945602417,144,5897.0,-2.6724162101745605,43,9950.0
5420,0.30892935395240784,9.159265518188477,80,5897.0,-1.9445569515228271,72,9950.0
5430,0.30876338481903076,7.923670768737793,162,5897.0,-3.048699378967285,-47,9950.0
5440,0.3086772561073303,8.403840065002441,177,5897.0,2.3271148204803467,107,9950.0
5450,0.308795303106308,10.238529205322266,125,5897.0,4.131541728973389,78,9950.0
5460,0.31198859214782715,8.610186576843262,173,5897.0,4.339048385620117,-76,9950.0
5470,0.31198611855506897,10.471684455871582,248,5897.0,1.617832899093628,50,9950.0
5480,0.3119959831237793,9.33292293548584,88,5897.0,0.17993277311325073,61,9950.0
5490,0.31207993626594543,7.050489902496338,52,5897.0,-2.1159121990203857,-31,9950.0
5500,0.315414696931839,3.755357027053833,104,5897.0,-4.383861064910889,-103,9950.0
5510,0.3158792555332184,2.307286024093628,57,5897.0,-11.312849998474121,-144,9950.0
5520,0.3163449168205261,4.679971694946289,30,5897.0,-8.932114601135254,-87,9950.0
5530,0.31676238775253296,6.961646556854248,120,5897.0,-14.190755844116211,-348,9950.0
5540,0.31711849570274353,9.532550811767578,223,5897.0,-16.283475875854492,-390,9950.0
5550,0.3207657039165497,10.384963035583496,288,5897.0,-12.966486930847168,-271,9950.0
5560,0.32128584384918213,12.904510498046875,203,5897.0,-13.22959041595459,-112,9950.0
5570,0.32185789942741394,13.421127319335938,133,5897.0,-13.749785423278809,-86,9950.0
5580,0.322458952665329,10.750655174255371,108,5897.0,-15.141469955444336,-148,9950.0
5590,0.3253926932811737,6.191389083862305,69,5897.0,-14.21684741973877,-177,9950.0
5600,0.32606008648872375,5.068261623382568,102,5897.0,-13.667749404907227,-248,9950.0
5610,0.32678112387657166,4.5509538650512695,115,5897.0,-14.624342918395996,-295,9950.0
5620,0.32738545536994934,3.7014670372009277,129,5897.0,-8.923571586608887,-269,9950.0
5630,0.3310128152370453,4.33341121673584,126,5897.0,-2.5496768951416016,-276,9950.0
5640,0.3314838111400604,4.377326011657715,153,5897.0,-4.751432418823242,-269,9950.0
5650,0.3319147527217865,3.888929843902588,124,5897.0,-5.436596870422363,-213,9950.0
5660,0.33217090368270874,5.897556781768799,142,5897.0,-6.560197830200195,-65,9950.0
5670,0.3323303461074829,3.743671417236328,75,5897.0,-6.833564281463623,-79,9950.0
5680,0.33318600058555603,3.8388965129852295,68,5897.0,-9.755895614624023,-93,9950.0
5690,0.33324089646339417,1.8934040069580078,58,5897.0,-10.311695098876953,-131,9950.0
5700,0.3331897556781769,2.0469281673431396,-2,5897.0,-15.004897117614746,-115,9950.0
5710,0.33315539360046387,2.1512632369995117,30,5897.0,-16.114273071289062,-125,9950.0
5720,0.33245229721069336,1.717594861984253,61,5897.0,-14.335673332214355,-254,9950.0
5730,0.3322138786315918,0.03807011619210243,32,5897.0,-14.719393730163574,-325,9950.0
5740,0.33192625641822815,0.39217060804367065,-19,5897.0,-15.152518272399902,-292,9950.0
5750,0.3315410315990448,-2.500253677368164,-57,5897.0,-14.16476058959961,-182,9950.0
5760,0.33105504512786865,-6.040375709533691,-116,5897.0,-14.39520263671875,-104,9950.0
5770,0.33325207233428955,-7.553591728210449,-158,5897.0,-9.039283752441406,-61,9950.0
5780,0.33286169171333313,-7.9636640548706055,-109,5897.0,-0.6980948448181152,-77,9950.0
5790,0.33238333463668823,-6.373067378997803,-106,5897.0,-0.7138747572898865,-67,9950.0
5800,0.33199772238731384,-6.670830726623535,-101,5897.0,0.6650468111038208,-58,9950.0
5810,0.3348146677017212,-6.782586574554443,-106,5897.0,1.1526410579681396,17,9950.0
5820,0.3344973623752594,-6.214346408843994,-148,5897.0,1.5978155136108398,113,9950.0
5830,0.3340603709220886,-6.328579425811768,-139,5897.0,-0.07416783273220062,176,9950.0
5840,0.3335648775100708,-5.513045310974121,-57,5897.0,1.4125046730041504,71,9950.0
5850,0.33374127745628357,-6.603395938873291,-71,5897.0,-0.9873908162117004,-43,9950.0
5860,0.33319467306137085,-8.136863708496094,-105,5897.0,-1.9140468835830688,-56,9950.0
5870,0.3326364755630493,-6.442266941070557,-64,5897.0,-6.882970333099365,-155,9950.0
5880,0.33208876848220825,-7.027905464172363,-63,5897.0,-7.128732204437256,-188,9950.0
5890,0.33157578110694885,-4.806412696838379,-15,5897.0,-9.716019630432129,-142,9950.0
5900,0.3316616117954254,-3.801170587539673,-3,5897.0,-5.73249626159668,-71,9950.0
5910,0.3312307298183441,-1.2113404273986816,-18,5897.0,-4.381219387054443,22,9950.0
5920,0.3308310806751251,1.015297532081604,7,5897.0,-1.8929203748703003,49,9950.0
5930,0.33033981919288635,0.401413232088089,33,5897.0,-0.2572284936904907,3,9950.0
5940,0.3305802643299103,-5.095006942749023,-73,5897.0,2.7270328998565674,48,9950.0
5950,0.32988935708999634,-8.556991577148438,-116,5897.0,3.2365758419036865,-11,9950.0
5960,0.32977819442749023,-10.0892915725708,-135,5897.0,0.23955614864826202,-121,9950.0
5970,0.3292638063430786,-10.880477905273438,-119,5897.0,-4.246061325073242,-156,9950.0
5980,0.32914844155311584,-8.508862495422363,-69,5897.0,-2.0420877933502197,-204,9950.0
5990,0.3286179006099701,-6.48581075668335,-19,5897.0,-7.447994709014893,-144,9950.0
6000,0.3282580077648163,-2.968735933303833,-11,5897.0,-4.174359321594238,-146,9950.0
6010,0.3278293013572693,0.7951282858848572,103,5897.0,-8.460060119628906,-180,9950.0
6020,0.32738563418388367,1.9490983486175537,85,5897.0,-5.253106117248535,-150,9950.0
6030,0.32763174176216125,3.9756968021392822,114,5897.0,-4.481917381286621,-125,9950.0
6040,0.3273114562034607,2.187483787536621,79,5897.0,-0.7051519751548767,-91,9950.0
6050,0.32713183760643005,3.8523192405700684,85,5897.0,-0.41089892387390137,-84,9950.0
6060,0.3269098401069641,2.327530860900879,70,5897.0,0.5954269766807556,-82,9950.0
6070,0.3276473581790924,1.7292132377624512,82,5897.0,2.652512788772583,-122,9950.0
6080,0.32761049270629883,1.9090389013290405,95,5897.0,2.17915415763855,-88,9950.0
6090,0.32771146297454834,3.3127856254577637,135,5897.0,-0.6142914891242981,-56,9950.0
6100,0.3278672397136688,2.645779609680176,127,5897.0,-3.8727965354919434,-118,9950.0
6110,0.32801657915115356,5.394986629486084,120,5897.0,-4.791013717651367,-128,9950.0
6120,0.32895851135253906,4.248013973236084,130,5897.0,-1.133053183555603,-53,9950.0
6130,0.32928067445755005,4.82689094543457,106,5897.0,-3.0271964073181152,-57,9950.0
6140,0.32965055108070374,5.306788444519043,88,5897.0,-0.36988571286201477,-50,9950.0
6150,0.3300272226333618,3.5452940464019775,88,5897.0,-2.295609712600708,-44,9950.0
6160,0.33064067363739014,2.7814455032348633,59,5897.0,-2.837677240371704,-111,9950.0
6170,0.3310259282588959,0.7446320652961731,45,5897.0,-0.818001925945282,-94,9950.0
6180,0.33143725991249084,0.48214593529701233,42,5897.0,-1.6953153610229492,-128,9950.0
6190,0.33182454109191895,1.0564885139465332,73,5897.0,1.5952228307724,-79,9950.0
6200,0.3336264193058014,1.837327003479004,94,5897.0,0.7319982647895813,-61,9950.0
6210,0.33400970697402954,1.8650929927825928,111,5897.0,0.3006315231323242,-79,9950.0
6220,0.3343336880207062,-0.7775091528892517,18,5897.0,-0.24532945454120636,-126,9950.0
6230,0.3346058428287506,-0.07877731323242188,10,5897.0,-3.633700370788574,-80,9950.0
6240,0.3348444104194641,-3.03857421875,-13,5897.0,-2.1579182147979736,-83,9950.0
6250,0.33395302295684814,-2.0262434482574463,9,5897.0,-2.2091164588928223,-83,9950.0
6260,0.3341512084007263,-1.9430584907531738,17,5897.0,2.135058641433716,29,9950.0
6270,0.3342489004135132,-1.2193864583969116,-41,5897.0,3.497304677963257,72,9950.0
6280,0.33435559272766113,1.9557809829711914,2,5897.0,2.0130889415740967,120,9950.0
6290,0.3346709609031677,0.7930303812026978,10,5897.0,3.970142364501953,158,9950.0
6300,0.3347662687301636,1.2408678531646729,-8,5897.0,5.104614734649658,213,9950.0
6310,0.3348417282104492,1.735967755317688,7,5897.0,4.3042731285095215,126,9950.0
6320,0.3349091410636902,1.22360098361969,-31,5897.0,6.235787868499756,155,9950.0
6330,0.3349510431289673,-0.7668598294258118,-82,5897.0,3.374070405960083,114,9950.0
6340,0.3333568572998047,-1.0717703104019165,-33,5897.0,0.6538102626800537,65,9950.0
6350,0.3332124650478363,-2.1346657276153564,-49,5897.0,2.221653699874878,65,9950.0
6360,0.33299189805984497,-1.6107577085494995,-23,5897.0,-0.44345077872276306,38,9950.0
6370,0.3327231705188751,-2.6247644424438477,15,5897.0,0.5528828501701355,-16,9950.0
6380,0.3306244909763336,0.30010902881622314,72,5897.0,0.6946716904640198,-38,9950.0
6390,0.3302014172077179,0.4595714509487152,-11,5897.0,7.833180904388428,66,9950.0
6400,0.3298186659812927,0.9961905479431152,17,5897.0,0.4341560900211334,3,9950.0
6410,0.32937294244766235,0.2926061451435089,-7,5897.0,4.745295524597168,-16,9950.0
6420,0.32736727595329285,-0.3062654137611389,-6,5897.0,2.8965351581573486,-13,9950.0
6430,0.3267647325992584,-1.9457876682281494,-29,5897.0,4.051507949829102,-39,9950.0
6440,0.3261631429195404,-4.9063262939453125,-58,5897.0,5.1353607177734375,-95,9950.0
6450,0.32557618618011475,-4.497477054595947,-55,5897.0,3.1875722408294678,-19,9950.0
6460,0.3250671923160553,-4.8926801681518555,-41,5897.0,3.225626230239868,-26,9950.0
6470,0.32487884163856506,-4.350685119628906,-30,5897.0,3.218337297439575,-24,9950.0
6480,0.32435110211372375,-3.9890875816345215,-13,5897.0,1.863134741783142,38,9950.0
6490,0.3238646388053894,-2.1759753227233887,-25,5897.0,0.5230017304420471,-25,9950.0
6500,0.32343509793281555,-1.897147297859192,-7,5897.0,-1.7282531261444092,-7,9950.0
6510,0.32306575775146484,-0.5941671133041382,29,5897.0,2.508713722229004,17,9950.0
6520,0.3227503001689911,-1.8555608987808228,18,5897.0,1.8474074602127075,15,9950.0
6530,0.3225080370903015,-2.1019484996795654,24,5897.0,2.3341758251190186,-92,9950.0
6540,0.322306752204895,-3.238455295562744,35,5897.0,2.7777743339538574,-58,9950.0
6550,0.3221917748451233,-3.2142179012298584,19,5897.0,2.458374261856079,-213,9950.0
6560,0.3223866820335388,-2.2677829265594482,68,5897.0,8.389015197753906,-91,9950.0
6570,0.3221985995769501,-1.216229796409607,92,5897.0,6.924668312072754,-11,9950.0
6580,0.32198819518089294,0.777838945388794,70,5897.0,6.383873462677002,100,9950.0
6590,0.3217692971229553,0.3723399341106415,13,5897.0,6.954021453857422,92,9950.0
6600,0.322462260723114,1.2220858335494995,19,5897.0,0.7917684316635132,-11,9950.0
6610,0.322201132774353,0.11839418858289719,-15,5897.0,4.836611270904541,138,9950.0
6620,0.32205796241760254,-0.7014085054397583,-94,5897.0,6.30038595199585,229,9950.0
6630,0.3219367265701294,-0.4226423501968384,-162,5897.0,8.80734920501709,305,9950.0
6640,0.3227086067199707,1.5796680450439453,-109,5897.0,9.940875053405762,286,9950.0
6650,0.32273778319358826,3.269353151321411,-115,5897.0,9.592095375061035,307,9950.0
6660,0.322824627161026,2.0293354988098145,-83,5897.0,12.214054107666016,318,9950.0
6670,0.32301488518714905,0.9043322205543518,-75,5897.0,7.669353485107422,200,9950.0
6680,0.3233613967895508,3.9475247859954834,62,5897.0,-1.2522096633911133,23,9950.0
6690,0.324751615524292,2.894152879714966,82,5897.0,-6.05179500579834,-81,9950.0
6700,0.32533136010169983,4.547860622406006,94,5897.0,-6.146146297454834,-145,9950.0
6710,0.32597649097442627,4.955796241760254,95,5897.0,-8.002309799194336,-194,9950.0
6720,0.32661038637161255,4.8426923751831055,92,5897.0,-9.927149772644043,-160,9950.0
6730,0.32987523078918457,3.5661661624908447,62,5897.0,-4.958076477050781,-20,9950.0
6740,0.3306712210178375,4.524553298950195,99,5897.0,-6.199692249298096,14,9950.0
6750,0.3315533995628357,5.478854656219482,107,5897.0,-2.8839473724365234,53,9950.0
6760,0.33238938450813293,4.628531455993652,55,5897.0,2.3104584217071533,132,9950.0
6770,0.33322298526763916,3.609222650527954,38,5897.0,4.995818614959717,103,9950.0
6780,0.33512964844703674,4.133469104766846,30,5897.0,-2.3165266513824463,85,9950.0
6790,0.335971862077713,2.180077314376831,51,5897.0,-3.882875919342041,3,9950.0
6800,0.3368094861507416,1.325670838356018,43,5897.0,-1.8133113384246826,-28,9950.0
6810,0.3375898003578186,1.270169973373413,20,5897.0,-7.115143299102783,-99,9950.0
6820,0.337676078081131,1.7041656970977783,23,5897.0,-5.875927925109863,-110,9950.0
6830,0.3383450210094452,0.8885054588317871,23,5897.0,-6.8081583976745605,-112,9950.0
6840,0.338976114988327,0.024898776784539223,20,5897.0,-7.814014911651611,-25,9950.0
6850,0.33952584862709045,4.137711524963379,57,5897.0,-8.071206092834473,-27,9950.0
6860,0.3403838574886322,3.011561155319214,78,5897.0,-7.585678577423096,-47,9950.0
6870,0.3408300578594208,1.801039695739746,95,5897.0,-2.7671384811401367,-51,9950.0
6880,0.34128132462501526,2.825822114944458,67,5897.0,-0.3469632863998413,-21,9950.0
6890,0.34164074063301086,-0.10561097413301468,30,5897.0,2.6495072841644287,17,9950.0
6900,0.34190070629119873,1.238416314125061,-5,5897.0,-4.509587287902832,13,9950.0
6910,0.3425431549549103,-0.8687913417816162,19,5897.0,-5.594769477844238,-168,9950.0
6920,0.3427071273326874,-2.964731454849243,-39,5897.0,-1.474706768989563,-91,9950.0
6930,0.34280213713645935,-2.8098838329315186,-34,5897.0,-1.5203243494033813,-26,9950.0
6940,0.3428322374820709,-3.1763617992401123,-46,5897.0,-2.534359931945801,42,9950.0
6950,0.34329456090927124,-2.1741528511047363,-36,5897.0,-0.41439926624298096,35,9950.0
6960,0.343261182308197,-1.538225531578064,-18,5897.0,1.8222777843475342,-11,9950.0
6970,0.3432369530200958,-3.7831084728240967,-39,5897.0,2.331381320953369,-41,9950.0
6980,0.3430737555027008,-5.27000093460083,-77,5897.0,1.4930813312530518,64,9950.0
6990,0.34281495213508606,-7.049258232116699,-89,5897.0,2.5127601623535156,99,9950.0
7000,0.3430507183074951,-6.602267742156982,-89,5897.0,0.8151813745498657,4,9950.0
7010,0.3427969515323639,-6.530673503875732,-85,5897.0,-2.710381031036377,-124,9950.0
7020,0.342523455619812,-5.859796524047852,-111,5897.0,-3.402703285217285,-166,9950.0
7030,0.3421286344528198,-6.855799198150635,-81,5897.0,-2.2156779766082764,-242,9950.0
7040,0.3423042893409729,-5.603687286376953,-116,5897.0,-2.889794111251831,-107,9950.0
7050,0.34187638759613037,-3.672973155975342,-76,5897.0,-7.061072826385498,-85,9950.0
7060,0.34142449498176575,-4.019710540771484,-54,5897.0,-3.509855270385742,-113,9950.0
7070,0.3409661054611206,-3.8763740062713623,-69,5897.0,-2.4947617053985596,22,9950.0
7080,0.33835282921791077,-1.9037712812423706,-31,5897.0,-3.416654348373413,-55,9950.0
7090,0.33768466114997864,-1.901298999786377,-90,5897.0,-4.656367301940918,-75,9950.0
7100,0.3371157646179199,-3.3024911880493164,-77,5897.0,-0.050522755831480026,-7,9950.0
7110,0.33651289343833923,-2.414761543273926,-39,5897.0,-4.027118682861328,-93,9950.0
7120,0.3359682857990265,-5.410865783691406,-20,5897.0,-0.6110337376594543,-39,9950.0
7130,0.33581671118736267,-5.84058952331543,-35,5897.0,-3.1131677627563477,-109,9950.0
7140,0.3352975845336914,-6.240213871002197,-91,5897.0,0.37089991569519043,-46,9950.0
7150,0.3347293436527252,-5.813231468200684,-93,5897.0,-0.04863410070538521,-4,9950.0
7160,0.3341662883758545,-6.550534725189209,-75,5897.0,2.9301505088806152,29,9950.0
7170,0.33417463302612305,-5.118605613708496,-47,5897.0,3.171171188354492,-26,9950.0
7180,0.3336503505706787,-2.8767616748809814,-27,5897.0,0.08188186585903168,-46,9950.0
7190,0.3332960307598114,-2.3771567344665527,-31,5897.0,4.5599212646484375,-1,9950.0
7200,0.33285850286483765,-0.5485858917236328,22,5897.0,3.090423107147217,-13,9950.0
7210,0.3324732482433319,-0.39115187525749207,49,5897.0,2.5183823108673096,-21,9950.0
7220,0.3318749964237213,-0.7223604321479797,44,5897.0,-0.23012499511241913,-103,9950.0
7230,0.33143720030784607,-1.6154000759124756,55,5897.0,1.355628252029419,-57,9950.0
7240,0.3310021162033081,-2.6032540798187256,-16,5897.0,0.8702402710914612,-70,9950.0
7250,0.3305184841156006,-1.0274747610092163,37,5897.0,-0.023924747481942177,-56,9950.0
7260,0.33216166496276855,-2.653398275375366,12,5897.0,7.13707160949707,62,9950.0
7270,0.3318370580673218,-1.2692952156066895,-3,5897.0,3.709956407546997,8,9950.0
7280,0.33152636885643005,-2.151172161102295,0,5897.0,0.9101488590240479,-60,9950.0
7290,0.3314422070980072,-1.224949836730957,19,5897.0,3.362114191055298,72,9950.0
7300,0.3331063985824585,-1.126937747001648,44,5897.0,2.5722556114196777,47,9950.0
7310,0.33311939239501953,-1.3487955331802368,36,5897.0,6.799651145935059,130,9950.0
7320,0.3332414925098419,2.405103921890259,26,5897.0,4.822334289550781,126,9950.0
7330,0.33348348736763,2.7494399547576904,-11,5897.0,0.33498650789260864,83,9950.0
7340,0.33382755517959595,1.0963774919509888,-25,5897.0,1.1348962783813477,114,9950.0
7350,0.33516526222229004,-0.9542922377586365,-117,5897.0,1.2635459899902344,69,9950.0
7360,0.3357411324977875,-0.8996992707252502,-111,5897.0,-2.1809840202331543,65,9950.0
7370,0.33631959557533264,-0.6628588438034058,-32,5897.0,-0.43867772817611694,65,9950.0
7380,0.33690783381462097,1.7791171073913574,-22,5897.0,-0.6284940838813782,38,9950.0
7390,0.3396699130535126,5.647122383117676,31,5897.0,-3.9556190967559814,27,9950.0
7400,0.3404267132282257,5.100879192352295,55,5897.0,1.2512017488479614,46,9950.0
7410,0.34128338098526,7.721690654754639,39,5897.0,1.1193007230758667,69,9950.0
7420,0.3420060873031616,6.872595310211182,98,5897.0,2.0631847381591797,106,9950.0
7430,0.3427283465862274,7.498770236968994,74,5897.0,3.5444483757019043,44,9950.0
7440,0.34270474314689636,6.9457526206970215,45,5897.0,1.1001808643341064,17,9950.0
7450,0.3433148264884949,4.277903079986572,94,5897.0,2.1719319820404053,-76,9950.0
7460,0.34389594197273254,2.855790376663208,67,5897.0,-0.11784597486257553,-84,9950.0
7470,0.344389945268631,1.0728611946105957,52,5897.0,1.9843693971633911,25,9950.0
7480,0.3454560339450836,2.161045551300049,26,5897.0,-0.4963299632072449,56,9950.0
7490,0.3458593785762787,2.6737375259399414,58,5897.0,-0.5294833779335022,40,9950.0
7500,0.3461724519729614,1.2964322566986084,21,5897.0,0.8834843635559082,106,9950.0
7510,0.34644412994384766,3.3825650215148926,74,5897.0,-1.898012399673462,36,9950.0
7520,0.34760016202926636,4.519259452819824,127,5897.0,-1.1979831457138062,-27,9950.0
7530,0.347842276096344,2.611055374145508,115,5897.0,2.249507427215576,-97,9950.0
7540,0.34801673889160156,4.9999918937683105,110,5897.0,-0.8238698840141296,19,9950.0
7550,0.34810471534729004,4.089287757873535,86,5897.0,0.0012162153143435717,129,9950.0
7560,0.34830784797668457,4.6474103927612305,51,5897.0,-4.5445637702941895,140,9950.0
7570,0.3486475646495819,1.6810911893844604,65,5897.0,-1.2341229915618896,49,9950.0
7580,0.34863075613975525,1.0007824897766113,27,5897.0,-1.4386900663375854,-68,9950.0
7590,0.34855976700782776,0.40855857729911804,23,5897.0,3.0506885051727295,-5,9950.0
7600,0.3483906686306,-0.02925366722047329,24,5897.0,2.853630781173706,71,9950.0
7610,0.3473338782787323,-0.0661352202296257,33,5897.0,3.346409559249878,191,9950.0
7620,0.3470681607723236,0.8414840698242188,47,5897.0,6.2340779304504395,143,9950.0
7630,0.3467558026313782,1.9024726152420044,96,5897.0,5.644572734832764,64,9950.0
7640,0.34638968110084534,0.849755048751831,93,5897.0,3.7896065711975098,-30,9950.0
7650,0.3460296392440796,2.211402177810669,61,5897.0,3.567491054534912,-11,9950.0
7660,0.34603098034858704,3.4552104473114014,27,5897.0,-1.0529283285140991,76,9950.0
7670,0.3456173539161682,0.180756613612175,23,5897.0,-5.363589763641357,-28,9950.0
7680,0.34517160058021545,-1.5058602094650269,-18,5897.0,-6.031118869781494,41,9950.0
7690,0.34473639726638794,-1.3070908784866333,-54,5897.0,-9.56065845489502,-54,9950.0
7700,0.34393054246902466,-2.8354504108428955,-46,5897.0,-7.891567707061768,-18,9950.0
7710,0.34339457750320435,-2.4108471870422363,-11,5897.0,-2.383397340774536,-12,9950.0
7720,0.3428575396537781,-3.3761215209960938,-9,5897.0,3.4322245121002197,6,9950.0
7730,0.34231501817703247,-0.5900612473487854,17,5897.0,2.5458791255950928,45,9950.0
7740,0.34304869174957275,-0.2532212734222412,-8,5897.0,2.8245184421539307,-4,9950.0
7750,0.34252315759658813,-1.1090381145477295,-20,5897.0,7.543202877044678,20,9950.0
7760,0.3419853448867798,-2.5469248294830322,-66,5897.0,4.760462284088135,72,9950.0
7770,0.34146109223365784,-3.8829495906829834,-130,5897.0,6.7921223640441895,152,9950.0
7780,0.3409841060638428,-3.6994271278381348,-81,5897.0,5.551531791687012,91,9950.0
7790,0.3409164249897003,-3.813735008239746,-91,5897.0,2.774515151977539,82,9950.0
7800,0.3405199348926544,-3.4696106910705566,-85,5897.0,1.291826605796814,62,9950.0
7810,0.3401027023792267,-3.423509120941162,-89,5897.0,-2.1056787967681885,-3,9950.0
7820,0.33975932002067566,-3.232064723968506,-103,5897.0,-6.370633125305176,-65,9950.0
7830,0.3400847911834717,-2.0562336444854736,-71,5897.0,-7.471325397491455,6,9950.0
7840,0.33990275859832764,-0.28398218750953674,-53,5897.0,-3.5161805152893066,1,9950.0
7850,0.3397916257381439,-1.2353507280349731,-64,5897.0,-6.625181198120117,-14,9950.0
7860,0.3397282660007477,-2.022542953491211,-1,5897.0,-2.2951512336730957,49,9950.0
7870,0.33967041969299316,-1.5839022397994995,-8,5897.0,6.304155349731445,85,9950.0
7880,0.3397766351699829,0.7082042098045349,-26,5897.0,4.8887410163879395,143,9950.0
7890,0.33982837200164795,-0.2466927468776703,-20,5897.0,7.7316789627075195,134,9950.0
7900,0.3399466574192047,0.6680396199226379,-13,5897.0,7.011363983154297,148,9950.0
7910,0.34006449580192566,1.302659034729004,-10,5897.0,6.0146098136901855,107,9950.0
7920,0.3408728539943695,1.956260085105896,41,5897.0,1.5428539514541626,-29,9950.0
7930,0.3409908413887024,1.515555739402771,57,5897.0,-3.719745635986328,-152,9950.0
7940,0.34115833044052124,-0.11804528534412384,8,5897.0,-6.222639560699463,-273,9950.0
7950,0.341404527425766,-3.808659553527832,-4,5897.0,-6.00992488861084,-223,9950.0
7960,0.3414158821105957,-4.044951915740967,6,5897.0,-6.596981048583984,-183,9950.0
7970,0.3416483700275421,-0.8784803748130798,32,5897.0,-7.562611103057861,-164,9950.0
7980,0.34186792373657227,-0.06282233446836472,27,5897.0,-7.762046813964844,-122,9950.0
7990,0.3420464098453522,0.7399789690971375,34,5897.0,-0.2411261647939682,15,9950.0
8000,0.3422545790672302,1.2126256227493286,35,5897.0,7.5467352867126465,103,9950.0
8010,0.34116771817207336,0.8600234985351562,18,5897.0,5.5412468910217285,31,9950.0
8020,0.34130972623825073,1.8701999187469482,9,5897.0,4.580254554748535,136,9950.0
8030,0.3414251506328583,-0.3245065212249756,-23,5897.0,3.2122750282287598,152,9950.0
8040,0.3414834141731262,2.4465830326080322,6,5897.0,4.0130510330200195,122,9950.0
8050,0.34168344736099243,1.9583038091659546,16,5897.0,1.5385677814483643,57,9950.0
8060,0.3416597247123718,1.1167681217193604,-42,5897.0,0.10232458263635635,40,9950.0
8070,0.34162670373916626,0.5996056795120239,-3,5897.0,-0.8686038851737976,81,9950.0
8080,0.34160393476486206,-0.5288760662078857,-38,5897.0,-4.085190773010254,-45,9950.0
8090,0.34159278869628906,-0.6136684417724609,-35,5897.0,-4.3058953285217285,7,9950.0
8100,0.3409084677696228,-0.9440167546272278,45,5897.0,-4.929406642913818,-130,9950.0
8110,0.3408258259296417,-2.7052578926086426,4,5897.0,-1.8100193738937378,-112,9950.0
8120,0.34076324105262756,-2.8798227310180664,6,5897.0,-0.07945962250232697,-81,9950.0
8130,0.34070587158203125,-0.7366487383842468,16,5897.0,-0.19521194696426392,-76,9950.0
8140,0.3411703109741211,-1.262847661972046,4,5897.0,-0.42007654905319214,-58,9950.0
8150,0.3411584198474884,0.42045843601226807,4,5897.0,1.5702463388442993,-6,9950.0
8160,0.3411574065685272,-0.3044504225254059,-16,5897.0,1.7202837467193604,-15,9950.0
8170,0.34119540452957153,-1.3224003314971924,-27,5897.0,3.788285255432129,96,9950.0
8180,0.34153732657432556,0.41583532094955444,-33,5897.0,0.7626789212226868,57,9950.0
8190,0.34160909056663513,-0.841208815574646,-5,5897.0,-2.128113031387329,-2,9950.0
8200,0.341654509305954,-1.0451722145080566,-39,5897.0,-1.0578290224075317,15,9950.0
8210,0.34170129895210266,-1.0168147087097168,-39,5897.0,1.379818320274353,119,9950.0
8220,0.3417275846004486,0.2135002166032791,-91,5897.0,2.125689744949341,150,9950.0
8230,0.34305474162101746,0.18189822137355804,-28,5897.0,1.9037128686904907,114,9950.0
8240,0.3431144654750824,0.5735079050064087,4,5897.0,-1.9186326265335083,-4,9950.0
8250,0.3432043194770813,-0.20536214113235474,58,5897.0,-4.584583282470703,-59,9950.0
8260,0.3433123528957367,-1.2228147983551025,59,5897.0,-0.686922550201416,-22,9950.0
8270,0.3440551161766052,-0.07300543040037155,41,5897.0,-1.1324212551116943,-64,9950.0
8280,0.34419527649879456,1.0272647142410278,84,5897.0,-3.8011727333068848,-170,9950.0
8290,0.3443223834037781,1.6997631788253784,24,5897.0,-3.3170013427734375,-48,9950.0
8300,0.34444159269332886,1.8224167823791504,33,5897.0,0.8126379251480103,25,9950.0
8310,0.3445296585559845,1.2579282522201538,27,5897.0,5.09763240814209,37,9950.0
8320,0.3456052541732788,0.9504222869873047,24,5897.0,2.1374733448028564,88,9950.0
8330,0.34570279717445374,1.6795674562454224,4,5897.0,0.5567416548728943,83,9950.0
8340,0.34578317403793335,2.3307344913482666,31,5897.0,0.23626449704170227,45,9950.0
8350,0.3458395302295685,4.040389537811279,40,5897.0,0.7431069612503052,74,9950.0
8360,0.3463398218154907,2.434788703918457,27,5897.0,2.699993848800659,22,9950.0
8370,0.34638047218322754,1.2749319076538086,40,5897.0,1.5627453327178955,-31,9950.0
8380,0.34638139605522156,1.7999193668365479,54,5897.0,1.7883410453796387,-53,9950.0
8390,0.34635472297668457,2.7064406871795654,57,5897.0,-1.6629825830459595,-102,9950.0
8400,0.34620043635368347,1.6038310527801514,66,5897.0,-1.2956948280334473,-67,9950.0
8410,0.3461620509624481,1.9744428396224976,33,5897.0,-3.031662702560425,-49,9950.0
8420,0.34616735577583313,1.676551103591919,65,5897.0,-3.450883626937866,-11,9950.0
8430,0.3461199700832367,2.700765371322632,38,5897.0,-5.97134256362915,-78,9950.0
8440,0.3460475206375122,2.289942979812622,18,5897.0,-3.905466318130493,6,9950.0
8450,0.3463243842124939,0.5137699246406555,23,5897.0,-4.527036666870117,-129,9950.0
8460,0.3462165594100952,0.14359928667545319,-6,5897.0,-2.7990872859954834,-134,9950.0
8470,0.3460768461227417,-1.3986561298370361,7,5897.0,-1.4315850734710693,-132,9950.0
8480,0.34593626856803894,-2.1701691150665283,8,5897.0,0.9620862007141113,-60,9950.0
8490,0.3454661965370178,-0.5573165416717529,-8,5897.0,0.10755659639835358,17,9950.0
8500,0.34528979659080505,-2.2100090980529785,-42,5897.0,1.0128388404846191,93,9950.0
8510,0.34512171149253845,-2.7854442596435547,-31,5897.0,2.627812623977661,136,9950.0
8520,0.3449540138244629,-2.1081390380859375,-37,5897.0,2.6660311222076416,173,9950.0
8530,0.34477487206459045,-1.5102317333221436,-3,5897.0,1.2315376996994019,42,9950.0
8540,0.34592029452323914,-1.1684608459472656,-24,5897.0,-1.5477619171142578,19,9950.0
8550,0.3458148241043091,-2.9965691566467285,-1,5897.0,2.0621440410614014,-23,9950.0
8560,0.3457289934158325,-1.340164065361023,-40,5897.0,4.172073841094971,-6,9950.0
8570,0.34565404057502747,-0.251528263092041,-2,5897.0,8.652215957641602,1,9950.0
8580,0.345329225063324,-1.4797728061676025,-4,5897.0,3.269038677215576,-72,9950.0
8590,0.34524214267730713,-0.4499831795692444,3,5897.0,1.5285722017288208,-5,9950.0
8600,0.34515175223350525,-2.4229862689971924,-12,5897.0,-1.1125268936157227,46,9950.0
8610,0.3450537323951721,-2.2971928119659424,-16,5897.0,3.3472087383270264,97,9950.0
8620,0.3473053574562073,-1.636303186416626,-28,5897.0,2.546196699142456,86,9950.0
8630,0.34727758169174194,0.1269443780183792,-70,5897.0,-1.7987141609191895,96,9950.0
8640,0.34722065925598145,0.15643863379955292,-10,5897.0,-1.7440764904022217,41,9950.0
8650,0.3471328318119049,-0.14165276288986206,-11,5897.0,-1.3677490949630737,7,9950.0
8660,0.34699559211730957,-1.9951974153518677,-6,5897.0,-0.9030953645706177,-29,9950.0
8670,0.3476535975933075,-0.705695390701294,-16,5897.0,1.1340351104736328,-24,9950.0
8680,0.34757018089294434,-0.9779927134513855,10,5897.0,2.0119683742523193,-24,9950.0
8690,0.34752151370048523,-1.3636853694915771,-22,5897.0,2.7165424823760986,25,9950.0
8700,0.3475450277328491,-0.3414469063282013,-29,5897.0,1.3994194269180298,-12,9950.0
8710,0.347391277551651,-1.5344171524047852,-36,5897.0,4.674886226654053,55,9950.0
8720,0.34745705127716064,-0.15405812859535217,-31,5897.0,-2.33351469039917,10,9950.0
8730,0.3475120961666107,0.1625979244709015,-29,5897.0,0.9299943447113037,64,9950.0
8740,0.34752365946769714,0.40108293294906616,-14,5897.0,0.2021799385547638,103,9950.0
8750,0.34747883677482605,-0.9595693349838257,-32,5897.0,0.8509796261787415,99,9950.0
8760,0.34761250019073486,-1.4320523738861084,-30,5897.0,1.2347429990768433,29,9950.0
8770,0.3475337028503418,-2.8277993202209473,-5,5897.0,-1.3665518760681152,-25,9950.0
8780,0.3474322259426117,-1.2212413549423218,20,5897.0,0.7104239463806152,-44,9950.0
8790,0.34730666875839233,-1.4277979135513306,30,5897.0,2.3398876190185547,-6,9950.0
8800,0.3470545709133148,0.031119365245103836,32,5897.0,2.4424285888671875,-35,9950.0
8810,0.3469139337539673,1.695231318473816,19,5897.0,3.167753219604492,46,9950.0
8820,0.3467549681663513,0.4996589422225952,1,5897.0,5.438313961029053,60,9950.0
8830,0.34659263491630554,1.2886016368865967,7,5897.0,-0.246657595038414,76,9950.0
8840,0.3478492796421051,-0.6989461779594421,-34,5897.0,-0.1632346212863922,68,9950.0
8850,0.3477286100387573,-1.8453903198242188,-45,5897.0,-0.3626725375652313,68,9950.0
8860,0.34757113456726074,-1.4760674238204956,-87,5897.0,5.243731498718262,115,9950.0
8870,0.34739771485328674,0.49859505891799927,-19,5897.0,4.599212646484375,54,9950.0
8880,0.347197026014328,0.491407185792923,16,5897.0,6.209077835083008,-86,9950.0
8890,0.348507285118103,-1.4649049043655396,11,5897.0,6.883510112762451,-44,9950.0
8900,0.34838125109672546,0.1822143793106079,10,5897.0,2.91951847076416,57,9950.0
8910,0.3482314944267273,0.8168861269950867,2,5897.0,2.8060503005981445,67,9950.0
8920,0.34807923436164856,0.4550599455833435,30,5897.0,0.8617099523544312,65,9950.0
8930,0.34916171431541443,-0.2524838447570801,17,5897.0,-0.7979156970977783,39,9950.0
8940,0.34905096888542175,0.8996433615684509,41,5897.0,-4.738987922668457,-43,9950.0
8950,0.3489242494106293,1.2864384651184082,13,5897.0,-1.7269216775894165,-13,9950.0
8960,0.3487606942653656,1.8927580118179321,29,5897.0,-1.12242591381073,-30,9950.0
8970,0.3485678434371948,2.2894651889801025,37,5897.0,-0.7709671258926392,-54,9950.0
8980,0.3489367365837097,1.567928671836853,20,5897.0,-1.7996915578842163,-32,9950.0
8990,0.3487350642681122,-0.7071893811225891,-14,5897.0,1.871888279914856,1,9950.0
9000,0.3485400080680847,-1.7292765378952026,-43,5897.0,3.8872549533843994,63,9950.0
9010,0.34835392236709595,-2.08972430229187,-36,5897.0,-3.668488025665283,44,9950.0
9020,0.34885406494140625,-4.031121253967285,-86,5897.0,3.04254412651062,78,9950.0
9030,0.3487423062324524,-3.8077495098114014,-64,5897.0,4.407665252685547,105,9950.0
9040,0.3486327826976776,-1.2411941289901733,-53,5897.0,1.1079683303833008,57,9950.0
9050,0.3485289216041565,0.3675762712955475,19,5897.0,-1.3627604246139526,-110,9950.0
9060,0.34908315539360046,-1.132960319519043,32,5897.0,0.12831099331378937,-119,9950.0
9070,0.34902626276016235,1.0314431190490723,31,5897.0,-2.249763011932373,-96,9950.0
9080,0.34895774722099304,2.0144526958465576,52,5897.0,-4.75098180770874,-60,9950.0
9090,0.3488619923591614,2.226897954940796,46,5897.0,-7.02203893661499,-51,9950.0
9100,0.34875190258026123,0.29738375544548035,-21,5897.0,-4.48638391494751,-22,9950.0
9110,0.34914344549179077,1.7566601037979126,29,5897.0,-5.691482067108154,-93,9950.0
9120,0.3490395247936249,0.07023207098245621,36,5897.0,-0.41003745794296265,-129,9950.0
9130,0.348924458026886,0.03113503009080887,30,5897.0,1.9941694736480713,-89,9950.0
9140,0.34879034757614136,-0.6397814154624939,-8,5897.0,1.570586919784546,-18,9950.0
9150,0.3499213755130768,0.39767247438430786,7,5897.0,-0.42816245555877686,109,9950.0
9160,0.34986862540245056,0.7123867273330688,-14,5897.0,0.542447030544281,194,9950.0
9170,0.34981775283813477,-1.0468084812164307,-34,5897.0,0.2525383532047272,137,9950.0
9180,0.34975704550743103,0.016549430787563324,35,5897.0,3.0538525581359863,43,9950.0
9190,0.34970057010650635,-1.1055753231048584,11,5897.0,5.304562568664551,26,9950.0
9200,0.34974581003189087,0.29722556471824646,10,5897.0,2.201953411102295,-35,9950.0
9210,0.34964969754219055,0.380678653717041,-5,5897.0,1.2119786739349365,-17,9950.0
9220,0.3495333194732666,1.144701361656189,16,5897.0,-4.968081474304199,-56,9950.0
9230,0.34939098358154297,-3.1003329753875732,-56,5897.0,-1.226115345954895,7,9950.0
9240,0.3499087691307068,-2.691091537475586,-49,5897.0,-3.1598243713378906,8,9950.0
9250,0.349785715341568,-2.377241611480713,-37,5897.0,-4.530991554260254,-30,9950.0
9260,0.34965384006500244,0.12590114772319794,-11,5897.0,-3.715329170227051,-38,9950.0
9270,0.3495067358016968,-0.8084700703620911,-15,5897.0,-3.4842965602874756,-122,9950.0
9280,0.35000503063201904,3.350625991821289,41,5897.0,-1.9092626571655273,-170,9950.0
9290,0.349861204624176,1.1575874090194702,54,5897.0,2.403865337371826,-101,9950.0
9300,0.34970298409461975,-0.20529451966285706,11,5897.0,2.413727045059204,28,9950.0
9310,0.34953412413597107,1.3838473558425903,25,5897.0,1.7538732290267944,111,9950.0
9320,0.34935787320137024,-1.6523020267486572,-51,5897.0,6.085209846496582,290,9950.0
9330,0.3498375117778778,-1.8405505418777466,-54,5897.0,0.33448588848114014,103,9950.0
9340,0.34970080852508545,-2.107754707336426,-18,5897.0,-1.4171278476715088,44,9950.0
9350,0.34954214096069336,-1.807053565979004,-3,5897.0,0.02552393637597561,-32,9950.0
9360,0.3493373692035675,-1.8688616752624512,8,5897.0,-0.7071051597595215,-81,9950.0
9370,0.34972673654556274,-1.448748230934143,-19,5897.0,-2.20090651512146,-90,9950.0
9380,0.349490761756897,-1.5946053266525269,33,5897.0,-4.580846309661865,-106,9950.0
9390,0.34926480054855347,0.9532457590103149,34,5897.0,-4.283605098724365,-56,9950.0
9400,0.3490091860294342,2.1201045513153076,29,5897.0,-6.260429382324219,-88,9950.0
9410,0.3487543761730194,2.2429416179656982,21,5897.0,-0.5580469369888306,44,9950.0
9420,0.34776049852371216,4.181046009063721,34,5897.0,-4.088005065917969,25,9950.0
9430,0.3474458158016205,4.702524662017822,7,5897.0,-3.4515695571899414,28,9950.0
9440,0.3471239507198334,1.0281758308410645,-23,5897.0,-3.068856954574585,-66,9950.0
9450,0.34679466485977173,-0.0026198008563369513,-18,5897.0,-0.8374955654144287,2,9950.0
9460,0.34652209281921387,-2.4432551860809326,-46,5897.0,3.2214674949645996,-1,9950.0
9470,0.346199631690979,-4.522552013397217,-29,5897.0,6.096742153167725,-43,9950.0
9480,0.3459234833717346,-4.733345031738281,-10,5897.0,1.8998603820800781,-53,9950.0
9490,0.34563907980918884,-2.695071220397949,-24,5897.0,1.303359031677246,-35,9950.0
9500,0.3455829918384552,-2.9011385440826416,11,5897.0,-2.4491169452667236,-130,9950.0
9510,0.3454645574092865,-0.6043724417686462,6,5897.0,0.2329491525888443,66,9950.0
9520,0.3453389108181,1.3700134754180908,30,5897.0,-2.877981185913086,113,9950.0
9530,0.3451998233795166,1.9455856084823608,22,5897.0,-0.10013064742088318,75,9950.0
9540,0.34502890706062317,1.7481966018676758,-2,5897.0,6.454548358917236,122,9950.0
9550,0.34607768058776855,1.3476370573043823,-7,5897.0,1.4588651657104492,94,9950.0
9560,0.3459247946739197,2.5098419189453125,4,5897.0,1.5570720434188843,108,9950.0
9570,0.34577664732933044,0.5382204055786133,12,5897.0,-0.5475218296051025,-12,9950.0
9580,0.34565630555152893,3.071469783782959,62,5897.0,-3.688599109649658,-65,9950.0
9590,0.3464871644973755,3.32780385017395,103,5897.0,-4.345755577087402,-159,9950.0
9600,0.3464045226573944,2.7415850162506104,107,5897.0,0.4242013096809387,-88,9950.0
9610,0.3463013172149658,2.7154979705810547,106,5897.0,-0.17001107335090637,-90,9950.0
9620,0.3462214171886444,2.5263850688934326,49,5897.0,0.6921538710594177,-66,9950.0
9630,0.34617117047309875,0.8489654064178467,28,5897.0,-0.8056121468544006,-31,9950.0
9640,0.34693294763565063,-0.9498154520988464,7,5897.0,2.6251020431518555,-17,9950.0
9650,0.34700313210487366,1.2860991954803467,-3,5897.0,1.4756803512573242,130,9950.0
9660,0.34711670875549316,1.23207426071167,-53,5897.0,3.5363364219665527,153,9950.0
9670,0.34721994400024414,-0.9908051490783691,7,5897.0,5.291066646575928,129,9950.0
9680,0.3496645987033844,1.748382329940796,-27,5897.0,2.8614063262939453,46,9950.0
9690,0.34982195496559143,0.783012866973877,-22,5897.0,1.509802222251892,50,9950.0
9700,0.3499208390712738,-1.002062201499939,55,5897.0,5.2205305099487305,9,9950.0
9710,0.34996405243873596,1.5446244478225708,74,5897.0,4.839258193969727,0,9950.0
9720,0.3512079417705536,4.057498931884766,95,5897.0,0.9114072322845459,-34,9950.0
9730,0.35133713483810425,4.6138176918029785,108,5897.0,-2.5866947174072266,-26,9950.0
9740,0.3514801561832428,5.137209415435791,104,5897.0,-4.888383388519287,-11,9950.0
9750,0.3516435921192169,4.522695541381836,69,5897.0,-5.6676716804504395,13,9950.0
9760,0.3518156111240387,3.150608539581299,58,5897.0,-5.169491291046143,-57,9950.0
9770,0.35248345136642456,2.957885265350342,66,5897.0,-3.0714504718780518,-90,9950.0
9780,0.352649450302124,1.3275359869003296,37,5897.0,0.5970497131347656,28,9950.0
9790,0.352775514125824,2.3008735179901123,69,5897.0,0.5369696021080017,-31,9950.0
9800,0.3528554439544678,2.6594254970550537,60,5897.0,1.7546052932739258,107,9950.0
9810,0.353737473487854,0.9950293898582458,15,5897.0,3.5622971057891846,129,9950.0
9820,0.3537631630897522,2.198915958404541,35,5897.0,1.6273280382156372,149,9950.0
9830,0.35375842452049255,2.298604965209961,26,5897.0,2.5813701152801514,50,9950.0
9840,0.3537161350250244,0.3437603712081909,7,5897.0,0.9082314372062683,-27,9950.0
9850,0.35363543033599854,-1.8933227062225342,-32,5897.0,1.2071961164474487,10,9950.0
9860,0.3540724515914917,-3.5302140712738037,-57,5897.0,-0.7967243790626526,63,9950.0
9870,0.35391637682914734,-3.3346924781799316,-51,5897.0,-1.6236156225204468,58,9950.0
9880,0.3537142276763916,-0.5477782487869263,-24,5897.0,-2.437387228012085,20,9950.0
9890,0.35346484184265137,-0.455252468585968,-12,5897.0,-5.353518009185791,-56,9950.0
9900,0.35581448674201965,-0.514902651309967,14,5897.0,-1.5248808860778809,-130,9950.0
9910,0.3555961847305298,-0.514167308807373,-12,5897.0,-2.518156051635742,-101,9950.0
9920,0.35535094141960144,0.8011948466300964,7,5897.0,-0.5960099697113037,39,9950.0
9930,0.35505324602127075,2.0378432273864746,-4,5897.0,-4.099639892578125,46,9950.0
9940,0.35468441247940063,-0.7774121761322021,-38,5897.0,0.11892571300268173,57,9950.0
9950,0.35428091883659363,-1.506226897239685,-28,5897.0,-0.12291839718818665,-51,9950.0
9960,0.3538258373737335,-3.114161729812622,-33,5897.0,-1.8231396675109863,-93,9950.0
9970,0.35333505272865295,-2.7930350303649902,-71,5897.0,-0.9389546513557434,-41,9950.0
9980,0.35284560918807983,-5.3606109619140625,-94,5897.0,4.030340194702148,27,9950.0
9990,0.35407304763793945,-6.300832271575928,-98,5897.0,-1.1712329387664795,73,9950.0
10000,0.35368019342422485,-3.1457767486572266,-73,5897.0,-4.701350212097168,-4,9950.0
10010,0.35325923562049866,-2.3532156944274902,-49,5897.0,1.1802462339401245,33,9950.0
10020,0.35325369238853455,-0.7418157458305359,-32,5897.0,2.8071277141571045,24,9950.0
10030,0.3529888391494751,1.3910975456237793,12,5897.0,1.733515977859497,-8,9950.0
10040,0.352995902299881,-1.3736094236373901,-26,5897.0,2.035473108291626,-16,9950.0
10050,0.3523145914077759,-0.6654654741287231,-27,5897.0,1.6646630764007568,-45,9950.0
10060,0.3523422181606293,0.7608182430267334,9,5897.0,-7.075611114501953,-101,9950.0
10070,0.3517531454563141,0.26427391171455383,-22,5897.0,-7.495838642120361,-76,9950.0
10080,0.352253258228302,-2.859196424484253,-97,5897.0,-6.133254051208496,33,9950.0
10090,0.3519347906112671,-3.3563425540924072,-75,5897.0,-8.744211196899414,-78,9950.0
10100,0.35159075260162354,-4.794694900512695,-66,5897.0,-6.641603946685791,-84,9950.0
10110,0.35125038027763367,-5.438254356384277,-28,5897.0,-2.61894154548645,-117,9950.0
10120,0.3517000675201416,-4.524468421936035,-61,5897.0,0.04235620051622391,-53,9950.0
10130,0.3513917326927185,-3.119952440261841,-23,5897.0,0.13491998612880707,-112,9950.0
10140,0.3508192002773285,-3.032290458679199,-47,5897.0,6.036235332489014,65,9950.0
10150,0.3508215844631195,-2.264451265335083,-40,5897.0,6.662719249725342,115,9950.0
10160,0.3512510359287262,-2.527127742767334,-88,5897.0,3.56718111038208,141,9950.0
10170,0.3512546122074127,-4.331857204437256,-114,5897.0,1.4066143035888672,76,9950.0
10180,0.350905179977417,-4.43257474899292,-103,5897.0,-0.44307199120521545,23,9950.0
10190,0.35091060400009155,-3.5514345169067383,-84,5897.0,-6.959967613220215,13,9950.0
10200,0.3505954444408417,-4.056187152862549,-65,5897.0,-4.629067897796631,12,9950.0
10210,0.3515496551990509,-0.5481503009796143,-24,5897.0,-5.406946182250977,-49,9950.0
10220,0.35129502415657043,0.6512191891670227,11,5897.0,-4.668087959289551,-74,9950.0
10230,0.35128870606422424,1.1523529291152954,90,5897.0,-5.312725067138672,-63,9950.0
10240,0.3511481285095215,2.0197010040283203,102,5897.0,-1.4390571117401123,-56,9950.0
10250,0.3502473831176758,5.25100564956665,59,5897.0,3.810842514038086,70,9950.0
10260,0.35006245970726013,2.604818820953369,57,5897.0,2.8695149421691895,-10,9950.0
10270,0.3498326241970062,0.7128960490226746,27,5897.0,7.527641296386719,58,9950.0
10280,0.34957605600357056,0.5813249945640564,-11,5897.0,7.838197231292725,105,9950.0
10290,0.34930428862571716,-2.757190227508545,-39,5897.0,3.1944830417633057,138,9950.0
10300,0.3506607711315155,-3.5455524921417236,-85,5897.0,1.8253827095031738,54,9950.0
10310,0.35048335790634155,-4.750911712646484,-92,5897.0,-1.0394779443740845,44,9950.0
10320,0.3503330945968628,-2.2249770164489746,-103,5897.0,-1.3484357595443726,172,9950.0
10330,0.3502059876918793,0.277297705411911,16,5897.0,-5.226647853851318,66,9950.0
10340,0.3508504331111908,-0.16084317862987518,86,5897.0,2.438579559326172,46,9950.0
10350,0.3508374094963074,3.1589903831481934,105,5897.0,1.424210548400879,18,9950.0
10360,0.3508417308330536,5.769386291503906,69,5897.0,3.3734970092773438,41,9950.0
10370,0.35083556175231934,5.501713275909424,76,5897.0,1.250577688217163,-4,9950.0
10380,0.3508838713169098,3.927173137664795,61,5897.0,4.769809722900391,-16,9950.0
10390,0.35084590315818787,3.4534008502960205,43,5897.0,0.5071467757225037,26,9950.0
10400,0.3507809042930603,1.4959174394607544,-2,5897.0,3.006544351577759,83,9950.0
10410,0.35070186853408813,2.1444458961486816,37,5897.0,2.9139575958251953,102,9950.0
10420,0.3506276607513428,0.794634997844696,6,5897.0,3.0824341773986816,148,9950.0
10430,0.35112491250038147,-0.19946520030498505,-7,5897.0,4.623445987701416,64,9950.0
10440,0.3510521352291107,0.9795098304748535,16,5897.0,4.932987213134766,60,9950.0
10450,0.35099920630455017,2.13222599029541,22,5897.0,2.694680690765381,-73,9950.0
10460,0.3509024977684021,2.7761669158935547,50,5897.0,-0.8616065979003906,-113,9950.0
10470,0.35124874114990234,3.545593738555908,73,5897.0,-3.4302783012390137,-154,9950.0
10480,0.35113412141799927,3.362217664718628,57,5897.0,-2.9399495124816895,-80,9950.0
10490,0.3510565459728241,1.5070600509643555,22,5897.0,-2.183654308319092,39,9950.0
10500,0.3509606122970581,0.15705113112926483,11,5897.0,-3.9584577083587646,47,9950.0
10510,0.35240438580513,-0.5323110222816467,-2,5897.0,-1.242720127105713,56,9950.0
10520,0.35237500071525574,2.6011881828308105,-1,5897.0,-4.096435070037842,48,9950.0
10530,0.35240381956100464,2.377960443496704,45,5897.0,1.423959493637085,110,9950.0
10540,0.3525049090385437,4.945312023162842,118,5897.0,3.8311500549316406,102,9950.0
10550,0.35248884558677673,3.793351650238037,70,5897.0,3.7139248847961426,42,9950.0
10560,0.35189831256866455,4.886040687561035,66,5897.0,4.2595534324646,16,9950.0
10570,0.35181817412376404,5.012347221374512,76,5897.0,3.627819538116455,-6,9950.0
10580,0.35169851779937744,1.4650071859359741,-44,5897.0,3.603879928588867,-18,9950.0
10590,0.35158032178878784,0.8721567988395691,30,5897.0,-5.634331226348877,-8,9950.0
10600,0.35200244188308716,1.8291927576065063,1,5897.0,-6.451274871826172,40,9950.0
10610,0.35186079144477844,-1.1825920343399048,-34,5897.0,-1.4531351327896118,42,9950.0
10620,0.3517197370529175,-1.1319516897201538,-15,5897.0,-2.0318713188171387,-22,9950.0
10630,0.3515559732913971,-3.6224312782287598,-57,5897.0,1.3382261991500854,-63,9950.0
10640,0.3513810634613037,-3.2334160804748535,-12,5897.0,-0.7793885469436646,-157,9950.0
10650,0.35112103819847107,-2.1174733638763428,-24,5897.0,0.11579965054988861,-154,9950.0
10660,0.3508651554584503,-2.5339059829711914,4,5897.0,-6.221909046173096,-175,9950.0
10670,0.350613534450531,-2.3344783782958984,-35,5897.0,-2.3511197566986084,-51,9950.0
10680,0.35033291578292847,0.33926695585250854,9,5897.0,-0.521701455116272,-1,9950.0
10690,0.3508071005344391,-0.30404287576675415,-19,5897.0,-0.7965018153190613,106,9950.0
10700,0.35058996081352234,1.4431320428848267,-15,5897.0,-1.3218517303466797,108,9950.0
10710,0.35042575001716614,2.8552842140197754,43,5897.0,0.22143016755580902,102,9950.0
10720,0.35031113028526306,1.4230382442474365,64,5897.0,1.4302970170974731,23,9950.0
10730,0.350145161151886,1.4810086488723755,25,5897.0,2.9279837608337402,1,9950.0
10740,0.3500659763813019,0.3561997711658478,-3,5897.0,-0.6669574975967407,-86,9950.0
10750,0.349970281124115,-1.6085247993469238,-32,5897.0,-1.2504533529281616,-133,9950.0
10760,0.34982216358184814,-2.3556759357452393,-8,5897.0,-0.3625315725803375,-25,9950.0
10770,0.349631130695343,-2.654362201690674,-74,5897.0,1.8580607175827026,56,9950.0
10780,0.3500087261199951,-3.6090312004089355,-77,5897.0,2.0276355743408203,73,9950.0
10790,0.3497428894042969,-2.1065056324005127,-39,5897.0,-0.6956264972686768,83,9950.0
10800,0.3494822084903717,-2.433790445327759,-51,5897.0,0.8370347023010254,-2,9950.0
10810,0.3492320477962494,-0.5549930334091187,-25,5897.0,0.647827684879303,59,9950.0
10820,0.3501478433609009,2.655632734298706,-32,5897.0,2.2004220485687256,50,9950.0
10830,0.3500254154205322,1.146735429763794,3,5897.0,1.5075722932815552,-4,9950.0
10840,0.3499225676059723,1.600954532623291,25,5897.0,-1.7818411588668823,-75,9950.0
10850,0.3498018682003021,-0.8697084188461304,73,5897.0,0.30742037296295166,-82,9950.0
10860,0.34968316555023193,-1.4758304357528687,56,5897.0,0.0530659519135952,-78,9950.0
10870,0.34974831342697144,1.0564045906066895,30,5897.0,-1.9357774257659912,-44,9950.0
10880,0.3496321439743042,2.802375078201294,52,5897.0,-1.6886731386184692,25,9950.0
10890,0.3494865298271179,3.848604917526245,92,5897.0,1.0086477994918823,-26,9950.0
10900,0.3493495583534241,3.1585121154785156,39,5897.0,-1.4634530544281006,93,9950.0
10910,0.3495277166366577,1.2898414134979248,9,5897.0,1.1025480031967163,97,9950.0
10920,0.3494062125682831,-0.2196974903345108,-25,5897.0,0.6081375479698181,28,9950.0
10930,0.3492734134197235,-1.514984369277954,-38,5897.0,0.499597430229187,53,9950.0
10940,0.34914371371269226,-0.8820163011550903,-55,5897.0,1.0612503290176392,59,9950.0
10950,0.34978264570236206,-2.121718406677246,-31,5897.0,2.2941930294036865,-30,9950.0
10960,0.3497059643268585,-4.048113822937012,-44,5897.0,3.071725368499756,-52,9950.0
10970,0.3496320843696594,-1.4209561347961426,-9,5897.0,-1.1597334146499634,-76,9950.0
10980,0.34956175088882446,0.651142418384552,49,5897.0,0.8692814111709595,-135,9950.0
10990,0.349477082490921,-0.6532701849937439,17,5897.0,-2.0923075675964355,-72,9950.0
11000,0.35044240951538086,-0.055052172392606735,11,5897.0,-2.184032440185547,-47,9950.0
11010,0.3504086434841156,-0.030162161216139793,-3,5897.0,-2.0532021522521973,7,9950.0
11020,0.35034775733947754,-0.20958970487117767,13,5897.0,-2.702939510345459,99,9950.0
11030,0.35025277733802795,0.3823772370815277,-16,5897.0,0.3131275475025177,84,9950.0
11040,0.3512353301048279,1.0432201623916626,3,5897.0,-1.1367125511169434,124,9950.0
11050,0.35113000869750977,0.005599845666438341,-17,5897.0,2.0349302291870117,117,9950.0
11060,0.35098421573638916,0.6726770401000977,54,5897.0,2.25634503364563,-8,9950.0
11070,0.3508407473564148,0.6532377600669861,42,5897.0,0.753879964351654,-9,9950.0
11080,0.3507188856601715,0.9357029795646667,32,5897.0,-0.6035146713256836,-67,9950.0
11090,0.35115036368370056,-0.2540544271469116,31,5897.0,-4.937491416931152,-96,9950.0
11100,0.35106995701789856,-0.3871864676475525,-3,5897.0,2.379636764526367,-7,9950.0
11110,0.3509916067123413,-1.7814853191375732,-8,5897.0,4.003244876861572,11,9950.0
11120,0.35089829564094543,-0.31992048025131226,-23,5897.0,0.9262464642524719,103,9950.0
11130,0.3516238331794739,-0.4055577218532562,-26,5897.0,0.660254716873169,61,9950.0
11140,0.3515150547027588,0.2991880178451538,-45,5897.0,-0.8068280816078186,41,9950.0
11150,0.3513967990875244,-0.39870381355285645,9,5897.0,-1.8809781074523926,4,9950.0
11160,0.3512624204158783,-0.35631757974624634,-22,5897.0,-1.9611388444900513,-20,9950.0
11170,0.35107797384262085,2.525550603866577,49,5897.0,-0.5555003881454468,6,9950.0
11180,0.3509538173675537,4.573073387145996,69,5897.0,-4.489769458770752,-94,9950.0
11190,0.3508388102054596,2.777984619140625,63,5897.0,0.2985825538635254,-35,9950.0
11200,0.3507067561149597,0.45255956053733826,51,5897.0,1.9047445058822632,-93,9950.0
11210,0.35057196021080017,0.7887338995933533,80,5897.0,2.7533340454101562,-29,9950.0
11220,0.35145899653434753,1.284923791885376,66,5897.0,0.6889140009880066,-8,9950.0
11230,0.35133156180381775,1.0404043197631836,46,5897.0,-0.30907583236694336,-15,9950.0
11240,0.3511716425418854,-0.2613511383533478,-31,5897.0,-0.7045655846595764,22,9950.0
11250,0.3510126769542694,-1.4242806434631348,-41,5897.0,-3.243708848953247,39,9950.0
11260,0.35128527879714966,-2.2682557106018066,-93,5897.0,-0.7167769074440002,70,9950.0
11270,0.35113462805747986,-2.4139950275421143,-74,5897.0,-2.193972110748291,78,9950.0
11280,0.35097411274909973,-1.5596181154251099,-72,5897.0,-1.246131181716919,40,9950.0
11290,0.3508545756340027,-2.608306884765625,-71,5897.0,0.19605009257793427,52,9950.0
11300,0.3507106602191925,-1.0294864177703857,-48,5897.0,1.1065716743469238,58,9950.0
11310,0.3502941429615021,0.32440268993377686,12,5897.0,0.9606209993362427,-32,9950.0
11320,0.35011929273605347,1.4919761419296265,52,5897.0,-0.11194789409637451,-127,9950.0
11330,0.3499433696269989,1.1986275911331177,76,5897.0,3.4531900882720947,-70,9950.0
11340,0.3497716784477234,2.3844876289367676,106,5897.0,-0.5705352425575256,-88,9950.0
11350,0.3509054183959961,0.8300265669822693,11,5897.0,1.8090347051620483,65,9950.0
11360,0.3507290780544281,1.6805083751678467,14,5897.0,-1.8336578607559204,24,9950.0
11370,0.35053905844688416,-0.4159255623817444,19,5897.0,-1.231615424156189,-24,9950.0
11380,0.35033443570137024,-0.6630446910858154,8,5897.0,1.8799750804901123,84,9950.0
11390,0.3508276343345642,-0.5678110718727112,-29,5897.0,-0.39492127299308777,72,9950.0
11400,0.3506418764591217,-0.2393936812877655,-22,5897.0,-0.966836154460907,83,9950.0
11410,0.3504483103752136,-0.35992932319641113,-62,5897.0,-1.2079787254333496,57,9950.0
11420,0.3502541780471802,-2.4219164848327637,-67,5897.0,-2.9657814502716064,-75,9950.0
11430,0.35002025961875916,-0.7303749918937683,-27,5897.0,-3.5691018104553223,33,9950.0
11440,0.35027897357940674,-0.5644102692604065,9,5897.0,-5.43678617477417,-58,9950.0
11450,0.3500956892967224,1.3205556869506836,17,5897.0,-1.714342474937439,-53,9950.0
11460,0.34993624687194824,1.7510727643966675,31,5897.0,-0.8053610324859619,-34,9950.0
11470,0.3498339056968689,2.5534720420837402,75,5897.0,-1.4811992645263672,-83,9950.0
11480,0.35062599182128906,1.2603119611740112,68,5897.0,0.3362918496131897,-90,9950.0
11490,0.3506072461605072,0.9142667055130005,55,5897.0,3.334340810775757,-25,9950.0
11500,0.35055240988731384,1.1711946725845337,65,5897.0,2.943938732147217,10,9950.0
11510,0.35046523809432983,-0.7288581132888794,-9,5897.0,2.4917473793029785,30,9950.0
11520,0.3503265380859375,-1.088526725769043,-17,5897.0,3.490299940109253,83,9950.0
11530,0.3496307134628296,-1.2144914865493774,-28,5897.0,1.8727061748504639,49,9950.0
11540,0.34942564368247986,-1.7233446836471558,-45,5897.0,1.1399294137954712,41,9950.0
11550,0.3492182493209839,-2.210334300994873,-48,5897.0,-0.9500564336776733,68,9950.0
11560,0.3489898145198822,-1.5908353328704834,-29,5897.0,-1.5018123388290405,8,9950.0
11570,0.35044974088668823,-0.324034720659256,-55,5897.0,-3.202681064605713,28,9950.0
11580,0.35025712847709656,0.058916497975587845,-57,5897.0,-0.4455015957355499,144,9950.0
11590,0.3500373661518097,1.6157599687576294,-10,5897.0,-0.3875678479671478,7,9950.0
11600,0.3498329520225525,-0.45359373092651367,-30,5897.0,-0.5828921794891357,1,9950.0
11610,0.35171037912368774,2.1695117950439453,9,5897.0,-6.248347759246826,-42,9950.0
11620,0.3516690731048584,-2.344967842102051,17,5897.0,5.799569606781006,84,9950.0
11630,0.3516726493835449,-0.5589256882667542,43,5897.0,5.736916542053223,47,9950.0
11640,0.35170018672943115,-0.3317253589630127,39,5897.0,6.523444175720215,12,9950.0
11650,0.35171499848365784,-1.7359848022460938,-9,5897.0,5.202930450439453,29,9950.0
11660,0.3518194556236267,-1.1170897483825684,-4,5897.0,3.094844102859497,10,9950.0
11670,0.35175901651382446,-2.191707134246826,-20,5897.0,-2.2710421085357666,-32,9950.0
11680,0.35168808698654175,-3.8362152576446533,-56,5897.0,-3.306769371032715,-28,9950.0
11690,0.3515852987766266,-1.1113629341125488,-7,5897.0,-5.302692890167236,-30,9950.0
11700,0.3539743721485138,1.5315364599227905,-62,5897.0,-4.866788387298584,62,9950.0
11710,0.35394781827926636,1.8838778734207153,19,5897.0,-5.227015495300293,22,9950.0
11720,0.35393866896629333,2.6034183502197266,41,5897.0,-5.222787380218506,-53,9950.0
11730,0.3538467288017273,3.4559171199798584,77,5897.0,-6.198668003082275,-120,9950.0
11740,0.35369551181793213,2.848207712173462,53,5897.0,-1.9631842374801636,-134,9950.0
11750,0.35284680128097534,0.7306101322174072,14,5897.0,1.2075881958007812,-59,9950.0
11760,0.35260945558547974,-1.7698090076446533,-49,5897.0,2.4904496669769287,10,9950.0
11770,0.3523491322994232,-1.58298921585083,-62,5897.0,3.7041094303131104,66,9950.0
11780,0.35207468271255493,-2.4865736961364746,-50,5897.0,2.835744619369507,62,9950.0
11790,0.3538447916507721,-2.1128523349761963,-70,5897.0,2.015343189239502,173,9950.0
11800,0.3536648452281952,-1.0532556772232056,-14,5897.0,5.158350944519043,223,9950.0
11810,0.3534707725048065,0.3389846682548523,-44,5897.0,2.8838489055633545,125,9950.0
11820,0.35326725244522095,-0.39561158418655396,-62,5897.0,0.12531670928001404,27,9950.0
11830,0.3530278205871582,-1.7524031400680542,25,5897.0,-1.294696569442749,-57,9950.0
11840,0.35277238488197327,0.13792391121387482,8,5897.0,-3.9232282638549805,-103,9950.0
11850,0.3524695336818695,-0.09943738579750061,39,5897.0,-9.876627922058105,-194,9950.0
11860,0.35211315751075745,1.0020486116409302,67,5897.0,-6.247034072875977,-140,9950.0
11870,0.35174429416656494,0.4272920787334442,34,5897.0,-4.258990287780762,-126,9950.0
11880,0.3532429337501526,1.5131590366363525,33,5897.0,-5.695321083068848,-109,9950.0
11890,0.35305964946746826,0.946694552898407,11,5897.0,-0.3010751008987427,43,9950.0
11900,0.35287314653396606,-0.8596110939979553,-25,5897.0,3.527330160140991,115,9950.0
11910,0.3527209758758545,-0.10950994491577148,-61,5897.0,5.333349704742432,182,9950.0
11920,0.35273128747940063,-1.7982723712921143,-70,5897.0,4.861617565155029,151,9950.0
11930,0.35256385803222656,-4.096530437469482,-67,5897.0,5.594693183898926,139,9950.0
11940,0.35239237546920776,-2.7786552906036377,-90,5897.0,4.762314796447754,138,9950.0
11950,0.3521791100502014,-3.1202661991119385,-87,5897.0,5.816080570220947,131,9950.0
11960,0.3519120216369629,-2.1758806705474854,-40,5897.0,2.1074676513671875,57,9950.0
11970,0.35326796770095825,-1.7987422943115234,29,5897.0,-0.5108667612075806,22,9950.0
11980,0.3530557453632355,-0.25634875893592834,35,5897.0,-3.4062466621398926,-111,9950.0
11990,0.35286495089530945,0.881510853767395,62,5897.0,0.18642152845859528,-41,9950.0
12000,0.3526504337787628,0.15921427309513092,70,5897.0,-1.7941043376922607,-102,9950.0
12010,0.3542208969593048,2.0013585090637207,31,5897.0,-5.700241565704346,-138,9950.0
12020,0.35404789447784424,1.6702134609222412,43,5897.0,-6.141379356384277,-180,9950.0
12030,0.3538469076156616,2.285219430923462,64,5897.0,-1.7508723735809326,-27,9950.0
12040,0.3537071645259857,1.6114202737808228,-1,5897.0,-0.10984955728054047,31,9950.0
12050,0.35449862480163574,2.608003854751587,6,5897.0,0.7173954844474792,95,9950.0
12060,0.35436272621154785,1.5105006694793701,-22,5897.0,4.0540032386779785,152,9950.0
12070,0.354215532541275,0.6286545395851135,-18,5897.0,3.406049966812134,138,9950.0
12080,0.35403135418891907,1.3053492307662964,0,5897.0,4.719609260559082,133,9950.0
12090,0.3538856506347656,0.6084138751029968,-2,5897.0,1.5308544635772705,76,9950.0
12100,0.35377025604248047,-0.22337482869625092,-4,5897.0,0.7579683065414429,7,9950.0
12110,0.3534393012523651,-1.179656982421875,-6,5897.0,-2.3745737075805664,-37,9950.0
12120,0.3531944453716278,-1.702658772468567,-1,5897.0,-1.762986421585083,-96,9950.0
12130,0.3528534471988678,-0.3715967535972595,61,5897.0,-9.292773246765137,-165,9950.0
12140,0.3527475595474243,-2.7706217765808105,30,5897.0,-5.62096643447876,-170,9950.0
12150,0.3524039387702942,-2.006868600845337,-14,5897.0,-5.436074733734131,-162,9950.0
12160,0.3520198464393616,-1.3087166547775269,-4,5897.0,-5.805589199066162,-166,9950.0
12170,0.35161325335502625,-1.80458664894104,-8,5897.0,-3.9784884452819824,-104,9950.0
12180,0.35120972990989685,-2.6055331230163574,-22,5897.0,1.6757607460021973,-24,9950.0
12190,0.35151416063308716,-1.783854603767395,-38,5897.0,2.6237168312072754,18,9950.0
12200,0.3511296510696411,-0.28984779119491577,16,5897.0,-1.412432312965393,71,9950.0
12210,0.35073959827423096,-0.7317516207695007,-14,5897.0,3.2529680728912354,110,9950.0
12220,0.3503497838973999,-0.22160272300243378,-35,5897.0,1.300734519958496,82,9950.0
12230,0.3527916669845581,-0.28223055601119995,-82,5897.0,2.3989474773406982,169,9950.0
12240,0.35252803564071655,-0.2208310216665268,-92,5897.0,-0.8244849443435669,112,9950.0
12250,0.35230618715286255,-3.5747976303100586,-123,5897.0,-1.1464992761611938,113,9950.0
12260,0.3520689904689789,-2.6310272216796875,-74,5897.0,-2.320106029510498,92,9950.0
12270,0.3526860475540161,0.5657314658164978,-2,5897.0,-1.9624922275543213,24,9950.0
12280,0.3524562120437622,2.2308032512664795,56,5897.0,1.1518915891647339,16,9950.0
12290,0.3522213101387024,3.2073757648468018,48,5897.0,1.5555988550186157,44,9950.0
12300,0.3520256280899048,4.2094340324401855,-2,5897.0,1.1247376203536987,101,9950.0
12310,0.3518845736980438,3.640808582305908,24,5897.0,1.1936615705490112,-7,9950.0
12320,0.3531108498573303,0.29214999079704285,43,5897.0,0.5767995715141296,15,9950.0
12330,0.353076308965683,0.8090713024139404,44,5897.0,6.39750337600708,-33,9950.0
12340,0.35303249955177307,0.43412938714027405,64,5897.0,3.8394806385040283,-58,9950.0
12350,0.35298240184783936,-1.5577162504196167,-24,5897.0,5.279655456542969,81,9950.0
12360,0.35450074076652527,-0.199318990111351,49,5897.0,2.6942081451416016,-4,9950.0
12370,0.3545873165130615,2.082744836807251,52,5897.0,3.0471291542053223,104,9950.0
12380,0.3546779751777649,4.322805404663086,108,5897.0,-2.314389705657959,93,9950.0
12390,0.3547373414039612,3.514944076538086,36,5897.0,4.86522912979126,140,9950.0
12400,0.35477355122566223,2.365626811981201,20,5897.0,1.2561274766921997,143,9950.0
12410,0.3544429540634155,2.598592758178711,32,5897.0,-3.454587459564209,37,9950.0
12420,0.35433849692344666,2.4933507442474365,-8,5897.0,-2.594170331954956,25,9950.0
12430,0.3541671633720398,2.1119883060455322,29,5897.0,0.25985053181648254,14,9950.0
12440,0.3539457619190216,1.8966467380523682,-2,5897.0,0.28220078349113464,-57,9950.0
12450,0.3546212315559387,-0.32940953969955444,1,5897.0,4.739699363708496,50,9950.0
12460,0.35441482067108154,0.45447707176208496,9,5897.0,4.87359094619751,13,9950.0
12470,0.3542081415653229,0.9032513499259949,43,5897.0,2.3215134143829346,-68,9950.0
12480,0.3539828062057495,-0.30671584606170654,24,5897.0,8.866819381713867,-10,9950.0
12490,0.35423070192337036,0.6151072382926941,28,5897.0,4.43585205078125,25,9950.0
12500,0.3540193438529968,1.6640219688415527,49,5897.0,-0.08989658951759338,-20,9950.0
12510,0.3537619113922119,1.4361201524734497,23,5897.0,-1.161402702331543,-3,9950.0
12520,0.3534930646419525,0.09099414199590683,23,5897.0,-0.8135073184967041,-2,9950.0
12530,0.3532097339630127,0.6239618062973022,7,5897.0,-3.3680777549743652,14,9950.0
12540,0.353627473115921,-1.8429911136627197,-1,5897.0,-2.7418372631073,7,9950.0
12550,0.3533676862716675,-0.8192851543426514,-53,5897.0,-3.100849151611328,18,9950.0
12560,0.3530816435813904,-0.7211703658103943,-45,5897.0,-1.0147367715835571,39,9950.0
12570,0.3527439534664154,-0.9552698731422424,4,5897.0,1.8110665082931519,63,9950.0
12580,0.3525890111923218,-0.5703374147415161,-26,5897.0,3.114218235015869,44,9950.0
12590,0.3521197438240051,-1.0149303674697876,-7,5897.0,3.341287136077881,12,9950.0
12600,0.35161927342414856,-2.7702789306640625,-40,5897.0,2.3542728424072266,-5,9950.0
12610,0.3511253893375397,-1.4074283838272095,5,5897.0,2.139908790588379,-43,9950.0
12620,0.35069701075553894,-2.4255027770996094,3,5897.0,1.025529146194458,-154,9950.0
12630,0.35079488158226013,-1.0638643503189087,69,5897.0,-2.9043402671813965,-166,9950.0
12640,0.3503391444683075,-0.3359779417514801,25,5897.0,-2.6463582515716553,-191,9950.0
12650,0.3499339818954468,-2.3358325958251953,18,5897.0,-2.6474764347076416,-199,9950.0
12660,0.34956085681915283,-0.7129867076873779,23,5897.0,-3.7239463329315186,-105,9950.0
12670,0.35113808512687683,-0.7373518347740173,-14,5897.0,-2.1725363731384277,-72,9950.0
12680,0.3509925603866577,-1.4037543535232544,-2,5897.0,-2.0735864639282227,-35,9950.0
12690,0.3509351313114166,-0.6511580348014832,-16,5897.0,-0.5073767900466919,11,9950.0
12700,0.3509237468242645,0.06073509901762009,-18,5897.0,4.170464515686035,87,9950.0
12710,0.3501826226711273,-1.0761260986328125,-64,5897.0,0.7148097157478333,53,9950.0
12720,0.3501640856266022,-2.418980121612549,-71,5897.0,0.09151752293109894,40,9950.0
12730,0.3502349257469177,-1.6782783269882202,-45,5897.0,0.45837876200675964,61,9950.0
12740,0.3503742218017578,-0.7494470477104187,-27,5897.0,1.158813714981079,126,9950.0
12750,0.35047292709350586,-1.5159004926681519,-15,5897.0,-0.04018202796578407,74,9950.0
12760,0.351584255695343,0.7971484661102295,-3,5897.0,2.0184242725372314,5,9950.0
12770,0.3517570197582245,-0.14064675569534302,-20,5897.0,-1.588564395904541,76,9950.0
12780,0.35190898180007935,1.630350947380066,-37,5897.0,-3.4622981548309326,40,9950.0
12790,0.3520568907260895,1.5186556577682495,6,5897.0,-5.097161769866943,6,9950.0
12800,0.3513072431087494,2.012859582901001,54,5897.0,0.5629189610481262,104,9950.0
12810,0.35134318470954895,1.7930383682250977,55,5897.0,-2.472733497619629,-18,9950.0
12820,0.3513582646846771,1.7176061868667603,32,5897.0,-1.3183424472808838,59,9950.0
12830,0.35134756565093994,1.5421977043151855,47,5897.0,1.25396728515625,34,9950.0
12840,0.3512766659259796,2.0044000148773193,55,5897.0,4.568675518035889,60,9950.0
12850,0.35064685344696045,1.8574763536453247,23,5897.0,3.23230242729187,-43,9950.0
12860,0.3504818379878998,1.9768168926239014,42,5897.0,1.6466553211212158,-62,9950.0
12870,0.3502975404262543,-1.500051498413086,-35,5897.0,5.458488464355469,-29,9950.0
12880,0.3500903248786926,-0.6080208420753479,-44,5897.0,2.8057308197021484,-12,9950.0
12890,0.3487227261066437,-2.2834970951080322,-8,5897.0,0.013301056809723377,-77,9950.0
12900,0.3484797775745392,0.3750424385070801,6,5897.0,-2.249864339828491,19,9950.0
12910,0.3482353687286377,-1.1611648797988892,-20,5897.0,-1.5049200057983398,82,9950.0
12920,0.3479756712913513,2.2305147647857666,-63,5897.0,-0.5831691026687622,84,9950.0
12930,0.3489745855331421,-0.07813054323196411,-62,5897.0,-0.3109443783760071,99,9950.0
12940,0.3487328588962555,-0.36153292655944824,-41,5897.0,1.6270079612731934,94,9950.0
12950,0.3484750986099243,-0.7044118046760559,-44,5897.0,-1.9560476541519165,79,9950.0
12960,0.34821873903274536,-0.6964119076728821,26,5897.0,1.7905175685882568,138,9950.0
12970,0.34796157479286194,-1.5678576231002808,-10,5897.0,4.246949672698975,21,9950.0
12980,0.3492855429649353,1.0248806476593018,-14,5897.0,2.9374377727508545,73,9950.0
12990,0.34902316331863403,-0.2002241164445877,-17,5897.0,4.500811576843262,78,9950.0
13000,0.34872063994407654,-0.4005589783191681,-30,5897.0,1.5276575088500977,-7,9950.0
13010,0.34839928150177,-1.04624605178833,-4,5897.0,1.7023698091506958,-102,9950.0
13020,0.34842535853385925,-1.93437922000885,5,5897.0,-2.2412378787994385,-119,9950.0
13030,0.3480774164199829,-4.322773456573486,-12,5897.0,3.2233943939208984,-113,9950.0
13040,0.3477126657962799,-3.2260401248931885,-17,5897.0,-0.4884917140007019,-10,9950.0
13050,0.3473402261734009,-1.2516512870788574,8,5897.0,3.126253128051758,54,9950.0
13060,0.34694504737854004,0.739176869392395,2,5897.0,3.352515459060669,19,9950.0
13070,0.3473523259162903,1.0911771059036255,60,5897.0,1.42500638961792,54,9950.0
13080,0.3469480872154236,2.1908116340637207,19,5897.0,1.0077861547470093,90,9950.0
13090,0.3465699851512909,0.7927169799804688,31,5897.0,-0.11249523609876633,3,9950.0
13100,0.3462412357330322,0.8146724104881287,9,5897.0,-2.132517099380493,-47,9950.0
13110,0.3475044071674347,-2.35461163520813,22,5897.0,-1.0811597108840942,27,9950.0
13120,0.3471774458885193,-3.917750120162964,-45,5897.0,-3.142233371734619,58,9950.0
13130,0.34687766432762146,-2.0982465744018555,-20,5897.0,0.15317735075950623,15,9950.0
13140,0.3466189503669739,-1.1911191940307617,-63,5897.0,1.2059277296066284,-10,9950.0
13150,0.3470141887664795,0.2792776823043823,-42,5897.0,-1.7470325231552124,74,9950.0
13160,0.3468376100063324,0.6332696080207825,19,5897.0,1.573387622833252,82,9950.0
13170,0.34670576453208923,1.9805086851119995,-2,5897.0,2.1483280658721924,133,9950.0
13180,0.346566766500473,0.4132363498210907,0,5897.0,-0.2376340627670288,28,9950.0
13190,0.34648147225379944,-0.728083610534668,-39,5897.0,0.520730197429657,61,9950.0
13200,0.34739255905151367,-0.6172900795936584,-10,5897.0,-0.40102919936180115,85,9950.0
13210,0.3473600447177887,0.1980486810207367,-23,5897.0,-1.8854153156280518,87,9950.0
13220,0.3473420739173889,0.6396196484565735,-50,5897.0,-1.8091706037521362,36,9950.0
13230,0.34737980365753174,0.15569144487380981,-30,5897.0,-2.060934543609619,56,9950.0
13240,0.3488408923149109,0.5194867849349976,-54,5897.0,-3.5813748836517334,47,9950.0
13250,0.3489587903022766,2.250147581100464,14,5897.0,-1.8321192264556885,20,9950.0
13260,0.34903672337532043,3.082308053970337,48,5897.0,0.4232848584651947,101,9950.0
13270,0.34911826252937317,4.5239386558532715,13,5897.0,0.7510491013526917,114,9950.0
13280,0.34921228885650635,2.7780330181121826,-17,5897.0,1.051159381866455,76,9950.0
13290,0.3504593074321747,3.532646894454956,40,5897.0,-4.103189468383789,14,9950.0
13300,0.350654661655426,3.28295636177063,43,5897.0,-2.8951828479766846,14,9950.0
13310,0.35080355405807495,3.4961676597595215,32,5897.0,-5.394550323486328,-34,9950.0
13320,0.35092324018478394,1.8862175941467285,15,5897.0,-2.7358322143554688,26,9950.0
13330,0.3521711528301239,2.9580867290496826,38,5897.0,-4.9250593185424805,-76,9950.0
13340,0.3522184491157532,1.6620728969573975,47,5897.0,-3.604879379272461,-158,9950.0
13350,0.35223039984703064,1.2404576539993286,26,5897.0,-3.184818744659424,-91,9950.0
13360,0.35224056243896484,-0.4973352253437042,10,5897.0,-4.0203447341918945,-84,9950.0
13370,0.3529059886932373,-0.8119047284126282,-3,5897.0,1.934832215309143,-56,9950.0
13380,0.3528565764427185,-2.576751708984375,-27,5897.0,0.26387396454811096,-41,9950.0
13390,0.35274410247802734,-0.33216220140457153,-13,5897.0,2.945466995239258,-3,9950.0
13400,0.35261908173561096,-0.04291317239403725,-27,5897.0,7.72791051864624,91,9950.0
13410,0.3524617552757263,0.7615992426872253,66,5897.0,0.795372724533081,85,9950.0
13420,0.35329940915107727,-0.6669429540634155,2,5897.0,1.112075924873352,64,9950.0
13430,0.35317379236221313,0.2574925124645233,-25,5897.0,-0.4923485815525055,50,9950.0
13440,0.35305875539779663,-0.9894462823867798,-59,5897.0,-1.1868113279342651,85,9950.0
13450,0.35293227434158325,1.0485166311264038,4,5897.0,-4.361485958099365,6,9950.0
13460,0.3536681532859802,0.8275631070137024,-1,5897.0,-5.553660869598389,9,9950.0
13470,0.353526771068573,0.999527633190155,65,5897.0,-4.6291728019714355,-72,9950.0
13480,0.35332512855529785,0.3507814109325409,39,5897.0,-3.6536672115325928,-107,9950.0
13490,0.3530420660972595,2.30407977104187,68,5897.0,-2.706575870513916,-87,9950.0
13500,0.35270610451698303,0.4065716862678528,1,5897.0,1.8880970478057861,-45,9950.0
13510,0.3536856174468994,0.8917542099952698,-2,5897.0,1.8881429433822632,-1,9950.0
13520,0.3533993661403656,-2.694605588912964,-11,5897.0,3.2650227546691895,46,9950.0
13530,0.35311707854270935,-4.454170227050781,-117,5897.0,6.877600193023682,181,9950.0
13540,0.35282328724861145,-6.363486289978027,-106,5897.0,2.2808175086975098,91,9950.0
13550,0.35474517941474915,-3.953585147857666,-122,5897.0,0.4979947805404663,54,9950.0
13560,0.35453858971595764,-3.8902223110198975,-112,5897.0,-1.6980282068252563,75,9950.0
13570,0.3542935252189636,-3.6033833026885986,-71,5897.0,-0.8694782257080078,127,9950.0
13580,0.3540199100971222,0.4038507044315338,27,5897.0,1.2875638008117676,13,9950.0
13590,0.3534407317638397,-0.5059019327163696,65,5897.0,0.7815406918525696,-81,9950.0
13600,0.35310766100883484,2.8514490127563477,78,5897.0,1.6556262969970703,-37,9950.0
13610,0.35274428129196167,2.692706823348999,85,5897.0,0.7230809330940247,-49,9950.0
13620,0.352361261844635,2.953124761581421,62,5897.0,0.7584395408630371,-10,9950.0
13630,0.3519570529460907,1.260134220123291,29,5897.0,1.0336614847183228,-113,9950.0
13640,0.3527408540248871,-1.151878833770752,-20,5897.0,-1.1579293012619019,-63,9950.0
13650,0.352335661649704,-0.7831604480743408,27,5897.0,-1.7058789730072021,-117,9950.0
13660,0.35188937187194824,-0.7992328405380249,4,5897.0,-4.591421604156494,-75,9950.0
13670,0.35138341784477234,-0.9409011006355286,-48,5897.0,-2.8919081687927246,-11,9950.0
13680,0.351698100566864,-1.288995623588562,-51,5897.0,0.558074951171875,139,9950.0
13690,0.3512074649333954,-3.1150145530700684,-89,5897.0,1.7191206216812134,92,9950.0
13700,0.3507155478000641,-2.384519338607788,-42,5897.0,3.4486734867095947,131,9950.0
13710,0.35021111369132996,-3.438981771469116,-74,5897.0,0.486946702003479,71,9950.0
13720,0.34969860315322876,-2.3201963901519775,-65,5897.0,-1.713204026222229,30,9950.0
13730,0.35050687193870544,-1.3406997919082642,-84,5897.0,1.2677077054977417,61,9950.0
13740,0.35012659430503845,0.4893743395805359,-4,5897.0,-1.430541753768921,63,9950.0
13750,0.3497682213783264,1.8624204397201538,1,5897.0,-1.961847186088562,4,9950.0
13760,0.34946784377098083,2.576784133911133,-14,5897.0,-5.335963249206543,41,9950.0
13770,0.35063406825065613,1.2750089168548584,-16,5897.0,-5.804352760314941,-2,9950.0
13780,0.35038474202156067,-0.3982138931751251,-29,5897.0,-8.316763877868652,-40,9950.0
13790,0.35014018416404724,-0.2989215850830078,-36,5897.0,-5.207530498504639,5,9950.0
13800,0.34987932443618774,0.8637536764144897,-13,5897.0,-7.080708980560303,-71,9950.0
13810,0.35059890151023865,1.6689268350601196,-14,5897.0,-7.049849510192871,-57,9950.0
13820,0.3504715859889984,0.23915797472000122,-6,5897.0,-6.425975322723389,-58,9950.0
13830,0.3503812253475189,-0.5225491523742676,1,5897.0,-5.413164138793945,1,9950.0
13840,0.3503323197364807,0.20580516755580902,17,5897.0,-1.8998340368270874,7,9950.0
13850,0.3503398001194,-1.0074751377105713,-21,5897.0,0.8426101803779602,29,9950.0
13860,0.35143762826919556,-1.6259199380874634,-35,5897.0,4.359130859375,65,9950.0
13870,0.35160812735557556,-1.7607203722000122,-5,5897.0,1.534257173538208,8,9950.0
13880,0.3517923355102539,-2.9875922203063965,-10,5897.0,3.1366167068481445,11,9950.0
13890,0.3519911766052246,-1.914654016494751,-32,5897.0,3.598735809326172,-2,9950.0
13900,0.3529028296470642,-2.2947371006011963,-32,5897.0,0.4078027606010437,-42,9950.0
13910,0.35315364599227905,-1.8457484245300293,38,5897.0,1.231346845626831,-73,9950.0
13920,0.3534189760684967,-0.7443761825561523,54,5897.0,2.5632870197296143,-45,9950.0
13930,0.3536887466907501,2.200251340866089,86,5897.0,1.141957402229309,-72,9950.0
13940,0.35395562648773193,2.489947557449341,98,5897.0,1.2180466651916504,-4,9950.0
13950,0.3545569181442261,2.6278440952301025,96,5897.0,2.9497122764587402,-19,9950.0
13960,0.35470741987228394,4.632718563079834,72,5897.0,1.5501582622528076,-6,9950.0
13970,0.35478994250297546,2.101867437362671,71,5897.0,1.0981113910675049,47,9950.0
13980,0.3548261821269989,2.5955991744995117,31,5897.0,1.9946308135986328,96,9950.0
13990,0.35566574335098267,2.2337841987609863,21,5897.0,2.878218412399292,114,9950.0
14000,0.35562923550605774,1.4969903230667114,-6,5897.0,3.5423049926757812,85,9950.0
14010,0.355543315410614,-0.33362212777137756,-28,5897.0,2.8970727920532227,107,9950.0
14020,0.3554091155529022,-2.286130666732788,-43,5897.0,4.306305885314941,96,9950.0
14030,0.356319785118103,0.22680635750293732,-6,5897.0,2.040071725845337,45,9950.0
14040,0.356171190738678,0.47076550126075745,0,5897.0,3.306706428527832,-3,9950.0
14050,0.3559911251068115,0.5355410575866699,11,5897.0,2.4523253440856934,-60,9950.0
14060,0.35577428340911865,1.3881784677505493,33,5897.0,0.599373459815979,-96,9950.0
14070,0.3555319607257843,0.07375472784042358,-21,5897.0,-0.2742905616760254,-46,9950.0
14080,0.3550325334072113,-2.226609230041504,-29,5897.0,-1.6044714450836182,-36,9950.0
14090,0.3546740412712097,-1.9421491622924805,-27,5897.0,-1.7802464962005615,-16,9950.0
14100,0.3542529344558716,-1.571052074432373,-31,5897.0,0.8610596656799316,31,9950.0
14110,0.35378530621528625,-1.9557172060012817,-16,5897.0,0.7661100029945374,41,9950.0
14120,0.35317185521125793,-1.340077519416809,-52,5897.0,2.4013822078704834,109,9950.0
14130,0.3526207208633423,-0.7390502095222473,-16,5897.0,2.4019525051116943,131,9950.0
14140,0.35206201672554016,-0.16746456921100616,-12,5897.0,1.6658002138137817,116,9950.0
14150,0.3515154719352722,-0.6752687692642212,-47,5897.0,2.375154972076416,94,9950.0
14160,0.35096001625061035,-0.8515008687973022,-43,5897.0,1.6587580442428589,71,9950.0
14170,0.35082510113716125,-2.5663230419158936,-74,5897.0,1.0135709047317505,43,9950.0
14180,0.35028699040412903,-4.548245429992676,-44,5897.0,0.5196149349212646,12,9950.0
14190,0.349723219871521,-3.8812780380249023,-54,5897.0,-1.9840381145477295,-2,9950.0
14200,0.3491417169570923,-2.3226449489593506,-41,5897.0,-2.833918809890747,-52,9950.0
14210,0.3493441343307495,-1.6942349672317505,-48,5897.0,-0.18196558952331543,-5,9950.0
14220,0.34888190031051636,-1.5688356161117554,-14,5897.0,-1.0847265720367432,13,9950.0
14230,0.34842678904533386,0.5134619474411011,39,5897.0,1.4137574434280396,26,9950.0
14240,0.34800803661346436,0.6608835458755493,31,5897.0,3.10937237739563,31,9950.0
14250,0.3477676212787628,0.5344288945198059,82,5897.0,3.4490857124328613,24,9950.0
