timestamp,kalman.stateZ,gyro.x,gyro.xRaw,gyro.xVariance,gyro.y,gyro.yRaw,gyro.yVariance
0,0.2568080425262451,-3.34704852104187,-47,5897.0,0.5169717669487,10,9950.0
10,0.2569674253463745,-2.9550576210021973,-46,5897.0,0.18327844142913818,3,9950.0
20,0.2570415437221527,-2.3094189167022705,-32,5897.0,-0.8147709965705872,-13,9950.0
30,0.25720953941345215,-1.6371229887008667,-13,5897.0,-1.564964771270752,-23,9950.0
40,0.25734230875968933,-0.06800451874732971,8,5897.0,-1.9733537435531616,-32,9950.0
50,0.2574822008609772,1.4276764392852783,31,5897.0,-2.536487340927124,-36,9950.0
60,0.2575482726097107,2.701434850692749,50,5897.0,-3.1292502880096436,-51,9950.0
70,0.25771987438201904,3.031304121017456,52,5897.0,-3.347959041595459,-49,9950.0
80,0.2581314444541931,3.1615374088287354,57,5897.0,-3.066026210784912,-48,9950.0
90,0.2583191692829132,2.8789870738983154,49,5897.0,-3.0638344287872314,-48,9950.0
100,0.25839537382125854,2.3018460273742676,34,5897.0,-2.893909215927124,-41,9950.0
110,0.25696325302124023,1.0438222885131836,11,5897.0,-2.8127193450927734,-44,9950.0
120,0.25696319341659546,-0.1853606253862381,-9,5897.0,-2.6185646057128906,-34,9950.0
130,0.2569639980792999,-1.3170199394226074,-24,5897.0,-2.5674197673797607,-38,9950.0
140,0.2569917142391205,-2.664151906967163,-51,5897.0,-2.356508493423462,-36,9950.0
150,0.25700643658638,-2.8261520862579346,-47,5897.0,-2.059762716293335,-29,9950.0
160,0.25563329458236694,-2.5525031089782715,-40,5897.0,-1.7399426698684692,-28,9950.0
170,0.2555515766143799,-2.160902738571167,-35,5897.0,-1.2418146133422852,-21,9950.0
180,0.25606784224510193,-1.5085924863815308,-18,5897.0,-0.8313551545143127,-11,9950.0
190,0.25610414147377014,-0.12646323442459106,10,5897.0,-1.6335506439208984,-35,9950.0
200,0.2566399574279785,1.3715180158615112,27,5897.0,-4.550097465515137,-95,9950.0
210,0.2567010223865509,2.754157304763794,67,5897.0,-7.044030666351318,-140,9950.0
220,0.25704556703567505,6.074452877044678,117,5897.0,-13.793768882751465,-267,9950.0
230,0.25709256529808044,4.162744045257568,77,5897.0,-22.450035095214844,-411,9950.0
240,0.25708162784576416,6.265218257904053,104,5897.0,-31.72631072998047,-595,9950.0
250,0.25740325450897217,4.450664520263672,83,5897.0,-43.24121856689453,-744,9950.0
260,0.2575836777687073,4.798952102661133,58,5897.0,-51.820777893066406,-901,9950.0
270,0.2575599253177643,4.541599273681641,78,5897.0,-59.583038330078125,-1009,9950.0
280,0.2579755187034607,4.958715915679932,59,5897.0,-62.6209716796875,-1034,9950.0
290,0.25741228461265564,4.83968448638916,61,5897.0,-62.536502838134766,-1003,9950.0
300,0.2572028636932373,1.1832858324050903,57,5897.0,-56.7961311340332,-987,9950.0
310,0.25707465410232544,2.8326990604400635,66,5897.0,-47.22384262084961,-661,9950.0
320,0.2572588324546814,2.199636697769165,76,5897.0,-33.999366760253906,-524,9950.0
330,0.257526695728302,5.274288177490234,109,5897.0,-18.18048667907715,-192,9950.0
340,0.2576667368412018,2.7514209747314453,108,5897.0,-5.771814346313477,-1,9950.0
350,0.25789356231689453,4.089990139007568,72,5897.0,9.874018669128418,186,9950.0
360,0.2579813301563263,4.894265651702881,6,5897.0,18.799718856811523,430,9950.0
370,0.25839710235595703,3.7297873497009277,46,5897.0,27.508075714111328,547,9950.0
380,0.25676587224006653,2.982262134552002,101,5897.0,32.64207077026367,467,9950.0
390,0.25695091485977173,2.72865629196167,53,5897.0,31.113632202148438,468,9950.0
400,0.25695177912712097,1.671921730041504,37,5897.0,29.362714767456055,342,9950.0
410,0.25708380341529846,-0.41644182801246643,-40,5897.0,21.15317726135254,441,9950.0
420,0.25824540853500366,-0.7190536260604858,-4,5897.0,17.01740264892578,264,9950.0
430,0.25852879881858826,-0.0678645446896553,8,5897.0,9.177215576171875,158,9950.0
440,0.2587825059890747,0.20217835903167725,73,5897.0,3.5669569969177246,-108,9950.0
450,0.2590171694755554,1.9859100580215454,29,5897.0,-2.4837486743927,-82,9950.0
460,0.25833046436309814,2.8443877696990967,157,5897.0,-5.746119499206543,-199,9950.0
470,0.2584308981895447,5.666354656219482,103,5897.0,-9.077532768249512,-144,9950.0
480,0.25845542550086975,4.205909729003906,138,5897.0,-8.431530952453613,-178,9950.0
490,0.25880640745162964,5.0520219802856445,51,5897.0,-9.785475730895996,-187,9950.0
500,0.25918546319007874,4.7248101234436035,-36,5897.0,-2.4889328479766846,-76,9950.0
510,0.2584725618362427,-1.5058088302612305,0,5897.0,-0.9546785950660706,-169,9950.0
520,0.25859764218330383,-4.0579609870910645,-32,5897.0,2.8066048622131348,17,9950.0
530,0.2590944766998291,-6.579756259918213,-16,5897.0,7.84633731842041,60,9950.0
540,0.25953415036201477,-7.637094974517822,-87,5897.0,13.777862548828125,160,9950.0
550,0.26070699095726013,-8.507974624633789,-43,5897.0,14.697266578674316,299,9950.0
560,0.2614690065383911,-8.732233047485352,-105,5897.0,19.607376098632812,408,9950.0
570,0.26180344820022583,-7.263515472412109,-206,5897.0,23.274709701538086,497,9950.0
580,0.2621944844722748,-6.126873970031738,-162,5897.0,23.21471405029297,554,9950.0
590,0.26271456480026245,-4.135450839996338,-36,5897.0,23.792400360107422,474,9950.0
600,0.2635818123817444,-3.964589834213257,5,5897.0,22.00204086303711,374,9950.0
610,0.2638624608516693,-0.8565452098846436,-63,5897.0,17.24650001525879,92,9950.0
620,0.264289915561676,2.261190891265869,86,5897.0,11.76098346710205,162,9950.0
630,0.26493433117866516,1.4785172939300537,124,5897.0,6.711211681365967,98,9950.0
640,0.2644069194793701,2.5936310291290283,68,5897.0,3.843315601348877,48,9950.0
650,0.26474279165267944,5.623240947723389,49,5897.0,-1.0245600938796997,38,9950.0
660,0.2652420997619629,7.0796074867248535,64,5897.0,-6.2828826904296875,87,9950.0
670,0.26552778482437134,3.95036244392395,57,5897.0,-4.314938545227051,31,9950.0
680,0.26551204919815063,4.574579238891602,31,5897.0,-5.474975109100342,-188,9950.0
690,0.26583823561668396,6.887876510620117,8,5897.0,-6.353383541107178,-210,9950.0
700,0.2662166655063629,-0.6854074597358704,40,5897.0,-6.62416410446167,-65,9950.0
710,0.2665250301361084,-0.8863344788551331,32,5897.0,-4.042324542999268,-1,9950.0
720,0.26682594418525696,-3.4283335208892822,-129,5897.0,-1.0064572095870972,-54,9950.0
730,0.266424298286438,-2.8988311290740967,-106,5897.0,-0.23607692122459412,36,9950.0
740,0.26685354113578796,-4.350214004516602,-10,5897.0,0.8513208627700806,28,9950.0
750,0.26713111996650696,-3.17541241645813,64,5897.0,2.5139527320861816,-93,9950.0
760,0.2673574388027191,-0.8771283626556396,28,5897.0,3.6722233295440674,-36,9950.0
770,0.2673315703868866,-0.5872085094451904,-47,5897.0,2.8579630851745605,144,9950.0
780,0.26752930879592896,1.6793556213378906,-32,5897.0,-0.9629850387573242,161,9950.0
790,0.2676542103290558,0.07814420014619827,23,5897.0,-0.6973018646240234,-41,9950.0
800,0.267691969871521,0.5462389588356018,60,5897.0,-2.494347095489502,-233,9950.0
810,0.2676832973957062,1.1231225728988647,35,5897.0,-7.8385443687438965,-198,9950.0
820,0.26619473099708557,-0.9883112907409668,-37,5897.0,-11.64792537689209,-11,9950.0
830,0.26620426774024963,1.5010117292404175,-57,5897.0,-11.606303215026855,-126,9950.0
840,0.2660190761089325,-0.696459174156189,-22,5897.0,-15.025870323181152,-445,9950.0
850,0.2657695710659027,-0.7389143109321594,83,5897.0,-16.177701950073242,-460,9950.0
860,0.2656988203525543,0.634273886680603,6,5897.0,-18.237037658691406,-226,9950.0
870,0.265354722738266,1.5760626792907715,-23,5897.0,-18.444957733154297,-220,9950.0
880,0.26513534784317017,2.08691143989563,44,5897.0,-16.623775482177734,-410,9950.0
890,0.26497751474380493,0.8360004425048828,90,5897.0,-16.270166397094727,-388,9950.0
900,0.26562532782554626,0.2268599569797516,6,5897.0,-15.597465515136719,-193,9950.0
910,0.26540878415107727,1.876815676689148,-23,5897.0,-17.312103271484375,-134,9950.0
920,0.26511865854263306,0.5934581160545349,37,5897.0,-12.621910095214844,-201,9950.0
930,0.2648624777793884,0.31773239374160767,45,5897.0,-8.458178520202637,-246,9950.0
940,0.2647404074668884,0.26496145129203796,-25,5897.0,-8.523321151733398,-106,9950.0
950,0.2651359736919403,-0.271099716424942,-15,5897.0,-9.545164108276367,-102,9950.0
960,0.2650972306728363,0.4674869775772095,29,5897.0,-7.8524017333984375,-70,9950.0
970,0.26509976387023926,1.6668962240219116,53,5897.0,-7.527135372161865,55,9950.0
980,0.2649773955345154,1.3725919723510742,23,5897.0,-4.263576507568359,-139,9950.0
990,0.26490598917007446,1.28711998462677,117,5897.0,-2.696258544921875,-116,9950.0
1000,0.26468586921691895,1.384531021118164,-15,5897.0,-2.7185873985290527,-185,9950.0
1010,0.2645516097545624,1.800216555595398,85,5897.0,-5.146353244781494,-235,9950.0
1020,0.2643430233001709,2.3140969276428223,9,5897.0,-7.357496738433838,-157,9950.0
1030,0.26404884457588196,2.7947981357574463,37,5897.0,-9.917583465576172,-169,9950.0
1040,0.2628386318683624,2.7161498069763184,50,5897.0,-9.722772598266602,-62,9950.0
1050,0.2627205550670624,0.8563665151596069,-37,5897.0,-9.18034553527832,-26,9950.0
1060,0.26231956481933594,1.1136924028396606,18,5897.0,-6.699078559875488,26,9950.0
1070,0.2620193660259247,-0.6103780269622803,-66,5897.0,-3.583336353302002,110,9950.0
1080,0.26213252544403076,-1.9183710813522339,-40,5897.0,-0.19833169877529144,100,9950.0
1090,0.26178228855133057,-0.009016627445816994,-11,5897.0,0.8662161231040955,100,9950.0
1100,0.26147398352622986,-1.6963963508605957,-8,5897.0,4.656832695007324,196,9950.0
1110,0.26128941774368286,1.4760241508483887,2,5897.0,6.190958499908447,93,9950.0
1120,0.2629907727241516,-0.4073214530944824,-33,5897.0,6.075979709625244,277,9950.0
1130,0.2628587484359741,1.7210681438446045,6,5897.0,5.179602146148682,88,9950.0
1140,0.2626380920410156,-0.3595188856124878,-4,5897.0,3.2722644805908203,153,9950.0
1150,0.26234671473503113,-0.26969701051712036,-57,5897.0,3.3542416095733643,73,9950.0
1160,0.26267704367637634,-0.8805456757545471,-92,5897.0,1.665174961090088,118,9950.0
1170,0.26420098543167114,0.06778132915496826,48,5897.0,3.9001810550689697,80,9950.0
1180,0.26419782638549805,-0.4852737486362457,-12,5897.0,3.721747875213623,-46,9950.0
1190,0.2638348340988159,-1.9535998106002808,7,5897.0,6.308802604675293,8,9950.0
1200,0.2639380395412445,-0.45032376050949097,115,5897.0,5.144420146942139,-7,9950.0
1210,0.26468074321746826,-2.9892754554748535,33,5897.0,7.98923921585083,148,9950.0
1220,0.26457324624061584,-0.8629403114318848,-63,5897.0,9.151711463928223,296,9950.0
1230,0.26446333527565,0.531937301158905,-153,5897.0,10.8178129196167,303,9950.0
1240,0.26470518112182617,2.080268144607544,31,5897.0,15.947466850280762,256,9950.0
1250,0.2647639513015747,-1.1431630849838257,58,5897.0,20.224586486816406,236,9950.0
1260,0.26707619428634644,0.061047594994306564,87,5897.0,17.860197067260742,305,9950.0
1270,0.2670723497867584,-1.216005802154541,-89,5897.0,22.119325637817383,378,9950.0
1280,0.2676789462566376,-0.703360378742218,-67,5897.0,22.585317611694336,533,9950.0
1290,0.2683514952659607,-0.993348240852356,2,5897.0,24.518714904785156,440,9950.0
1300,0.2709071934223175,-1.856099009513855,83,5897.0,23.466686248779297,358,9950.0
1310,0.27142763137817383,-2.9957454204559326,-54,5897.0,23.380136489868164,430,9950.0
1320,0.2726747691631317,-0.7140873670578003,-71,5897.0,15.77978801727295,159,9950.0
1330,0.27362141013145447,-3.7446939945220947,-13,5897.0,12.176617622375488,106,9950.0
1340,0.2772473096847534,-1.831316590309143,-92,5897.0,10.860664367675781,197,9950.0
1350,0.27856776118278503,-3.4747965335845947,-146,5897.0,10.468974113464355,80,9950.0
1360,0.2796972990036011,-3.524975061416626,-18,5897.0,7.333266735076904,51,9950.0
1370,0.2812844514846802,-2.612992286682129,-68,5897.0,9.10987377166748,301,9950.0
1380,0.282857745885849,-1.1358617544174194,-66,5897.0,17.656227111816406,332,9950.0
1390,0.2851532995700836,0.7160651087760925,39,5897.0,17.73843002319336,282,9950.0
1400,0.28669148683547974,1.6802928447723389,21,5897.0,19.577289581298828,398,9950.0
1410,0.28872421383857727,3.646383047103882,41,5897.0,23.775489807128906,480,9950.0
1420,0.290724515914917,4.7880859375,90,5897.0,22.585824966430664,287,9950.0
1430,0.2935096025466919,4.19059944152832,77,5897.0,22.64948081970215,491,9950.0
1440,0.2955400049686432,2.609058380126953,67,5897.0,18.41094207763672,416,9950.0
1450,0.29775020480155945,5.257427215576172,83,5897.0,20.781208038330078,203,9950.0
1460,0.30003321170806885,5.299834728240967,151,5897.0,12.970930099487305,273,9950.0
1470,0.30171364545822144,3.8100504875183105,58,5897.0,8.743510246276855,136,9950.0
1480,0.30388832092285156,4.561744213104248,12,5897.0,9.150165557861328,97,9950.0
1490,0.3060837984085083,4.15199089050293,80,5897.0,5.638604640960693,19,9950.0
1500,0.30813583731651306,3.140608787536621,54,5897.0,5.075214862823486,5,9950.0
1510,0.3100307881832123,3.5743353366851807,6,5897.0,2.5567715167999268,169,9950.0
1520,0.31107863783836365,3.0158286094665527,81,5897.0,-1.8359332084655762,85,9950.0
1530,0.31288525462150574,5.459184646606445,40,5897.0,-3.3302178382873535,-111,9950.0
1540,0.3144943416118622,6.470903396606445,97,5897.0,-6.374007701873779,-292,9950.0
1550,0.31577202677726746,4.914167881011963,137,5897.0,-7.171252250671387,-217,9950.0
1560,0.31614652276039124,4.709888458251953,58,5897.0,-6.6324968338012695,-91,9950.0
1570,0.3171379864215851,1.8651138544082642,111,5897.0,-3.729335308074951,-97,9950.0
1580,0.31805849075317383,2.179441213607788,90,5897.0,-2.4190008640289307,52,9950.0
1590,0.31897035241127014,0.9057400822639465,-63,5897.0,-1.2504870891571045,97,9950.0
1600,0.3196580708026886,3.5851686000823975,-17,5897.0,-2.1233835220336914,52,9950.0
1610,0.32027822732925415,0.2855208218097687,-26,5897.0,-3.1131834983825684,57,9950.0
1620,0.3206944167613983,-0.18774911761283875,-73,5897.0,-2.4973256587982178,81,9950.0
1630,0.32085615396499634,-0.46230366826057434,43,5897.0,-1.9194947481155396,-72,9950.0
1640,0.3207674026489258,0.12214033305644989,6,5897.0,-5.20145320892334,-236,9950.0
1650,0.3197243809700012,-2.7284462451934814,-50,5897.0,-5.79588508605957,-270,9950.0
1660,0.3192101716995239,-0.7949570417404175,75,5897.0,-10.01735782623291,-201,9950.0
1670,0.3185461461544037,1.9511889219284058,167,5897.0,-10.937165260314941,-250,9950.0
1680,0.3179463744163513,2.6177890300750732,131,5897.0,-14.384746551513672,-360,9950.0
1690,0.31720155477523804,2.417731285095215,-2,5897.0,-10.964571952819824,-168,9950.0
1700,0.3162531554698944,3.784769058227539,42,5897.0,-17.405494689941406,-139,9950.0
1710,0.3154890537261963,2.78914475440979,-24,5897.0,-14.141538619995117,-92,9950.0
1720,0.3146859407424927,1.5952167510986328,-24,5897.0,-14.997286796569824,-149,9950.0
1730,0.3136894106864929,-0.9782907962799072,53,5897.0,-13.523232460021973,-264,9950.0
1740,0.31232157349586487,0.8495556116104126,63,5897.0,-10.126538276672363,-310,9950.0
1750,0.3112339377403259,-0.7495179176330566,107,5897.0,-8.114680290222168,-303,9950.0
1760,0.3100185990333557,0.1929473876953125,-71,5897.0,-8.617657661437988,-184,9950.0
1770,0.30889734625816345,-1.8783358335494995,-77,5897.0,-11.51020622253418,-78,9950.0
1780,0.3066538870334625,-4.147777557373047,-125,5897.0,-14.493772506713867,-133,9950.0
1790,0.3054716885089874,-3.645246982574463,-87,5897.0,-16.517292022705078,-272,9950.0
1800,0.304144024848938,-3.4985129833221436,-86,5897.0,-14.479890823364258,-310,9950.0
1810,0.30282363295555115,-3.743269205093384,-5,5897.0,-17.34828758239746,-392,9950.0
1820,0.30180779099464417,-5.456327438354492,-69,5897.0,-17.52635955810547,-309,9950.0
1830,0.30067989230155945,-6.120978832244873,-179,5897.0,-22.053586959838867,-226,9950.0
1840,0.29972314834594727,-8.242409706115723,-238,5897.0,-19.748170852661133,-316,9950.0
1850,0.29870960116386414,-8.902359008789062,-133,5897.0,-18.92542839050293,-352,9950.0
1860,0.297908216714859,-10.342963218688965,-141,5897.0,-19.51443862915039,-277,9950.0
1870,0.29741063714027405,-8.037664413452148,-149,5897.0,-17.51920509338379,-227,9950.0
1880,0.2967401146888733,-6.7617597579956055,-177,5897.0,-15.145813941955566,-205,9950.0
1890,0.2961811125278473,-4.484528541564941,27,5897.0,-19.931671142578125,-309,9950.0
1900,0.29578059911727905,-4.164576530456543,-101,5897.0,-13.80628490447998,-94,9950.0
1910,0.2955034673213959,-0.2781429886817932,-69,5897.0,-10.743082046508789,-206,9950.0
1920,0.29476726055145264,-2.908738851547241,87,5897.0,-10.669888496398926,-272,9950.0
1930,0.2946361303329468,0.8161091804504395,-20,5897.0,-7.976670265197754,-44,9950.0
1940,0.2945672571659088,-0.6222347617149353,-38,5897.0,-2.224550724029541,-19,9950.0
1950,0.2945347726345062,-2.329058885574341,-9,5897.0,-0.9951689839363098,-95,9950.0
1960,0.2942602336406708,-0.8634834885597229,6,5897.0,-0.09497439861297607,122,9950.0
1970,0.2942098379135132,-0.8928948640823364,-56,5897.0,5.1468400955200195,72,9950.0
1980,0.2942229211330414,0.23886404931545258,75,5897.0,5.839829444885254,67,9950.0
1990,0.2942761182785034,3.7073144912719727,40,5897.0,6.235074520111084,221,9950.0
2000,0.2942579984664917,4.4593586921691895,67,5897.0,8.436841011047363,137,9950.0
2010,0.294563353061676,6.706521034240723,144,5897.0,6.054255485534668,14,9950.0
2020,0.29500237107276917,8.86255931854248,143,5897.0,6.148968696594238,248,9950.0
2030,0.29566457867622375,8.70407485961914,59,5897.0,9.790074348449707,165,9950.0
2040,0.29635193943977356,5.389089107513428,119,5897.0,12.943435668945312,114,9950.0
2050,0.2973823547363281,3.779489755630493,17,5897.0,13.48565673828125,259,9950.0
2060,0.2982219159603119,2.2863996028900146,-63,5897.0,10.575243949890137,178,9950.0
2070,0.29908132553100586,1.1281704902648926,7,5897.0,9.424429893493652,89,9950.0
2080,0.29989612102508545,-0.7880626916885376,-3,5897.0,9.397217750549316,130,9950.0
2090,0.30042797327041626,-3.2955498695373535,-131,5897.0,10.42939281463623,259,9950.0
2100,0.3012423813343048,-4.853005409240723,-102,5897.0,11.228438377380371,177,9950.0
2110,0.30212992429733276,-5.198766708374023,-64,5897.0,14.035531997680664,207,9950.0
2120,0.3032582998275757,-4.897576332092285,-108,5897.0,17.59194564819336,351,9950.0
2130,0.30305516719818115,-4.688750267028809,-150,5897.0,18.32567596435547,335,9950.0
2140,0.30409568548202515,-3.713315010070801,-67,5897.0,18.2548828125,280,9950.0
2150,0.3052654266357422,-0.9787778854370117,41,5897.0,18.931610107421875,203,9950.0
2160,0.30641239881515503,2.1048336029052734,-14,5897.0,15.396607398986816,383,9950.0
2170,0.3076004683971405,2.0186445713043213,14,5897.0,16.929298400878906,347,9950.0
2180,0.3087958097457886,2.330146551132202,98,5897.0,14.591265678405762,188,9950.0
2190,0.30979451537132263,3.818876266479492,158,5897.0,12.214664459228516,257,9950.0
2200,0.3107897937297821,5.6024556159973145,67,5897.0,8.631571769714355,200,9950.0
2210,0.3117712736129761,5.1071248054504395,16,5897.0,8.900140762329102,82,9950.0
2220,0.3128524124622345,3.685183048248291,94,5897.0,7.927507400512695,-20,9950.0
2230,0.31375399231910706,2.4925546646118164,80,5897.0,5.20606803894043,-17,9950.0
2240,0.31454575061798096,2.1921017169952393,-59,5897.0,2.4790542125701904,93,9950.0
2250,0.3152075707912445,1.21076238155365,-67,5897.0,4.2678375244140625,34,9950.0
2260,0.3157954812049866,-0.3932228982448578,-10,5897.0,2.041987419128418,-126,9950.0
2270,0.31516769528388977,-0.5437504053115845,58,5897.0,3.851741313934326,52,9950.0
2280,0.3156341314315796,-1.1710706949234009,20,5897.0,0.1924341768026352,111,9950.0
2290,0.31606200337409973,-1.7242822647094727,-108,5897.0,2.0815117359161377,120,9950.0
2300,0.31635648012161255,-2.887014150619507,-71,5897.0,-1.0313249826431274,53,9950.0
2310,0.3166824281215668,-0.9173970222473145,55,5897.0,-0.27777835726737976,-27,9950.0
2320,0.31677383184432983,-0.38492047786712646,87,5897.0,-0.575362503528595,-21,9950.0
2330,0.3168210983276367,0.8676732182502747,-12,5897.0,0.14345507323741913,122,9950.0
2340,0.3167992830276489,3.869433641433716,65,5897.0,-2.643822431564331,9,9950.0
2350,0.3179231584072113,5.568220615386963,93,5897.0,-2.9743995666503906,-183,9950.0
2360,0.3176790177822113,4.028905868530273,141,5897.0,-3.0873489379882812,-66,9950.0
2370,0.31724974513053894,5.550873279571533,84,5897.0,-3.7211437225341797,-117,9950.0
2380,0.3166748285293579,5.240200042724609,-5,5897.0,-7.985940933227539,-118,9950.0
2390,0.3160325884819031,6.234786510467529,65,5897.0,-7.868443012237549,-180,9950.0
2400,0.315866082906723,2.086653470993042,81,5897.0,-5.211857318878174,-178,9950.0
2410,0.3152247369289398,0.05831901729106903,-28,5897.0,-4.957317352294922,8,9950.0
2420,0.3144967555999756,0.21576301753520966,-85,5897.0,-5.1294708251953125,-8,9950.0
2430,0.31364357471466064,-0.3995734453201294,-58,5897.0,-6.967312335968018,-181,9950.0
2440,0.31327635049819946,1.6244069337844849,31,5897.0,-7.591710567474365,-165,9950.0
2450,0.312429279088974,-1.3350557088851929,16,5897.0,-6.2925848960876465,-104,9950.0
2460,0.3116972744464874,1.3155814409255981,-56,5897.0,-4.034499168395996,80,9950.0
2470,0.3110482394695282,-0.32949474453926086,-26,5897.0,-6.597499370574951,-34,9950.0
2480,0.31043270230293274,-0.6856957077980042,-52,5897.0,-7.825534343719482,-135,9950.0
2490,0.3091776371002197,-3.6031761169433594,-2,5897.0,-8.118170738220215,-29,9950.0
2500,0.30845907330513,-3.316101551055908,-121,5897.0,-6.964240550994873,32,9950.0
2510,0.30775168538093567,-4.7003173828125,-111,5897.0,-3.8367419242858887,-73,9950.0
2520,0.30707573890686035,-2.6362805366516113,2,5897.0,-3.3002817630767822,-89,9950.0
2530,0.3074493706226349,-2.050562620162964,-11,5897.0,-2.937765598297119,-48,9950.0
2540,0.3070037364959717,-2.5855729579925537,-80,5897.0,-2.3009860515594482,52,9950.0
2550,0.30658307671546936,-3.6472389698028564,-59,5897.0,-0.7311356663703918,-170,9950.0
2560,0.30622127652168274,-1.9865832328796387,6,5897.0,-4.082184314727783,-41,9950.0
2570,0.3059742748737335,-2.397418975830078,-115,5897.0,-2.784121513366699,-24,9950.0
2580,0.3053930401802063,-3.5916402339935303,-44,5897.0,-1.123058557510376,-139,9950.0
2590,0.3051657974720001,-3.4396183490753174,-30,5897.0,-1.8363336324691772,-23,9950.0
2600,0.30505600571632385,-2.876948356628418,-118,5897.0,-0.6422930359840393,-13,9950.0
2610,0.3049299418926239,-1.134805679321289,2,5897.0,-1.533280372619629,-106,9950.0
2620,0.30518490076065063,0.40854182839393616,40,5897.0,-4.70738410949707,-115,9950.0
2630,0.3050631880760193,1.0263296365737915,-58,5897.0,-9.36057186126709,-70,9950.0
2640,0.3049848675727844,1.8654487133026123,68,5897.0,-6.497279167175293,-356,9950.0
2650,0.30491188168525696,1.6243109703063965,83,5897.0,-4.360403537750244,-101,9950.0
2660,0.30611419677734375,2.079854726791382,-50,5897.0,-3.5065834522247314,-14,9950.0
2670,0.30617791414260864,0.7472338676452637,22,5897.0,-1.1233460903167725,-137,9950.0
2680,0.306302934885025,-0.6601858735084534,18,5897.0,0.3473067283630371,43,9950.0
2690,0.30653518438339233,-2.5978479385375977,-101,5897.0,2.9925801753997803,168,9950.0
2700,0.306906133890152,-1.1989344358444214,-19,5897.0,4.164087772369385,35,9950.0
2710,0.30699673295021057,0.2823505103588104,75,5897.0,8.823026657104492,107,9950.0
2720,0.3075021505355835,2.550319194793701,16,5897.0,6.7230682373046875,282,9950.0
2730,0.3080933094024658,3.368117332458496,62,5897.0,8.734884262084961,94,9950.0
2740,0.30857136845588684,4.003742694854736,105,5897.0,8.947639465332031,127,9950.0
2750,0.3103571832180023,5.426871299743652,49,5897.0,5.414097785949707,141,9950.0
2760,0.3108084201812744,4.904986381530762,69,5897.0,3.96256160736084,37,9950.0
2770,0.3112369179725647,4.5147175788879395,151,5897.0,2.255913734436035,7,9950.0
2780,0.31167545914649963,3.936647891998291,46,5897.0,5.626404762268066,263,9950.0
2790,0.31361865997314453,1.5827845335006714,-11,5897.0,3.377686023712158,58,9950.0
2800,0.3142019510269165,1.1503673791885376,84,5897.0,2.6150851249694824,81,9950.0
2810,0.31485411524772644,0.36403849720954895,-2,5897.0,4.129862308502197,73,9950.0
2820,0.31560423970222473,-0.5961835980415344,-64,5897.0,4.95672082901001,169,9950.0
2830,0.3163435757160187,-2.244642734527588,-56,5897.0,5.097935676574707,1,9950.0
2840,0.31690728664398193,-3.138120174407959,-13,5897.0,5.868178844451904,62,9950.0
2850,0.3175317049026489,-2.7405447959899902,-66,5897.0,5.07528018951416,116,9950.0
2860,0.3180001676082611,-4.100462913513184,-123,5897.0,5.468904495239258,60,9950.0
2870,0.3183897137641907,-5.613178730010986,-51,5897.0,6.179678916931152,76,9950.0
2880,0.31964531540870667,-3.4623701572418213,-56,5897.0,5.851480484008789,110,9950.0
2890,0.32008159160614014,-1.5219860076904297,-71,5897.0,5.593320369720459,193,9950.0
2900,0.32047075033187866,1.1337400674819946,-11,5897.0,5.900610446929932,6,9950.0
2910,0.3209265172481537,1.2969574928283691,94,5897.0,7.5757317543029785,39,9950.0
2920,0.3213634192943573,3.384378671646118,71,5897.0,6.365864276885986,128,9950.0
2930,0.3224261999130249,2.8324899673461914,-13,5897.0,5.4476799964904785,236,9950.0
2940,0.3227778375148773,1.533642292022705,-16,5897.0,7.407342910766602,77,9950.0
2950,0.32307761907577515,-0.6250461339950562,7,5897.0,4.183047771453857,-13,9950.0
2960,0.32334238290786743,-0.7385244369506836,-24,5897.0,5.087924480438232,139,9950.0
2970,0.3222323954105377,-2.6728289127349854,-97,5897.0,2.7302942276000977,45,9950.0
2980,0.3224218189716339,-3.7892589569091797,-105,5897.0,-3.900222063064575,-48,9950.0
2990,0.3225962221622467,-4.845495700836182,-9,5897.0,-3.903575897216797,-99,9950.0
3000,0.32276996970176697,-2.8111140727996826,-79,5897.0,-7.009301662445068,-64,9950.0
3010,0.3212762176990509,-2.0004959106445312,-64,5897.0,-7.946880340576172,-7,9950.0
3020,0.32109662890434265,0.5801894068717957,-28,5897.0,-7.690535545349121,-209,9950.0
3030,0.3208140730857849,0.63812655210495,98,5897.0,-5.860134124755859,-125,9950.0
3040,0.3204635977745056,0.770905077457428,52,5897.0,-3.4705116748809814,-4,9950.0
3050,0.3200874328613281,2.2713074684143066,-16,5897.0,-4.007052421569824,116,9950.0
3060,0.31967058777809143,2.7868378162384033,31,5897.0,-1.3327974081039429,-31,9950.0
3070,0.3192131817340851,3.115638256072998,124,5897.0,3.362814426422119,93,9950.0
3080,0.3186355233192444,2.4634573459625244,63,5897.0,4.866739273071289,195,9950.0
3090,0.31793951988220215,3.3475754261016846,58,5897.0,0.9566266536712646,79,9950.0
3100,0.31752604246139526,1.5985369682312012,0,5897.0,1.3762505054473877,-47,9950.0
3110,0.31682729721069336,0.6441268920898438,69,5897.0,1.8612765073776245,-43,9950.0
3120,0.3161183297634125,1.0968660116195679,57,5897.0,-2.7564237117767334,-3,9950.0
3130,0.3154403567314148,2.04718017578125,-30,5897.0,-5.874883651733398,-22,9950.0
3140,0.3149570822715759,-1.2403929233551025,48,5897.0,-7.878384113311768,-158,9950.0
3150,0.31448864936828613,0.015797441825270653,4,5897.0,-8.183612823486328,-83,9950.0
3160,0.31412583589553833,0.08267220854759216,-59,5897.0,-7.443080902099609,-14,9950.0
3170,0.31371021270751953,-2.951134204864502,-29,5897.0,-6.575047016143799,-165,9950.0
3180,0.3133116066455841,-2.5603713989257812,-20,5897.0,-8.430715560913086,-68,9950.0
3190,0.31358492374420166,-2.0407633781433105,-115,5897.0,-6.6988067626953125,-102,9950.0
3200,0.3131939470767975,-2.3981454372406006,7,5897.0,-4.181509017944336,-204,9950.0
3210,0.3128125071525574,-3.456782579421997,-49,5897.0,-5.599926471710205,-65,9950.0
3220,0.3124130964279175,-5.177740573883057,-130,5897.0,-6.403431415557861,-119,9950.0
3230,0.3120080530643463,-3.5053672790527344,-11,5897.0,-6.0563812255859375,-184,9950.0
3240,0.3116891384124756,-2.4403483867645264,-24,5897.0,-6.000653266906738,-3,9950.0
3250,0.3113507926464081,-1.5176082849502563,-111,5897.0,-0.4555952847003937,3,9950.0
3260,0.31107690930366516,-1.141875982284546,71,5897.0,1.4380983114242554,8,9950.0
3270,0.3108821213245392,-0.026964981108903885,-23,5897.0,3.501328229904175,165,9950.0
3280,0.3104296922683716,-0.4124460518360138,-12,5897.0,2.9906957149505615,-25,9950.0
3290,0.3104165494441986,1.2988933324813843,40,5897.0,0.14096969366073608,84,9950.0
3300,0.31051191687583923,0.35640034079551697,-90,5897.0,7.5371413230896,135,9950.0
3310,0.3106926679611206,0.3277667164802551,58,5897.0,5.856113433837891,-17,9950.0
3320,0.31186941266059875,0.5611750483512878,3,5897.0,4.534710884094238,82,9950.0
3330,0.3123019337654114,-1.035862684249878,-44,5897.0,5.045995235443115,75,9950.0
3340,0.3128001391887665,0.5760855078697205,43,5897.0,1.0129930973052979,-18,9950.0
3350,0.3133850395679474,0.9377291202545166,8,5897.0,0.5957145690917969,16,9950.0
3360,0.3140460252761841,1.6211405992507935,14,5897.0,1.7135319709777832,-42,9950.0
3370,0.31518056988716125,3.7786548137664795,78,5897.0,0.12992167472839355,63,9950.0
3380,0.31599584221839905,-0.0958721935749054,-76,5897.0,5.997984886169434,122,9950.0
3390,0.3169797956943512,1.675158143043518,65,5897.0,6.64349889755249,-23,9950.0
3400,0.31794068217277527,0.7142719626426697,-14,5897.0,4.327229976654053,124,9950.0
3410,0.31856387853622437,1.6853293180465698,-11,5897.0,4.072863578796387,55,9950.0
3420,0.3195917308330536,2.9917874336242676,83,5897.0,0.8619937300682068,-44,9950.0
3430,0.3206649720668793,1.7706774473190308,76,5897.0,1.9260385036468506,51,9950.0
3440,0.32176005840301514,2.6320199966430664,-65,5897.0,2.463740110397339,148,9950.0
3450,0.32012471556663513,-1.040685772895813,-24,5897.0,3.9077749252319336,-31,9950.0
3460,0.3209879696369171,-0.38485220074653625,28,5897.0,4.574594020843506,7,9950.0
3470,0.3217778503894806,1.0840409994125366,18,5897.0,2.777522325515747,124,9950.0
3480,0.32248827815055847,0.9297910928726196,-15,5897.0,5.435554027557373,21,9950.0
3490,0.3231481611728668,0.9684576392173767,103,5897.0,4.488926887512207,14,9950.0
3500,0.3233301639556885,0.8971110582351685,81,5897.0,5.036812782287598,99,9950.0
3510,0.32397887110710144,1.0029172897338867,-41,5897.0,1.0190088748931885,145,9950.0
3520,0.32459011673927307,1.462728500366211,-18,5897.0,1.3808741569519043,5,9950.0
3530,0.32513880729675293,0.1325395405292511,68,5897.0,4.662561416625977,-62,9950.0
3540,0.3235284388065338,2.13291072845459,90,5897.0,0.15481828153133392,82,9950.0
3550,0.3237174153327942,1.2210907936096191,-56,5897.0,-0.8243062496185303,44,9950.0
3560,0.32382848858833313,1.9310017824172974,9,5897.0,-1.635292887687683,7,9950.0
3570,0.32392260432243347,0.08979234844446182,31,5897.0,-1.4779661893844604,-150,9950.0
3580,0.32401975989341736,-0.14715661108493805,18,5897.0,-3.3481016159057617,42,9950.0
3590,0.32282042503356934,0.030611835420131683,-37,5897.0,-4.69022798538208,-15,9950.0
3600,0.32279151678085327,-0.5780343413352966,-26,5897.0,-4.597768306732178,-102,9950.0
3610,0.3226853311061859,-0.6888408064842224,71,5897.0,1.0215373039245605,-95,9950.0
3620,0.32249751687049866,-1.5021218061447144,46,5897.0,-0.6548568606376648,65,9950.0
3630,0.3229004442691803,-1.0710488557815552,-62,5897.0,0.07809797674417496,115,9950.0
3640,0.32276275753974915,-2.5781331062316895,-31,5897.0,2.914834499359131,-39,9950.0
3650,0.3226926624774933,-3.003697156906128,30,5897.0,4.564569473266602,42,9950.0
3660,0.3226662278175354,-3.310546636581421,-49,5897.0,2.8807690143585205,69,9950.0
3670,0.3223689794540405,-1.0643764734268188,-16,5897.0,0.2645670771598816,9,9950.0
3680,0.3222818970680237,-0.4472958445549011,68,5897.0,-0.1709779053926468,-142,9950.0
3690,0.3221243619918823,-0.3673638105392456,11,5897.0,-3.1643455028533936,36,9950.0
3700,0.3218814432621002,0.9720861911773682,-18,5897.0,-7.040293216705322,-50,9950.0
3710,0.32156965136528015,0.6325559616088867,75,5897.0,-6.020508766174316,-106,9950.0
3720,0.3222639262676239,0.5851935744285583,-4,5897.0,-3.893693208694458,20,9950.0
3730,0.32203197479248047,0.2976686656475067,-47,5897.0,-4.669399738311768,27,9950.0
3740,0.3218308687210083,-0.8815128803253174,-43,5897.0,-1.6224853992462158,-99,9950.0
3750,0.3217116892337799,-0.26847589015960693,16,5897.0,-3.019089937210083,-83,9950.0
3760,0.3201780617237091,-0.03410597890615463,-91,5897.0,-4.135725498199463,-42,9950.0
3770,0.32013139128685,-0.9604007005691528,16,5897.0,-1.8002938032150269,-38,9950.0
3780,0.3201301097869873,-1.320561408996582,60,5897.0,-4.655997276306152,-189,9950.0
3790,0.32013970613479614,-3.6712212562561035,-57,5897.0,-0.9609985947608948,39,9950.0
3800,0.320132315158844,-1.968349814414978,-53,5897.0,-0.8762030005455017,-124,9950.0
3810,0.3179126977920532,-1.9245434999465942,23,5897.0,-0.10257790237665176,-55,9950.0
3820,0.3176664113998413,-1.2221823930740356,-31,5897.0,-0.6451600193977356,13,9950.0
3830,0.31738361716270447,0.06279576569795609,-30,5897.0,-0.33817780017852783,-2,9950.0
3840,0.31708794832229614,1.2225260734558105,57,5897.0,-0.4883686304092407,-71,9950.0
3850,0.3167407512664795,0.17286501824855804,-21,5897.0,-0.2990686297416687,96,9950.0
3860,0.3164413273334503,1.6373780965805054,-13,5897.0,-0.16113291680812836,-30,9950.0
3870,0.3161698877811432,1.9401134252548218,128,5897.0,-2.5953571796417236,14,9950.0
3880,0.3159613609313965,2.4060399532318115,-10,5897.0,-0.35688260197639465,27,9950.0
3890,0.3146369755268097,1.4430948495864868,5,5897.0,-0.29331398010253906,-75,9950.0
3900,0.3143726885318756,3.6841628551483154,69,5897.0,-4.400859832763672,-38,9950.0
3910,0.314184308052063,3.6278235912323,4,5897.0,-1.9658663272857666,-8,9950.0
3920,0.31406474113464355,4.046288967132568,90,5897.0,-4.2167134284973145,-75,9950.0
3930,0.3139890432357788,3.222526788711548,71,5897.0,-1.9637445211410522,41,9950.0
3940,0.3139297366142273,1.3524117469787598,-9,5897.0,-0.9161410331726074,-6,9950.0
3950,0.3138749599456787,0.7179996371269226,81,5897.0,-1.261309266090393,-53,9950.0
3960,0.31378352642059326,-0.745730996131897,-84,5897.0,0.29441970586776733,128,9950.0
3970,0.31374454498291016,-5.042683124542236,-83,5897.0,2.6495118141174316,-84,9950.0
3980,0.31430158019065857,-5.029764175415039,-41,5897.0,3.933350086212158,159,9950.0
3990,0.31437283754348755,-6.200562953948975,-170,5897.0,5.181492805480957,191,9950.0
4000,0.3143562078475952,-7.9081621170043945,-79,5897.0,6.027903079986572,67,9950.0
4010,0.31432998180389404,-8.08194351196289,-142,5897.0,6.413101673126221,181,9950.0
4020,0.31432825326919556,-6.236485004425049,-147,5897.0,8.37680435180664,73,9950.0
4030,0.31647828221321106,-7.637019157409668,-73,5897.0,7.904782772064209,155,9950.0
4040,0.31627434492111206,-7.4523444175720215,-175,5897.0,10.583606719970703,263,9950.0
4050,0.3163679540157318,-10.103787422180176,-160,5897.0,8.970864295959473,77,9950.0
4060,0.3163110315799713,-11.632641792297363,-167,5897.0,10.673543930053711,213,9950.0
4070,0.31665611267089844,-11.828866958618164,-290,5897.0,12.1725492477417,236,9950.0
4080,0.31605157256126404,-11.934932708740234,-154,5897.0,17.034751892089844,201,9950.0
4090,0.31626006960868835,-11.84460735321045,-214,5897.0,18.105409622192383,381,9950.0
4100,0.3157099187374115,-10.657343864440918,-240,5897.0,19.896812438964844,370,9950.0
4110,0.31647977232933044,-11.717623710632324,-133,5897.0,19.33415985107422,285,9950.0
4120,0.315514475107193,-11.273734092712402,-213,5897.0,23.38448143005371,462,9950.0
4130,0.3150566816329956,-10.637506484985352,-228,5897.0,27.137954711914062,393,9950.0
4140,0.31472137570381165,-8.495844841003418,-81,5897.0,28.401268005371094,447,9950.0
4150,0.3139681816101074,-8.719582557678223,-195,5897.0,29.672767639160156,556,9950.0
4160,0.3143320083618164,-7.739816188812256,-97,5897.0,29.628538131713867,366,9950.0
4170,0.31366023421287537,-8.105456352233887,-107,5897.0,29.156251907348633,530,9950.0
4180,0.31282973289489746,-6.749363422393799,-165,5897.0,27.778858184814453,452,9950.0
4190,0.3125382661819458,-5.555449485778809,-52,5897.0,26.156078338623047,472,9950.0
4200,0.3151472210884094,-3.445481300354004,-114,5897.0,29.28199577331543,569,9950.0
4210,0.31465470790863037,-3.1144635677337646,-29,5897.0,29.21633529663086,443,9950.0
4220,0.3139665722846985,2.2332217693328857,49,5897.0,27.55986976623535,537,9950.0
4230,0.31294795870780945,7.876528739929199,101,5897.0,29.535085678100586,482,9950.0
4240,0.31131497025489807,5.62742805480957,114,5897.0,29.713796615600586,532,9950.0
4250,0.3129432499408722,-1.421488881111145,-106,5897.0,31.245277404785156,510,9950.0
4260,0.31233564019203186,-19.18210220336914,-457,5897.0,22.224645614624023,281,9950.0
4270,0.31158173084259033,-45.880638122558594,-763,5897.0,25.549240112304688,507,9950.0
4280,0.31090468168258667,-40.309783935546875,-587,5897.0,24.34807014465332,310,9950.0
4290,0.3093664348125458,-26.049386978149414,-275,5897.0,20.742992401123047,372,9950.0
4300,0.3088383972644806,-7.27009916305542,-47,5897.0,22.977563858032227,338,9950.0
4310,0.30779337882995605,5.243833541870117,230,5897.0,24.112533569335938,396,9950.0
4320,0.30678242444992065,14.284537315368652,191,5897.0,21.26767349243164,386,9950.0
4330,0.30534541606903076,17.49538803100586,396,5897.0,25.32236671447754,306,9950.0
4340,0.3064621090888977,25.8522891998291,426,5897.0,23.891403198242188,445,9950.0
4350,0.30582740902900696,23.557100296020508,287,5897.0,15.850993156433105,238,9950.0
4360,0.3050304651260376,9.994714736938477,128,5897.0,15.30336856842041,236,9950.0
4370,0.30377212166786194,-3.950464963912964,-155,5897.0,6.459826946258545,102,9950.0
4380,0.30658677220344543,-11.916711807250977,-215,5897.0,5.697412490844727,-48,9950.0
4390,0.30610769987106323,-21.375642776489258,-350,5897.0,5.835895538330078,189,9950.0
4400,0.3054782748222351,-23.992919921875,-429,5897.0,6.104578495025635,132,9950.0
4410,0.304334431886673,-23.00869369506836,-296,5897.0,8.216634750366211,67,9950.0
4420,0.3070317506790161,-17.443227767944336,-310,5897.0,8.579211235046387,169,9950.0
4430,0.3068704605102539,-14.315053939819336,-258,5897.0,9.653402328491211,119,9950.0
4440,0.3064368963241577,-13.499682426452637,-172,5897.0,9.18620491027832,163,9950.0
4450,0.3055630922317505,-7.648726940155029,-154,5897.0,4.158623695373535,-26,9950.0
4460,0.30533987283706665,-2.6829750537872314,51,5897.0,8.583272933959961,136,9950.0
4470,0.30650222301483154,0.1529846042394638,-69,5897.0,5.987518310546875,114,9950.0
4480,0.30649450421333313,2.6583099365234375,101,5897.0,3.631667375564575,130,9950.0
4490,0.30612656474113464,6.917182445526123,89,5897.0,6.235385417938232,185,9950.0
4500,0.3061794638633728,14.779550552368164,335,5897.0,7.259512901306152,56,9950.0
4510,0.31050819158554077,17.860172271728516,204,5897.0,5.67719841003418,180,9950.0
4520,0.3107122778892517,10.77353286743164,88,5897.0,4.706757068634033,-22,9950.0
4530,0.31074243783950806,0.13464981317520142,34,5897.0,-2.5714333057403564,-45,9950.0
4540,0.31098583340644836,-5.393316745758057,-161,5897.0,-5.640927791595459,-57,9950.0
4550,0.31573426723480225,-8.893824577331543,-125,5897.0,-2.5803005695343018,-143,9950.0
4560,0.31623777747154236,-6.334463119506836,-105,5897.0,-4.172910213470459,28,9950.0
4570,0.31666988134384155,-0.30592358112335205,9,5897.0,-1.1034562587738037,26,9950.0
4580,0.3176352381706238,16.5126895904541,358,5897.0,1.659780740737915,-31,9950.0
4590,0.3183775246143341,23.124570846557617,435,5897.0,1.9128965139389038,61,9950.0
4600,0.3215068578720093,21.00366973876953,304,5897.0,2.030085325241089,138,9950.0
4610,0.322340726852417,20.89214515686035,252,5897.0,0.5736120939254761,47,9950.0
4620,0.3230436146259308,17.0159969329834,243,5897.0,-5.206696510314941,-227,9950.0
4630,0.3237762153148651,13.325913429260254,235,5897.0,-9.267693519592285,-305,9950.0
4640,0.3263992965221405,7.6061224937438965,197,5897.0,-8.493133544921875,-284,9950.0
4650,0.3271191716194153,4.00882625579834,130,5897.0,-13.784175872802734,-312,9950.0
4660,0.32785841822624207,2.943162441253662,61,5897.0,-10.401945114135742,-227,9950.0
4670,0.32841336727142334,3.4162375926971436,138,5897.0,-9.81279182434082,-185,9950.0
4680,0.32918810844421387,0.8991090059280396,85,5897.0,-10.90458869934082,-148,9950.0
4690,0.32854411005973816,0.9491479992866516,39,5897.0,-3.55153751373291,-67,9950.0
4700,0.3291170001029968,0.7286887764930725,-25,5897.0,-2.798633337020874,-36,9950.0
4710,0.32958680391311646,1.1715587377548218,3,5897.0,-2.044415235519409,-91,9950.0
4720,0.32958081364631653,3.1499693393707275,47,5897.0,-2.739348888397217,-102,9950.0
4730,0.330144464969635,0.7075560688972473,33,5897.0,-0.4047344923019409,-88,9950.0
4740,0.3300589919090271,2.7789456844329834,33,5897.0,-0.8585959672927856,-98,9950.0
4750,0.3303215801715851,1.3746891021728516,27,5897.0,-1.9155973196029663,-164,9950.0
4760,0.33031871914863586,0.34959739446640015,4,5897.0,-4.153276443481445,-157,9950.0
4770,0.3299834728240967,1.5771993398666382,1,5897.0,-8.001030921936035,-255,9950.0
4780,0.3299325704574585,0.6886703372001648,17,5897.0,-7.620085716247559,-239,9950.0
4790,0.3298368752002716,3.738548994064331,21,5897.0,-7.950403690338135,-109,9950.0
4800,0.3296486735343933,4.953678131103516,54,5897.0,-8.08102035522461,-93,9950.0
4810,0.32922884821891785,7.9571452140808105,137,5897.0,-10.888269424438477,-88,9950.0
4820,0.32873237133026123,7.164609432220459,80,5897.0,-7.805801868438721,-51,9950.0
4830,0.3283209800720215,4.142967700958252,40,5897.0,-6.143473148345947,-64,9950.0
4840,0.327859103679657,3.492344856262207,26,5897.0,-4.107029438018799,-100,9950.0
4850,0.3273634612560272,-0.11290587484836578,-23,5897.0,-3.587907075881958,-127,9950.0
4860,0.3247995674610138,-0.4791770279407501,-50,5897.0,-3.2202281951904297,-164,9950.0
4870,0.32478901743888855,-4.892337799072266,-49,5897.0,-4.9321608543396,-244,9950.0
4880,0.3229784667491913,-7.52478551864624,-96,5897.0,-5.10658073425293,-245,9950.0
4890,0.3229673206806183,-6.527572154998779,-81,5897.0,-7.052194118499756,-144,9950.0
4900,0.32106155157089233,-5.3686137199401855,-42,5897.0,-7.003543376922607,-131,9950.0
4910,0.31998929381370544,-1.0134406089782715,22,5897.0,-4.826457977294922,-55,9950.0
4920,0.3188757598400116,1.4246749877929688,60,5897.0,-2.4588494300842285,-78,9950.0
4930,0.31795960664749146,3.696673631668091,115,5897.0,-1.378502607345581,-7,9950.0
4940,0.3168470561504364,7.519105434417725,173,5897.0,0.503680408000946,-20,9950.0
4950,0.3164359927177429,9.402538299560547,166,5897.0,2.705631732940674,24,9950.0
4960,0.31574463844299316,8.87684440612793,152,5897.0,5.457910537719727,45,9950.0
4970,0.314980149269104,5.708437919616699,173,5897.0,1.5296008586883545,-58,9950.0
4980,0.3144492506980896,4.196686744689941,112,5897.0,0.6770201325416565,-38,9950.0
4990,0.31421834230422974,2.13490891456604,92,5897.0,-2.8710739612579346,-98,9950.0
5000,0.31371963024139404,-0.14594416320323944,51,5897.0,-4.134981632232666,-21,9950.0
5010,0.31341037154197693,3.3473968505859375,43,5897.0,-4.714319229125977,-15,9950.0
5020,0.31320542097091675,3.382963180541992,-15,5897.0,-3.5705437660217285,137,9950.0
5030,0.31307727098464966,5.256781101226807,-62,5897.0,-6.141894817352295,168,9950.0
5040,0.3121810257434845,6.890135288238525,-60,5897.0,-3.36622953414917,142,9950.0
5050,0.31236696243286133,7.303354740142822,-25,5897.0,-6.717767238616943,39,9950.0
5060,0.31257036328315735,6.581577777862549,58,5897.0,0.12527315318584442,-50,9950.0
5070,0.31258541345596313,6.131101131439209,92,5897.0,-3.0705487728118896,-106,9950.0
5080,0.3126964569091797,6.920986175537109,197,5897.0,-3.9435646533966064,-186,9950.0
5090,0.31253764033317566,5.362524032592773,94,5897.0,-3.6423733234405518,-143,9950.0
5100,0.31240326166152954,6.44900369644165,171,5897.0,-5.317262649536133,-162,9950.0
5110,0.3122359812259674,2.153765916824341,132,5897.0,-8.900945663452148,-228,9950.0
5120,0.31300151348114014,4.008755207061768,108,5897.0,-6.6415205001831055,-38,9950.0
5130,0.31315895915031433,7.5493245124816895,101,5897.0,-10.983663558959961,-58,9950.0
5140,0.31338953971862793,8.092761993408203,53,5897.0,-9.951254844665527,-8,9950.0
5150,0.3137267529964447,6.205673694610596,13,5897.0,-4.905819416046143,73,9950.0
5160,0.3140814006328583,8.154699325561523,-27,5897.0,-3.0607926845550537,146,9950.0
5170,0.31289196014404297,6.017009735107422,-8,5897.0,-0.9978287220001221,27,9950.0
5180,0.31297048926353455,4.666373252868652,13,5897.0,0.21698348224163055,-30,9950.0
5190,0.3129682242870331,2.365309238433838,47,5897.0,1.5744847059249878,-114,9950.0
5200,0.31287917494773865,1.9932018518447876,88,5897.0,1.4837266206741333,-84,9950.0
5210,0.3111349940299988,-0.888920783996582,139,5897.0,-0.6271083950996399,-135,9950.0
5220,0.3112393319606781,0.8595653772354126,109,5897.0,0.5395046472549438,-19,9950.0
5230,0.3114335834980011,2.4103589057922363,0,5897.0,-2.975598096847534,67,9950.0
5240,0.31190985441207886,4.356340408325195,-22,5897.0,-1.3219327926635742,149,9950.0
5250,0.3123951256275177,6.514065742492676,-16,5897.0,-3.202692747116089,104,9950.0
5260,0.31359225511550903,7.09572172164917,8,5897.0,-0.7517840266227722,36,9950.0
5270,0.3139812648296356,5.365934371948242,1,5897.0,1.1519691944122314,35,9950.0
5280,0.31437256932258606,4.968349456787109,16,5897.0,0.8128747940063477,-17,9950.0
5290,0.31474560499191284,0.7803184390068054,19,5897.0,1.5909450054168701,-15,9950.0
5300,0.3161948025226593,0.1590694636106491,121,5897.0,-0.10320978611707687,-109,9950.0
5310,0.3167229890823364,0.07288330793380737,118,5897.0,1.0848952531814575,-69,9950.0
5320,0.31733208894729614,-2.3703553676605225,8,5897.0,6.589949131011963,68,9950.0
5330,0.3179159462451935,-0.39921513199806213,-14,5897.0,3.5923595428466797,99,9950.0
5340,0.31940269470214844,0.5006464719772339,-46,5897.0,2.7724153995513916,108,9950.0
5350,0.32010629773139954,1.275938630104065,-55,5897.0,3.873359441757202,121,9950.0
5360,0.32080256938934326,-0.038217127323150635,-53,5897.0,2.926054000854492,111,9950.0
5370,0.3214203715324402,2.488637924194336,-88,5897.0,-3.0284056663513184,54,9950.0
5380,0.3220990002155304,2.361863374710083,-132,5897.0,-2.2714459896087646,13,9950.0
5390,0.3235507607460022,1.8222984075546265,-52,5897.0,-3.425971508026123,23,9950.0
5400,0.3242138922214508,-0.5656747221946716,-80,5897.0,-3.2909271717071533,24,9950.0
5410,0.3249678611755371,-0.739463210105896,-40,5897.0,-4.9325270652771,31,9950.0
5420,0.325717568397522,-2.9349358081817627,-51,5897.0,-5.062461853027344,13,9950.0
5430,0.32590368390083313,-3.0958921909332275,-60,5897.0,-0.9385859370231628,70,9950.0
5440,0.32667577266693115,-1.2510379552841187,-41,5897.0,-2.428194046020508,73,9950.0
5450,0.3273867666721344,0.5012791156768799,-17,5897.0,1.1156649589538574,81,9950.0
5460,0.3280799686908722,0.40596261620521545,-10,5897.0,0.9554666876792908,63,9950.0
5470,0.32872796058654785,1.6000683307647705,23,5897.0,2.7903711795806885,102,9950.0
5480,0.32878443598747253,0.5122713446617126,-66,5897.0,3.89925479888916,118,9950.0
5490,0.3293662965297699,0.023453768342733383,-44,5897.0,-4.699991703033447,74,9950.0
5500,0.32991132140159607,-3.515289306640625,-106,5897.0,-2.0037925243377686,44,9950.0
5510,0.33044710755348206,-3.774648427963257,-127,5897.0,-5.427958011627197,-46,9950.0
5520,0.32978078722953796,-5.28565788269043,-117,5897.0,-2.6904854774475098,-69,9950.0
5530,0.3301505744457245,-5.3803181648254395,-72,5897.0,-2.8946311473846436,-91,9950.0
5540,0.3304736018180847,-5.406728744506836,-92,5897.0,-1.4593967199325562,-55,9950.0
5550,0.33077099919319153,-3.6200807094573975,-103,5897.0,-0.15759456157684326,12,9950.0
5560,0.3302566409111023,-4.734742641448975,-40,5897.0,0.44193345308303833,-40,9950.0
5570,0.3304270803928375,-3.4963555335998535,-58,5897.0,2.0488643646240234,-22,9950.0
5580,0.3305964767932892,-2.80165958404541,-24,5897.0,4.2655930519104,-1,9950.0
5590,0.33061879873275757,0.24341034889221191,32,5897.0,2.3681273460388184,-30,9950.0
5600,0.330608606338501,-2.619654893875122,-24,5897.0,5.7803120613098145,7,9950.0
5610,0.3286585211753845,-4.741753578186035,-76,5897.0,5.836919784545898,-8,9950.0
5620,0.3284042775630951,-6.167038440704346,-106,5897.0,3.336486339569092,24,9950.0
5630,0.3281627893447876,-6.590431213378906,-123,5897.0,1.342761516571045,-49,9950.0
5640,0.32782208919525146,-6.496551990509033,-157,5897.0,-4.556110382080078,34,9950.0
5650,0.3268781006336212,-6.272358417510986,-153,5897.0,-4.88535737991333,-132,9950.0
5660,0.32643043994903564,-6.381247520446777,-130,5897.0,-8.351947784423828,-129,9950.0
5670,0.3259528577327728,-5.167548179626465,-103,5897.0,-4.659782886505127,-94,9950.0
5680,0.32544657588005066,-3.1394076347351074,-44,5897.0,-1.0741525888442993,15,9950.0
5690,0.3250126838684082,-2.2721056938171387,-32,5897.0,5.0460968017578125,52,9950.0
5700,0.32471686601638794,-2.1905736923217773,-27,5897.0,6.8450446128845215,107,9950.0
5710,0.3242206871509552,-4.220957279205322,-49,5897.0,7.7122483253479,118,9950.0
5720,0.3236904740333557,-6.25169563293457,-80,5897.0,5.903796672821045,151,9950.0
5730,0.3232516050338745,-6.789726257324219,-72,5897.0,5.187620162963867,42,9950.0
5740,0.32287782430648804,-7.449978351593018,-49,5897.0,0.2148026078939438,-31,9950.0
5750,0.32246649265289307,-6.031312942504883,-55,5897.0,1.8617385625839233,-41,9950.0
5760,0.3220294713973999,-5.927944183349609,-36,5897.0,1.060880184173584,-74,9950.0
5770,0.32168328762054443,-3.874734878540039,0,5897.0,-0.14261016249656677,-172,9950.0
5780,0.3208329379558563,-2.0179457664489746,21,5897.0,1.2234983444213867,-38,9950.0
5790,0.320493221282959,-0.9702481627464294,8,5897.0,-1.3183567523956299,-72,9950.0
5800,0.32025784254074097,-1.9057419300079346,-28,5897.0,-1.2904243469238281,-68,9950.0
5810,0.319998174905777,-0.48398637771606445,-86,5897.0,-0.685052216053009,19,9950.0
5820,0.3197646737098694,-3.629155158996582,-77,5897.0,-1.237889051437378,82,9950.0
5830,0.3213343918323517,-1.9767422676086426,-113,5897.0,-6.8993377685546875,58,9950.0
5840,0.32121381163597107,-4.51981258392334,-116,5897.0,0.03954207897186279,156,9950.0
5850,0.32110723853111267,-3.9520413875579834,-130,5897.0,-0.7321674227714539,119,9950.0
5860,0.3210393190383911,-2.6605889797210693,-58,5897.0,2.529170274734497,73,9950.0
5870,0.32174423336982727,-2.7513298988342285,-69,5897.0,2.1542067527770996,11,9950.0
5880,0.3218511641025543,-2.030888557434082,10,5897.0,3.640120029449463,-24,9950.0
5890,0.32208454608917236,-2.4891929626464844,53,5897.0,-2.2236828804016113,-118,9950.0
5900,0.3223261833190918,1.8268252611160278,86,5897.0,0.3089481592178345,8,9950.0
5910,0.3225744366645813,4.33128023147583,116,5897.0,0.8215272426605225,7,9950.0
5920,0.324088990688324,4.306088447570801,87,5897.0,0.9221880435943604,19,9950.0
5930,0.3243671655654907,5.196091651916504,71,5897.0,2.175652265548706,58,9950.0
5940,0.32457879185676575,5.333851337432861,37,5897.0,0.5168849229812622,60,9950.0
5950,0.32494741678237915,2.4745595455169678,-8,5897.0,1.1821175813674927,70,9950.0
5960,0.3282209038734436,2.5350613594055176,-26,5897.0,-2.4308388233184814,70,9950.0
5970,0.3287109434604645,3.950147867202759,-30,5897.0,-0.39688748121261597,146,9950.0
5980,0.32926973700523376,3.561857223510742,-15,5897.0,-1.7285658121109009,67,9950.0
5990,0.32977721095085144,2.7453577518463135,-56,5897.0,7.15795373916626,152,9950.0
6000,0.3316011428833008,5.413910865783691,18,5897.0,-3.8719210624694824,45,9950.0
6010,0.3321175277233124,5.009582996368408,-72,5897.0,4.858761310577393,210,9950.0
6020,0.33277493715286255,4.03334903717041,-67,5897.0,-3.4564480781555176,133,9950.0
6030,0.33344122767448425,3.2320055961608887,-36,5897.0,-4.145257949829102,78,9950.0
6040,0.3341231048107147,3.6616246700286865,22,5897.0,-3.1367647647857666,92,9950.0
6050,0.33562228083610535,3.581461191177368,16,5897.0,-6.879561424255371,8,9950.0
6060,0.33625200390815735,4.837484836578369,60,5897.0,-2.7537269592285156,98,9950.0
6070,0.3369344174861908,3.423293113708496,48,5897.0,-2.4596219062805176,2,9950.0
6080,0.3376288414001465,3.574646472930908,61,5897.0,0.058863308280706406,-35,9950.0
6090,0.34005501866340637,2.103620767593384,39,5897.0,0.12649649381637573,-33,9950.0
6100,0.34070971608161926,1.9388319253921509,33,5897.0,1.256499171257019,-82,9950.0
6110,0.34128639101982117,2.4793365001678467,26,5897.0,4.89935827255249,12,9950.0
6120,0.34176963567733765,1.6322040557861328,53,5897.0,3.1385624408721924,-13,9950.0
6130,0.34287214279174805,1.1952157020568848,2,5897.0,1.3246631622314453,-54,9950.0
6140,0.343278706073761,0.360132098197937,-16,5897.0,-1.996018648147583,-82,9950.0
6150,0.3436282277107239,-0.8097724914550781,-2,5897.0,-1.9844579696655273,-6,9950.0
6160,0.34394311904907227,-1.1277657747268677,-29,5897.0,-2.596867799758911,76,9950.0
6170,0.3441564738750458,0.2343919724225998,-49,5897.0,-4.746646881103516,86,9950.0
6180,0.3445442318916321,-2.8766634464263916,-78,5897.0,-2.0633862018585205,59,9950.0
6190,0.34461510181427,-1.8888542652130127,-41,5897.0,-0.92909175157547,38,9950.0
6200,0.34457850456237793,-0.8293964862823486,-18,5897.0,-2.7941579818725586,-68,9950.0
6210,0.34447193145751953,-0.24633151292800903,25,5897.0,-2.172171115875244,-101,9950.0
6220,0.3468628525733948,2.7051873207092285,50,5897.0,-0.15909822285175323,-85,9950.0
6230,0.34678712487220764,2.2716290950775146,79,5897.0,1.0821110010147095,-69,9950.0
6240,0.3466474711894989,1.8616515398025513,50,5897.0,-1.2505714893341064,-16,9950.0
6250,0.34639695286750793,-0.2583921551704407,49,5897.0,-5.104248046875,-54,9950.0
6260,0.34606802463531494,0.9838692545890808,-19,5897.0,-9.173152923583984,-38,9950.0
6270,0.3474872410297394,-0.10697227716445923,-53,5897.0,-10.056114196777344,-37,9950.0
6280,0.3472842872142792,-2.5920472145080566,-46,5897.0,-10.80386734008789,-6,9950.0
6290,0.34696224331855774,-2.770054340362549,-88,5897.0,-10.557669639587402,-27,9950.0
6300,0.3465757668018341,-3.857292413711548,-55,5897.0,-4.759110927581787,-47,9950.0
6310,0.3461245000362396,-3.8213577270507812,-52,5897.0,-3.477569103240967,-31,9950.0
6320,0.34573474526405334,-2.3114993572235107,-29,5897.0,1.4524385929107666,-19,9950.0
6330,0.3453531563282013,-3.7774806022644043,-24,5897.0,5.3657917976379395,-2,9950.0
6340,0.34505295753479004,-2.741398334503174,-16,5897.0,6.177437782287598,28,9950.0
6350,0.3455234467983246,-2.798659086227417,-10,5897.0,2.3265905380249023,-78,9950.0
6360,0.3451022505760193,-3.127419948577881,-15,5897.0,4.348915100097656,-24,9950.0
6370,0.3445720374584198,-2.6909642219543457,-27,5897.0,4.950255870819092,-32,9950.0
6380,0.34396013617515564,-3.5683646202087402,-68,5897.0,1.6505494117736816,-86,9950.0
6390,0.3433058261871338,-4.223958492279053,-42,5897.0,0.41252782940864563,-89,9950.0
6400,0.34361782670021057,-3.7234339714050293,-85,5897.0,1.5503734350204468,-128,9950.0
6410,0.3430488705635071,-4.852996826171875,-131,5897.0,-3.6463348865509033,-1,9950.0
6420,0.34244146943092346,-4.691450595855713,-70,5897.0,-6.690083026885986,-25,9950.0
6430,0.3417884111404419,-2.6429693698883057,-54,5897.0,-5.509711265563965,35,9950.0
6440,0.3422524034976959,-2.1843180656433105,-22,5897.0,-3.3112738132476807,61,9950.0
6450,0.34183645248413086,0.7328999042510986,17,5897.0,-1.385379672050476,104,9950.0
6460,0.34133750200271606,1.3114084005355835,28,5897.0,3.88774037361145,42,9950.0
6470,0.3408091962337494,1.718723177909851,52,5897.0,2.3184804916381836,37,9950.0
6480,0.34021762013435364,-0.39765071868896484,-17,5897.0,4.152840614318848,76,9950.0
6490,0.34035971760749817,-1.0316143035888672,-12,5897.0,6.4820733070373535,108,9950.0
6500,0.3399278521537781,-3.0924758911132812,-37,5897.0,6.056243419647217,51,9950.0
6510,0.3394864797592163,-3.9564452171325684,-64,5897.0,6.840064525604248,28,9950.0
6520,0.33900344371795654,-3.5901317596435547,-21,5897.0,4.700341701507568,11,9950.0
6530,0.33983170986175537,-1.750820279121399,23,5897.0,4.7909321784973145,-50,9950.0
6540,0.3393131494522095,-1.688761591911316,106,5897.0,0.031937580555677414,-140,9950.0
6550,0.3388212323188782,-0.49678105115890503,106,5897.0,3.1894190311431885,-105,9950.0
6560,0.3382861614227295,-0.37234610319137573,87,5897.0,2.7588438987731934,-86,9950.0
6570,0.3385193347930908,1.1404629945755005,59,5897.0,0.011766315437853336,-15,9950.0
6580,0.33787018060684204,0.8936823010444641,24,5897.0,0.5551209449768066,-17,9950.0
6590,0.3371654748916626,0.4475404918193817,16,5897.0,-1.1985193490982056,102,9950.0
6600,0.3363644480705261,-0.5463718771934509,-71,5897.0,6.3509202003479,205,9950.0
6610,0.33570095896720886,-3.4842116832733154,-119,5897.0,4.890994548797607,184,9950.0
6620,0.33741453289985657,-3.142174482345581,-167,5897.0,4.167544364929199,115,9950.0
6630,0.3370429575443268,-4.421892166137695,-168,5897.0,3.0253937244415283,193,9950.0
6640,0.3367707431316376,-3.0264461040496826,-134,5897.0,3.7684082984924316,193,9950.0
6650,0.3364633023738861,-2.5204997062683105,-118,5897.0,4.9544548988342285,69,9950.0
6660,0.3380546569824219,-2.9111900329589844,-62,5897.0,6.472132205963135,166,9950.0
6670,0.33805739879608154,-0.19483350217342377,10,5897.0,6.077581882476807,58,9950.0
6680,0.33804020285606384,2.942918062210083,134,5897.0,4.285789966583252,-49,9950.0
6690,0.33814093470573425,4.378537654876709,134,5897.0,2.261143445968628,16,9950.0
6700,0.3383259177207947,2.830334424972534,101,5897.0,0.27174025774002075,-70,9950.0
6710,0.3390541970729828,1.3272249698638916,62,5897.0,-5.171972751617432,-91,9950.0
6720,0.3390403389930725,-1.5928049087524414,28,5897.0,1.6947541236877441,4,9950.0
6730,0.3389805257320404,-0.11013680696487427,7,5897.0,-1.8352371454238892,-72,9950.0
6740,0.338803231716156,-0.31414660811424255,7,5897.0,-0.48018521070480347,-12,9950.0
6750,0.34229224920272827,0.5841259360313416,-16,5897.0,-4.314565658569336,-48,9950.0
6760,0.3423023819923401,1.569169044494629,15,5897.0,-2.887247323989868,-39,9950.0
6770,0.34235742688179016,3.7478952407836914,68,5897.0,-2.5521175861358643,-24,9950.0
6780,0.3424648344516754,3.025480031967163,37,5897.0,2.7523698806762695,73,9950.0
6790,0.34613263607025146,4.410696029663086,149,5897.0,6.347463607788086,74,9950.0
6800,0.34633147716522217,6.335458278656006,138,5897.0,-1.9696065187454224,45,9950.0
6810,0.34651893377304077,4.998658657073975,126,5897.0,3.2647793292999268,18,9950.0
6820,0.3467808961868286,2.8403494358062744,69,5897.0,-1.4506205320358276,-61,9950.0
6830,0.34711265563964844,2.747758388519287,18,5897.0,-3.6593923568725586,-26,9950.0
6840,0.35044869780540466,1.9153543710708618,60,5897.0,0.5765894055366516,-1,9950.0
6850,0.3508453071117401,3.4785709381103516,61,5897.0,2.607778549194336,-82,9950.0
6860,0.3512241244316101,3.664944887161255,56,5897.0,-1.423694372177124,-44,9950.0
6870,0.35163843631744385,1.747801423072815,28,5897.0,1.3326811790466309,7,9950.0
6880,0.35279586911201477,3.1101419925689697,45,5897.0,-1.9299451112747192,-36,9950.0
6890,0.35321491956710815,2.434448480606079,2,5897.0,2.309329032897949,-8,9950.0
6900,0.35355594754219055,2.8169710636138916,17,5897.0,-1.9555871486663818,26,9950.0
6910,0.35385996103286743,2.7838051319122314,-34,5897.0,-4.301205158233643,17,9950.0
6920,0.35411372780799866,-0.740984320640564,-60,5897.0,-1.3113296031951904,65,9950.0
6930,0.35542407631874084,0.8678878545761108,-35,5897.0,-3.783355474472046,-3,9950.0
6940,0.3555848002433777,1.854884147644043,12,5897.0,-2.5410807132720947,-34,9950.0
6950,0.3557029068470001,3.2455976009368896,73,5897.0,-3.579268217086792,-70,9950.0
6960,0.35574400424957275,4.412380695343018,83,5897.0,1.2499185800552368,-81,9950.0
6970,0.35542675852775574,5.816228866577148,102,5897.0,4.57344388961792,27,9950.0
6980,0.3554311692714691,6.734565258026123,123,5897.0,3.0372872352600098,154,9950.0
6990,0.35534024238586426,6.965388298034668,89,5897.0,6.0790228843688965,196,9950.0
7000,0.3551475405693054,5.742406368255615,92,5897.0,3.1546061038970947,63,9950.0
7010,0.3560729920864105,6.536449432373047,113,5897.0,0.5648918151855469,-26,9950.0
7020,0.35580122470855713,4.4620280265808105,110,5897.0,-0.40903544425964355,-114,9950.0
7030,0.3554726243019104,3.574799060821533,25,5897.0,-0.9701400399208069,25,9950.0
7040,0.35507306456565857,2.600013017654419,57,5897.0,-4.907004356384277,20,9950.0
7050,0.3545984625816345,1.1783584356307983,-4,5897.0,-1.124857783317566,57,9950.0
7060,0.3548243045806885,0.17953401803970337,-41,5897.0,-2.686352491378784,12,9950.0
7070,0.35422179102897644,-0.2442692518234253,13,5897.0,0.039584748446941376,-38,9950.0
7080,0.3535424768924713,-1.1926157474517822,13,5897.0,1.642549753189087,-75,9950.0
7090,0.3527975380420685,-1.6541876792907715,16,5897.0,1.8977046012878418,-35,9950.0
7100,0.3520086109638214,-2.7697486877441406,-14,5897.0,3.932333469390869,16,9950.0
7110,0.35120266675949097,-5.012245178222656,-86,5897.0,2.8113760948181152,7,9950.0
7120,0.35039955377578735,-5.101291656494141,-99,5897.0,-0.5378578305244446,44,9950.0
7130,0.34958794713020325,-5.7392120361328125,-129,5897.0,0.35980385541915894,50,9950.0
7140,0.3487764894962311,-8.724701881408691,-173,5897.0,-1.837416172027588,77,9950.0
7150,0.34957316517829895,-7.063474655151367,-133,5897.0,-3.2004106044769287,59,9950.0
7160,0.34879356622695923,-6.391663551330566,-138,5897.0,-1.949894905090332,125,9950.0
7170,0.3479573130607605,-5.28444242477417,-134,5897.0,-0.07767011970281601,114,9950.0
7180,0.34708982706069946,-3.7198574542999268,-112,5897.0,-0.5910336971282959,122,9950.0
7190,0.3481135070323944,-4.300088882446289,-119,5897.0,0.5248083472251892,82,9950.0
7200,0.34742599725723267,-4.670595169067383,-95,5897.0,0.7972708940505981,105,9950.0
7210,0.3467296361923218,-5.683934688568115,-132,5897.0,3.9491324424743652,164,9950.0
7220,0.3460521101951599,-3.754157304763794,-83,5897.0,1.7203303575515747,125,9950.0
7230,0.3471328914165497,-4.556648254394531,-146,5897.0,5.2917070388793945,215,9950.0
7240,0.34661099314689636,-5.1079912185668945,-153,5897.0,2.4536120891571045,210,9950.0
7250,0.3461366295814514,-4.622138977050781,-174,5897.0,0.4091113209724426,109,9950.0
7260,0.3457595407962799,-5.922271728515625,-151,5897.0,-2.989560127258301,86,9950.0
7270,0.3453301191329956,-4.37900972366333,-154,5897.0,-3.1217246055603027,87,9950.0
7280,0.3447811007499695,-3.14949893951416,-135,5897.0,-2.078582286834717,137,9950.0
7290,0.3444737493991852,-2.335134267807007,-117,5897.0,-1.9597283601760864,109,9950.0
7300,0.34431448578834534,0.12157697975635529,-46,5897.0,-1.5314124822616577,71,9950.0
7310,0.34415608644485474,-0.4628010094165802,-89,5897.0,0.4652498960494995,163,9950.0
7320,0.34398314356803894,-0.4123811423778534,-42,5897.0,0.7872950434684753,78,9950.0
7330,0.343779593706131,-1.2715593576431274,-30,5897.0,4.926492691040039,186,9950.0
7340,0.34359437227249146,-0.9324471354484558,-78,5897.0,3.706879138946533,83,9950.0
7350,0.3435686528682709,-2.1556570529937744,-36,5897.0,-1.276005506515503,85,9950.0
7360,0.3434835970401764,-0.6169487833976746,-44,5897.0,0.5505085587501526,66,9950.0
7370,0.3433149456977844,-0.6415985226631165,-48,5897.0,1.4837238788604736,-15,9950.0
7380,0.3432807922363281,0.4286162853240967,12,5897.0,0.987873911857605,2,9950.0
7390,0.34308549761772156,0.633562445640564,21,5897.0,0.2901100814342499,-27,9950.0
7400,0.34291231632232666,0.5605640411376953,-11,5897.0,-1.7043976783752441,-30,9950.0
7410,0.34442728757858276,0.13486038148403168,-25,5897.0,-4.123946189880371,-50,9950.0
7420,0.34430569410324097,-1.8210904598236084,-14,5897.0,-0.9948330521583557,-56,9950.0
7430,0.34418049454689026,-3.2542407512664795,-20,5897.0,0.4390721023082733,67,9950.0
7440,0.34402284026145935,0.5337753891944885,30,5897.0,-1.9011138677597046,48,9950.0
7450,0.3439033627510071,1.6995688676834106,35,5897.0,2.513564109802246,136,9950.0
7460,0.34373006224632263,1.3816065788269043,12,5897.0,3.0437607765197754,2,9950.0
7470,0.3435436487197876,-0.16548994183540344,16,5897.0,6.023968696594238,31,9950.0
7480,0.34335431456565857,-0.9428532719612122,-16,5897.0,4.308837413787842,74,9950.0
7490,0.3431336283683777,-0.05417453125119209,12,5897.0,0.2743169665336609,-55,9950.0
7500,0.3436615467071533,0.10202600806951523,11,5897.0,0.7124536633491516,-50,9950.0
7510,0.34347110986709595,1.203163504600525,22,5897.0,-0.8155004382133484,-52,9950.0
7520,0.34326887130737305,0.6586461663246155,39,5897.0,1.7708759307861328,-14,9950.0
7530,0.3430893123149872,1.8948992490768433,63,5897.0,-0.46540355682373047,-76,9950.0
7540,0.3437533378601074,2.627187490463257,64,5897.0,0.8010214567184448,-10,9950.0
7550,0.3436954915523529,2.9024314880371094,119,5897.0,-0.8222095966339111,9,9950.0
7560,0.34366437792778015,2.6601765155792236,58,5897.0,-0.02960798889398575,21,9950.0
7570,0.3436271846294403,5.148832321166992,90,5897.0,-0.16243091225624084,-17,9950.0
7580,0.344921737909317,2.4541563987731934,60,5897.0,0.9353489875793457,52,9950.0
7590,0.3449746370315552,0.5895746946334839,28,5897.0,3.3579323291778564,47,9950.0
7600,0.34509286284446716,1.5612798929214478,36,5897.0,0.2182055115699768,36,9950.0
7610,0.3453059196472168,3.183943271636963,83,5897.0,2.011354446411133,65,9950.0
7620,0.3454509377479553,3.5316460132598877,6,5897.0,2.894674777984619,107,9950.0
7630,0.34862327575683594,2.8600306510925293,21,5897.0,4.157517433166504,139,9950.0
7640,0.3489229679107666,2.575284957885742,2,5897.0,5.579463481903076,88,9950.0
7650,0.3492273986339569,3.6508474349975586,-25,5897.0,1.5009759664535522,3,9950.0
7660,0.3495437204837799,4.592120170593262,27,5897.0,-0.48888102173805237,71,9950.0
7670,0.350700706243515,4.155513763427734,21,5897.0,-5.133012771606445,-44,9950.0
7680,0.3509884476661682,1.9737730026245117,69,5897.0,-3.312714099884033,18,9950.0
7690,0.3512078523635864,3.752570629119873,41,5897.0,-4.3641037940979,-34,9950.0
7700,0.3513909578323364,2.998631477355957,8,5897.0,-4.965723991394043,-2,9950.0
7710,0.3515534996986389,2.0557572841644287,1,5897.0,-5.1111555099487305,-51,9950.0
7720,0.3514443635940552,0.842522144317627,35,5897.0,-5.0113749504089355,-116,9950.0
7730,0.3514929413795471,1.7660417556762695,31,5897.0,-2.9341955184936523,-145,9950.0
7740,0.35146564245224,0.4357350766658783,8,5897.0,1.2325193881988525,17,9950.0
7750,0.3514018654823303,1.3869593143463135,3,5897.0,4.226080894470215,86,9950.0
7760,0.3511560559272766,0.8483038544654846,-29,5897.0,5.379708290100098,109,9950.0
7770,0.3509741723537445,-0.6701881885528564,-46,5897.0,2.4075348377227783,40,9950.0
7780,0.35074886679649353,-1.5797193050384521,-50,5897.0,6.111739635467529,162,9950.0
7790,0.35050642490386963,-3.5545156002044678,-71,5897.0,2.899545669555664,86,9950.0
7800,0.3501516282558441,-2.7011754512786865,-115,5897.0,0.8001167178153992,56,9950.0
7810,0.34985747933387756,-2.982940673828125,-68,5897.0,-1.7259533405303955,18,9950.0
7820,0.34951213002204895,-0.2886274755001068,-7,5897.0,-1.4469858407974243,-106,9950.0
7830,0.3491328954696655,2.7981104850769043,7,5897.0,-6.57111930847168,-143,9950.0
7840,0.34868595004081726,1.798581838607788,-1,5897.0,-3.1791791915893555,-181,9950.0
7850,0.3494845926761627,0.6928848028182983,43,5897.0,-2.275756359100342,-183,9950.0
7860,0.34901490807533264,-1.4445412158966064,14,5897.0,4.520390033721924,-96,9950.0
7870,0.3485249876976013,-1.728024959564209,26,5897.0,1.974149465560913,-59,9950.0
7880,0.34803685545921326,-0.27937570214271545,20,5897.0,1.5122231245040894,-6,9950.0
7890,0.34929418563842773,-2.0232174396514893,-28,5897.0,5.7594804763793945,116,9950.0
7900,0.3488836884498596,-2.8469016551971436,-41,5897.0,4.206577301025391,101,9950.0
7910,0.3484673798084259,-2.634695291519165,-44,5897.0,0.9401540160179138,62,9950.0
7920,0.3480745851993561,-3.5279695987701416,-78,5897.0,1.5193071365356445,97,9950.0
7930,0.3476671874523163,-2.090593099594116,-50,5897.0,-1.5907899141311646,63,9950.0
7940,0.34823569655418396,-1.4336562156677246,-62,5897.0,-0.7428375482559204,102,9950.0
7950,0.3479471504688263,-1.9635432958602905,-77,5897.0,-0.845658540725708,117,9950.0
7960,0.34763407707214355,0.2797054946422577,-42,5897.0,-1.5680581331253052,59,9950.0
7970,0.3473425507545471,1.1860142946243286,-17,5897.0,-3.7661051750183105,24,9950.0
7980,0.3490139842033386,0.7342337369918823,-37,5897.0,-4.339733600616455,-18,9950.0
7990,0.3488014340400696,0.9920067191123962,-31,5897.0,-1.1532820463180542,46,9950.0
8000,0.348550945520401,-0.12849929928779602,-54,5897.0,5.06417989730835,178,9950.0
8010,0.34824490547180176,0.10385024547576904,-43,5897.0,1.1836296319961548,140,9950.0
8020,0.3486919105052948,-0.8123725652694702,-57,5897.0,2.2661831378936768,117,9950.0
8030,0.34832099080085754,-0.6331031322479248,-58,5897.0,-0.37473198771476746,72,9950.0
8040,0.34793832898139954,-0.32954269647598267,-59,5897.0,-4.378476142883301,12,9950.0
8050,0.3475402891635895,-0.7729066610336304,-39,5897.0,-3.011831045150757,25,9950.0
8060,0.34708303213119507,1.3133807182312012,-10,5897.0,-2.4019508361816406,51,9950.0
8070,0.34689465165138245,-0.3367903530597687,-34,5897.0,-0.49589163064956665,117,9950.0
8080,0.34630557894706726,2.0392019748687744,-11,5897.0,-4.449161052703857,32,9950.0
8090,0.3456421196460724,-0.43673911690711975,-16,5897.0,0.3508416712284088,-3,9950.0
8100,0.34507134556770325,2.592885971069336,-72,5897.0,-3.7002322673797607,32,9950.0
8110,0.34662410616874695,-0.641295313835144,-35,5897.0,0.6797884702682495,77,9950.0
8120,0.3460054397583008,-0.1158384382724762,-60,5897.0,2.3474018573760986,84,9950.0
8130,0.3453177213668823,-1.1693772077560425,-67,5897.0,3.750735282897949,105,9950.0
8140,0.3445950448513031,-0.17976583540439606,-81,5897.0,2.1032960414886475,208,9950.0
8150,0.3438849151134491,-1.289450764656067,-93,5897.0,5.214766025543213,169,9950.0
8160,0.346842497587204,-1.5814405679702759,-86,5897.0,4.011961936950684,201,9950.0
8170,0.34624555706977844,1.2146317958831787,-20,5897.0,3.9365131855010986,120,9950.0
8180,0.34558814764022827,1.4253621101379395,-51,5897.0,2.8118879795074463,154,9950.0
8190,0.344960480928421,2.2158360481262207,-39,5897.0,-1.3563711643218994,61,9950.0
8200,0.3478507101535797,1.9608328342437744,-13,5897.0,0.2724197804927826,22,9950.0
8210,0.3473888337612152,1.5935471057891846,-13,5897.0,-2.3550212383270264,45,9950.0
8220,0.3469350039958954,0.8967903256416321,17,5897.0,-4.268560886383057,-23,9950.0
8230,0.34648752212524414,-0.29429981112480164,-16,5897.0,-2.028639554977417,16,9950.0
8240,0.3495453894138336,0.43494850397109985,22,5897.0,-3.047508955001831,33,9950.0
8250,0.3493329584598541,0.7654284834861755,-15,5897.0,-0.1397620141506195,53,9950.0
8260,0.3491276502609253,1.3162193298339844,59,5897.0,2.2780091762542725,26,9950.0
8270,0.3490235209465027,0.5442449450492859,58,5897.0,4.8077192306518555,53,9950.0
8280,0.3488629460334778,2.0016894340515137,21,5897.0,3.0940706729888916,8,9950.0
8290,0.35273054242134094,1.2756741046905518,9,5897.0,2.4791181087493896,-1,9950.0
8300,0.3527474105358124,1.8097710609436035,4,5897.0,1.5722579956054688,-4,9950.0
8310,0.3528505563735962,2.1816821098327637,36,5897.0,-3.465623378753662,-25,9950.0
8320,0.3529343903064728,-0.12803587317466736,39,5897.0,-5.059332370758057,71,9950.0
8330,0.35618719458580017,1.717278242111206,102,5897.0,-3.4915084838867188,36,9950.0
8340,0.3563537895679474,4.343779563903809,109,5897.0,-6.325358867645264,-22,9950.0
8350,0.35656043887138367,6.711021423339844,118,5897.0,-3.044772148132324,-47,9950.0
8360,0.3567381501197815,8.058662414550781,160,5897.0,-6.666690349578857,-67,9950.0
8370,0.35688525438308716,9.128191947937012,159,5897.0,-10.559503555297852,-86,9950.0
8380,0.3602936267852783,8.748044967651367,121,5897.0,-7.272370338439941,-78,9950.0
8390,0.3604728579521179,7.668600559234619,100,5897.0,-7.025214672088623,-94,9950.0
8400,0.36059263348579407,7.847798824310303,88,5897.0,-6.370157718658447,-148,9950.0
8410,0.3606703579425812,5.123190879821777,92,5897.0,-6.130022048950195,-139,9950.0
8420,0.3631989359855652,3.411395788192749,41,5897.0,-1.2000041007995605,-71,9950.0
8430,0.3633212745189667,-0.6481630802154541,4,5897.0,0.27656394243240356,34,9950.0
8440,0.3633917570114136,-0.11708677560091019,-23,5897.0,-1.5961358547210693,54,9950.0
8450,0.3633686602115631,-2.9516875743865967,-59,5897.0,-0.5780807733535767,86,9950.0
8460,0.3662364184856415,-3.4898362159729004,-70,5897.0,-1.1212964057922363,73,9950.0
8470,0.36625802516937256,-3.557107448577881,-75,5897.0,0.02056509256362915,18,9950.0
8480,0.3662494719028473,-3.8491945266723633,-75,5897.0,-1.6219673156738281,-89,9950.0
8490,0.36612576246261597,-4.797346115112305,-39,5897.0,0.0419282466173172,-125,9950.0
8500,0.3659425973892212,-2.9126205444335938,-18,5897.0,-2.293520450592041,-77,9950.0
8510,0.3680560290813446,-2.3402490615844727,-41,5897.0,0.3117525577545166,-2,9950.0
8520,0.3678441643714905,-0.8686137199401855,-55,5897.0,-5.066049575805664,21,9950.0
8530,0.36755573749542236,-1.4031386375427246,-15,5897.0,-1.640699028968811,33,9950.0
8540,0.36721089482307434,-0.563414454460144,-8,5897.0,-0.7667446136474609,14,9950.0
8550,0.36961305141448975,-0.6537660956382751,-32,5897.0,-3.1047985553741455,-60,9950.0
8560,0.3692903518676758,-1.5783745050430298,-53,5897.0,2.400311231613159,-27,9950.0
8570,0.3688943684101105,-1.0085328817367554,-83,5897.0,0.4457653760910034,8,9950.0
8580,0.3684055209159851,-2.715538740158081,-90,5897.0,-0.026132779195904732,114,9950.0
8590,0.3678074777126312,-2.654390573501587,-117,5897.0,1.5594731569290161,88,9950.0
8600,0.3691931366920471,-3.318721294403076,-97,5897.0,-2.989881753921509,20,9950.0
8610,0.3685549795627594,-2.7311949729919434,-49,5897.0,-1.349621295928955,29,9950.0
8620,0.36788874864578247,-4.097982406616211,-68,5897.0,-1.7547106742858887,-42,9950.0
8630,0.36715078353881836,-3.9793972969055176,-37,5897.0,2.2696032524108887,-49,9950.0
8640,0.3673900365829468,-3.168520450592041,-30,5897.0,2.08217191696167,14,9950.0
8650,0.3665706515312195,-4.297998428344727,-59,5897.0,3.4446163177490234,4,9950.0
8660,0.3656913936138153,-4.9993157386779785,-75,5897.0,5.161627769470215,9,9950.0
8670,0.36479735374450684,-6.248892307281494,-52,5897.0,4.841558933258057,-4,9950.0
8680,0.3655039072036743,-6.056125640869141,-126,5897.0,6.618734359741211,134,9950.0
8690,0.364635705947876,-5.947885036468506,-102,5897.0,1.4194750785827637,50,9950.0
8700,0.3637053668498993,-5.691054821014404,-126,5897.0,2.060101270675659,85,9950.0
8710,0.3627885580062866,-4.611778736114502,-138,5897.0,-0.9811295866966248,62,9950.0
8720,0.3618464767932892,-7.587432384490967,-129,5897.0,-0.8070781826972961,62,9950.0
8730,0.3613415062427521,-6.353248119354248,-122,5897.0,-1.3582004308700562,38,9950.0
8740,0.36038336157798767,-5.226266384124756,-123,5897.0,1.4158504009246826,119,9950.0
8750,0.359452486038208,-5.847350120544434,-151,5897.0,1.6376421451568604,121,9950.0
8760,0.3585241138935089,-2.8875732421875,-49,5897.0,3.4552578926086426,172,9950.0
8770,0.35896772146224976,-1.104840636253357,-61,5897.0,6.89283561706543,321,9950.0
8780,0.3581351935863495,0.7927559614181519,-68,5897.0,3.4889843463897705,299,9950.0
8790,0.35734865069389343,-0.8216288685798645,-77,5897.0,6.637148380279541,291,9950.0
8800,0.35659629106521606,0.11270815134048462,-51,5897.0,7.216699600219727,208,9950.0
8810,0.3558799922466278,-0.861551821231842,-115,5897.0,5.853296279907227,216,9950.0
8820,0.35562968254089355,0.08642531931400299,-39,5897.0,4.388105392456055,112,9950.0
8830,0.3549801707267761,-1.544382095336914,-40,5897.0,4.375484466552734,150,9950.0
8840,0.3543334901332855,-0.8606253862380981,-30,5897.0,2.045480728149414,91,9950.0
8850,0.353694885969162,1.0969046354293823,1,5897.0,2.3831379413604736,75,9950.0
8860,0.3527468144893646,-1.1638990640640259,-29,5897.0,2.473073959350586,99,9950.0
8870,0.35211366415023804,0.6743742823600769,26,5897.0,1.0043725967407227,-158,9950.0
8880,0.3515685498714447,-0.09019444137811661,24,5897.0,-0.4378281235694885,-15,9950.0
8890,0.35102611780166626,0.9302758574485779,62,5897.0,2.061749219894409,-98,9950.0
8900,0.351461797952652,2.963097333908081,90,5897.0,0.3715642988681793,-104,9950.0
8910,0.35098135471343994,2.5394446849823,126,5897.0,-1.3633536100387573,-155,9950.0
8920,0.35049787163734436,1.6302931308746338,119,5897.0,2.9600958824157715,-163,9950.0
8930,0.35004788637161255,1.228232741355896,131,5897.0,2.2438764572143555,-73,9950.0
8940,0.34961748123168945,-0.9393566250801086,104,5897.0,4.073197841644287,-44,9950.0
8950,0.3492984473705292,-0.9344545006752014,29,5897.0,3.327298879623413,13,9950.0
8960,0.3488377630710602,-0.9534788131713867,40,5897.0,1.3286741971969604,41,9950.0
8970,0.34834057092666626,0.07872876524925232,14,5897.0,3.3835675716400146,79,9950.0
8980,0.34777921438217163,-0.26431015133857727,8,5897.0,0.4006866216659546,107,9950.0
8990,0.3495490252971649,0.1178872138261795,-49,5897.0,-0.1899031400680542,117,9950.0
9000,0.34913745522499084,-2.2370424270629883,-104,5897.0,1.4174983501434326,69,9950.0
9010,0.34870806336402893,-0.5725385546684265,-110,5897.0,0.24848227202892303,115,9950.0
9020,0.34831878542900085,0.5874837040901184,-121,5897.0,3.631539821624756,169,9950.0
9030,0.3479204475879669,3.0290770530700684,-53,5897.0,-2.4573447704315186,87,9950.0
9040,0.3483775556087494,1.019340991973877,-54,5897.0,2.6947715282440186,187,9950.0
9050,0.348086953163147,-0.5890604853630066,-77,5897.0,-1.9477179050445557,8,9950.0
9060,0.34779468178749084,0.8784311413764954,-55,5897.0,0.8258140683174133,107,9950.0
9070,0.3475772738456726,1.7601919174194336,-35,5897.0,2.244631290435791,166,9950.0
9080,0.3491957485675812,1.5854287147521973,-52,5897.0,1.3606315851211548,94,9950.0
9090,0.3491784632205963,1.8871065378189087,-51,5897.0,0.2370937168598175,35,9950.0
9100,0.3492271900177002,1.9588671922683716,-37,5897.0,-0.5048187971115112,62,9950.0
9110,0.34934818744659424,3.430616617202759,45,5897.0,0.3527171313762665,133,9950.0
9120,0.34989145398139954,1.1527055501937866,2,5897.0,3.3836021423339844,192,9950.0
9130,0.35017773509025574,1.6522612571716309,18,5897.0,4.76642370223999,176,9950.0
9140,0.3505149185657501,1.937507152557373,23,5897.0,6.028003692626953,182,9950.0
9150,0.35087257623672485,1.7682147026062012,12,5897.0,3.1676416397094727,76,9950.0
9160,0.35132697224617004,2.966672897338867,27,5897.0,2.1438143253326416,115,9950.0
9170,0.35087013244628906,3.743595600128174,37,5897.0,2.2165400981903076,136,9950.0
9180,0.3513311743736267,3.7946088314056396,55,5897.0,-1.8176928758621216,22,9950.0
9190,0.35176488757133484,7.075374603271484,94,5897.0,-4.583202362060547,18,9950.0
9200,0.3522584140300751,6.811369895935059,85,5897.0,-3.6003427505493164,55,9950.0
9210,0.3532622158527374,7.1222734451293945,41,5897.0,-2.703249216079712,85,9950.0
9220,0.35386785864830017,7.068289756774902,48,5897.0,-5.96506404876709,-8,9950.0
9230,0.3544617295265198,5.773080348968506,58,5897.0,-5.868669033050537,-4,9950.0
9240,0.3550204038619995,5.993951320648193,76,5897.0,-5.1047773361206055,-23,9950.0
9250,0.355557382106781,4.342891216278076,94,5897.0,-1.7862706184387207,-50,9950.0
9260,0.3534558117389679,5.751842021942139,82,5897.0,-1.8034957647323608,-12,9950.0
9270,0.35383862257003784,3.013984441757202,48,5897.0,1.319146752357483,-22,9950.0
9280,0.3542075455188751,2.9692163467407227,23,5897.0,3.8991668224334717,29,9950.0
9290,0.3545217216014862,0.26725929975509644,37,5897.0,3.5470893383026123,90,9950.0
9300,0.35379207134246826,-0.9774552583694458,1,5897.0,4.083383560180664,124,9950.0
9310,0.3538932800292969,-1.3933115005493164,2,5897.0,4.192327976226807,197,9950.0
9320,0.35393840074539185,-0.2888334393501282,-31,5897.0,0.7287797331809998,140,9950.0
9330,0.35395556688308716,0.1855631023645401,-16,5897.0,0.9286931753158569,99,9950.0
9340,0.35277360677719116,-0.6767120361328125,-4,5897.0,-0.9735085368156433,-3,9950.0
9350,0.35261818766593933,1.2124571800231934,86,5897.0,-5.742652893066406,-126,9950.0
9360,0.352448433637619,-0.7483221292495728,58,5897.0,-7.4644951820373535,-200,9950.0
9370,0.3522140681743622,0.2726133167743683,66,5897.0,-6.534501075744629,-210,9950.0
9380,0.3519305884838104,-0.9089561104774475,24,5897.0,-2.275564193725586,-90,9950.0
9390,0.3504367172718048,-0.7768951058387756,3,5897.0,-2.977651357650757,-88,9950.0
9400,0.350000262260437,-2.5485877990722656,-19,5897.0,3.8562629222869873,132,9950.0
9410,0.34950241446495056,-4.164242744445801,-27,5897.0,5.6271514892578125,135,9950.0
9420,0.34893596172332764,-3.631404399871826,-38,5897.0,8.210264205932617,186,9950.0
9430,0.34790104627609253,-3.934144973754883,-88,5897.0,9.518851280212402,247,9950.0
9440,0.3472479283809662,-4.325699329376221,-111,5897.0,3.938063621520996,150,9950.0
9450,0.3466026186943054,-5.298919200897217,-148,5897.0,3.5120320320129395,177,9950.0
9460,0.3459945023059845,-4.767266273498535,-149,5897.0,0.5307676792144775,126,9950.0
9470,0.3454650640487671,-4.17405366897583,-118,5897.0,-4.428828716278076,137,9950.0
9480,0.34304556250572205,-3.2233574390411377,-101,5897.0,-1.3887717723846436,97,9950.0
9490,0.3423951268196106,-2.540886163711548,-130,5897.0,-1.8347201347351074,93,9950.0
9500,0.34173259139060974,-3.3353958129882812,-107,5897.0,-3.6316192150115967,73,9950.0
9510,0.3411790728569031,0.29811784625053406,-40,5897.0,-4.841634750366211,18,9950.0
9520,0.34095704555511475,-0.48889482021331787,-71,5897.0,-3.2783162593841553,30,9950.0
9530,0.3405155837535858,-0.1422005593776703,-21,5897.0,-4.026294231414795,24,9950.0
9540,0.34006068110466003,0.032578252255916595,-14,5897.0,0.36558231711387634,58,9950.0
9550,0.3397311270236969,-0.5378736257553101,-11,5897.0,2.930340528488159,65,9950.0
9560,0.33926329016685486,1.1459475755691528,48,5897.0,-0.6310398578643799,-19,9950.0
9570,0.33902472257614136,3.431155204772949,109,5897.0,2.316192865371704,-39,9950.0
9580,0.3389095067977905,3.887291193008423,156,5897.0,3.165383815765381,-69,9950.0
9590,0.33885759115219116,3.972301483154297,139,5897.0,1.8729259967803955,25,9950.0
9600,0.33897536993026733,3.030430316925049,139,5897.0,3.5221986770629883,24,9950.0
9610,0.3391028046607971,2.94964337348938,47,5897.0,1.0615853071212769,21,9950.0
9620,0.3393016457557678,0.691182017326355,-42,5897.0,0.49404871463775635,188,9950.0
9630,0.3395048975944519,0.43872857093811035,-57,5897.0,0.006826967000961304,112,9950.0
9640,0.3398745656013489,1.7234487533569336,-67,5897.0,-3.264479875564575,86,9950.0
9650,0.3400115966796875,3.743997812271118,-33,5897.0,-4.003158092498779,29,9950.0
9660,0.3405492305755615,5.225021839141846,-40,5897.0,-4.816660404205322,73,9950.0
9670,0.34121009707450867,5.523306369781494,-33,5897.0,-7.515275955200195,-1,9950.0
9680,0.3419591784477234,4.610102653503418,-36,5897.0,-5.730424880981445,-69,9950.0
9690,0.34269627928733826,2.7296502590179443,-83,5897.0,-6.095264911651611,31,9950.0
9700,0.34023964405059814,2.0055103302001953,-55,5897.0,-5.154607772827148,1,9950.0
9710,0.3408396244049072,-0.37278661131858826,-44,5897.0,-4.20490026473999,25,9950.0
9720,0.3414037227630615,0.0902625322341919,-25,5897.0,-1.7706092596054077,109,9950.0
9730,0.34194520115852356,-0.44069138169288635,-48,5897.0,0.6008708477020264,177,9950.0
9740,0.3416331112384796,-0.6380563378334045,-74,5897.0,1.8476083278656006,193,9950.0
9750,0.342020720243454,-0.4163583219051361,-54,5897.0,3.357041597366333,211,9950.0
9760,0.34237828850746155,1.428843379020691,-75,5897.0,3.041198253631592,229,9950.0
9770,0.3426920771598816,-0.24200670421123505,-60,5897.0,4.408550262451172,144,9950.0
9780,0.34139484167099,-0.4129001498222351,-61,5897.0,-2.1170217990875244,56,9950.0
9790,0.3415684103965759,-2.851297378540039,-73,5897.0,0.240268737077713,45,9950.0
9800,0.34170982241630554,-2.2391860485076904,-95,5897.0,-2.3054420948028564,85,9950.0
9810,0.3418157994747162,-1.5034416913986206,-79,5897.0,-1.4575695991516113,18,9950.0
9820,0.34190839529037476,-2.0159621238708496,-45,5897.0,-1.1289762258529663,22,9950.0
9830,0.3420090973377228,-0.3551425635814667,-27,5897.0,-2.97163724899292,-2,9950.0
9840,0.34202760457992554,0.9562386274337769,-11,5897.0,-3.7781686782836914,47,9950.0
9850,0.34200939536094666,2.6042087078094482,-1,5897.0,-7.584606647491455,-25,9950.0
9860,0.3419983685016632,0.5142865180969238,-32,5897.0,-0.16589097678661346,69,9950.0
9870,0.342800110578537,0.5479137897491455,-76,5897.0,-0.09608236700296402,53,9950.0
9880,0.34287235140800476,-1.4891233444213867,-70,5897.0,5.899062633514404,80,9950.0
9890,0.34294047951698303,-2.940152406692505,-105,5897.0,6.420862197875977,66,9950.0
9900,0.34296658635139465,-4.231606483459473,-47,5897.0,-0.8527986407279968,-17,9950.0
9910,0.34302493929862976,-5.110811233520508,-51,5897.0,-0.14381523430347443,-28,9950.0
9920,0.3422829806804657,-4.480503082275391,-60,5897.0,1.388522982597351,-32,9950.0
9930,0.34238675236701965,-0.19075341522693634,50,5897.0,-2.4139394760131836,-75,9950.0
9940,0.3424673080444336,-0.0720953494310379,13,5897.0,-0.7026979327201843,-12,9950.0
9950,0.3425827920436859,-1.1366239786148071,22,5897.0,1.7028614282608032,-31,9950.0
9960,0.3433363437652588,1.3730508089065552,50,5897.0,-5.895711421966553,-80,9950.0
9970,0.3436324894428253,-0.8378552794456482,54,5897.0,-1.576262354850769,-77,9950.0
9980,0.3439243733882904,0.5679110288619995,54,5897.0,0.8639664649963379,-1,9950.0
9990,0.34421128034591675,-0.07601340115070343,37,5897.0,-1.2891119718551636,-66,9950.0
10000,0.3442978262901306,0.8605912923812866,38,5897.0,-2.4542109966278076,-70,9950.0
10010,0.34459808468818665,-0.8769757747650146,21,5897.0,3.55578875541687,24,9950.0
10020,0.3449398875236511,0.9897276163101196,48,5897.0,1.3617035150527954,-37,9950.0
10030,0.3452947735786438,-1.123638391494751,14,5897.0,7.468820095062256,55,9950.0
10040,0.34563568234443665,0.19687724113464355,28,5897.0,7.384322643280029,19,9950.0
10050,0.3460841178894043,1.3451550006866455,79,5897.0,8.467169761657715,40,9950.0
10060,0.3464123010635376,1.951150894165039,82,5897.0,5.3527398109436035,-48,9950.0
10070,0.34673479199409485,-0.3577417731285095,32,5897.0,1.9496763944625854,-123,9950.0
10080,0.3470693826675415,-0.8863153457641602,5,5897.0,-4.127417087554932,-197,9950.0
10090,0.34851986169815063,-1.6583991050720215,-42,5897.0,-3.035876989364624,-203,9950.0
10100,0.34878286719322205,-0.8795556426048279,19,5897.0,-2.958902597427368,-259,9950.0
10110,0.3490108549594879,1.12326979637146,34,5897.0,-7.352955341339111,-193,9950.0
10120,0.34922197461128235,-1.4092210531234741,-7,5897.0,0.014013547450304031,-110,9950.0
10130,0.3493656516075134,-2.737290143966675,-32,5897.0,1.9932255744934082,13,9950.0
10140,0.3484572172164917,-2.3840994834899902,-55,5897.0,-0.30991366505622864,-20,9950.0
10150,0.3484001159667969,-1.2058427333831787,16,5897.0,-0.22227536141872406,39,9950.0
10160,0.3482254147529602,-0.3310703933238983,-11,5897.0,1.7801969051361084,69,9950.0
10170,0.3479996621608734,-0.9099688529968262,36,5897.0,-0.4067246913909912,72,9950.0
10180,0.348615825176239,1.7628934383392334,-14,5897.0,-0.593467116355896,12,9950.0
10190,0.34844914078712463,1.0706712007522583,-21,5897.0,-2.3330907821655273,32,9950.0
10200,0.34825658798217773,0.8566370010375977,-58,5897.0,-1.723307728767395,-4,9950.0
10210,0.3480263650417328,-0.8679475784301758,-52,5897.0,-1.937551736831665,-3,9950.0
10220,0.3478719890117645,0.14058668911457062,-71,5897.0,-5.176802158355713,6,9950.0
10230,0.3476591110229492,1.4592797756195068,-30,5897.0,-1.8952757120132446,69,9950.0
10240,0.3474806249141693,0.5763216614723206,-20,5897.0,0.5852829813957214,-6,9950.0
10250,0.3472769260406494,-0.7401021122932434,0,5897.0,5.138521671295166,73,9950.0
10260,0.3470839560031891,-0.17237944900989532,-41,5897.0,4.32877779006958,123,9950.0
10270,0.34812676906585693,-0.5325818061828613,30,5897.0,7.643883228302002,64,9950.0
10280,0.348016619682312,0.2990339398384094,18,5897.0,4.563711643218994,122,9950.0
10290,0.3478824198246002,-0.13358697295188904,31,5897.0,5.315012454986572,143,9950.0
10300,0.3477190434932709,-0.7534945011138916,9,5897.0,5.87980842590332,96,9950.0
10310,0.34851792454719543,-1.019697904586792,-43,5897.0,3.6790273189544678,-11,9950.0
10320,0.3484990894794464,-2.6587069034576416,-41,5897.0,1.5400676727294922,-45,9950.0
10330,0.34844276309013367,-1.4677364826202393,-28,5897.0,-3.0760114192962646,-130,9950.0
10340,0.34838294982910156,-1.1879416704177856,-24,5897.0,-4.710509300231934,-99,9950.0
10350,0.34830576181411743,0.8185527324676514,64,5897.0,-6.091946125030518,-172,9950.0
10360,0.34941568970680237,3.148211717605591,91,5897.0,-6.562058448791504,-97,9950.0
10370,0.3495190739631653,1.1504793167114258,42,5897.0,-2.460815668106079,-107,9950.0
10380,0.34960198402404785,2.403130054473877,72,5897.0,0.19920870661735535,-95,9950.0
10390,0.34968021512031555,2.9408299922943115,65,5897.0,-0.8464647531509399,1,9950.0
10400,0.3486673831939697,1.4047249555587769,33,5897.0,1.018829584121704,-68,9950.0
10410,0.34868648648262024,0.1525178700685501,19,5897.0,3.1968495845794678,-58,9950.0
10420,0.34871065616607666,-0.8012219667434692,-11,5897.0,2.235755205154419,-78,9950.0
10430,0.3487573266029358,-2.7695863246917725,-35,5897.0,1.0125670433044434,-9,9950.0
10440,0.3489002585411072,-2.9167866706848145,-45,5897.0,2.5527443885803223,-22,9950.0
10450,0.34895533323287964,-3.8710479736328125,-25,5897.0,0.757079541683197,-73,9950.0
10460,0.3489943742752075,-1.7891340255737305,-14,5897.0,-1.1952797174453735,-135,9950.0
10470,0.3490278422832489,-0.7826582789421082,41,5897.0,-0.9408173561096191,-80,9950.0
10480,0.3490866720676422,0.2019587755203247,38,5897.0,-1.505932092666626,-33,9950.0
10490,0.349927693605423,0.6100510358810425,30,5897.0,-0.8202725052833557,4,9950.0
10500,0.3500210642814636,0.19776968657970428,4,5897.0,-1.1702498197555542,4,9950.0
10510,0.35011208057403564,0.1773350089788437,19,5897.0,0.33909472823143005,13,9950.0
10520,0.35020187497138977,2.131723642349243,46,5897.0,4.204263210296631,135,9950.0
10530,0.3509984314441681,2.773385524749756,36,5897.0,3.7821245193481445,103,9950.0
10540,0.3511302173137665,0.7278599739074707,-9,5897.0,3.6012325286865234,86,9950.0
10550,0.35124635696411133,1.6719626188278198,-8,5897.0,0.1588568091392517,80,9950.0
10560,0.35130196809768677,0.4825321137905121,-18,5897.0,1.8147351741790771,127,9950.0
10570,0.35129469633102417,0.23305174708366394,-66,5897.0,0.18936634063720703,47,9950.0
10580,0.3511471748352051,0.02464655414223671,-64,5897.0,-0.05892964079976082,115,9950.0
10590,0.35108283162117004,-0.07321426272392273,-60,5897.0,-1.4509092569351196,36,9950.0
10600,0.350985586643219,0.06339061260223389,-27,5897.0,1.4902269840240479,56,9950.0
10610,0.35084471106529236,0.829227864742279,-45,5897.0,0.01471659354865551,0,9950.0
10620,0.3503057062625885,0.11302231252193451,-32,5897.0,2.506207227706909,44,9950.0
10630,0.3500800132751465,0.08519008755683899,12,5897.0,0.44584938883781433,-70,9950.0
10640,0.34987005591392517,0.7735016345977783,-34,5897.0,1.418971300125122,-15,9950.0
10650,0.3496885299682617,0.8267822265625,22,5897.0,-1.936501145362854,-41,9950.0
10660,0.3496968448162079,-0.3846626281738281,-11,5897.0,0.9643174409866333,4,9950.0
10670,0.349508672952652,-1.7370201349258423,-25,5897.0,1.38550865650177,-31,9950.0
10680,0.3493145704269409,-0.8933541774749756,-41,5897.0,-1.2988940477371216,-71,9950.0
10690,0.3491455316543579,-2.7595162391662598,-50,5897.0,0.9587594866752625,-127,9950.0
10700,0.34905901551246643,-1.4206984043121338,-25,5897.0,-0.33695968985557556,-80,9950.0
10710,0.3494454622268677,-2.214447259902954,-34,5897.0,0.37285909056663513,-114,9950.0
10720,0.34950926899909973,-1.3309706449508667,31,5897.0,1.9027528762817383,-63,9950.0
10730,0.3495529890060425,-0.29786941409111023,64,5897.0,1.8297275304794312,-115,9950.0
10740,0.34961968660354614,-0.4981297254562378,59,5897.0,1.0133366584777832,-95,9950.0
10750,0.35029810667037964,0.6694744229316711,64,5897.0,-0.802688479423523,-95,9950.0
10760,0.3505654036998749,1.3253148794174194,84,5897.0,-0.7378329634666443,-85,9950.0
10770,0.3508823812007904,2.2816989421844482,67,5897.0,1.1992160081863403,-12,9950.0
10780,0.35116666555404663,2.4914047718048096,42,5897.0,0.22132912278175354,50,9950.0
10790,0.3514419496059418,1.9200912714004517,52,5897.0,0.7992911338806152,-32,9950.0
10800,0.35029086470603943,0.44745102524757385,91,5897.0,-2.209581136703491,-113,9950.0
10810,0.3505140244960785,0.2664155662059784,43,5897.0,0.2861199975013733,-51,9950.0
10820,0.350868821144104,-1.3848453760147095,20,5897.0,-0.8157240152359009,-79,9950.0
10830,0.35115158557891846,-2.418464183807373,9,5897.0,-4.104937553405762,-131,9950.0
10840,0.3505796790122986,-3.3013195991516113,-50,5897.0,-6.032756328582764,-177,9950.0
10850,0.35080140829086304,-4.022976398468018,-39,5897.0,-8.893013954162598,-151,9950.0
10860,0.35098645091056824,-4.688322067260742,-27,5897.0,-9.9722261428833,-134,9950.0
10870,0.3511630892753601,-2.277299165725708,2,5897.0,-11.160750389099121,-135,9950.0
10880,0.3495495915412903,0.603813886642456,11,5897.0,-7.424588203430176,-100,9950.0
10890,0.3495052754878998,0.0690125823020935,15,5897.0,-6.746418476104736,-48,9950.0
10900,0.349362313747406,-0.5284578800201416,16,5897.0,-1.793784499168396,30,9950.0
10910,0.3491092026233673,0.8998199105262756,-31,5897.0,-1.5553621053695679,117,9950.0
10920,0.3488200008869171,-0.8867248296737671,-33,5897.0,0.17810316383838654,116,9950.0
10930,0.3468853533267975,-0.7113909125328064,-48,5897.0,3.4669008255004883,126,9950.0
10940,0.3464343547821045,-1.7807368040084839,-59,5897.0,6.481810092926025,230,9950.0
10950,0.3459205627441406,-1.668938159942627,-94,5897.0,5.471688747406006,135,9950.0
10960,0.3453139662742615,-1.6301486492156982,-77,5897.0,4.9078369140625,148,9950.0
10970,0.34373509883880615,-2.2753264904022217,-114,5897.0,3.9571382999420166,157,9950.0
10980,0.343031108379364,-2.73795485496521,-87,5897.0,0.7223185300827026,87,9950.0
10990,0.34231600165367126,0.9032463431358337,-69,5897.0,-6.762191295623779,53,9950.0
11000,0.3415950536727905,-0.9337126016616821,-90,5897.0,5.243082523345947,119,9950.0
11010,0.34074899554252625,1.4956839084625244,-74,5897.0,-1.3006821870803833,92,9950.0
11020,0.3396368622779846,0.8429341316223145,-97,5897.0,0.7081313729286194,129,9950.0
11030,0.33885458111763,2.1946189403533936,-82,5897.0,-0.9266522526741028,101,9950.0
11040,0.33801600337028503,-0.4055100083351135,-50,5897.0,5.851875305175781,155,9950.0
11050,0.3371398150920868,-0.07553024590015411,-64,5897.0,9.8733549118042,180,9950.0
11060,0.33618056774139404,-1.7441911697387695,-54,5897.0,11.107691764831543,152,9950.0
11070,0.3352223336696625,-2.3366265296936035,-12,5897.0,10.279668807983398,42,9950.0
11080,0.33427247405052185,-3.780735492706299,56,5897.0,9.177282333374023,-111,9950.0
11090,0.33338454365730286,-1.9065179824829102,65,5897.0,5.535874843597412,-46,9950.0
11100,0.33248740434646606,-3.5173847675323486,54,5897.0,4.5494208335876465,76,9950.0
11110,0.334795743227005,-0.9967581033706665,48,5897.0,1.8988463878631592,145,9950.0
11120,0.33428069949150085,0.44735273718833923,-68,5897.0,5.730062007904053,138,9950.0
11130,0.3337896764278412,-1.0840606689453125,-42,5897.0,3.8303987979888916,3,9950.0
11140,0.3332664370536804,1.8138573169708252,48,5897.0,-0.18116241693496704,-91,9950.0
11150,0.3363763689994812,1.7593048810958862,125,5897.0,3.425560712814331,-9,9950.0
11160,0.33632299304008484,2.025949001312256,111,5897.0,4.963669776916504,36,9950.0
11170,0.3363180160522461,3.604245901107788,90,5897.0,4.4190216064453125,93,9950.0
11180,0.3362716734409332,3.2993087768554688,-20,5897.0,7.019147872924805,176,9950.0
11190,0.33894723653793335,5.174481391906738,-46,5897.0,3.932279109954834,198,9950.0
11200,0.33919230103492737,3.6361546516418457,-86,5897.0,4.352750301361084,152,9950.0
11210,0.3393866717815399,4.308102130889893,22,5897.0,3.667574167251587,105,9950.0
11220,0.3395833671092987,2.7217354774475098,92,5897.0,5.217571258544922,7,9950.0
11230,0.3399463891983032,1.5466876029968262,140,5897.0,5.274550437927246,26,9950.0
11240,0.34494778513908386,1.6667031049728394,123,5897.0,0.514102578163147,-77,9950.0
11250,0.34558677673339844,2.6065304279327393,85,5897.0,-10.790523529052734,-97,9950.0
11260,0.3463124632835388,4.186057090759277,28,5897.0,-9.297812461853027,2,9950.0
11270,0.34705668687820435,3.5912668704986572,1,5897.0,-5.494019985198975,21,9950.0
11280,0.35016027092933655,6.986100196838379,9,5897.0,-5.00047492980957,36,9950.0
11290,0.35015419125556946,7.1767897605896,42,5897.0,-6.198575973510742,9,9950.0
11300,0.351552277803421,6.545958042144775,50,5897.0,-1.4926891326904297,7,9950.0
11310,0.35158905386924744,6.2948384284973145,70,5897.0,-1.792525053024292,37,9950.0
11320,0.35529497265815735,4.816586971282959,77,5897.0,0.5636699199676514,-38,9950.0
11330,0.3553023338317871,4.025851249694824,93,5897.0,2.5684525966644287,5,9950.0
11340,0.3564516305923462,2.024168014526367,94,5897.0,2.3915321826934814,-58,9950.0
11350,0.35645928978919983,0.6359795928001404,77,5897.0,5.116002559661865,-105,9950.0
11360,0.35697442293167114,1.5669831037521362,118,5897.0,-1.9103249311447144,-146,9950.0
11370,0.36077553033828735,2.223210096359253,139,5897.0,-4.356605052947998,-304,9950.0
11380,0.36128219962120056,1.4922420978546143,122,5897.0,1.0527042150497437,-117,9950.0
11390,0.3617274761199951,4.871305465698242,106,5897.0,-5.640081405639648,-109,9950.0
11400,0.3621087968349457,6.731245517730713,172,5897.0,-10.928170204162598,-206,9950.0
11410,0.3645320534706116,5.578034400939941,109,5897.0,-5.736456871032715,-53,9950.0
11420,0.3649823069572449,5.754518032073975,83,5897.0,-3.6803300380706787,-28,9950.0
11430,0.36528751254081726,5.484381675720215,81,5897.0,-3.57901930809021,-124,9950.0
11440,0.36548611521720886,3.220248222351074,40,5897.0,-0.7539091110229492,-142,9950.0
11450,0.36558181047439575,-0.861064076423645,-20,5897.0,3.575887441635132,-114,9950.0
11460,0.36938461661338806,-0.25664472579956055,-62,5897.0,0.1990470439195633,55,9950.0
11470,0.36952948570251465,-0.7094478011131287,-63,5897.0,0.4909449815750122,77,9950.0
11480,0.36959439516067505,-2.9145619869232178,-72,5897.0,0.7068989872932434,64,9950.0
11490,0.36967039108276367,-5.362870693206787,-70,5897.0,1.2014226913452148,14,9950.0
11500,0.37089842557907104,-3.788386821746826,-45,5897.0,-2.3841898441314697,-87,9950.0
11510,0.370769739151001,-4.881037712097168,-61,5897.0,-1.4003294706344604,22,9950.0
11520,0.3705593943595886,-3.773158311843872,-60,5897.0,-0.912460446357727,13,9950.0
11530,0.3702601492404938,-1.701560378074646,-39,5897.0,-0.057551246136426926,96,9950.0
11540,0.37181904911994934,-1.8021692037582397,-19,5897.0,-2.1031715869903564,-20,9950.0
11550,0.3714599907398224,-2.737349510192871,6,5897.0,-0.017997974529862404,-94,9950.0
11560,0.37101367115974426,-2.3871233463287354,-62,5897.0,0.00251631042920053,-27,9950.0
11570,0.37046173214912415,-1.2926105260849,-72,5897.0,-1.4284000396728516,15,9950.0
11580,0.3698389232158661,-2.267810583114624,-126,5897.0,-0.49098581075668335,29,9950.0
11590,0.36986207962036133,-4.958438873291016,-102,5897.0,0.08932726085186005,5,9950.0
11600,0.36908963322639465,-4.319371700286865,-90,5897.0,-1.3505784273147583,-82,9950.0
11610,0.3682222366333008,-5.374408721923828,-77,5897.0,-0.2045333981513977,-100,9950.0
11620,0.3672749698162079,-6.168310165405273,-98,5897.0,-0.4730805456638336,-84,9950.0
11630,0.3673217296600342,-6.50775146484375,-75,5897.0,-0.956631064414978,-51,9950.0
11640,0.36630961298942566,-6.287276744842529,-96,5897.0,-4.818180084228516,9,9950.0
11650,0.36528751254081726,-4.889935493469238,-106,5897.0,-2.460134267807007,60,9950.0
11660,0.3641696870326996,-6.1333441734313965,-106,5897.0,-1.8279459476470947,-9,9950.0
11670,0.3630443513393402,-6.392871379852295,-56,5897.0,-2.6216630935668945,-5,9950.0
11680,0.3631415069103241,-7.534725189208984,-98,5897.0,1.4512877464294434,-22,9950.0
11690,0.3620441257953644,-6.154143810272217,-65,5897.0,1.3278148174285889,9,9950.0
11700,0.3609715402126312,-7.965389728546143,-72,5897.0,-0.5101991891860962,-80,9950.0
11710,0.35985198616981506,-8.896610260009766,-106,5897.0,-1.8409148454666138,-54,9950.0
11720,0.3592154383659363,-11.034262657165527,-136,5897.0,-2.6654961109161377,-114,9950.0
11730,0.3580482006072998,-8.353972434997559,-92,5897.0,-3.0388128757476807,-87,9950.0
11740,0.35689228773117065,-7.423627853393555,-100,5897.0,-2.3652498722076416,-63,9950.0
11750,0.35570594668388367,-6.3215012550354,-61,5897.0,0.2398897409439087,-23,9950.0
11760,0.355436235666275,-5.571367263793945,-43,5897.0,-1.5689126253128052,-41,9950.0
11770,0.3542938828468323,-3.5847012996673584,-21,5897.0,-2.030823230743408,-78,9950.0
11780,0.35315802693367004,0.33003440499305725,26,5897.0,-3.0077455043792725,-58,9950.0
11790,0.352080762386322,1.5597368478775024,14,5897.0,-1.38034987449646,-17,9950.0
11800,0.3510436713695526,1.8796457052230835,14,5897.0,-2.8104248046875,57,9950.0
11810,0.3514977991580963,-0.33711013197898865,-12,5897.0,0.32267507910728455,43,9950.0
11820,0.35033801198005676,0.1170513927936554,-65,5897.0,-1.591869592666626,115,9950.0
11830,0.34915244579315186,-1.644683837890625,-68,5897.0,-0.7487921118736267,138,9950.0
11840,0.3479776680469513,-3.10528564453125,-112,5897.0,1.1293220520019531,92,9950.0
11850,0.3479691445827484,-2.068239688873291,-76,5897.0,0.17334455251693726,84,9950.0
11860,0.3468989133834839,-1.5060516595840454,-43,5897.0,6.1866936683654785,12,9950.0
11870,0.3458669185638428,0.37600359320640564,14,5897.0,3.751307249069214,2,9950.0
11880,0.3448130488395691,0.820252537727356,104,5897.0,4.7973432540893555,-11,9950.0
11890,0.34386542439460754,2.7059311866760254,167,5897.0,4.956377983093262,-6,9950.0
11900,0.34540286660194397,3.6944470405578613,35,5897.0,0.14645269513130188,133,9950.0
11910,0.3446274995803833,6.532990455627441,-32,5897.0,-0.761955738067627,117,9950.0
11920,0.34385257959365845,4.513585567474365,-98,5897.0,-0.9145732522010803,77,9950.0
11930,0.34326308965682983,4.044890403747559,27,5897.0,0.7984455227851868,50,9950.0
11940,0.3456173539161682,3.4798197746276855,55,5897.0,-2.6463401317596436,-75,9950.0
11950,0.3453444540500641,1.7918992042541504,114,5897.0,-0.01930573768913746,-179,9950.0
11960,0.34514644742012024,2.0724759101867676,99,5897.0,-3.038041353225708,-16,9950.0
11970,0.3450920283794403,1.5340054035186768,22,5897.0,-1.4673465490341187,88,9950.0
11980,0.3473096489906311,1.8827648162841797,1,5897.0,1.8876571655273438,178,9950.0
11990,0.34735387563705444,2.822153329849243,-9,5897.0,1.6435962915420532,149,9950.0
12000,0.34743326902389526,2.229154586791992,14,5897.0,6.623557090759277,155,9950.0
12010,0.347587525844574,4.514269828796387,62,5897.0,4.576318740844727,59,9950.0
12020,0.34771203994750977,5.462533473968506,134,5897.0,4.625589847564697,-19,9950.0
12030,0.3498768210411072,2.914675712585449,181,5897.0,2.7103617191314697,-122,9950.0
12040,0.35021618008613586,3.562098741531372,189,5897.0,1.8850659132003784,-132,9950.0
12050,0.3505983352661133,3.0822672843933105,158,5897.0,-2.4496257305145264,-90,9950.0
12060,0.3509427011013031,3.0381078720092773,145,5897.0,-3.02736496925354,-139,9950.0
12070,0.354261577129364,3.6930043697357178,113,5897.0,-2.9206249713897705,-65,9950.0
12080,0.3548419177532196,6.227453708648682,60,5897.0,-3.6735000610351562,-69,9950.0
12090,0.35531216859817505,6.713291168212891,76,5897.0,-6.756925106048584,-81,9950.0
12100,0.355746328830719,6.981435298919678,104,5897.0,-4.110937118530273,16,9950.0
12110,0.3561399281024933,8.430513381958008,137,5897.0,-4.068275451660156,49,9950.0
12120,0.35786235332489014,5.266528129577637,36,5897.0,6.7908220291137695,152,9950.0
12130,0.3581732213497162,2.6779794692993164,61,5897.0,4.895051956176758,-16,9950.0
12140,0.3584471642971039,1.6754119396209717,43,5897.0,7.681151866912842,-12,9950.0
12150,0.3586043417453766,-0.039584770798683167,-15,5897.0,6.83702278137207,21,9950.0
12160,0.3611180782318115,-2.2622833251953125,-12,5897.0,5.769746780395508,-39,9950.0
12170,0.36118942499160767,-2.0068957805633545,5,5897.0,1.7176753282546997,-95,9950.0
12180,0.36116236448287964,-1.5206984281539917,-9,5897.0,0.6080214381217957,-59,9950.0
12190,0.36107137799263,2.43398380279541,-4,5897.0,-3.889002561569214,-113,9950.0
12200,0.36362019181251526,3.1710708141326904,-6,5897.0,-9.202068328857422,-123,9950.0
12210,0.36354827880859375,5.9363226890563965,52,5897.0,-5.7695088386535645,-57,9950.0
12220,0.3634299635887146,6.600872993469238,14,5897.0,-6.335472106933594,13,9950.0
12230,0.3632778525352478,4.576595306396484,21,5897.0,-3.3539931774139404,-21,9950.0
12240,0.3630355894565582,4.093693733215332,35,5897.0,0.5244725942611694,19,9950.0
12250,0.36406558752059937,1.215799331665039,6,5897.0,3.18523907661438,68,9950.0
12260,0.363797128200531,1.551479458808899,29,5897.0,5.5345964431762695,19,9950.0
12270,0.363465279340744,0.07059237360954285,-43,5897.0,6.073731899261475,-34,9950.0
12280,0.3630707859992981,-3.145430088043213,-43,5897.0,5.4071879386901855,-12,9950.0
12290,0.3658809959888458,-5.603674411773682,-96,5897.0,5.308126926422119,-2,9950.0
12300,0.3655463457107544,-5.421737194061279,-138,5897.0,3.185898780822754,60,9950.0
12310,0.3651397228240967,-6.2881903648376465,-115,5897.0,2.2963242530822754,87,9950.0
12320,0.3646877408027649,-5.233585357666016,-89,5897.0,0.09493334591388702,114,9950.0
12330,0.36422231793403625,-3.4761037826538086,-16,5897.0,0.03904371336102486,93,9950.0
12340,0.3646324872970581,-1.7745697498321533,14,5897.0,-2.9352195262908936,-5,9950.0
12350,0.36411941051483154,-1.9832282066345215,69,5897.0,-2.6611328125,-55,9950.0
12360,0.36356955766677856,0.30537861585617065,57,5897.0,-4.931565761566162,-71,9950.0
12370,0.36296966671943665,1.1914762258529663,82,5897.0,0.36777451634407043,-59,9950.0
12380,0.36410990357398987,1.5539240837097168,50,5897.0,0.05309499427676201,-63,9950.0
12390,0.3635198771953583,0.5833218097686768,53,5897.0,-1.4746239185333252,-12,9950.0
12400,0.36285045742988586,0.6301247477531433,6,5897.0,1.6644833087921143,27,9950.0
12410,0.3621119558811188,-4.582252025604248,-56,5897.0,3.9887967109680176,121,9950.0
12420,0.36231157183647156,-5.2764058113098145,-94,5897.0,2.9259965419769287,136,9950.0
12430,0.36151742935180664,-5.410318374633789,-120,5897.0,3.708848237991333,142,9950.0
12440,0.36068055033683777,-4.30237340927124,-99,5897.0,-0.4473557770252228,160,9950.0
12450,0.35981062054634094,-3.28033185005188,-98,5897.0,-1.2777177095413208,100,9950.0
12460,0.3589186668395996,-1.2940046787261963,-71,5897.0,-5.978947639465332,77,9950.0
12470,0.35918429493904114,-0.9681532979011536,-109,5897.0,-2.0054142475128174,100,9950.0
12480,0.3583090305328369,0.7285024523735046,-87,5897.0,-9.607420921325684,46,9950.0
12490,0.35740232467651367,1.2395083904266357,2,5897.0,-4.591197967529297,-4,9950.0
12500,0.3564862310886383,1.088209867477417,-32,5897.0,-2.071702480316162,63,9950.0
12510,0.3569054901599884,1.558364987373352,-29,5897.0,-1.8439621925354004,2,9950.0
12520,0.35610613226890564,2.3662121295928955,-8,5897.0,-1.6911487579345703,56,9950.0
12530,0.3552967309951782,3.043591260910034,-56,5897.0,-3.3926377296447754,110,9950.0
12540,0.35448870062828064,-0.5763810276985168,-103,5897.0,4.822159767150879,176,9950.0
12550,0.3537133038043976,-1.996198058128357,-165,5897.0,4.704521656036377,204,9950.0
12560,0.35313767194747925,-4.605213165283203,-146,5897.0,7.783584117889404,204,9950.0
12570,0.3524986207485199,-3.781141996383667,-149,5897.0,3.8300793170928955,180,9950.0
12580,0.3518522381782532,-2.211580514907837,-85,5897.0,1.6377414464950562,117,9950.0
12590,0.35114964842796326,-1.2377387285232544,-67,5897.0,0.6513428688049316,181,9950.0
12600,0.3514874577522278,-0.7955526113510132,-81,5897.0,-2.314338445663452,59,9950.0
12610,0.35092687606811523,-1.3145790100097656,-54,5897.0,3.025355339050293,16,9950.0
12620,0.35038164258003235,-1.0871082544326782,-41,5897.0,1.2263507843017578,-30,9950.0
12630,0.34975191950798035,-1.3873616456985474,-17,5897.0,1.239988923072815,-64,9950.0
12640,0.3505905270576477,0.9189231991767883,56,5897.0,1.3458269834518433,-125,9950.0
12650,0.3500484228134155,0.7917791604995728,98,5897.0,0.9201884865760803,-91,9950.0
12660,0.3494492173194885,2.780895709991455,121,5897.0,-1.094252109527588,-102,9950.0
12670,0.3489305078983307,1.2067164182662964,131,5897.0,0.3410179913043976,-41,9950.0
12680,0.34838196635246277,0.3252355754375458,70,5897.0,2.2537193298339844,-7,9950.0
12690,0.3490901589393616,0.09662522375583649,-8,5897.0,-1.4426801204681396,40,9950.0
12700,0.3486635982990265,-1.1922169923782349,-45,5897.0,-2.008772134780884,30,9950.0
12710,0.3482496738433838,-0.6675254702568054,-76,5897.0,2.5712387561798096,62,9950.0
12720,0.3478299379348755,-1.8609824180603027,-50,5897.0,0.05571846291422844,123,9950.0
12730,0.3476676046848297,-0.4859886169433594,-80,5897.0,-1.9828691482543945,52,9950.0
12740,0.34732475876808167,2.806204319000244,-126,5897.0,-3.6392693519592285,137,9950.0
12750,0.3470900356769562,0.8346171975135803,-75,5897.0,5.147830009460449,139,9950.0
12760,0.3470688462257385,1.4546566009521484,-69,5897.0,4.486651420593262,169,9950.0
12770,0.3471197187900543,-2.0219779014587402,-49,5897.0,2.785883903503418,117,9950.0
12780,0.34873464703559875,-0.446090966463089,10,5897.0,2.982783555984497,-22,9950.0
12790,0.3490374684333801,-3.358656167984009,3,5897.0,-1.7630562782287598,-170,9950.0
12800,0.3493862748146057,-0.8374901413917542,5,5897.0,-1.7062156200408936,-212,9950.0
12810,0.3496621549129486,-1.6458663940429688,20,5897.0,-2.08085036277771,-186,9950.0
12820,0.35035282373428345,0.9997103214263916,69,5897.0,-1.3613471984863281,-153,9950.0
12830,0.3506261706352234,0.6880408525466919,49,5897.0,-0.9345026016235352,-125,9950.0
12840,0.3508385419845581,-0.8414626717567444,87,5897.0,0.06861342489719391,-146,9950.0
12850,0.3509479761123657,1.2420897483825684,83,5897.0,-0.059403449296951294,-91,9950.0
12860,0.35093286633491516,0.49437111616134644,87,5897.0,4.6842546463012695,-75,9950.0
12870,0.3507978916168213,0.4362642168998718,108,5897.0,6.312028884887695,-7,9950.0
12880,0.3506320118904114,0.5110833048820496,55,5897.0,3.7174906730651855,-69,9950.0
12890,0.35038068890571594,-1.0892834663391113,82,5897.0,2.31036376953125,-64,9950.0
12900,0.3500821888446808,0.06516249477863312,80,5897.0,-2.7137272357940674,-100,9950.0
12910,0.3510264456272125,-0.49191319942474365,80,5897.0,0.917780876159668,-145,9950.0
12920,0.3506454825401306,-1.4763455390930176,44,5897.0,-3.370523691177368,-141,9950.0
12930,0.3502124845981598,-3.1912879943847656,21,5897.0,-2.396339178085327,-139,9950.0
12940,0.3496823310852051,-2.940800905227661,52,5897.0,-5.1309638023376465,-188,9950.0
12950,0.35021305084228516,-2.3572254180908203,23,5897.0,-3.266125202178955,-85,9950.0
12960,0.3496273159980774,-0.5701133012771606,37,5897.0,-0.8461691737174988,-99,9950.0
12970,0.34900832176208496,-1.299385905265808,51,5897.0,0.7815057635307312,-56,9950.0
12980,0.34836941957473755,-0.15743188560009003,45,5897.0,-0.9351397752761841,6,9950.0
12990,0.34762269258499146,0.6885091662406921,88,5897.0,3.2563507556915283,5,9950.0
13000,0.34895965456962585,1.151521921157837,56,5897.0,4.998167991638184,23,9950.0
13010,0.3482651710510254,-1.112929344177246,37,5897.0,8.408178329467773,113,9950.0
13020,0.3475736677646637,-0.21104663610458374,39,5897.0,3.6570706367492676,-32,9950.0
13030,0.3468795716762543,-1.8345892429351807,50,5897.0,-2.547058343887329,-151,9950.0
13040,0.34962889552116394,-1.6578125953674316,47,5897.0,-5.008583068847656,-115,9950.0
13050,0.3490155041217804,0.38584640622138977,21,5897.0,-0.614337682723999,-70,9950.0
13060,0.34834250807762146,0.6641502380371094,32,5897.0,0.7582476735115051,-32,9950.0
13070,0.3475579619407654,-0.16898545622825623,2,5897.0,-1.5570443868637085,35,9950.0
13080,0.349887877702713,0.4098484516143799,-8,5897.0,-3.009777069091797,1,9950.0
13090,0.34934619069099426,1.85789954662323,22,5897.0,-0.15130163729190826,8,9950.0
13100,0.34893760085105896,0.8528357744216919,-54,5897.0,-1.1693142652511597,166,9950.0
13110,0.3486749231815338,1.8414229154586792,-51,5897.0,-1.5207579135894775,71,9950.0
13120,0.3484061062335968,2.1045351028442383,11,5897.0,0.8167885541915894,82,9950.0
13130,0.35124272108078003,1.6997551918029785,8,5897.0,2.7820279598236084,26,9950.0
13140,0.35114917159080505,3.1386492252349854,6,5897.0,0.03195842728018761,6,9950.0
13150,0.3509971797466278,2.9871490001678467,80,5897.0,4.431986331939697,61,9950.0
13160,0.35082703828811646,4.056118011474609,100,5897.0,2.0971643924713135,-34,9950.0
13170,0.3542722165584564,1.630062460899353,76,5897.0,4.463489532470703,77,9950.0
13180,0.3544347286224365,1.562025785446167,93,5897.0,1.5359892845153809,-3,9950.0
13190,0.35464149713516235,1.5963695049285889,98,5897.0,2.952805995941162,-1,9950.0
13200,0.3548474907875061,2.261441230773926,93,5897.0,-5.292625904083252,-142,9950.0
13210,0.354997843503952,2.403562307357788,81,5897.0,-4.438201427459717,-164,9950.0
13220,0.3578677773475647,2.808828115463257,106,5897.0,-10.192668914794922,-157,9950.0
13230,0.35810333490371704,1.3928900957107544,78,5897.0,-6.70713472366333,-227,9950.0
13240,0.35826241970062256,3.4896907806396484,84,5897.0,-8.09761905670166,-159,9950.0
13250,0.358423113822937,2.6476147174835205,94,5897.0,-5.093595504760742,-96,9950.0
13260,0.3614925742149353,3.3258590698242188,85,5897.0,-2.9276888370513916,-149,9950.0
13270,0.3617004454135895,3.2384986877441406,95,5897.0,1.0404233932495117,-9,9950.0
13280,0.3618786931037903,5.044220447540283,99,5897.0,3.332171678543091,-20,9950.0
13290,0.36195850372314453,6.284887790679932,123,5897.0,6.948821067810059,58,9950.0
13300,0.3638872504234314,5.361489295959473,53,5897.0,4.034677982330322,-14,9950.0
13310,0.3639891445636749,4.855762004852295,60,5897.0,2.444694757461548,-74,9950.0
13320,0.3640114367008209,3.088935136795044,5,5897.0,2.033130168914795,0,9950.0
13330,0.36398306488990784,1.23354172706604,4,5897.0,-3.2305164337158203,4,9950.0
13340,0.3638478219509125,-0.22713930904865265,-14,5897.0,-5.269875526428223,-26,9950.0
13350,0.3653438985347748,0.9404091238975525,-26,5897.0,-6.010483264923096,0,9950.0
13360,0.36509421467781067,-0.9861135482788086,13,5897.0,-6.110559940338135,-117,9950.0
13370,0.36476707458496094,0.8246756792068481,-6,5897.0,-4.255757808685303,-54,9950.0
13380,0.36441469192504883,-0.5336878299713135,22,5897.0,-1.9165990352630615,-35,9950.0
13390,0.3655316233634949,1.514837622642517,40,5897.0,-0.565015971660614,-56,9950.0
13400,0.3651909828186035,0.8366844654083252,16,5897.0,-1.6744840145111084,-35,9950.0
13410,0.364760160446167,0.331753671169281,-5,5897.0,0.4733562171459198,-3,9950.0
13420,0.3642459809780121,-1.91897451877594,-45,5897.0,2.62188720703125,78,9950.0
13430,0.36601871252059937,-4.024033546447754,-86,5897.0,1.515928864479065,102,9950.0
13440,0.36542463302612305,-7.988932132720947,-162,5897.0,3.2639715671539307,44,9950.0
13450,0.364692747592926,-3.6478402614593506,-106,5897.0,-3.5641961097717285,98,9950.0
13460,0.3638641834259033,-3.1572771072387695,-90,5897.0,-2.365201711654663,84,9950.0
13470,0.36302027106285095,-5.4712629318237305,-55,5897.0,0.41876840591430664,-1,9950.0
13480,0.36368656158447266,-1.2156531810760498,-33,5897.0,-4.0956854820251465,-49,9950.0
13490,0.3628723919391632,-2.3670380115509033,-44,5897.0,-2.651968479156494,-24,9950.0
13500,0.3620663285255432,-2.3504419326782227,2,5897.0,-2.520617961883545,-36,9950.0
13510,0.36125844717025757,-1.5908902883529663,-13,5897.0,1.7318103313446045,-58,9950.0
13520,0.3617956042289734,-2.6592841148376465,-19,5897.0,0.20618054270744324,-77,9950.0
13530,0.3609882891178131,-5.058254241943359,-84,5897.0,4.761797904968262,-20,9950.0
13540,0.36012929677963257,-4.965826511383057,-104,5897.0,3.3999078273773193,-18,9950.0
13550,0.35925453901290894,-5.3688859939575195,-39,5897.0,5.058155059814453,-92,9950.0
13560,0.3583497703075409,-6.850403308868408,-53,5897.0,5.298891544342041,-135,9950.0
13570,0.35808518528938293,-5.886951923370361,-26,5897.0,2.6926915645599365,-104,9950.0
13580,0.357166588306427,-6.0140838623046875,-67,5897.0,4.318233489990234,-163,9950.0
13590,0.35617560148239136,-6.037474632263184,24,5897.0,4.7561445236206055,-195,9950.0
13600,0.3551490902900696,-3.347688913345337,43,5897.0,2.6239776611328125,-96,9950.0
13610,0.3564607501029968,-1.3569281101226807,55,5897.0,-2.5185117721557617,-105,9950.0
13620,0.35557985305786133,-3.2956960201263428,60,5897.0,0.0845508873462677,-135,9950.0
13630,0.35468998551368713,-1.5084950923919678,39,5897.0,1.0336382389068604,-134,9950.0
13640,0.3537982702255249,-2.759432077407837,88,5897.0,1.0028117895126343,-79,9950.0
13650,0.35294753313064575,-0.4083201587200165,88,5897.0,2.2940566539764404,-101,9950.0
13660,0.3521362543106079,-2.69395112991333,50,5897.0,2.2637226581573486,22,9950.0
13670,0.3512665927410126,-2.580007314682007,-24,5897.0,4.890946388244629,98,9950.0
13680,0.3503289222717285,-3.6558303833007812,-34,5897.0,3.199190616607666,79,9950.0
13690,0.34937503933906555,-4.202256202697754,-42,5897.0,3.9716684818267822,91,9950.0
13700,0.3515297770500183,-2.5368471145629883,-67,5897.0,1.630141019821167,132,9950.0
13710,0.35100728273391724,-1.9857447147369385,-118,5897.0,4.318721294403076,157,9950.0
13720,0.35036173462867737,-2.128293991088867,-115,5897.0,2.5959460735321045,184,9950.0
13730,0.349606990814209,0.3666923940181732,-99,5897.0,-1.8289028406143188,60,9950.0
13740,0.3504544496536255,-1.3337254524230957,-69,5897.0,-0.25964611768722534,32,9950.0
13750,0.3497784733772278,-0.12386869639158249,-4,5897.0,-1.5236903429031372,-54,9950.0
13760,0.3489789366722107,-0.3967207670211792,-28,5897.0,1.7561296224594116,-55,9950.0
13770,0.34828704595565796,-1.1695564985275269,85,5897.0,1.8030037879943848,-89,9950.0
13780,0.34766748547554016,-3.1307125091552734,95,5897.0,5.032603740692139,-51,9950.0
13790,0.34874844551086426,-1.124015212059021,26,5897.0,0.6562260389328003,-110,9950.0
13800,0.34837642312049866,-3.1609301567077637,-30,5897.0,1.241588830947876,-70,9950.0
13810,0.3480929732322693,-4.048832893371582,-27,5897.0,2.138274908065796,-26,9950.0
13820,0.34779900312423706,-1.8378031253814697,-66,5897.0,-1.287033200263977,76,9950.0
13830,0.34966975450515747,-3.982273817062378,-113,5897.0,2.121943712234497,128,9950.0
13840,0.349561482667923,-3.308058500289917,-143,5897.0,3.1904656887054443,237,9950.0
13850,0.34942469000816345,-2.657839775085449,-124,5897.0,3.2457592487335205,182,9950.0
13860,0.34934210777282715,-2.9192616939544678,-55,5897.0,4.4607367515563965,100,9950.0
13870,0.35037413239479065,-0.48454269766807556,-18,5897.0,4.877531051635742,121,9950.0
13880,0.35053756833076477,2.6252553462982178,37,5897.0,4.4759087562561035,34,9950.0
13890,0.35068413615226746,0.9819883704185486,80,5897.0,1.797919750213623,-60,9950.0
13900,0.35087552666664124,2.80708909034729,129,5897.0,-1.6265850067138672,-96,9950.0
13910,0.3510122001171112,3.576162099838257,170,5897.0,-3.1852331161499023,-36,9950.0
13920,0.35222238302230835,4.809734344482422,152,5897.0,-3.218787431716919,-121,9950.0
13930,0.3523304760456085,5.20228910446167,229,5897.0,-6.618370532989502,-199,9950.0
13940,0.35242536664009094,3.2655258178710938,171,5897.0,-5.851934909820557,-183,9950.0
13950,0.35258591175079346,4.029171466827393,106,5897.0,-5.097363471984863,-151,9950.0
13960,0.3536655902862549,5.1876349449157715,82,5897.0,-1.7344995737075806,-19,9950.0
13970,0.3538399934768677,5.071464538574219,105,5897.0,0.36801257729530334,-69,9950.0
13980,0.3539835512638092,6.947904109954834,133,5897.0,-0.5717822909355164,-97,9950.0
13990,0.3540952503681183,3.7973899841308594,91,5897.0,-0.8003342151641846,-36,9950.0
14000,0.35451847314834595,4.0247979164123535,68,5897.0,0.09682351350784302,-20,9950.0
14010,0.3546389043331146,5.36041784286499,95,5897.0,-1.0158233642578125,-43,9950.0
14020,0.3546794652938843,2.7987782955169678,67,5897.0,-1.2905306816101074,-94,9950.0
14030,0.3546435534954071,2.7900984287261963,8,5897.0,-0.4443037509918213,-71,9950.0
14040,0.35454902052879333,1.435329556465149,64,5897.0,-2.3371741771698,-76,9950.0
14050,0.35624927282333374,2.045234441757202,69,5897.0,-3.0380499362945557,-81,9950.0
14060,0.3561728298664093,2.692711353302002,78,5897.0,-2.101384162902832,-92,9950.0
14070,0.3560056686401367,1.9727199077606201,47,5897.0,-3.429490327835083,-118,9950.0
14080,0.3557717502117157,2.39418625831604,76,5897.0,-3.076917886734009,-133,9950.0
14090,0.3552974760532379,2.3892993927001953,56,5897.0,-0.5808644890785217,-67,9950.0
14100,0.35496413707733154,1.1221249103546143,54,5897.0,-1.8203978538513184,-90,9950.0
14110,0.3545662760734558,0.050735875964164734,-1,5897.0,-1.5828999280929565,-3,9950.0
14120,0.3540848195552826,-0.04098375886678696,-42,5897.0,-1.2376741170883179,47,9950.0
14130,0.35358282923698425,1.8160135746002197,21,5897.0,-0.12211563438177109,58,9950.0
14140,0.35400062799453735,3.0830514430999756,16,5897.0,-1.4306037425994873,45,9950.0
14150,0.3534896671772003,4.54281759262085,4,5897.0,1.1820069551467896,102,9950.0
14160,0.3529050648212433,3.4261012077331543,-21,5897.0,5.486612796783447,169,9950.0
14170,0.3523622751235962,4.967806339263916,30,5897.0,1.8674029111862183,147,9950.0
14180,0.3539099395275116,4.416056156158447,57,5897.0,0.3129172921180725,89,9950.0
14190,0.3534511625766754,3.112013339996338,-6,5897.0,4.769621849060059,80,9950.0
14200,0.3529192805290222,1.808326244354248,-35,5897.0,1.860355019569397,129,9950.0
14210,0.3523871600627899,1.6863876581192017,-58,5897.0,-0.0005262368358671665,36,9950.0
14220,0.35188812017440796,-1.2117515802383423,-43,5897.0,-5.129673480987549,7,9950.0
14230,0.35186153650283813,-0.8032745718955994,-35,5897.0,0.30145591497421265,89,9950.0
14240,0.3513990044593811,1.1473642587661743,-25,5897.0,-2.6812031269073486,58,9950.0
