timestamp,kalman.stateZ,gyro.x,gyro.xRaw,gyro.xVariance,gyro.y,gyro.yRaw,gyro.yVariance
0,0.2843305170536041,-0.7754010558128357,-9,5897.0,-1.8052788972854614,-20,9950.0
10,0.2826498746871948,-0.7064862847328186,-8,5897.0,-1.0473884344100952,-12,9950.0
20,0.28264883160591125,-0.5028079152107239,-3,5897.0,-0.5959013104438782,-7,9950.0
30,0.28265514969825745,-0.5768011212348938,-4,5897.0,-0.12965990602970123,2,9950.0
40,0.2827044129371643,-0.05733877420425415,-2,5897.0,-0.1450778990983963,19,9950.0
50,0.28273066878318787,0.37105506658554077,8,5897.0,0.6001578569412231,21,9950.0
60,0.283206969499588,0.6265068054199219,11,5897.0,1.3843700885772705,22,9950.0
70,0.28325599431991577,0.6480234265327454,12,5897.0,1.7728385925292969,34,9950.0
80,0.2832902669906616,0.6508678793907166,17,5897.0,1.9446507692337036,35,9950.0
90,0.2833169102668762,0.35463762283325195,18,5897.0,2.520692825317383,40,9950.0
100,0.283895343542099,-0.03659316524863243,4,5897.0,2.7493510246276855,38,9950.0
110,0.2839626967906952,-0.32409241795539856,-13,5897.0,2.2044060230255127,41,9950.0
120,0.2840197682380676,-0.6269335150718689,-15,5897.0,2.5304903984069824,45,9950.0
130,0.2841070592403412,-0.6074905395507812,-2,5897.0,2.5239202976226807,49,9950.0
140,0.2841755151748657,-0.2901839315891266,4,5897.0,2.474647283554077,45,9950.0
150,0.28407344222068787,-0.2629842758178711,-1,5897.0,2.5772593021392822,46,9950.0
160,0.284146249294281,-0.46642249822616577,-9,5897.0,2.5701215267181396,46,9950.0
170,0.2841925024986267,-0.4240538775920868,-3,5897.0,2.309407949447632,42,9950.0
180,0.2842338979244232,-0.19821591675281525,0,5897.0,1.6043301820755005,31,9950.0
190,0.2852606773376465,0.3213253319263458,10,5897.0,1.4698655605316162,36,9950.0
200,0.28536659479141235,0.6730111241340637,14,5897.0,0.5767673254013062,1,9950.0
210,0.2854944169521332,1.2969281673431396,24,5897.0,-3.0256552696228027,-58,9950.0
220,0.28564900159835815,1.6124415397644043,50,5897.0,-4.119444847106934,-95,9950.0
230,0.28428027033805847,3.9662928581237793,76,5897.0,-11.143332481384277,-212,9950.0
240,0.2843761444091797,1.3917378187179565,32,5897.0,-18.354148864746094,-323,9950.0
250,0.28443992137908936,5.530587196350098,69,5897.0,-27.7541561126709,-505,9950.0
260,0.2845379412174225,2.6181838512420654,69,5897.0,-36.7818489074707,-649,9950.0
270,0.28464922308921814,2.019935369491577,24,5897.0,-46.39164733886719,-767,9950.0
280,0.2833109498023987,2.524571180343628,-2,5897.0,-52.81305694580078,-854,9950.0
290,0.2831626832485199,1.9213255643844604,-21,5897.0,-55.795562744140625,-869,9950.0
300,0.28287985920906067,0.04125303402543068,13,5897.0,-53.77945327758789,-866,9950.0
310,0.2832106947898865,-0.030213380232453346,41,5897.0,-51.09239959716797,-852,9950.0
320,0.283708393573761,-0.8178838491439819,-23,5897.0,-44.20222091674805,-569,9950.0
330,0.2840009033679962,0.25558504462242126,19,5897.0,-28.6082763671875,-410,9950.0
340,0.2840183675289154,1.627969741821289,47,5897.0,-13.250469207763672,-169,9950.0
350,0.2844371497631073,5.085227012634277,78,5897.0,2.1328506469726562,109,9950.0
360,0.2850346565246582,1.6724276542663574,84,5897.0,12.185876846313477,249,9950.0
370,0.2856367528438568,1.368841528892517,27,5897.0,22.900968551635742,389,9950.0
380,0.2861672341823578,1.9555025100708008,-25,5897.0,31.187416076660156,534,9950.0
390,0.28627973794937134,1.702794075012207,-6,5897.0,33.463565826416016,607,9950.0
400,0.2863616645336151,1.4822373390197754,43,5897.0,32.35029983520508,674,9950.0
410,0.2872186005115509,0.9604777097702026,50,5897.0,31.008468627929688,452,9950.0
420,0.2874422073364258,0.9094352126121521,113,5897.0,23.494497299194336,271,9950.0
430,0.2879334092140198,-0.0028039920143783092,6,5897.0,16.17521858215332,95,9950.0
440,0.28816843032836914,1.4935593605041504,32,5897.0,5.212428569793701,23,9950.0
450,0.2871260344982147,0.2041495144367218,4,5897.0,-3.234622001647949,-151,9950.0
460,0.28729453682899475,0.38184842467308044,-48,5897.0,-10.055337905883789,-81,9950.0
470,0.2874946892261505,0.2109062522649765,-47,5897.0,-12.289907455444336,-218,9950.0
480,0.2877073287963867,2.8612539768218994,-42,5897.0,-16.36638069152832,-167,9950.0
490,0.28864219784736633,1.1434133052825928,-22,5897.0,-15.268010139465332,-199,9950.0
500,0.28808292746543884,0.8677181601524353,-55,5897.0,-12.239044189453125,-197,9950.0
510,0.28845086693763733,-0.18694858253002167,-30,5897.0,-7.518099784851074,-64,9950.0
520,0.2888909578323364,-2.7466204166412354,75,5897.0,-0.22565652430057526,-195,9950.0
530,0.2893648147583008,-1.4571442604064941,49,5897.0,7.101125240325928,45,9950.0
540,0.2896082401275635,0.013568447902798653,67,5897.0,8.941413879394531,159,9950.0
550,0.29018068313598633,-1.8027782440185547,-43,5897.0,17.48526954650879,316,9950.0
560,0.2904651165008545,-2.597128391265869,-104,5897.0,19.810972213745117,458,9950.0
570,0.29090529680252075,-2.538376569747925,-70,5897.0,20.592723846435547,418,9950.0
580,0.2907232344150543,-1.8960367441177368,-35,5897.0,19.83746910095215,183,9950.0
590,0.29108694195747375,-1.7920887470245361,47,5897.0,20.653024673461914,240,9950.0
600,0.2914421856403351,-0.3932185769081116,44,5897.0,17.6498966217041,233,9950.0
610,0.2918991148471832,1.6428278684616089,94,5897.0,12.507050514221191,118,9950.0
620,0.2921639382839203,1.685240387916565,6,5897.0,6.7276482582092285,146,9950.0
630,0.29184457659721375,1.8964354991912842,-40,5897.0,0.06327443569898605,159,9950.0
640,0.29214200377464294,3.1384263038635254,43,5897.0,-2.9585022926330566,34,9950.0
650,0.2923484146595001,2.3789076805114746,91,5897.0,-1.3718807697296143,-228,9950.0
660,0.29252320528030396,3.1845250129699707,110,5897.0,-2.4551053047180176,-147,9950.0
670,0.2912333905696869,2.270218849182129,86,5897.0,-5.119071960449219,45,9950.0
680,0.2913106381893158,3.1705946922302246,18,5897.0,-2.6071853637695312,53,9950.0
690,0.2913634479045868,-0.3665321469306946,-82,5897.0,-1.5970505475997925,-75,9950.0
700,0.2914069890975952,0.30681291222572327,-23,5897.0,-1.2462793588638306,-20,9950.0
710,0.29131901264190674,-3.008279800415039,38,5897.0,-0.006548946723341942,-19,9950.0
720,0.2915252149105072,-2.7050178050994873,-22,5897.0,1.738025426864624,-10,9950.0
730,0.29141637682914734,-3.6214027404785156,-135,5897.0,1.781637191772461,90,9950.0
740,0.2912767231464386,-2.8768856525421143,-67,5897.0,-0.39740025997161865,101,9950.0
750,0.29104578495025635,-2.4991116523742676,22,5897.0,0.289151132106781,-85,9950.0
760,0.29082953929901123,-1.0767425298690796,23,5897.0,0.2341344952583313,-130,9950.0
770,0.2905392646789551,1.2451623678207397,0,5897.0,-1.857986330986023,-8,9950.0
780,0.2903090715408325,2.1118431091308594,13,5897.0,-5.640376091003418,51,9950.0
790,0.29004716873168945,4.5096540451049805,92,5897.0,-5.828497886657715,-207,9950.0
800,0.2896958589553833,4.7326250076293945,180,5897.0,-7.170317649841309,-294,9950.0
810,0.290167897939682,4.860734939575195,58,5897.0,-9.362404823303223,-55,9950.0
820,0.2897149920463562,3.1783010959625244,10,5897.0,-14.675806999206543,-58,9950.0
830,0.2893105745315552,3.0176939964294434,-53,5897.0,-15.94287395477295,-313,9950.0
840,0.2890543043613434,-1.2458974123001099,56,5897.0,-13.966798782348633,-331,9950.0
850,0.2901153266429901,-1.6524672508239746,3,5897.0,-14.830083847045898,-206,9950.0
860,0.2898821532726288,-1.6718833446502686,27,5897.0,-17.840322494506836,-174,9950.0
870,0.28955379128456116,-2.0090081691741943,-115,5897.0,-14.677790641784668,-233,9950.0
880,0.28914323449134827,-2.844701051712036,-58,5897.0,-13.238557815551758,-226,9950.0
890,0.2892163395881653,-3.698174238204956,-62,5897.0,-12.647034645080566,-192,9950.0
900,0.28895026445388794,-5.045680522918701,-91,5897.0,-12.181052207946777,-205,9950.0
910,0.2886679470539093,-5.487083435058594,-154,5897.0,-10.315240859985352,-180,9950.0
920,0.2884381413459778,-3.2334001064300537,-8,5897.0,-8.869458198547363,-112,9950.0
930,0.28834858536720276,-0.238667294383049,64,5897.0,-6.866000652313232,-85,9950.0
940,0.2884744107723236,3.7739899158477783,31,5897.0,-5.4254469871521,-90,9950.0
950,0.2882411479949951,5.2440643310546875,56,5897.0,-4.387444972991943,-71,9950.0
960,0.2880570888519287,5.183713912963867,123,5897.0,-2.8457114696502686,-85,9950.0
970,0.2878628969192505,4.631378173828125,84,5897.0,-2.7622621059417725,-2,9950.0
980,0.2882702052593231,3.8210551738739014,7,5897.0,0.3665165603160858,6,9950.0
990,0.28828468918800354,2.607928991317749,35,5897.0,-1.6442373991012573,-43,9950.0
1000,0.28832322359085083,-0.419888973236084,63,5897.0,-2.6124043464660645,12,9950.0
1010,0.28833135962486267,-1.2470394372940063,-55,5897.0,-3.1530659198760986,-27,9950.0
1020,0.288169264793396,-2.9984607696533203,-114,5897.0,-2.8803281784057617,-161,9950.0
1030,0.2880166471004486,-3.320011854171753,-40,5897.0,-2.72562837600708,-64,9950.0
1040,0.2877950668334961,-4.086387634277344,20,5897.0,-4.657884120941162,20,9950.0
1050,0.2877064347267151,-2.5460615158081055,-94,5897.0,-5.3895134925842285,-96,9950.0
1060,0.2875634431838989,-2.946164608001709,-73,5897.0,-4.284984588623047,-125,9950.0
1070,0.28804823756217957,-3.9842159748077393,-10,5897.0,-2.9020254611968994,12,9950.0
1080,0.2880374491214752,-2.2965941429138184,-62,5897.0,-1.6644234657287598,68,9950.0
1090,0.2880357801914215,-3.0609099864959717,-50,5897.0,4.324667453765869,-16,9950.0
1100,0.2880963683128357,-0.6601918935775757,41,5897.0,6.977469444274902,33,9950.0
1110,0.2880111038684845,1.3729302883148193,-2,5897.0,6.447956562042236,272,9950.0
1120,0.2879217565059662,4.625364303588867,63,5897.0,6.579320430755615,216,9950.0
1130,0.2878575623035431,3.2544076442718506,94,5897.0,10.546191215515137,89,9950.0
1140,0.28770801424980164,3.491375207901001,20,5897.0,10.86068058013916,193,9950.0
1150,0.28768390417099,1.6358401775360107,0,5897.0,9.47994613647461,69,9950.0
1160,0.28854531049728394,0.21370896697044373,26,5897.0,8.91375732421875,203,9950.0
1170,0.2887172996997833,-1.1977038383483887,-73,5897.0,5.440398693084717,242,9950.0
1180,0.2887848913669586,-3.413813591003418,-39,5897.0,4.554136276245117,14,9950.0
1190,0.2888668477535248,-2.8177201747894287,-55,5897.0,3.830134630203247,115,9950.0
1200,0.2885713577270508,-4.048064708709717,-69,5897.0,6.111800193786621,-110,9950.0
1210,0.28878194093704224,-0.29069870710372925,1,5897.0,6.066760063171387,45,9950.0
1220,0.2889026403427124,-0.042571865022182465,-59,5897.0,6.581838130950928,67,9950.0
1230,0.28898659348487854,3.182105541229248,68,5897.0,8.209306716918945,153,9950.0
1240,0.28952470421791077,1.9158430099487305,-15,5897.0,7.585841178894043,223,9950.0
1250,0.289722740650177,2.964289903640747,78,5897.0,9.077231407165527,229,9950.0
1260,0.2898958921432495,3.810091972351074,11,5897.0,8.656970024108887,281,9950.0
1270,0.2900838255882263,2.7821147441864014,56,5897.0,7.580249786376953,299,9950.0
1280,0.29022452235221863,1.8326572179794312,-44,5897.0,8.71304988861084,236,9950.0
1290,0.29255732893943787,-0.11898435652256012,29,5897.0,7.116805553436279,336,9950.0
1300,0.29273858666419983,-0.4212171137332916,-88,5897.0,7.484502792358398,186,9950.0
1310,0.29298511147499084,-3.0063281059265137,-41,5897.0,7.424697399139404,260,9950.0
1320,0.29338860511779785,0.7598318457603455,-50,5897.0,8.19023323059082,120,9950.0
1330,0.29380953311920166,0.11951801925897598,-48,5897.0,9.594353675842285,257,9950.0
1340,0.2940746247768402,-0.2237565517425537,-10,5897.0,8.734121322631836,235,9950.0
1350,0.2944072186946869,0.1296093910932541,-81,5897.0,8.455004692077637,248,9950.0
1360,0.29472866654396057,-0.47237256169319153,8,5897.0,9.157807350158691,271,9950.0
1370,0.2950071096420288,1.7932122945785522,20,5897.0,5.832686424255371,64,9950.0
1380,0.2969512343406677,1.320936679840088,-3,5897.0,5.188112735748291,-32,9950.0
1390,0.297494113445282,4.223491668701172,159,5897.0,1.0243685245513916,-101,9950.0
1400,0.2979711890220642,-0.2449314147233963,137,5897.0,0.6241225600242615,-41,9950.0
1410,0.29834413528442383,1.527503490447998,78,5897.0,0.507430374622345,80,9950.0
1420,0.2989860773086548,0.8867536187171936,12,5897.0,1.0320848226547241,70,9950.0
1430,0.29958376288414,0.055060211569070816,14,5897.0,1.1100448369979858,69,9950.0
1440,0.3002755641937256,1.7227755784988403,-62,5897.0,0.7517707347869873,122,9950.0
1450,0.30083441734313965,0.5340098142623901,-46,5897.0,3.1314454078674316,90,9950.0
1460,0.3014921545982361,2.950695753097534,70,5897.0,4.0621209144592285,1,9950.0
1470,0.3017829358577728,4.419149398803711,206,5897.0,5.8954596519470215,-23,9950.0
1480,0.3021392226219177,3.5100317001342773,114,5897.0,6.43994140625,60,9950.0
1490,0.3026388883590698,2.841797351837158,-14,5897.0,5.403738498687744,70,9950.0
1500,0.3031664490699768,3.462339401245117,126,5897.0,3.7677323818206787,66,9950.0
1510,0.30458134412765503,2.5929691791534424,19,5897.0,3.1983582973480225,92,9950.0
1520,0.30511608719825745,3.089731216430664,-65,5897.0,1.8162312507629395,183,9950.0
1530,0.30564484000205994,0.7858582735061646,-9,5897.0,2.030357599258423,9,9950.0
1540,0.30616211891174316,-0.4709533452987671,55,5897.0,0.8632221221923828,-50,9950.0
1550,0.307560533285141,1.769255518913269,118,5897.0,-2.1713995933532715,-90,9950.0
1560,0.30807608366012573,-0.563911497592926,-1,5897.0,-0.991763174533844,-7,9950.0
1570,0.30844396352767944,2.1196329593658447,-71,5897.0,-2.725726366043091,20,9950.0
1580,0.30891817808151245,1.4313371181488037,3,5897.0,1.8375810384750366,259,9950.0
1590,0.30933791399002075,0.35521256923675537,3,5897.0,2.9590351581573486,163,9950.0
1600,0.31102216243743896,2.955559253692627,48,5897.0,4.705784320831299,-24,9950.0
1610,0.3113710582256317,1.2955831289291382,-3,5897.0,6.7774834632873535,28,9950.0
1620,0.3117562234401703,3.5045807361602783,142,5897.0,7.455068588256836,35,9950.0
1630,0.31218597292900085,2.676708698272705,184,5897.0,5.690313816070557,49,9950.0
1640,0.3123163878917694,2.631937265396118,63,5897.0,4.5297040939331055,55,9950.0
1650,0.31265389919281006,2.7961485385894775,-31,5897.0,1.4808169603347778,96,9950.0
1660,0.3130408823490143,3.1099021434783936,-8,5897.0,-0.2071557492017746,145,9950.0
1670,0.3132905960083008,1.5728834867477417,-11,5897.0,-2.236914873123169,90,9950.0
1680,0.31357893347740173,2.935227155685425,18,5897.0,-5.123697757720947,-80,9950.0
1690,0.31366345286369324,1.0677944421768188,-20,5897.0,-2.0094923973083496,-96,9950.0
1700,0.31372958421707153,-0.9873954653739929,-22,5897.0,-3.3947553634643555,-38,9950.0
1710,0.3136402666568756,-0.7775503993034363,129,5897.0,-3.3742780685424805,-79,9950.0
1720,0.31356149911880493,0.51615971326828,80,5897.0,-1.085166096687317,-226,9950.0
1730,0.31404387950897217,0.14136379957199097,55,5897.0,-2.3011422157287598,-130,9950.0
1740,0.3139245808124542,2.8877172470092773,105,5897.0,-2.9218387603759766,9,9950.0
1750,0.313907265663147,1.6214683055877686,119,5897.0,0.15819911658763885,-69,9950.0
1760,0.31389644742012024,-1.0922566652297974,-35,5897.0,-2.3805978298187256,-25,9950.0
1770,0.3123370409011841,-1.1017234325408936,-139,5897.0,-4.7734575271606445,74,9950.0
1780,0.3121565878391266,-1.745679497718811,-76,5897.0,-3.842433214187622,50,9950.0
1790,0.3119969367980957,-1.2551766633987427,-83,5897.0,-3.4175713062286377,1,9950.0
1800,0.31166785955429077,-1.4333053827285767,-106,5897.0,-7.573221206665039,-56,9950.0
1810,0.3115018606185913,-3.3113439083099365,-85,5897.0,-9.585259437561035,-197,9950.0
1820,0.31138715147972107,-2.7765393257141113,18,5897.0,-11.629657745361328,-256,9950.0
1830,0.31118983030319214,-2.93001651763916,28,5897.0,-15.705724716186523,-362,9950.0
1840,0.31080362200737,-4.820877552032471,-50,5897.0,-14.698038101196289,-418,9950.0
1850,0.31054162979125977,-3.3183021545410156,-30,5897.0,-17.41647720336914,-261,9950.0
1860,0.3109027147293091,-2.5370142459869385,79,5897.0,-16.59852409362793,-257,9950.0
1870,0.3104458153247833,-2.091587781906128,-10,5897.0,-15.668054580688477,-217,9950.0
1880,0.3100041449069977,-1.368338704109192,-136,5897.0,-13.663495063781738,-79,9950.0
1890,0.30954456329345703,0.39722105860710144,-107,5897.0,-9.00981616973877,-52,9950.0
1900,0.30864936113357544,-2.5846073627471924,-107,5897.0,-6.432467937469482,2,9950.0
1910,0.3081781566143036,-3.044543743133545,-5,5897.0,-3.9412784576416016,-68,9950.0
1920,0.3077980577945709,-1.4674276113510132,15,5897.0,-2.596872329711914,-201,9950.0
1930,0.30742666125297546,-3.1415679454803467,3,5897.0,-1.474599003791809,-168,9950.0
1940,0.30716264247894287,-0.8566774725914001,-22,5897.0,-2.94031023979187,-69,9950.0
1950,0.3065730631351471,-1.4759063720703125,-61,5897.0,-6.284992694854736,-19,9950.0
1960,0.3064107596874237,-3.6829164028167725,-77,5897.0,-7.691497325897217,14,9950.0
1970,0.30628639459609985,-3.3783388137817383,-75,5897.0,-7.990324020385742,-158,9950.0
1980,0.3061504065990448,-1.8545222282409668,-28,5897.0,-10.353286743164062,-333,9950.0
1990,0.3049078583717346,-2.1774208545684814,-4,5897.0,-10.387740135192871,-189,9950.0
2000,0.3049454689025879,0.6201252937316895,25,5897.0,-9.831317901611328,-120,9950.0
2010,0.3049667477607727,0.617647111415863,53,5897.0,-7.006222248077393,7,9950.0
2020,0.304957777261734,0.09855476021766663,-3,5897.0,-3.372286558151245,18,9950.0
2030,0.30498313903808594,2.4197981357574463,-29,5897.0,-3.6613364219665527,-91,9950.0
2040,0.30510756373405457,1.362533450126648,-7,5897.0,0.902606189250946,-89,9950.0
2050,0.30530619621276855,-0.30090442299842834,78,5897.0,4.471360206604004,40,9950.0
2060,0.3054746687412262,0.6332250833511353,52,5897.0,8.305667877197266,113,9950.0
2070,0.30561691522598267,1.482136607170105,30,5897.0,8.817961692810059,332,9950.0
2080,0.3051031231880188,1.687577724456787,-9,5897.0,9.223675727844238,330,9950.0
2090,0.3052990138530731,4.960095405578613,-3,5897.0,5.743218898773193,126,9950.0
2100,0.30537131428718567,2.3185083866119385,54,5897.0,10.642928123474121,26,9950.0
2110,0.3054018020629883,1.4117258787155151,65,5897.0,8.410730361938477,32,9950.0
2120,0.3055121600627899,2.1019647121429443,24,5897.0,9.113195419311523,155,9950.0
2130,0.3058282434940338,-0.980311393737793,-19,5897.0,3.7576470375061035,319,9950.0
2140,0.3059580624103546,-0.6998686194419861,-81,5897.0,2.944518566131592,56,9950.0
2150,0.3060142397880554,-1.304996132850647,-23,5897.0,1.7465392351150513,-6,9950.0
2160,0.30606839060783386,-3.7380294799804688,-83,5897.0,3.5334253311157227,43,9950.0
2170,0.30648693442344666,-2.6507930755615234,-16,5897.0,2.1972403526306152,37,9950.0
2180,0.3067736327648163,0.5466688871383667,100,5897.0,4.765832424163818,19,9950.0
2190,0.3070034980773926,0.2688012421131134,-20,5897.0,7.605441570281982,148,9950.0
2200,0.3072919547557831,0.8970262408256531,-64,5897.0,7.541464805603027,187,9950.0
2210,0.3085342049598694,2.8094491958618164,-35,5897.0,12.401198387145996,187,9950.0
2220,0.30911654233932495,-0.42935869097709656,-21,5897.0,14.961724281311035,219,9950.0
2230,0.3097578287124634,-2.530134916305542,61,5897.0,14.417119026184082,219,9950.0
2240,0.3103703558444977,-1.9696464538574219,37,5897.0,12.600709915161133,157,9950.0
2250,0.31092384457588196,-4.1141180992126465,-79,5897.0,11.945809364318848,254,9950.0
2260,0.3127153515815735,-2.117959976196289,-115,5897.0,10.236083030700684,244,9950.0
2270,0.3133818507194519,-2.1202287673950195,-85,5897.0,8.307371139526367,79,9950.0
2280,0.31397345662117004,-0.45535025000572205,49,5897.0,2.6284916400909424,22,9950.0
2290,0.3144477903842926,-0.6249309182167053,114,5897.0,6.467257499694824,56,9950.0
2300,0.313358336687088,1.7435382604599,71,5897.0,3.7346019744873047,63,9950.0
2310,0.313727468252182,4.296535015106201,-49,5897.0,1.3852769136428833,153,9950.0
2320,0.31408554315567017,4.727166652679443,14,5897.0,2.9908924102783203,197,9950.0
2330,0.31439346075057983,4.2317118644714355,108,5897.0,3.4570415019989014,27,9950.0
2340,0.31367167830467224,5.401228427886963,94,5897.0,5.303560733795166,-34,9950.0
2350,0.31399670243263245,5.5666608810424805,140,5897.0,4.989106178283691,-73,9950.0
2360,0.31432539224624634,2.7745964527130127,75,5897.0,5.069790840148926,49,9950.0
2370,0.31458142399787903,3.23211407661438,53,5897.0,5.003508567810059,207,9950.0
2380,0.3147696554660797,2.2576348781585693,63,5897.0,2.3519287109375,215,9950.0
2390,0.3157758414745331,1.3158221244812012,-77,5897.0,1.4556512832641602,55,9950.0
2400,0.31581729650497437,1.9918622970581055,-99,5897.0,1.5532768964767456,28,9950.0
2410,0.31573161482810974,1.5541515350341797,1,5897.0,-2.335787296295166,37,9950.0
2420,0.3155445456504822,0.4713599681854248,71,5897.0,-4.8202924728393555,-160,9950.0
2430,0.3151889741420746,-0.40850090980529785,139,5897.0,-5.109623432159424,-242,9950.0
2440,0.31487587094306946,0.7618870139122009,118,5897.0,-4.323941230773926,-138,9950.0
2450,0.31445980072021484,1.6287897825241089,-30,5897.0,-4.793970108032227,-96,9950.0
2460,0.3140818774700165,1.0127739906311035,-46,5897.0,-7.807746887207031,26,9950.0
2470,0.31364312767982483,-1.1111899614334106,-9,5897.0,-7.834094524383545,1,9950.0
2480,0.31285691261291504,-1.0721901655197144,-73,5897.0,-7.144704818725586,-79,9950.0
2490,0.31234684586524963,-0.6634478569030762,-36,5897.0,-5.453515529632568,-125,9950.0
2500,0.31192731857299805,-1.1827675104141235,0,5897.0,-6.727210998535156,-223,9950.0
2510,0.3114871680736542,0.08692888915538788,18,5897.0,-6.108792781829834,-222,9950.0
2520,0.3114003539085388,2.4643774032592773,81,5897.0,-5.764525413513184,-2,9950.0
2530,0.3109762966632843,0.9508770704269409,21,5897.0,-5.224709510803223,24,9950.0
2540,0.3105197250843048,-0.15246428549289703,-55,5897.0,-3.6807632446289062,8,9950.0
2550,0.31012627482414246,-2.189687728881836,-114,5897.0,-0.847956657409668,-136,9950.0
2560,0.3105100989341736,-2.074718952178955,-60,5897.0,-2.031198024749756,-232,9950.0
2570,0.31006506085395813,-5.461958885192871,-40,5897.0,-2.1270816326141357,-165,9950.0
2580,0.309750497341156,-2.4911458492279053,-33,5897.0,-6.709930419921875,-83,9950.0
2590,0.30938345193862915,-2.7953765392303467,-71,5897.0,-8.051535606384277,65,9950.0
2600,0.3089371919631958,-1.3336710929870605,-75,5897.0,-8.386369705200195,-92,9950.0
2610,0.30848079919815063,-1.7154667377471924,-45,5897.0,-5.629846096038818,-217,9950.0
2620,0.30804625153541565,-1.065812110900879,79,5897.0,-3.886657476425171,-209,9950.0
2630,0.3077424168586731,0.09588491916656494,-18,5897.0,-4.403029441833496,-22,9950.0
2640,0.30745232105255127,1.944995641708374,-81,5897.0,-6.055231094360352,-1,9950.0
2650,0.3078598976135254,1.0320008993148804,-29,5897.0,-0.7455612421035767,-35,9950.0
2660,0.30748534202575684,2.821683168411255,72,5897.0,-1.2499808073043823,-8,9950.0
2670,0.3071134090423584,1.7185959815979004,66,5897.0,-0.03839657083153725,10,9950.0
2680,0.30678901076316833,0.6762051582336426,6,5897.0,2.5689008235931396,141,9950.0
2690,0.306467205286026,-0.2519284784793854,-73,5897.0,-0.7457680106163025,88,9950.0
2700,0.30670851469039917,-0.8229694962501526,-55,5897.0,2.98610782623291,-46,9950.0
2710,0.30627763271331787,-2.57574200630188,27,5897.0,3.304901599884033,-77,9950.0
2720,0.3058425188064575,-3.855475425720215,1,5897.0,2.5513978004455566,6,9950.0
2730,0.30547648668289185,-1.6905741691589355,-63,5897.0,2.959000587463379,101,9950.0
2740,0.3075082004070282,-0.7018980979919434,-36,5897.0,1.621636986732483,-103,9950.0
2750,0.30728524923324585,-0.5619827508926392,-4,5897.0,1.6812870502471924,-31,9950.0
2760,0.30702948570251465,0.6607025861740112,-12,5897.0,-0.06289679557085037,60,9950.0
2770,0.30676791071891785,2.3710079193115234,1,5897.0,-2.2071309089660645,30,9950.0
2780,0.30744263529777527,1.4605563879013062,17,5897.0,2.9129655361175537,-33,9950.0
2790,0.30728453397750854,3.296447992324829,67,5897.0,3.934556484222412,-39,9950.0
2800,0.30717530846595764,0.9940065741539001,89,5897.0,2.2737600803375244,115,9950.0
2810,0.3072547912597656,0.0053259870037436485,-42,5897.0,2.644876480102539,155,9950.0
2820,0.30741339921951294,-0.7898476719856262,-125,5897.0,3.6830790042877197,147,9950.0
2830,0.30975672602653503,-2.714853048324585,-39,5897.0,7.019559860229492,-75,9950.0
2840,0.30998802185058594,-5.200191497802734,9,5897.0,10.893957138061523,308,9950.0
2850,0.3103125989437103,-3.1846566200256348,-59,5897.0,8.746224403381348,218,9950.0
2860,0.3106422424316406,-0.552567720413208,-33,5897.0,11.788334846496582,161,9950.0
2870,0.3129926323890686,1.195216178894043,10,5897.0,10.648750305175781,75,9950.0
2880,0.31358906626701355,2.760856866836548,79,5897.0,6.684395790100098,73,9950.0
2890,0.31414860486984253,4.303789138793945,-2,5897.0,4.833768367767334,149,9950.0
2900,0.3146567940711975,4.159423828125,35,5897.0,5.817242622375488,118,9950.0
2910,0.31509602069854736,3.214522361755371,92,5897.0,6.5480732917785645,77,9950.0
2920,0.3162168562412262,2.778552770614624,109,5897.0,6.543809413909912,81,9950.0
2930,0.31658780574798584,1.2285186052322388,28,5897.0,6.000039100646973,204,9950.0
2940,0.31692028045654297,-0.8904365301132202,-68,5897.0,5.066124439239502,131,9950.0
2950,0.3173776865005493,-0.675080418586731,-51,5897.0,8.255247116088867,180,9950.0
2960,0.319137841463089,-4.308014869689941,-13,5897.0,11.668441772460938,12,9950.0
2970,0.31949669122695923,-3.6150593757629395,-20,5897.0,9.625836372375488,133,9950.0
2980,0.31974172592163086,-1.1016647815704346,-72,5897.0,9.026973724365234,228,9950.0
2990,0.32002124190330505,1.097851276397705,-39,5897.0,6.980851173400879,187,9950.0
3000,0.322943776845932,2.221099376678467,0,5897.0,3.2531843185424805,125,9950.0
3010,0.3233448565006256,1.3252047300338745,120,5897.0,0.8475826978683472,-20,9950.0
3020,0.32364535331726074,4.914666175842285,125,5897.0,0.10663461685180664,-102,9950.0
3030,0.32384389638900757,2.1615397930145264,88,5897.0,-2.838498115539551,3,9950.0
3040,0.32404401898384094,5.607335567474365,33,5897.0,-4.756721019744873,-40,9950.0
3050,0.3238409757614136,3.46870493888855,-60,5897.0,-5.251444339752197,-83,9950.0
3060,0.3239666819572449,1.4370394945144653,18,5897.0,-5.555999755859375,-149,9950.0
3070,0.32395073771476746,0.06706994771957397,67,5897.0,-3.330101490020752,-139,9950.0
3080,0.32390204071998596,0.3103959858417511,165,5897.0,-2.486518621444702,19,9950.0
3090,0.324284166097641,0.23457849025726318,53,5897.0,-0.8436875343322754,21,9950.0
3100,0.32418498396873474,0.27546751499176025,-75,5897.0,-1.2115651369094849,-61,9950.0
3110,0.3240225315093994,1.7833389043807983,-33,5897.0,-4.34801721572876,20,9950.0
3120,0.32383012771606445,-0.7640461325645447,-70,5897.0,-1.1459693908691406,8,9950.0
3130,0.3222303092479706,0.7802138328552246,28,5897.0,1.339579463005066,5,9950.0
3140,0.3218901753425598,1.0592187643051147,161,5897.0,-0.8114945888519287,-61,9950.0
3150,0.3215077221393585,0.06843680143356323,115,5897.0,-0.9397513270378113,-144,9950.0
3160,0.3210558295249939,-1.258823037147522,41,5897.0,-3.6920740604400635,-12,9950.0
3170,0.3208308517932892,1.5257936716079712,-72,5897.0,-6.320409774780273,51,9950.0
3180,0.3189697265625,0.6830578446388245,-121,5897.0,-4.228483200073242,15,9950.0
3190,0.31862872838974,-0.2541215419769287,-12,5897.0,-6.67260217666626,-93,9950.0
3200,0.31829139590263367,0.37701916694641113,77,5897.0,-9.157491683959961,-285,9950.0
3210,0.31794029474258423,-0.49134328961372375,107,5897.0,-10.978696823120117,-232,9950.0
3220,0.31735822558403015,-0.8996843099594116,20,5897.0,-14.578266143798828,-222,9950.0
3230,0.31699708104133606,-3.181152105331421,-143,5897.0,-15.250107765197754,-136,9950.0
3240,0.31661906838417053,-3.055335283279419,-190,5897.0,-11.446303367614746,-178,9950.0
3250,0.31640398502349854,-3.3621151447296143,-162,5897.0,-9.272889137268066,-247,9950.0
3260,0.3162091076374054,-4.08690881729126,35,5897.0,-11.127881050109863,-235,9950.0
3270,0.31431710720062256,-4.025057792663574,-13,5897.0,-11.034025192260742,-187,9950.0
3280,0.31402790546417236,-4.290106773376465,-59,5897.0,-9.774548530578613,21,9950.0
3290,0.3138720393180847,-4.51703405380249,-108,5897.0,-9.145207405090332,-66,9950.0
3300,0.31389617919921875,-5.2036590576171875,-97,5897.0,-8.195524215698242,-129,9950.0
3310,0.3119710683822632,-5.922760963439941,-27,5897.0,-6.398452281951904,-328,9950.0
3320,0.31205955147743225,-4.724522113800049,-44,5897.0,-6.639392852783203,-146,9950.0
3330,0.31217867136001587,-2.0718932151794434,-163,5897.0,-7.640108108520508,-12,9950.0
3340,0.31235119700431824,-3.1993844509124756,-98,5897.0,-3.1365628242492676,-116,9950.0
3350,0.3126518428325653,-2.9472403526306152,11,5897.0,-3.6975347995758057,-51,9950.0
3360,0.3115643262863159,-2.2737514972686768,-9,5897.0,-1.9933829307556152,21,9950.0
3370,0.311955988407135,1.3711146116256714,-58,5897.0,-2.476717233657837,123,9950.0
3380,0.3123434782028198,0.8145817518234253,10,5897.0,-2.766606092453003,29,9950.0
3390,0.31275475025177,2.037362575531006,67,5897.0,-0.4663529098033905,-180,9950.0
3400,0.31133413314819336,0.0899108499288559,174,5897.0,0.2610093057155609,52,9950.0
3410,0.31177088618278503,3.571652412414551,45,5897.0,-2.3590786457061768,33,9950.0
3420,0.3122774064540863,1.9655135869979858,-52,5897.0,0.8782529234886169,70,9950.0
3430,0.3128296434879303,0.9336324334144592,5,5897.0,2.0167813301086426,130,9950.0
3440,0.3116491734981537,0.7784120440483093,51,5897.0,6.06391716003418,48,9950.0
3450,0.312113493680954,1.064897060394287,-19,5897.0,5.708951473236084,44,9950.0
3460,0.3126065731048584,1.9911659955978394,-7,5897.0,9.297173500061035,284,9950.0
3470,0.31316664814949036,0.9789236187934875,-49,5897.0,11.740686416625977,299,9950.0
3480,0.3137836456298828,0.41702407598495483,-80,5897.0,12.446761131286621,287,9950.0
3490,0.312577486038208,-0.6870912909507751,53,5897.0,12.65874195098877,23,9950.0
3500,0.31317541003227234,-1.6150550842285156,84,5897.0,10.454479217529297,78,9950.0
3510,0.31375986337661743,-1.142980694770813,-77,5897.0,11.736891746520996,299,9950.0
3520,0.3143545091152191,-0.07586885988712311,-82,5897.0,11.16301441192627,277,9950.0
3530,0.31227827072143555,0.6466314792633057,-16,5897.0,9.204550743103027,90,9950.0
3540,0.3128921091556549,-0.6931818723678589,98,5897.0,9.233038902282715,97,9950.0
3550,0.3134870231151581,0.6856981515884399,113,5897.0,5.497806072235107,117,9950.0
3560,0.3140457570552826,2.0602152347564697,-2,5897.0,7.1429972648620605,194,9950.0
3570,0.314543753862381,1.685656189918518,-9,5897.0,2.275892734527588,117,9950.0
3580,0.3136216104030609,-1.6602535247802734,-5,5897.0,5.6342973709106445,-77,9950.0
3590,0.3140861690044403,-1.8106938600540161,-1,5897.0,5.594976902008057,49,9950.0
3600,0.3145269453525543,-0.8420423865318298,-17,5897.0,5.0831170082092285,140,9950.0
3610,0.31492379307746887,-2.3902299404144287,-65,5897.0,5.767144203186035,232,9950.0
3620,0.31482282280921936,-1.052514910697937,-33,5897.0,5.3254804611206055,148,9950.0
3630,0.31502383947372437,-0.5411824584007263,50,5897.0,5.39177942276001,-43,9950.0
3640,0.3152451515197754,-0.31511586904525757,69,5897.0,4.664340496063232,75,9950.0
3650,0.3154168725013733,-1.4712797403335571,-16,5897.0,5.895206451416016,171,9950.0
3660,0.31533533334732056,0.233741894364357,-49,5897.0,5.001269340515137,64,9950.0
3670,0.31534048914909363,0.6775932312011719,-10,5897.0,5.425236701965332,-66,9950.0
3680,0.3152596354484558,1.9318698644638062,64,5897.0,6.0204572677612305,48,9950.0
3690,0.31514519453048706,4.5399909019470215,33,5897.0,2.2851014137268066,76,9950.0
3700,0.3150745928287506,3.487814426422119,31,5897.0,2.777787685394287,165,9950.0
3710,0.3173813819885254,3.8654136657714844,81,5897.0,5.382580280303955,84,9950.0
3720,0.31741753220558167,3.4716434478759766,75,5897.0,3.2986390590667725,73,9950.0
3730,0.317354679107666,4.268892765045166,82,5897.0,2.4034833908081055,201,9950.0
3740,0.31717246770858765,1.7986993789672852,28,5897.0,3.530771255493164,96,9950.0
3750,0.317680686712265,0.773198664188385,80,5897.0,3.6918909549713135,-22,9950.0
3760,0.31757956743240356,-1.5136760473251343,78,5897.0,1.2843341827392578,-18,9950.0
3770,0.31750237941741943,-0.023478297516703606,-21,5897.0,-3.184687376022339,51,9950.0
3780,0.31738612055778503,-0.8333932161331177,-97,5897.0,0.7464768290519714,76,9950.0
3790,0.31829550862312317,2.056772232055664,35,5897.0,2.324631690979004,-206,9950.0
3800,0.3181343078613281,3.62336802482605,173,5897.0,-1.9881389141082764,-104,9950.0
3810,0.31790104508399963,5.551639556884766,83,5897.0,-5.937023639678955,-115,9950.0
3820,0.3176423907279968,5.610204696655273,31,5897.0,-6.348078727722168,-14,9950.0
3830,0.31743094325065613,3.022543430328369,4,5897.0,-3.9928767681121826,-181,9950.0
3840,0.31707102060317993,0.5111262798309326,27,5897.0,-3.0688066482543945,-75,9950.0
3850,0.316906213760376,-0.5812401175498962,-36,5897.0,-0.9799342155456543,16,9950.0
3860,0.3166270852088928,-1.4480950832366943,-113,5897.0,-1.95699143409729,-8,9950.0
3870,0.316297322511673,-1.2945818901062012,-7,5897.0,1.618635654449463,-64,9950.0
3880,0.31679221987724304,-0.8346452116966248,59,5897.0,0.4665510952472687,-42,9950.0
3890,0.31658414006233215,1.8227323293685913,17,5897.0,-1.45290207862854,92,9950.0
3900,0.31643712520599365,1.7089345455169678,-32,5897.0,-0.9380199313163757,88,9950.0
3910,0.3163479268550873,0.29041749238967896,-19,5897.0,0.4985114634037018,-5,9950.0
3920,0.3162369430065155,-0.3440602421760559,45,5897.0,2.7202510833740234,-1,9950.0
3930,0.31801488995552063,-1.9732915163040161,0,5897.0,-0.9790689945220947,96,9950.0
3940,0.3179529905319214,0.9306422472000122,-79,5897.0,-2.7570688724517822,0,9950.0
3950,0.31792014837265015,-2.6377406120300293,0,5897.0,-2.089655637741089,-15,9950.0
3960,0.3179165720939636,-2.0470638275146484,19,5897.0,-4.086559772491455,-106,9950.0
3970,0.31877636909484863,-1.628239393234253,-57,5897.0,-4.354640483856201,58,9950.0
3980,0.31888315081596375,-1.5390135049819946,-92,5897.0,-4.674649715423584,-29,9950.0
3990,0.31897538900375366,-0.38959699869155884,19,5897.0,-0.3847079575061798,-83,9950.0
4000,0.31899166107177734,-0.9004008173942566,90,5897.0,-1.9014333486557007,-36,9950.0
4010,0.31892499327659607,-0.5374229550361633,-2,5897.0,-1.7250064611434937,94,9950.0
4020,0.32016614079475403,0.9252973794937134,-11,5897.0,-0.9468587636947632,17,9950.0
4030,0.3201830983161926,-0.14373311400413513,31,5897.0,2.9121148586273193,-79,9950.0
4040,0.3202217221260071,-0.13838286697864532,98,5897.0,0.15944571793079376,-26,9950.0
4050,0.32025793194770813,0.3585430681705475,-75,5897.0,-2.0875611305236816,109,9950.0
4060,0.31977102160453796,0.22144310176372528,-65,5897.0,2.399226665496826,25,9950.0
4070,0.3197130560874939,-1.7677230834960938,1,5897.0,2.774672031402588,-153,9950.0
4080,0.3196067810058594,-3.091418981552124,47,5897.0,1.335680603981018,-1,9950.0
4090,0.31952735781669617,-2.220390796661377,-60,5897.0,2.88824200630188,0,9950.0
4100,0.3197195827960968,-1.3813881874084473,-79,5897.0,0.6708961129188538,67,9950.0
4110,0.3197971284389496,-1.2906736135482788,-24,5897.0,0.21602676808834076,-5,9950.0
4120,0.31989312171936035,-1.8506709337234497,-1,5897.0,2.2222490310668945,-38,9950.0
4130,0.3199775815010071,0.01366041786968708,-76,5897.0,-4.116396427154541,31,9950.0
4140,0.3200269639492035,-2.3178751468658447,-51,5897.0,-3.5973496437072754,21,9950.0
4150,0.32044485211372375,0.9032381772994995,-24,5897.0,-2.8139381408691406,-20,9950.0
4160,0.32047149538993835,2.153701066970825,76,5897.0,-3.814455270767212,-149,9950.0
4170,0.32051265239715576,2.002455472946167,52,5897.0,-1.7549947500228882,75,9950.0
4180,0.32061511278152466,1.5416157245635986,-15,5897.0,0.41261380910873413,54,9950.0
4190,0.3201214075088501,0.5542110800743103,25,5897.0,2.9081835746765137,4,9950.0
4200,0.32021304965019226,0.618586003780365,136,5897.0,2.040672779083252,19,9950.0
4210,0.32026347517967224,1.6970933675765991,63,5897.0,-1.0089577436447144,80,9950.0
4220,0.32027924060821533,0.7234880328178406,-20,5897.0,2.082312822341919,176,9950.0
4230,0.3202827274799347,-3.402655601501465,-34,5897.0,3.5358104705810547,-76,9950.0
4240,0.321419894695282,-1.2215068340301514,45,5897.0,3.552320718765259,-14,9950.0
4250,0.321542888879776,-0.14637038111686707,31,5897.0,1.1190842390060425,38,9950.0
4260,0.32172971963882446,0.31743907928466797,-53,5897.0,-1.1588594913482666,84,9950.0
4270,0.3219224512577057,0.9461764097213745,41,5897.0,-1.4039132595062256,-118,9950.0
4280,0.32169100642204285,0.19992901384830475,42,5897.0,-3.2206339836120605,-31,9950.0
4290,0.3217645287513733,-1.6452616453170776,-53,5897.0,-3.2647087574005127,23,9950.0
4300,0.32181480526924133,-0.590259313583374,-55,5897.0,-2.6297495365142822,-84,9950.0
4310,0.3218485116958618,-0.5536970496177673,41,5897.0,-2.019218921661377,-176,9950.0
4320,0.3203808069229126,-2.6759936809539795,55,5897.0,3.1499438285827637,-61,9950.0
4330,0.32043927907943726,-1.526376724243164,-47,5897.0,-3.369878053665161,60,9950.0
4340,0.32046273350715637,-0.3584100306034088,-63,5897.0,0.37263768911361694,-24,9950.0
4350,0.3204054534435272,-0.8923100233078003,-9,5897.0,-1.3609919548034668,-141,9950.0
4360,0.32028061151504517,-1.0273360013961792,4,5897.0,-0.6810187697410583,-48,9950.0
4370,0.32157739996910095,-0.2766288220882416,-69,5897.0,1.9565335512161255,5,9950.0
4380,0.3215120732784271,-1.136796236038208,-82,5897.0,0.13926592469215393,-17,9950.0
4390,0.3215019702911377,-1.1541742086410522,-21,5897.0,3.5817441940307617,-60,9950.0
4400,0.32153937220573425,0.6259825825691223,65,5897.0,1.0473567247390747,99,9950.0
4410,0.32256048917770386,0.9634254574775696,-55,5897.0,3.7274506092071533,107,9950.0
4420,0.3226570785045624,1.6459530591964722,-34,5897.0,-0.7960911393165588,-1,9950.0
4430,0.32269206643104553,-0.20165173709392548,51,5897.0,0.746950626373291,-139,9950.0
4440,0.32272329926490784,1.4617366790771484,-10,5897.0,-2.4535458087921143,10,9950.0
4450,0.3228708803653717,0.674646258354187,-33,5897.0,-3.0144739151000977,-36,9950.0
4460,0.3229879140853882,0.19767530262470245,-44,5897.0,-1.9833598136901855,-63,9950.0
4470,0.32319238781929016,0.4703633189201355,86,5897.0,-0.2220115214586258,-45,9950.0
4480,0.3234640955924988,-0.5367605686187744,-30,5897.0,-1.88627028465271,26,9950.0
4490,0.3237170875072479,0.4621191620826721,-23,5897.0,-1.056525707244873,66,9950.0
4500,0.3223969042301178,0.2581959366798401,-49,5897.0,-2.8491899967193604,-121,9950.0
4510,0.32240962982177734,-0.9419428110122681,66,5897.0,1.2798125743865967,-54,9950.0
4520,0.3223680555820465,-0.7363277673721313,-25,5897.0,-0.7222979068756104,36,9950.0
4530,0.3223276138305664,-2.490684747695923,-96,5897.0,4.548562526702881,199,9950.0
4540,0.32099130749702454,-2.789963483810425,-58,5897.0,2.555677652359009,13,9950.0
4550,0.32093489170074463,-1.4058698415756226,9,5897.0,0.6219274401664734,13,9950.0
4560,0.3208540380001068,-1.6867570877075195,-28,5897.0,1.2635395526885986,110,9950.0
4570,0.3207276165485382,0.5745409727096558,10,5897.0,-3.3476402759552,-53,9950.0
4580,0.3205399513244629,2.887284755706787,158,5897.0,-2.6969854831695557,-114,9950.0
4590,0.3192763328552246,3.788499116897583,150,5897.0,-3.676609516143799,-22,9950.0
4600,0.31904006004333496,2.5659520626068115,20,5897.0,-4.424906253814697,82,9950.0
4610,0.31888818740844727,1.6287853717803955,-26,5897.0,-1.9444844722747803,-100,9950.0
4620,0.3188292384147644,-0.8556963801383972,31,5897.0,-0.20293544232845306,-27,9950.0
4630,0.3197318911552429,-1.9786635637283325,-13,5897.0,3.176473379135132,73,9950.0
4640,0.31984779238700867,-2.090188980102539,-70,5897.0,2.2020680904388428,113,9950.0
4650,0.31995218992233276,-1.5732430219650269,39,5897.0,4.344317436218262,-10,9950.0
4660,0.32000941038131714,-1.8026167154312134,59,5897.0,4.9563093185424805,115,9950.0
4670,0.3199833929538727,-2.975893497467041,-64,5897.0,6.198302268981934,176,9950.0
4680,0.3194718062877655,-1.371978521347046,-21,5897.0,3.312739610671997,31,9950.0
4690,0.3193129301071167,-0.7618833780288696,54,5897.0,3.4829752445220947,5,9950.0
4700,0.3191874027252197,-1.356947898864746,-39,5897.0,0.5653401613235474,111,9950.0
4710,0.3191414773464203,0.7026007771492004,-18,5897.0,-4.152501106262207,-46,9950.0
4720,0.31951749324798584,0.36013859510421753,66,5897.0,-0.3778342604637146,-73,9950.0
4730,0.31962090730667114,1.0661661624908447,23,5897.0,-2.8134396076202393,95,9950.0
4740,0.3197636902332306,-1.4662468433380127,-37,5897.0,-1.233314037322998,3,9950.0
4750,0.31989923119544983,1.339978575706482,55,5897.0,-0.4259185492992401,26,9950.0
4760,0.31959980726242065,-0.09102913737297058,6,5897.0,2.368440628051758,1,9950.0
4770,0.3196544051170349,-1.2976148128509521,-59,5897.0,3.554683208465576,156,9950.0
4780,0.3196863830089569,-2.067959785461426,-55,5897.0,3.6117961406707764,92,9950.0
4790,0.3197138011455536,0.4320354163646698,60,5897.0,4.648777008056641,51,9950.0
4800,0.31973862648010254,1.2537189722061157,120,5897.0,3.983765125274658,122,9950.0
4810,0.32111185789108276,0.8435901999473572,-29,5897.0,5.371393203735352,176,9950.0
4820,0.321268767118454,1.4014242887496948,44,5897.0,3.106801748275757,44,9950.0
4830,0.3214668929576874,1.2808021306991577,54,5897.0,2.0813746452331543,104,9950.0
4840,0.32168999314308167,3.780592679977417,58,5897.0,0.8807734847068787,140,9950.0
4850,0.32281047105789185,3.6819586753845215,15,5897.0,0.2818326950073242,-64,9950.0
4860,0.32300865650177,2.524191379547119,109,5897.0,-1.742598533630371,-52,9950.0
4870,0.32315918803215027,1.8298760652542114,-7,5897.0,-1.8944603204727173,66,9950.0
4880,0.3233310580253601,-0.5640800595283508,-37,5897.0,0.11373884975910187,47,9950.0
4890,0.3234393894672394,-3.83852481842041,-51,5897.0,3.3587918281555176,18,9950.0
4900,0.32386839389801025,-3.3910796642303467,-56,5897.0,3.8629846572875977,157,9950.0
4910,0.324110209941864,-1.8669981956481934,-95,5897.0,5.656545162200928,132,9950.0
4920,0.3244088292121887,-0.40392258763313293,3,5897.0,4.776175498962402,29,9950.0
4930,0.32473498582839966,4.136288642883301,131,5897.0,0.5558361411094666,-57,9950.0
4940,0.32552632689476013,7.91370964050293,110,5897.0,-1.779746413230896,100,9950.0
4950,0.3257642388343811,11.44777774810791,189,5897.0,-5.338301658630371,-163,9950.0
4960,0.32586395740509033,15.026963233947754,282,5897.0,-8.422486305236816,-135,9950.0
4970,0.3258758783340454,11.287532806396484,169,5897.0,-10.055556297302246,-123,9950.0
4980,0.32572221755981445,6.09824275970459,27,5897.0,-8.787464141845703,-56,9950.0
4990,0.3253507614135742,2.71852970123291,-26,5897.0,-6.168173789978027,-143,9950.0
5000,0.32504746317863464,-0.8598398566246033,34,5897.0,-0.7202807664871216,-143,9950.0
5010,0.32438820600509644,1.8540199995040894,88,5897.0,2.134430170059204,33,9950.0
5020,0.3238309919834137,2.691742181777954,-6,5897.0,3.390671491622925,143,9950.0
5030,0.3244994282722473,-2.508692741394043,-136,5897.0,7.583195209503174,252,9950.0
5040,0.32389211654663086,-15.263136863708496,-309,5897.0,11.739700317382812,74,9950.0
5050,0.3228382170200348,-27.152610778808594,-386,5897.0,14.022283554077148,182,9950.0
5060,0.3217487931251526,-32.70656204223633,-547,5897.0,14.639970779418945,268,9950.0
5070,0.32115375995635986,-33.91960525512695,-596,5897.0,13.491891860961914,269,9950.0
5080,0.32010313868522644,-33.923683166503906,-490,5897.0,13.069501876831055,41,9950.0
5090,0.31901490688323975,-28.700952529907227,-399,5897.0,6.783371925354004,197,9950.0
5100,0.3179810047149658,-24.15536880493164,-448,5897.0,6.958070755004883,176,9950.0
5110,0.3169787526130676,-20.854246139526367,-285,5897.0,7.172261714935303,50,9950.0
5120,0.31609028577804565,-17.88219451904297,-255,5897.0,9.27297306060791,206,9950.0
5130,0.31459009647369385,-18.690582275390625,-371,5897.0,13.740375518798828,320,9950.0
5140,0.3129407465457916,-17.20064353942871,-200,5897.0,14.90613079071045,186,9950.0
5150,0.31066372990608215,-4.676054000854492,27,5897.0,23.032808303833008,484,9950.0
5160,0.3101440668106079,-1.0819746255874634,-134,5897.0,31.011728286743164,597,9950.0
5170,0.3087020814418793,-7.881249904632568,-119,5897.0,35.5139045715332,554,9950.0
5180,0.3074549436569214,-10.86900520324707,-197,5897.0,34.72079849243164,652,9950.0
5190,0.3045957088470459,-15.5191650390625,-356,5897.0,33.420902252197266,592,9950.0
5200,0.3050677180290222,-23.104694366455078,-335,5897.0,31.91049575805664,557,9950.0
5210,0.3037790358066559,-28.663524627685547,-601,5897.0,32.9327278137207,592,9950.0
5220,0.3025848865509033,-32.09455108642578,-481,5897.0,31.786237716674805,438,9950.0
5230,0.3000987470149994,-33.57551956176758,-557,5897.0,27.825851440429688,597,9950.0
5240,0.29944807291030884,-26.79267692565918,-359,5897.0,23.4616641998291,376,9950.0
5250,0.3013291656970978,-18.775808334350586,-292,5897.0,25.049694061279297,397,9950.0
5260,0.300482839345932,-4.753129959106445,37,5897.0,27.059391021728516,450,9950.0
5270,0.29885223507881165,7.361857891082764,110,5897.0,25.033809661865234,397,9950.0
5280,0.29748159646987915,10.307914733886719,186,5897.0,26.51355743408203,533,9950.0
5290,0.29849761724472046,5.035159587860107,24,5897.0,30.141523361206055,338,9950.0
5300,0.2978808283805847,0.5531443953514099,-11,5897.0,29.466129302978516,639,9950.0
5310,0.2975104749202728,-3.8855175971984863,-108,5897.0,29.130630493164062,377,9950.0
5320,0.29624858498573303,-6.6324381828308105,-137,5897.0,28.964088439941406,567,9950.0
5330,0.29567116498947144,-6.153896808624268,-57,5897.0,27.41864585876465,377,9950.0
5340,0.2962017059326172,-3.7922332286834717,-113,5897.0,21.078109741210938,448,9950.0
5350,0.2960200011730194,-1.5066078901290894,44,5897.0,24.022186279296875,251,9950.0
5360,0.2950158417224884,1.7916120290756226,12,5897.0,17.4200382232666,305,9950.0
5370,0.2946237623691559,5.699956893920898,178,5897.0,15.369511604309082,179,9950.0
5380,0.29306304454803467,9.539998054504395,135,5897.0,9.848536491394043,160,9950.0
5390,0.2929469645023346,10.755180358886719,243,5897.0,14.739192962646484,262,9950.0
5400,0.29179736971855164,11.937919616699219,133,5897.0,10.533350944519043,172,9950.0
5410,0.2919870615005493,10.48169231414795,217,5897.0,13.751914024353027,281,9950.0
5420,0.29021987318992615,9.017066955566406,117,5897.0,15.840218544006348,344,9950.0
5430,0.29015088081359863,8.990805625915527,195,5897.0,19.455698013305664,201,9950.0
5440,0.2892377972602844,8.826220512390137,134,5897.0,18.156225204467773,425,9950.0
5450,0.2890682816505432,8.761604309082031,79,5897.0,25.08005714416504,352,9950.0
5460,0.289150208234787,8.675469398498535,204,5897.0,21.50115203857422,374,9950.0
5470,0.2897969186306,6.934925556182861,66,5897.0,20.40373992919922,339,9950.0
5480,0.2891662120819092,6.788235187530518,142,5897.0,19.41015625,357,9950.0
5490,0.28939756751060486,4.4146647453308105,41,5897.0,20.583208084106445,209,9950.0
5500,0.28946828842163086,6.22109842300415,195,5897.0,8.421897888183594,65,9950.0
5510,0.2905016243457794,6.196712017059326,43,5897.0,6.751566410064697,207,9950.0
5520,0.29047298431396484,2.47859787940979,86,5897.0,9.428125381469727,84,9950.0
5530,0.2906401455402374,4.360304832458496,63,5897.0,7.523166656494141,180,9950.0
5540,0.2914171814918518,5.002159118652344,44,5897.0,6.186094760894775,23,9950.0
5550,0.29205963015556335,5.184361457824707,138,5897.0,4.036894798278809,142,9950.0
5560,0.29192522168159485,7.4369401931762695,24,5897.0,3.613696813583374,18,9950.0
5570,0.2923741042613983,6.2836151123046875,180,5897.0,-1.359598159790039,-85,9950.0
5580,0.2924722731113434,7.04197883605957,57,5897.0,-2.967017650604248,50,9950.0
5590,0.2924670875072479,7.350114345550537,98,5897.0,-2.334038496017456,-147,9950.0
5600,0.2945697605609894,7.524967670440674,164,5897.0,-1.6762980222702026,-6,9950.0
5610,0.29469552636146545,8.890997886657715,111,5897.0,-2.7868967056274414,-11,9950.0
5620,0.29518410563468933,8.111794471740723,147,5897.0,4.171861171722412,-24,9950.0
5630,0.2951403558254242,10.884598731994629,155,5897.0,0.9212645888328552,35,9950.0
5640,0.29623809456825256,10.349804878234863,163,5897.0,2.055727958679199,55,9950.0
5650,0.29654285311698914,11.018123626708984,232,5897.0,4.830514907836914,43,9950.0
5660,0.2967591881752014,10.491155624389648,160,5897.0,0.43268585205078125,46,9950.0
5670,0.2969861924648285,12.76871395111084,171,5897.0,2.4534480571746826,-25,9950.0
5680,0.2969321012496948,11.913241386413574,294,5897.0,0.1723446249961853,-72,9950.0
5690,0.2992951571941376,14.983604431152344,246,5897.0,-5.237361907958984,22,9950.0
5700,0.299344003200531,16.082395553588867,188,5897.0,-6.552933692932129,-58,9950.0
5710,0.3004205524921417,17.385026931762695,322,5897.0,-7.6886396408081055,-270,9950.0
5720,0.30050429701805115,19.290021896362305,407,5897.0,-10.185145378112793,-216,9950.0
5730,0.302595853805542,19.031246185302734,241,5897.0,-12.039200782775879,-71,9950.0
5740,0.30261456966400146,13.360871315002441,130,5897.0,-11.35177993774414,-105,9950.0
5750,0.3030674457550049,7.988039970397949,76,5897.0,-12.80224895477295,-237,9950.0
5760,0.3034608066082001,1.3761961460113525,7,5897.0,-14.850346565246582,-382,9950.0
5770,0.3047190308570862,-1.3474767208099365,90,5897.0,-15.929017066955566,-349,9950.0
5780,0.30529168248176575,-3.741953134536743,24,5897.0,-14.302018165588379,-237,9950.0
5790,0.30571886897087097,-3.593621253967285,-43,5897.0,-13.733007431030273,-156,9950.0
5800,0.3061138093471527,-3.3377132415771484,-142,5897.0,-12.239574432373047,-45,9950.0
5810,0.3064444959163666,-1.1078910827636719,-71,5897.0,-11.955551147460938,-80,9950.0
5820,0.3086201250553131,0.8779605031013489,-86,5897.0,-9.729239463806152,-46,9950.0
5830,0.3087126910686493,1.5485453605651855,-76,5897.0,-5.912867069244385,-19,9950.0
5840,0.30955931544303894,2.7000906467437744,-16,5897.0,-5.729249000549316,-59,9950.0
5850,0.3095652163028717,4.512727737426758,21,5897.0,-8.025473594665527,-155,9950.0
5860,0.3112501800060272,2.2799220085144043,78,5897.0,-8.806058883666992,-222,9950.0
5870,0.31124594807624817,1.347293734550476,23,5897.0,-11.788742065429688,-234,9950.0
5880,0.3117789626121521,3.081942081451416,57,5897.0,-12.888835906982422,-211,9950.0
5890,0.31179869174957275,1.7677041292190552,62,5897.0,-13.843452453613281,-134,9950.0
5900,0.3121832311153412,1.905103325843811,10,5897.0,-11.462961196899414,16,9950.0
5910,0.31235378980636597,0.4046704173088074,-12,5897.0,-9.366240501403809,-7,9950.0
5920,0.312410444021225,-1.513700008392334,-65,5897.0,-7.822952747344971,-55,9950.0
5930,0.31248486042022705,-4.199349403381348,-103,5897.0,-9.506119728088379,-44,9950.0
5940,0.3124610185623169,-2.0415542125701904,-52,5897.0,-10.465883255004883,-84,9950.0
5950,0.31430625915527344,-1.4517781734466553,-33,5897.0,-9.753138542175293,-130,9950.0
5960,0.3144434094429016,-2.106102705001831,-9,5897.0,-7.575441360473633,-138,9950.0
5970,0.3144766092300415,-1.6601078510284424,-16,5897.0,-2.3346524238586426,-79,9950.0
5980,0.31456243991851807,-0.002437232295051217,-38,5897.0,-3.2426419258117676,-76,9950.0
5990,0.31617164611816406,-0.5066636204719543,-26,5897.0,-2.850825309753418,-106,9950.0
6000,0.31625503301620483,0.13091789186000824,11,5897.0,-1.03350031375885,-144,9950.0
6010,0.31628477573394775,-0.2394932210445404,27,5897.0,-0.733430802822113,-165,9950.0
6020,0.3162784278392792,-3.2329962253570557,-49,5897.0,1.5906399488449097,-100,9950.0
6030,0.3162268400192261,-4.4771013259887695,-32,5897.0,-2.870056629180908,-163,9950.0
6040,0.317226767539978,-4.627083778381348,-84,5897.0,-5.266695499420166,-110,9950.0
6050,0.31718549132347107,-5.0555830001831055,-86,5897.0,-8.224287033081055,-85,9950.0
6060,0.3171110451221466,-6.261249542236328,-102,5897.0,-7.248915672302246,-92,9950.0
6070,0.31696823239326477,-6.872977256774902,-132,5897.0,-9.387001037597656,-95,9950.0
6080,0.31952351331710815,-6.464486598968506,-131,5897.0,-6.598452091217041,-86,9950.0
6090,0.31951215863227844,-6.023318290710449,-132,5897.0,-5.159626007080078,-71,9950.0
6100,0.3194550573825836,-4.531088829040527,-90,5897.0,-5.812112808227539,-77,9950.0
6110,0.3194247782230377,-2.764835834503174,-57,5897.0,-4.806231498718262,-86,9950.0
6120,0.3193979561328888,-0.30028554797172546,6,5897.0,-1.7086063623428345,-55,9950.0
6130,0.3199792802333832,0.08367834985256195,-1,5897.0,-0.7570004463195801,-34,9950.0
6140,0.31992238759994507,-0.6429031491279602,-27,5897.0,-0.012030189856886864,60,9950.0
6150,0.31985560059547424,-1.3791980743408203,-29,5897.0,-1.4732393026351929,-14,9950.0
6160,0.319785475730896,-2.712627649307251,-95,5897.0,0.8378555178642273,50,9950.0
6170,0.3205498158931732,-3.351472854614258,-110,5897.0,-3.1066629886627197,56,9950.0
6180,0.32052910327911377,-2.8272194862365723,-81,5897.0,-6.1927924156188965,16,9950.0
6190,0.32052135467529297,-3.597177743911743,-62,5897.0,-8.09847640991211,-59,9950.0
6200,0.32049477100372314,-4.415985584259033,-82,5897.0,-5.436665058135986,-38,9950.0
6210,0.320277601480484,-3.7661964893341064,-72,5897.0,-1.1256557703018188,-84,9950.0
6220,0.32024404406547546,-2.758148431777954,-29,5897.0,-1.8330532312393188,-26,9950.0
6230,0.32020536065101624,-1.510891318321228,-42,5897.0,1.3697998523712158,23,9950.0
6240,0.32015496492385864,-0.03557687625288963,-1,5897.0,4.6060333251953125,38,9950.0
6250,0.3200976550579071,-1.4298170804977417,0,5897.0,1.8332500457763672,-44,9950.0
6260,0.321175754070282,-0.31109997630119324,16,5897.0,5.718393802642822,69,9950.0
6270,0.32114744186401367,1.8237882852554321,32,5897.0,1.0155415534973145,80,9950.0
6280,0.32113024592399597,2.732440233230591,48,5897.0,-2.127903461456299,54,9950.0
6290,0.3211417496204376,0.5399539470672607,-16,5897.0,-2.6183717250823975,-1,9950.0
6300,0.3222143054008484,1.252297043800354,-10,5897.0,-5.476107120513916,-18,9950.0
6310,0.3222525715827942,-0.9046086668968201,-43,5897.0,-3.35111141204834,-10,9950.0
6320,0.3222663104534149,-1.473252773284912,-36,5897.0,-5.19760274887085,-56,9950.0
6330,0.32228925824165344,-3.1279678344726562,-51,5897.0,-3.7997584342956543,-59,9950.0
6340,0.3223254382610321,-3.3968629837036133,-48,5897.0,-0.008428547531366348,-5,9950.0
6350,0.3230311870574951,-0.768047571182251,-31,5897.0,0.9063522815704346,-127,9950.0
6360,0.32315653562545776,-2.1947081089019775,-29,5897.0,3.205742120742798,-89,9950.0
6370,0.32331573963165283,-2.5152440071105957,-28,5897.0,-0.5817069411277771,-62,9950.0
6380,0.3234594166278839,-5.143825054168701,-45,5897.0,5.318847179412842,11,9950.0
6390,0.3225511908531189,-5.415328502655029,-45,5897.0,2.4919519424438477,69,9950.0
6400,0.32253268361091614,-5.6982622146606445,-66,5897.0,1.1381653547286987,109,9950.0
6410,0.32243287563323975,-4.642747402191162,-75,5897.0,-0.6225458979606628,77,9950.0
6420,0.32229185104370117,-3.7007646560668945,-36,5897.0,-2.9575815200805664,40,9950.0
6430,0.3228423297405243,-2.01892352104187,-33,5897.0,-3.4583747386932373,-3,9950.0
6440,0.3227578103542328,-2.103288412094116,-27,5897.0,-3.806373357772827,24,9950.0
6450,0.32263919711112976,-2.3362085819244385,-50,5897.0,-3.883002281188965,8,9950.0
6460,0.3224688172340393,-0.7157297134399414,-25,5897.0,-0.435317724943161,21,9950.0
6470,0.3222426474094391,-0.7419605255126953,-24,5897.0,-0.2782396972179413,22,9950.0
6480,0.3232174515724182,-0.4905841648578644,-39,5897.0,1.4476590156555176,78,9950.0
6490,0.32309216260910034,-0.024302415549755096,-27,5897.0,1.5567890405654907,72,9950.0
6500,0.32295629382133484,-0.3759463429450989,-55,5897.0,3.369511842727661,141,9950.0
6510,0.3228340446949005,-2.92988657951355,-89,5897.0,3.012906074523926,168,9950.0
6520,0.3228071331977844,-2.264749050140381,-69,5897.0,5.307405948638916,156,9950.0
6530,0.32271870970726013,-1.3793234825134277,-100,5897.0,4.352338790893555,136,9950.0
6540,0.32267171144485474,-0.4383193552494049,-38,5897.0,1.1253893375396729,128,9950.0
6550,0.32263484597206116,-0.8633682727813721,-30,5897.0,-1.8256169557571411,71,9950.0
6560,0.32260969281196594,-1.6059784889221191,-69,5897.0,-3.261399507522583,78,9950.0
6570,0.323538213968277,1.2216062545776367,-35,5897.0,-4.974178791046143,43,9950.0
6580,0.32349443435668945,1.251735806465149,-11,5897.0,-3.4757814407348633,41,9950.0
6590,0.32346388697624207,1.3976765871047974,-26,5897.0,-3.2073726654052734,77,9950.0
6600,0.3234166204929352,0.9026095271110535,12,5897.0,1.3435163497924805,107,9950.0
6610,0.32320722937583923,2.5546329021453857,-30,5897.0,0.48897936940193176,144,9950.0
6620,0.3230806291103363,1.5896447896957397,-10,5897.0,2.761911392211914,155,9950.0
6630,0.32298052310943604,1.8351590633392334,-3,5897.0,0.3146136701107025,149,9950.0
6640,0.3229252099990845,-0.3488438129425049,-35,5897.0,-1.2159423828125,59,9950.0
6650,0.32330429553985596,-1.1821894645690918,-72,5897.0,-1.0284472703933716,18,9950.0
6660,0.32327449321746826,-3.1844522953033447,-85,5897.0,-0.24547138810157776,37,9950.0
6670,0.32320770621299744,-1.3738847970962524,-22,5897.0,-3.2405147552490234,-43,9950.0
6680,0.3231438994407654,0.9242708683013916,-11,5897.0,-1.4501633644104004,38,9950.0
6690,0.32305681705474854,2.003572702407837,-17,5897.0,-0.06274494528770447,74,9950.0
6700,0.32500043511390686,1.3563871383666992,-20,5897.0,-0.5869385004043579,39,9950.0
6710,0.3250797986984253,1.9940873384475708,-3,5897.0,2.1037938594818115,75,9950.0
6720,0.32512083649635315,0.6793776750564575,-14,5897.0,4.799869060516357,25,9950.0
6730,0.3251228332519531,-0.04293392226099968,-55,5897.0,3.8182902336120605,54,9950.0
6740,0.32465943694114685,-0.6429537534713745,-63,5897.0,5.370527267456055,24,9950.0
6750,0.3245430886745453,-1.1851556301116943,-21,5897.0,4.638514518737793,29,9950.0
6760,0.3244094252586365,0.21110732853412628,9,5897.0,5.104986667633057,35,9950.0
6770,0.3242826759815216,2.8954150676727295,39,5897.0,2.4607365131378174,-46,9950.0
6780,0.3242071270942688,3.4786434173583984,53,5897.0,-0.7778094410896301,-75,9950.0
6790,0.3272671699523926,2.691932439804077,63,5897.0,-1.4205718040466309,-148,9950.0
6800,0.3273369371891022,0.5538744926452637,21,5897.0,-3.641042470932007,-181,9950.0
6810,0.3273952603340149,-1.0737401247024536,71,5897.0,-1.0971593856811523,-228,9950.0
6820,0.32747235894203186,0.1987602263689041,36,5897.0,0.73633873462677,-123,9950.0
6830,0.32773521542549133,-2.487907648086548,36,5897.0,2.449584722518921,-61,9950.0
6840,0.3278535008430481,-1.2313750982284546,1,5897.0,1.783898115158081,-11,9950.0
6850,0.3279809355735779,-0.3920429050922394,8,5897.0,-1.3968963623046875,19,9950.0
6860,0.3280896544456482,0.1320158988237381,33,5897.0,0.863384485244751,16,9950.0
6870,0.3284851610660553,0.647162914276123,11,5897.0,2.245001792907715,84,9950.0
6880,0.3285917639732361,1.6890442371368408,13,5897.0,3.2892539501190186,151,9950.0
6890,0.3287036418914795,0.26134344935417175,-18,5897.0,2.597553253173828,118,9950.0
6900,0.32883891463279724,1.7316827774047852,10,5897.0,-0.6361985802650452,90,9950.0
6910,0.3289811909198761,1.1870782375335693,-14,5897.0,-1.215772032737732,11,9950.0
6920,0.33101144433021545,0.03994942829012871,-16,5897.0,-2.9668095111846924,-38,9950.0
6930,0.33116772770881653,0.9590420126914978,34,5897.0,-5.102513313293457,-52,9950.0
6940,0.33131512999534607,0.1170215979218483,21,5897.0,-5.417151927947998,-82,9950.0
6950,0.3314060866832733,1.281936526298523,23,5897.0,-1.0786255598068237,-90,9950.0
6960,0.33241939544677734,2.935763359069824,30,5897.0,-2.1476097106933594,-131,9950.0
6970,0.3325203061103821,2.6707284450531006,28,5897.0,-0.8615171313285828,-59,9950.0
6980,0.33261382579803467,2.261514902114868,1,5897.0,2.1246776580810547,28,9950.0
6990,0.33265575766563416,2.1203837394714355,27,5897.0,-0.08204907178878784,52,9950.0
7000,0.332488477230072,0.17718474566936493,-9,5897.0,0.49355751276016235,147,9950.0
7010,0.33246055245399475,-1.0856804847717285,-32,5897.0,2.4667766094207764,144,9950.0
7020,0.3325328230857849,-0.19529247283935547,-35,5897.0,-5.4508957862854,-1,9950.0
7030,0.3324905037879944,-1.2233892679214478,-51,5897.0,-3.253695487976074,-10,9950.0
7040,0.33243873715400696,-1.5952311754226685,-2,5897.0,-7.779439926147461,-118,9950.0
7050,0.3337878882884979,-1.3729792833328247,-3,5897.0,-9.238958358764648,-239,9950.0
7060,0.3337305188179016,-2.1154391765594482,16,5897.0,-7.426309585571289,-184,9950.0
7070,0.3337443470954895,-2.06278133392334,-5,5897.0,-6.4429779052734375,-171,9950.0
7080,0.3337237238883972,-1.0790458917617798,13,5897.0,-9.459420204162598,-231,9950.0
7090,0.3337875306606293,-1.4512388706207275,-13,5897.0,-3.2657461166381836,-82,9950.0
7100,0.33371490240097046,-1.8989466428756714,-36,5897.0,-1.5666685104370117,65,9950.0
7110,0.33362534642219543,-1.607564091682434,-57,5897.0,-0.20229466259479523,49,9950.0
7120,0.3335212171077728,-3.1360554695129395,-54,5897.0,2.231189489364624,88,9950.0
7130,0.3334111273288727,-3.7625935077667236,-63,5897.0,7.09773063659668,110,9950.0
7140,0.3335765600204468,-3.139380693435669,-29,5897.0,7.173020839691162,53,9950.0
7150,0.3334982991218567,-1.1922550201416016,-61,5897.0,9.89885425567627,52,9950.0
7160,0.33334842324256897,-1.8697932958602905,-11,5897.0,6.036043167114258,-63,9950.0
7170,0.3331959545612335,-4.62125301361084,-44,5897.0,2.07611346244812,-100,9950.0
7180,0.33419671654701233,-5.843993663787842,-65,5897.0,-0.24819041788578033,-100,9950.0
7190,0.33413901925086975,-4.544422626495361,-71,5897.0,-2.409362316131592,-67,9950.0
7200,0.33407291769981384,-3.4654476642608643,-39,5897.0,-1.8565798997879028,0,9950.0
7210,0.3340109586715698,-1.7836649417877197,-10,5897.0,-2.509995937347412,-21,9950.0
7220,0.33397147059440613,-0.5569992065429688,-32,5897.0,-2.629593849182129,27,9950.0
7230,0.3339071571826935,0.004072599112987518,12,5897.0,-0.8526003360748291,61,9950.0
7240,0.3338666558265686,4.904914379119873,4,5897.0,-2.4293172359466553,94,9950.0
7250,0.33383601903915405,3.1405653953552246,42,5897.0,3.4882090091705322,109,9950.0
7260,0.33380410075187683,3.4530558586120605,39,5897.0,4.981781482696533,93,9950.0
7270,0.3346560001373291,1.3838386535644531,23,5897.0,6.843072891235352,102,9950.0
7280,0.3346483111381531,-0.27606746554374695,-23,5897.0,5.164504051208496,62,9950.0
7290,0.33460769057273865,-1.1815884113311768,-21,5897.0,5.9592695236206055,9,9950.0
7300,0.3345731794834137,-3.0091657638549805,1,5897.0,3.131545305252075,-78,9950.0
7310,0.3339241147041321,-2.349616050720215,12,5897.0,3.692103624343872,-85,9950.0
7320,0.33392977714538574,-2.3381054401397705,41,5897.0,-0.6696199178695679,-60,9950.0
7330,0.33391129970550537,-0.2622085511684418,11,5897.0,-1.817623257637024,-21,9950.0
7340,0.3338431119918823,-1.225334644317627,37,5897.0,0.1810552328824997,-50,9950.0
7350,0.3337225615978241,-0.28152337670326233,15,5897.0,1.0679094791412354,1,9950.0
7360,0.33372268080711365,0.6354157328605652,72,5897.0,-0.9101678729057312,32,9950.0
7370,0.33357924222946167,2.611901044845581,50,5897.0,3.1906626224517822,19,9950.0
7380,0.33342334628105164,2.659437417984009,-16,5897.0,1.264266014099121,113,9950.0
7390,0.33322030305862427,3.5807619094848633,15,5897.0,0.9014784097671509,44,9950.0
7400,0.3337623178958893,2.252126932144165,-9,5897.0,1.354116439819336,62,9950.0
7410,0.33352744579315186,0.4346117377281189,12,5897.0,-0.6532901525497437,-28,9950.0
7420,0.3332466185092926,1.2111066579818726,-18,5897.0,-1.6281330585479736,21,9950.0
7430,0.33296993374824524,-0.8023199439048767,-17,5897.0,-0.0020762369967997074,-29,9950.0
7440,0.3332032561302185,-0.3669423460960388,1,5897.0,-0.20609211921691895,-59,9950.0
7450,0.332987904548645,-1.1467525959014893,-11,5897.0,0.8751667141914368,-95,9950.0
7460,0.33278337121009827,-2.7622182369232178,-25,5897.0,2.7950327396392822,-27,9950.0
7470,0.3325759470462799,-1.445914387702942,-25,5897.0,3.330226182937622,2,9950.0
7480,0.3323734700679779,-1.9015742540359497,17,5897.0,1.723146677017212,61,9950.0
7490,0.33331233263015747,-0.5674957633018494,16,5897.0,1.7791980504989624,-42,9950.0
7500,0.3332529664039612,-1.2958080768585205,16,5897.0,4.616872787475586,-46,9950.0
7510,0.33317312598228455,-1.3124198913574219,17,5897.0,5.882440567016602,-7,9950.0
7520,0.3331354558467865,-0.5502766370773315,18,5897.0,7.41074275970459,55,9950.0
7530,0.33269962668418884,0.3670753240585327,29,5897.0,4.944997310638428,28,9950.0
7540,0.3326481878757477,1.9410688877105713,-4,5897.0,2.8252720832824707,0,9950.0
7550,0.332590788602829,1.5646988153457642,40,5897.0,-2.034560203552246,-71,9950.0
7560,0.3325467109680176,2.448383092880249,18,5897.0,-2.273367166519165,12,9950.0
7570,0.33455008268356323,0.27383312582969666,0,5897.0,-1.48091721534729,94,9950.0
7580,0.3346360921859741,0.8931533694267273,-20,5897.0,-1.520181655883789,95,9950.0
7590,0.3346779942512512,0.1577744483947754,-23,5897.0,-1.8745388984680176,94,9950.0
7600,0.33470800518989563,1.87563955783844,12,5897.0,-4.530782222747803,105,9950.0
7610,0.3347213566303253,0.7224330902099609,33,5897.0,-1.554229736328125,55,9950.0
7620,0.3371731638908386,0.3185258209705353,10,5897.0,-0.26308542490005493,-72,9950.0
7630,0.3373050391674042,-0.12670008838176727,-12,5897.0,2.5253090858459473,46,9950.0
7640,0.33743584156036377,0.4694834053516388,-8,5897.0,2.2597568035125732,-33,9950.0
7650,0.3375934958457947,-1.1850858926773071,-55,5897.0,3.133443593978882,-65,9950.0
7660,0.3389952778816223,-3.174654483795166,-8,5897.0,1.529729962348938,-135,9950.0
7670,0.3392406702041626,-2.641879081726074,-23,5897.0,3.072964906692505,-75,9950.0
7680,0.33945247530937195,-0.24600598216056824,6,5897.0,1.035815954208374,92,9950.0
7690,0.3396715521812439,-0.14909039437770844,10,5897.0,2.353076934814453,71,9950.0
7700,0.3398793339729309,1.5797970294952393,28,5897.0,-1.4681485891342163,47,9950.0
7710,0.3405095040798187,1.8395004272460938,-3,5897.0,-2.6643292903900146,57,9950.0
7720,0.34074676036834717,3.732262372970581,65,5897.0,-1.434902548789978,78,9950.0
7730,0.340960294008255,2.734480619430542,79,5897.0,-0.6904243230819702,-17,9950.0
7740,0.3411896228790283,3.496692657470703,109,5897.0,-4.382669448852539,-151,9950.0
7750,0.3408234119415283,4.081289768218994,94,5897.0,-4.590540885925293,-135,9950.0
7760,0.3409081697463989,3.1253836154937744,85,5897.0,-4.22880220413208,-63,9950.0
7770,0.3409460186958313,4.35236930847168,98,5897.0,-4.374200820922852,-28,9950.0
7780,0.3409764766693115,4.46339750289917,118,5897.0,-2.8426754474639893,26,9950.0
7790,0.34209856390953064,5.503823757171631,71,5897.0,-3.9707298278808594,45,9950.0
7800,0.34209638833999634,4.482370853424072,64,5897.0,-1.9664897918701172,11,9950.0
7810,0.34202829003334045,3.8058507442474365,79,5897.0,-1.188943862915039,-84,9950.0
7820,0.34190452098846436,3.330519914627075,55,5897.0,-0.00018149295647162944,-38,9950.0
7830,0.3417567014694214,1.0736899375915527,9,5897.0,0.937106192111969,65,9950.0
7840,0.3432810604572296,-0.1948869526386261,10,5897.0,-0.3433369994163513,-1,9950.0
7850,0.3432048261165619,-1.0742948055267334,-36,5897.0,-2.2448971271514893,77,9950.0
7860,0.34311795234680176,-0.6819636821746826,-52,5897.0,-4.404181003570557,80,9950.0
7870,0.3430417478084564,-0.9316185712814331,-35,5897.0,-1.4205365180969238,60,9950.0
7880,0.3429601490497589,-2.7396743297576904,-34,5897.0,-1.7011728286743164,-46,9950.0
7890,0.34283527731895447,-1.5778180360794067,-31,5897.0,-4.195147514343262,-123,9950.0
7900,0.34267574548721313,-1.917101502418518,-50,5897.0,-2.033389091491699,-135,9950.0
7910,0.3424907624721527,-3.04582142829895,-52,5897.0,1.4486228227615356,-44,9950.0
7920,0.3423025906085968,-4.481330394744873,-86,5897.0,0.8486348986625671,77,9950.0
7930,0.3428070545196533,-2.3598430156707764,-58,5897.0,1.9788196086883545,117,9950.0
7940,0.3426417112350464,-2.51444673538208,-65,5897.0,4.6704912185668945,100,9950.0
7950,0.34243565797805786,-4.077916622161865,-76,5897.0,6.952294826507568,160,9950.0
7960,0.3421596884727478,-2.7866768836975098,-72,5897.0,4.931978702545166,70,9950.0
7970,0.3427180051803589,-2.5787734985351562,-44,5897.0,3.274000406265259,-33,9950.0
7980,0.3424059748649597,-1.1765227317810059,-4,5897.0,0.5454739332199097,-118,9950.0
7990,0.3420901298522949,-2.3740622997283936,22,5897.0,1.7008424997329712,-66,9950.0
8000,0.3417697548866272,-0.8730588555335999,-12,5897.0,-3.8029532432556152,-31,9950.0
8010,0.3424566686153412,-2.2247297763824463,-15,5897.0,-2.415172576904297,-26,9950.0
8020,0.3422374427318573,-1.7545416355133057,-2,5897.0,-2.342630624771118,-83,9950.0
8030,0.3420414328575134,-2.3074254989624023,-20,5897.0,1.9933334589004517,81,9950.0
8040,0.3418222963809967,-0.7417527437210083,22,5897.0,0.9901736974716187,103,9950.0
8050,0.3415937125682831,-0.5916341543197632,-28,5897.0,4.547201156616211,92,9950.0
8060,0.34191587567329407,-0.2054712176322937,-41,5897.0,1.204530954360962,14,9950.0
8070,0.34168991446495056,-2.5619394779205322,-16,5897.0,2.8541200160980225,-19,9950.0
8080,0.34145042300224304,-4.361594200134277,-36,5897.0,2.4675214290618896,-25,9950.0
8090,0.34121230244636536,-4.231408596038818,-72,5897.0,-1.540313720703125,-64,9950.0
8100,0.34059107303619385,-2.755600690841675,-10,5897.0,-2.3755407333374023,-115,9950.0
8110,0.34033647179603577,-3.9589779376983643,-53,5897.0,-0.7431832551956177,-66,9950.0
8120,0.34008219838142395,-3.856947898864746,-35,5897.0,-1.02574622631073,-82,9950.0
8130,0.33984339237213135,-3.5030899047851562,-73,5897.0,0.790542483329773,4,9950.0
8140,0.3396569788455963,-0.5036429166793823,-32,5897.0,1.9469866752624512,18,9950.0
8150,0.3400326669216156,0.06319818645715714,8,5897.0,0.23705917596817017,90,9950.0
8160,0.33993223309516907,-0.31445950269699097,-3,5897.0,-0.36454516649246216,35,9950.0
8170,0.3398699164390564,-1.7505956888198853,-38,5897.0,-0.570821225643158,38,9950.0
8180,0.33982542157173157,-1.9835944175720215,-76,5897.0,0.43313947319984436,78,9950.0
8190,0.3405801057815552,-2.5447216033935547,-35,5897.0,-0.7696760892868042,27,9950.0
8200,0.34059855341911316,-1.675222635269165,-55,5897.0,-2.928091287612915,15,9950.0
8210,0.34057921171188354,1.2885808944702148,-5,5897.0,-4.832002639770508,-15,9950.0
8220,0.3405790328979492,0.7052553296089172,10,5897.0,-3.190732955932617,5,9950.0
8230,0.3411208391189575,2.435293197631836,56,5897.0,-3.013270854949951,-63,9950.0
8240,0.34114769101142883,2.2525222301483154,40,5897.0,0.03467519208788872,-60,9950.0
8250,0.34113791584968567,2.8566207885742188,35,5897.0,0.7169548869132996,-30,9950.0
8260,0.34110453724861145,2.7870187759399414,49,5897.0,0.5913686752319336,-43,9950.0
8270,0.3410329520702362,1.68832266330719,41,5897.0,1.6546725034713745,-53,9950.0
8280,0.3413042426109314,0.8004837036132812,42,5897.0,6.08540153503418,-4,9950.0
8290,0.3411997854709625,1.602876901626587,41,5897.0,1.727083444595337,20,9950.0
8300,0.34108966588974,0.9602031111717224,32,5897.0,3.8756439685821533,53,9950.0
8310,0.3409844636917114,0.246605783700943,17,5897.0,1.537288784980774,30,9950.0
8320,0.3417717218399048,0.2495308667421341,-12,5897.0,-2.316880941390991,90,9950.0
8330,0.34179726243019104,1.3469915390014648,-13,5897.0,-2.3821523189544678,72,9950.0
8340,0.3417869508266449,3.6618778705596924,-1,5897.0,-8.022687911987305,25,9950.0
8350,0.34173306822776794,3.9737727642059326,41,5897.0,-5.37090539932251,-18,9950.0
8360,0.343352347612381,3.0576236248016357,50,5897.0,-4.4891252517700195,-44,9950.0
8370,0.3433745205402374,1.9555387496948242,18,5897.0,-2.980609655380249,-27,9950.0
8380,0.3433663249015808,2.4265196323394775,41,5897.0,3.3393239974975586,-34,9950.0
8390,0.34335169196128845,3.6977949142456055,79,5897.0,0.8322287201881409,-122,9950.0
8400,0.34329953789711,1.2764662504196167,50,5897.0,1.3972548246383667,-113,9950.0
8410,0.3442947268486023,1.9514583349227905,82,5897.0,1.1400177478790283,-83,9950.0
8420,0.3442665934562683,1.9348348379135132,62,5897.0,-0.6448957920074463,-28,9950.0
8430,0.3442167043685913,4.246342658996582,62,5897.0,2.3978891372680664,114,9950.0
8440,0.3441665470600128,3.1843101978302,55,5897.0,-0.5135841369628906,88,9950.0
8450,0.3452538847923279,1.2941259145736694,20,5897.0,1.071699857711792,109,9950.0
8460,0.3452451527118683,1.363906741142273,-7,5897.0,-0.07966147363185883,17,9950.0
8470,0.3452358543872833,-0.9548033475875854,12,5897.0,1.4258859157562256,-14,9950.0
8480,0.34521809220314026,-1.751947045326233,8,5897.0,0.2310725301504135,-62,9950.0
8490,0.3451681137084961,-1.0910898447036743,0,5897.0,4.092926502227783,-33,9950.0
8500,0.3450169861316681,-0.10081294178962708,-2,5897.0,3.938159465789795,-1,9950.0
8510,0.34491586685180664,1.4590388536453247,55,5897.0,2.4587087631225586,35,9950.0
8520,0.3448314666748047,1.1501479148864746,1,5897.0,3.3926920890808105,112,9950.0
8530,0.34471428394317627,4.226102352142334,25,5897.0,-0.7899453639984131,98,9950.0
8540,0.3459765613079071,4.004134654998779,31,5897.0,0.7257261872291565,94,9950.0
8550,0.34594428539276123,2.828500270843506,30,5897.0,-1.5803426504135132,33,9950.0
8560,0.3458915948867798,1.66444730758667,-2,5897.0,-1.1053736209869385,-25,9950.0
8570,0.3458271026611328,1.239676594734192,-16,5897.0,-3.7205164432525635,-206,9950.0
8580,0.3470257818698883,0.3443671762943268,13,5897.0,-3.5716793537139893,-215,9950.0
8590,0.3470234274864197,-0.8235135078430176,-20,5897.0,-4.350662708282471,-134,9950.0
8600,0.3470119833946228,-1.2256147861480713,7,5897.0,-0.5174787044525146,29,9950.0
8610,0.34696897864341736,0.03978456184267998,3,5897.0,1.141202449798584,49,9950.0
8620,0.3469270169734955,1.1776230335235596,-10,5897.0,2.432708263397217,133,9950.0
8630,0.3485150635242462,-0.47335004806518555,27,5897.0,1.633202314376831,30,9950.0
8640,0.34852758049964905,-0.7323470711708069,16,5897.0,8.177358627319336,53,9950.0
8650,0.34849733114242554,-0.3575870096683502,14,5897.0,7.18696928024292,74,9950.0
8660,0.34842655062675476,-1.018149495124817,31,5897.0,5.494134902954102,28,9950.0
8670,0.3493957817554474,-0.8636733293533325,-25,5897.0,2.769554615020752,70,9950.0
8680,0.3493707478046417,-0.12781204283237457,31,5897.0,-0.5537806153297424,35,9950.0
8690,0.3492995798587799,-0.1436566859483719,-30,5897.0,-3.0310964584350586,-64,9950.0
8700,0.34919461607933044,1.8740863800048828,16,5897.0,-5.793917179107666,-175,9950.0
8710,0.3490515649318695,-0.15298329293727875,44,5897.0,-4.053708076477051,-170,9950.0
8720,0.3508772850036621,1.7388514280319214,43,5897.0,-2.7430880069732666,-83,9950.0
8730,0.350783109664917,2.4185938835144043,58,5897.0,-3.6064412593841553,23,9950.0
8740,0.35067594051361084,-0.4026089608669281,-13,5897.0,-1.4832104444503784,66,9950.0
8750,0.350547194480896,0.39961275458335876,-39,5897.0,0.07803839445114136,157,9950.0
8760,0.35143718123435974,-3.4213080406188965,-34,5897.0,5.514482498168945,86,9950.0
8770,0.3513268530368805,-3.6529452800750732,-63,5897.0,5.948973655700684,103,9950.0
8780,0.3511897921562195,-4.241824150085449,-40,5897.0,6.918614387512207,74,9950.0
8790,0.35101819038391113,-5.040663719177246,-86,5897.0,6.851375102996826,129,9950.0
8800,0.35087981820106506,-2.0686898231506348,-52,5897.0,3.146827459335327,134,9950.0
8810,0.35065487027168274,-1.8697707653045654,-68,5897.0,1.7135789394378662,109,9950.0
8820,0.3504250943660736,-1.851998209953308,-26,5897.0,-0.06142508238554001,-24,9950.0
8830,0.3501524031162262,-2.8344547748565674,-36,5897.0,-4.362517833709717,-228,9950.0
8840,0.3498370945453644,-1.735987663269043,-35,5897.0,-5.568419456481934,-151,9950.0
8850,0.3487299382686615,-0.4728657603263855,-4,5897.0,-8.293828964233398,-179,9950.0
8860,0.3482772707939148,-0.37730908393859863,-41,5897.0,-4.765224456787109,-83,9950.0
8870,0.34779655933380127,-0.7261508703231812,-29,5897.0,-5.646576404571533,-13,9950.0
8880,0.34729573130607605,0.8733423948287964,-23,5897.0,-0.3485400974750519,77,9950.0
8890,0.3488885164260864,-1.8990397453308105,-36,5897.0,1.0241694450378418,106,9950.0
8900,0.3485192358493805,-2.641605854034424,-75,5897.0,9.464229583740234,158,9950.0
8910,0.34815818071365356,-4.266886234283447,-36,5897.0,10.673247337341309,17,9950.0
8920,0.34777936339378357,-6.749383926391602,-65,5897.0,6.092574119567871,9,9950.0
8930,0.3472655117511749,-6.873176574707031,-82,5897.0,5.747712135314941,63,9950.0
8940,0.3468625545501709,-4.7268595695495605,-67,5897.0,3.2339487075805664,84,9950.0
8950,0.3464309573173523,-4.734632968902588,-64,5897.0,1.7165279388427734,123,9950.0
8960,0.3459893763065338,-3.4737908840179443,-61,5897.0,1.4660438299179077,106,9950.0
8970,0.3456194996833801,-1.5605651140213013,-5,5897.0,-0.2881457507610321,66,9950.0
8980,0.3446097671985626,0.9126599431037903,5,5897.0,-3.2966408729553223,-21,9950.0
8990,0.34421342611312866,1.8725738525390625,0,5897.0,-2.892752170562744,46,9950.0
9000,0.34382563829421997,1.2931928634643555,-27,5897.0,-3.3014883995056152,-40,9950.0
9010,0.3434511125087738,-1.4697736501693726,-10,5897.0,-0.37276309728622437,-18,9950.0
9020,0.34503263235092163,-1.179133415222168,-11,5897.0,0.2529444098472595,-64,9950.0
9030,0.34481173753738403,-2.226513385772705,-14,5897.0,-3.0411558151245117,-59,9950.0
9040,0.34459009766578674,-1.4528260231018066,-4,5897.0,2.7135274410247803,-82,9950.0
9050,0.3443835973739624,-1.2679224014282227,5,5897.0,5.567641735076904,1,9950.0
9060,0.34420931339263916,-1.1519695520401,-9,5897.0,4.0959272384643555,54,9950.0
9070,0.3443586826324463,-0.9723218679428101,13,5897.0,6.026169300079346,76,9950.0
9080,0.34423527121543884,-0.6067097783088684,-1,5897.0,2.3420979976654053,76,9950.0
9090,0.3442085087299347,-0.031248819082975388,-10,5897.0,-0.213715061545372,87,9950.0
9100,0.3441708981990814,0.11456786841154099,-18,5897.0,-2.431580066680908,84,9950.0
9110,0.34407922625541687,-0.6378666162490845,-37,5897.0,-4.326417922973633,65,9950.0
9120,0.34405651688575745,-0.2126539647579193,-30,5897.0,-1.4170953035354614,35,9950.0
9130,0.3440541923046112,-0.7448424100875854,-2,5897.0,-2.402590274810791,-17,9950.0
9140,0.34403789043426514,0.030538752675056458,-28,5897.0,1.8654170036315918,9,9950.0
9150,0.3432340621948242,1.5281574726104736,-13,5897.0,4.700189113616943,50,9950.0
9160,0.3431629538536072,2.6715164184570312,52,5897.0,7.0552449226379395,21,9950.0
9170,0.34310856461524963,3.575610637664795,99,5897.0,6.7439656257629395,-74,9950.0
9180,0.34302863478660583,2.1306354999542236,83,5897.0,7.1119065284729,61,9950.0
9190,0.3429264724254608,5.070501327514648,62,5897.0,2.4710543155670166,77,9950.0
9200,0.34484848380088806,3.680168867111206,73,5897.0,-1.5255999565124512,56,9950.0
9210,0.3448435664176941,1.661896824836731,35,5897.0,-0.8590370416641235,36,9950.0
9220,0.34484201669692993,1.4337564706802368,33,5897.0,-2.290410280227661,62,9950.0
9230,0.3448488712310791,1.8550939559936523,-22,5897.0,-3.2798798084259033,28,9950.0
9240,0.34694159030914307,0.8996444344520569,5,5897.0,-3.0511891841888428,-4,9950.0
9250,0.3471117317676544,2.079542398452759,38,5897.0,-1.1327778100967407,-114,9950.0
9260,0.3472820222377777,3.061716079711914,87,5897.0,-0.572325587272644,-62,9950.0
9270,0.34744417667388916,4.639427661895752,73,5897.0,-2.1924312114715576,-85,9950.0
9280,0.34759989380836487,4.429271697998047,53,5897.0,-0.9710997939109802,-145,9950.0
9290,0.34830790758132935,3.6168971061706543,60,5897.0,0.8168492913246155,-45,9950.0
9300,0.3484743535518646,3.702193260192871,30,5897.0,-0.27104389667510986,44,9950.0
9310,0.3486049771308899,-0.25145334005355835,-22,5897.0,3.4774062633514404,96,9950.0
9320,0.3487098217010498,-2.2445268630981445,-58,5897.0,2.179874897003174,34,9950.0
9330,0.34848836064338684,-2.2006850242614746,-27,5897.0,4.81660270690918,-10,9950.0
9340,0.34849920868873596,-3.2945947647094727,2,5897.0,5.9161224365234375,-19,9950.0
9350,0.34847965836524963,-3.4480490684509277,-40,5897.0,2.9685094356536865,26,9950.0
9360,0.3484269082546234,-2.21799635887146,-68,5897.0,2.97357177734375,83,9950.0
9370,0.3497841954231262,-1.9751709699630737,-82,5897.0,1.4862964153289795,62,9950.0
9380,0.34974026679992676,-1.5746015310287476,-33,5897.0,-0.709217369556427,-94,9950.0
9390,0.3497256636619568,0.01194735523313284,11,5897.0,-5.386611461639404,-110,9950.0
9400,0.3496870696544647,2.387922763824463,23,5897.0,-6.147551536560059,-246,9950.0
9410,0.34965553879737854,3.165696859359741,63,5897.0,-8.344682693481445,-205,9950.0
9420,0.3509760797023773,4.616823673248291,53,5897.0,-6.855607032775879,-59,9950.0
9430,0.35101640224456787,4.436471462249756,63,5897.0,-3.8186635971069336,22,9950.0
9440,0.35102176666259766,3.50111985206604,48,5897.0,-2.346621513366699,53,9950.0
9450,0.3510122001171112,3.3962693214416504,68,5897.0,0.10874633491039276,-63,9950.0
9460,0.34940624237060547,3.1403424739837646,58,5897.0,4.590496063232422,3,9950.0
9470,0.34932804107666016,-0.1370953470468521,24,5897.0,3.7430691719055176,5,9950.0
9480,0.34920328855514526,2.2256975173950195,17,5897.0,0.46447280049324036,27,9950.0
9490,0.34904372692108154,-0.1596709042787552,-21,5897.0,-0.9404647946357727,69,9950.0
9500,0.34886085987091064,-2.3700530529022217,-62,5897.0,-0.6104844808578491,58,9950.0
9510,0.3503095209598541,-1.4786231517791748,-27,5897.0,0.49816733598709106,10,9950.0
9520,0.350201278924942,-3.3554511070251465,4,5897.0,1.3336970806121826,-56,9950.0
9530,0.3500807285308838,-2.1593451499938965,-14,5897.0,-0.6346824765205383,-64,9950.0
9540,0.34997332096099854,-1.9296119213104248,-39,5897.0,2.1962859630584717,9,9950.0
9550,0.35064029693603516,-1.3888591527938843,1,5897.0,-0.7123269438743591,85,9950.0
9560,0.3506162762641907,1.1218572854995728,8,5897.0,-2.8602278232574463,6,9950.0
9570,0.3504719138145447,2.6780924797058105,20,5897.0,-4.2485456466674805,8,9950.0
9580,0.35028067231178284,-0.3361724615097046,38,5897.0,-4.626203536987305,-115,9950.0
9590,0.3504813611507416,-0.16751031577587128,44,5897.0,-3.8642923831939697,-156,9950.0
9600,0.3503105640411377,1.0877516269683838,24,5897.0,-2.6013762950897217,-61,9950.0
9610,0.3501425087451935,0.6352486610412598,-16,5897.0,-2.1673452854156494,9,9950.0
9620,0.3498091995716095,-2.2722344398498535,-6,5897.0,-5.6894989013671875,-6,9950.0
9630,0.34956860542297363,-2.169842004776001,-35,5897.0,-1.7337242364883423,62,9950.0
9640,0.3502318859100342,-1.0991243124008179,-4,5897.0,-2.9848906993865967,-13,9950.0
9650,0.3499147891998291,-3.364412546157837,0,5897.0,-3.1259102821350098,-100,9950.0
9660,0.34952476620674133,-2.752728223800659,34,5897.0,-5.177897930145264,-119,9950.0
9670,0.3493277430534363,-1.992564082145691,29,5897.0,-7.683204174041748,-219,9950.0
9680,0.34986650943756104,-1.4290060997009277,11,5897.0,-9.017655372619629,-113,9950.0
9690,0.34964674711227417,-0.11437106877565384,6,5897.0,-7.176461696624756,-140,9950.0
9700,0.3494247496128082,0.587748646736145,-6,5897.0,-6.76877498626709,13,9950.0
9710,0.3491842746734619,-0.03887195140123367,-24,5897.0,-4.859492301940918,36,9950.0
9720,0.34933117032051086,-0.8189606070518494,-49,5897.0,0.8276002407073975,33,9950.0
9730,0.34907692670822144,-1.124593734741211,-3,5897.0,1.2402907609939575,38,9950.0
9740,0.34883618354797363,-1.354787826538086,-3,5897.0,2.7912416458129883,25,9950.0
9750,0.34860560297966003,-2.121744394302368,-49,5897.0,3.3035967350006104,26,9950.0
9760,0.3484094440937042,-2.022883415222168,-27,5897.0,4.323775291442871,23,9950.0
9770,0.34768742322921753,-1.2238050699234009,3,5897.0,3.4491679668426514,-87,9950.0
9780,0.34755513072013855,-2.061152458190918,-17,5897.0,1.2961816787719727,-106,9950.0
9790,0.3474219739437103,-1.845735788345337,-17,5897.0,-0.751483142375946,-40,9950.0
9800,0.3473598062992096,-0.761589527130127,-7,5897.0,-1.3415287733078003,-17,9950.0
9810,0.3479689359664917,-0.2724589705467224,-16,5897.0,0.8609793186187744,52,9950.0
9820,0.34792572259902954,-1.4270397424697876,-22,5897.0,0.19022029638290405,58,9950.0
9830,0.3478820323944092,0.11846976727247238,-6,5897.0,0.3163227140903473,176,9950.0
9840,0.34781861305236816,0.913188636302948,-25,5897.0,-3.8533554077148438,62,9950.0
9850,0.3477608263492584,1.1866616010665894,-3,5897.0,-2.0344769954681396,49,9950.0
9860,0.34781166911125183,2.32647967338562,28,5897.0,2.017240524291992,68,9950.0
9870,0.3477812111377716,2.566406011581421,39,5897.0,6.102256774902344,30,9950.0
9880,0.34776023030281067,1.3514580726623535,-9,5897.0,4.291041851043701,-29,9950.0
9890,0.34773823618888855,-1.6230876445770264,19,5897.0,6.319645404815674,-43,9950.0
9900,0.3478368818759918,-2.450174570083618,-12,5897.0,7.497488975524902,20,9950.0
9910,0.3478239178657532,-2.962301015853882,13,5897.0,1.4201987981796265,7,9950.0
9920,0.347827672958374,-2.4604239463806152,-12,5897.0,3.7834248542785645,83,9950.0
9930,0.3477715253829956,0.07339661568403244,28,5897.0,1.5560717582702637,31,9950.0
9940,0.3482164740562439,3.501861572265625,62,5897.0,-1.8095736503601074,67,9950.0
9950,0.34816455841064453,4.411173343658447,67,5897.0,-3.1641883850097656,34,9950.0
9960,0.3480921685695648,5.211946487426758,79,5897.0,-3.598663568496704,38,9950.0
9970,0.34800440073013306,4.245540618896484,72,5897.0,-0.36924776434898376,-57,9950.0
9980,0.347891628742218,3.721647024154663,64,5897.0,-2.0079524517059326,-108,9950.0
9990,0.3490193784236908,0.5906998515129089,19,5897.0,3.0697102546691895,1,9950.0
10000,0.34895795583724976,0.9835916757583618,26,5897.0,1.5207208395004272,-52,9950.0
10010,0.34884607791900635,-0.001636097556911409,-51,5897.0,2.2611279487609863,6,9950.0
10020,0.34871283173561096,-2.4957778453826904,-19,5897.0,1.4047244787216187,44,9950.0
10030,0.3499305248260498,-1.0093518495559692,-12,5897.0,0.5754092931747437,105,9950.0
10040,0.349824458360672,-0.7149989604949951,-53,5897.0,0.3344809114933014,79,9950.0
10050,0.34969526529312134,0.16839055716991425,-63,5897.0,-0.7457566857337952,34,9950.0
10060,0.3495631217956543,0.7527515292167664,8,5897.0,-0.1567365825176239,41,9950.0
10070,0.3493950366973877,0.37414613366127014,-6,5897.0,1.1492335796356201,-34,9950.0
10080,0.3510597348213196,-0.025350766256451607,-36,5897.0,2.9410717487335205,-83,9950.0
10090,0.35094889998435974,-1.4718456268310547,-5,5897.0,5.782551288604736,-35,9950.0
10100,0.35081788897514343,-1.2333297729492188,2,5897.0,3.1598734855651855,-35,9950.0
10110,0.35066336393356323,0.7342636585235596,22,5897.0,1.1045663356781006,42,9950.0
10120,0.3514255881309509,1.3961058855056763,18,5897.0,2.5317888259887695,108,9950.0
10130,0.35131651163101196,0.9031385779380798,16,5897.0,2.8092727661132812,156,9950.0
10140,0.35119086503982544,0.4749557673931122,-4,5897.0,6.597550868988037,160,9950.0
10150,0.35104984045028687,-0.046436671167612076,-28,5897.0,3.4636292457580566,102,9950.0
10160,0.35055455565452576,0.08788450062274933,5,5897.0,1.5625542402267456,81,9950.0
10170,0.35039493441581726,0.8895900249481201,9,5897.0,0.6909475326538086,6,9950.0
10180,0.35016709566116333,1.3917065858840942,57,5897.0,-2.9924628734588623,-107,9950.0
10190,0.34990057349205017,-0.33704620599746704,23,5897.0,-1.1919037103652954,-98,9950.0
10200,0.3496006727218628,0.7524359822273254,7,5897.0,-4.256493091583252,-94,9950.0
10210,0.3510104715824127,-0.1004689410328865,8,5897.0,-3.2893118858337402,-67,9950.0
10220,0.3507215678691864,0.8840922117233276,-24,5897.0,-6.886059284210205,-35,9950.0
10230,0.35044005513191223,-0.1561749428510666,-5,5897.0,-1.857797384262085,61,9950.0
10240,0.3501061499118805,-0.3611479699611664,-11,5897.0,0.5096603035926819,50,9950.0
10250,0.3509155511856079,0.16862355172634125,-37,5897.0,3.591782569885254,107,9950.0
10260,0.3506465256214142,-2.830624580383301,2,5897.0,4.453693866729736,-35,9950.0
10270,0.3503727316856384,-1.134814739227295,-28,5897.0,8.758881568908691,218,9950.0
10280,0.3501034080982208,-1.1063849925994873,-7,5897.0,5.5751519203186035,113,9950.0
10290,0.34986552596092224,-2.060746908187866,-51,5897.0,5.624403953552246,136,9950.0
10300,0.3513156771659851,-1.9673779010772705,-2,5897.0,2.8406224250793457,123,9950.0
10310,0.3511393368244171,-1.6474928855895996,-33,5897.0,1.1518666744232178,89,9950.0
10320,0.35093098878860474,-1.2638843059539795,-46,5897.0,-1.1830570697784424,62,9950.0
10330,0.3506716191768646,-0.5317049622535706,25,5897.0,-1.6531468629837036,-1,9950.0
10340,0.3521151840686798,2.133033275604248,34,5897.0,-2.8457517623901367,-9,9950.0
10350,0.35188597440719604,2.8560898303985596,75,5897.0,0.27147799730300903,-103,9950.0
10360,0.35162830352783203,3.06997013092041,34,5897.0,2.672328233718872,-19,9950.0
10370,0.35136428475379944,2.2593414783477783,43,5897.0,2.0542492866516113,45,9950.0
10380,0.351450651884079,3.5060174465179443,27,5897.0,-1.6779636144638062,46,9950.0
10390,0.35121214389801025,2.8472964763641357,28,5897.0,-0.44524654746055603,29,9950.0
10400,0.3509617745876312,0.45175689458847046,-6,5897.0,1.4097479581832886,48,9950.0
10410,0.35066258907318115,-1.1139401197433472,4,5897.0,2.495769739151001,-85,9950.0
10420,0.3503764867782593,-2.3473317623138428,-36,5897.0,1.6438500881195068,-102,9950.0
10430,0.3515581786632538,-2.6872951984405518,-56,5897.0,-1.4551515579223633,-6,9950.0
10440,0.351357102394104,-3.2377216815948486,-56,5897.0,-2.5595004558563232,-1,9950.0
10450,0.3511449694633484,-3.6047773361206055,-71,5897.0,-3.009868860244751,57,9950.0
10460,0.35093358159065247,-1.3515383005142212,-24,5897.0,-1.1468675136566162,-5,9950.0
10470,0.3524567782878876,-1.3144140243530273,9,5897.0,-0.46866145730018616,-57,9950.0
10480,0.35231414437294006,-0.15018115937709808,52,5897.0,-1.0642060041427612,-111,9950.0
10490,0.3521611988544464,-0.35836488008499146,25,5897.0,-0.1730208843946457,-49,9950.0
10500,0.3519955575466156,-1.1655782461166382,12,5897.0,1.6968849897384644,118,9950.0
10510,0.3518100380897522,-0.6371890306472778,-33,5897.0,0.697775661945343,107,9950.0
10520,0.35375601053237915,-0.24757248163223267,-6,5897.0,-2.5609476566314697,-12,9950.0
10530,0.3536461591720581,-0.916234016418457,-7,5897.0,-2.0897598266601562,-132,9950.0
10540,0.3535100817680359,-3.034162998199463,-41,5897.0,-0.7884202003479004,-87,9950.0
10550,0.3533545136451721,-2.834531545639038,-46,5897.0,-1.713087558746338,-32,9950.0
10560,0.3534376323223114,-1.717627763748169,-56,5897.0,1.4039204120635986,40,9950.0
10570,0.353256493806839,-0.16989544034004211,-61,5897.0,0.8838129043579102,116,9950.0
10580,0.3530421853065491,-0.45827069878578186,-27,5897.0,3.211178779602051,46,9950.0
10590,0.352794885635376,1.504467487335205,-35,5897.0,-0.34696826338768005,11,9950.0
10600,0.35431644320487976,-0.890066921710968,-16,5897.0,1.2362020015716553,-74,9950.0
10610,0.3541123569011688,-1.2657897472381592,-35,5897.0,1.5446285009384155,-1,9950.0
10620,0.35389864444732666,0.33991768956184387,-25,5897.0,-0.2638636827468872,81,9950.0
10630,0.3536735475063324,-0.009837736375629902,-20,5897.0,1.8501638174057007,135,9950.0
10640,0.35342925786972046,-0.9022766351699829,-32,5897.0,-1.6218574047088623,-55,9950.0
10650,0.3550022542476654,-0.5663262605667114,-10,5897.0,-1.1884560585021973,-97,9950.0
10660,0.35480132699012756,-0.2894633114337921,-9,5897.0,-3.7928781509399414,-161,9950.0
10670,0.3545880615711212,-1.274440050125122,21,5897.0,-2.6354305744171143,-77,9950.0
10680,0.35439541935920715,0.8120476603507996,-7,5897.0,-1.5171233415603638,33,9950.0
10690,0.3545221984386444,1.4671268463134766,2,5897.0,-0.06575766950845718,2,9950.0
10700,0.3543642461299896,0.9011973142623901,10,5897.0,0.5871670842170715,-35,9950.0
10710,0.3541707992553711,0.4597519040107727,56,5897.0,1.1706812381744385,-60,9950.0
10720,0.3539823293685913,-0.5126581192016602,-60,5897.0,0.892766535282135,42,9950.0
10730,0.3537951111793518,-2.261168956756592,-61,5897.0,0.40913012623786926,54,9950.0
10740,0.35368970036506653,-2.8805134296417236,-70,5897.0,0.7365818619728088,102,9950.0
10750,0.35351312160491943,-3.7736291885375977,-33,5897.0,0.41188347339630127,-82,9950.0
10760,0.3533368408679962,-4.194960117340088,-40,5897.0,0.9380679726600647,-98,9950.0
10770,0.35317906737327576,-2.764261245727539,-51,5897.0,-3.87605619430542,-64,9950.0
10780,0.3541025221347809,-2.508615255355835,-28,5897.0,-2.5070817470550537,34,9950.0
10790,0.3539280593395233,-1.001881718635559,7,5897.0,-4.048741340637207,4,9950.0
10800,0.3537293076515198,1.24385666847229,3,5897.0,-4.286252975463867,-27,9950.0
10810,0.3534930944442749,1.5365055799484253,67,5897.0,-4.085414409637451,-146,9950.0
10820,0.35353028774261475,1.3048301935195923,28,5897.0,-2.0388588905334473,-76,9950.0
10830,0.3532600700855255,1.2573751211166382,27,5897.0,-1.964236855506897,-47,9950.0
10840,0.35296377539634705,0.9958432912826538,27,5897.0,-0.9700837731361389,92,9950.0
10850,0.3526555001735687,2.3307807445526123,61,5897.0,-1.4302762746810913,43,9950.0
10860,0.35235321521759033,1.660773515701294,60,5897.0,0.4561522603034973,1,9950.0
10870,0.3523021340370178,-0.600136935710907,34,5897.0,1.5990800857543945,-4,9950.0
10880,0.3519863486289978,0.05983828008174896,19,5897.0,0.44895926117897034,11,9950.0
10890,0.3516698479652405,-0.04775189608335495,-50,5897.0,1.7991842031478882,59,9950.0
10900,0.35136812925338745,-1.2229121923446655,-56,5897.0,-0.037013351917266846,131,9950.0
10910,0.35326454043388367,0.6807059645652771,-43,5897.0,0.6482411026954651,28,9950.0
10920,0.3530460000038147,-2.3747386932373047,-31,5897.0,1.089548945426941,6,9950.0
10930,0.35283416509628296,-1.2176247835159302,-36,5897.0,2.0236713886260986,-22,9950.0
10940,0.35263487696647644,-2.4190125465393066,-49,5897.0,3.6671829223632812,-14,9950.0
10950,0.35265931487083435,-2.7554256916046143,-97,5897.0,3.34997296333313,68,9950.0
10960,0.35246601700782776,-2.9121458530426025,-91,5897.0,1.9366748332977295,51,9950.0
10970,0.35225698351860046,-1.644095778465271,-34,5897.0,1.4632933139801025,33,9950.0
10980,0.35205546021461487,-1.74302077293396,-30,5897.0,2.260765790939331,71,9950.0
10990,0.35184112191200256,-0.21603992581367493,-19,5897.0,1.3387359380722046,39,9950.0
11000,0.3521054685115814,-0.22897909581661224,-22,5897.0,0.28381165862083435,-102,9950.0
11010,0.351913183927536,1.4646764993667603,39,5897.0,2.0028276443481445,-92,9950.0
11020,0.3517390787601471,2.5259721279144287,47,5897.0,0.8907559514045715,-22,9950.0
11030,0.3515676259994507,3.2039599418640137,57,5897.0,1.031960129737854,-2,9950.0
11040,0.35162341594696045,3.0360989570617676,82,5897.0,-0.9896299242973328,28,9950.0
11050,0.3514259457588196,2.099135398864746,35,5897.0,-4.099831581115723,0,9950.0
11060,0.3512056767940521,-0.45846694707870483,-10,5897.0,0.332457572221756,88,9950.0
11070,0.350943386554718,-1.673160195350647,-48,5897.0,1.6089839935302734,38,9950.0
11080,0.3506453037261963,-0.28852105140686035,1,5897.0,-0.641396701335907,-31,9950.0
11090,0.35130199790000916,-2.9062485694885254,-56,5897.0,1.8113447427749634,-50,9950.0
11100,0.3510745167732239,-0.798031210899353,-9,5897.0,4.07874870300293,24,9950.0
11110,0.350875586271286,-2.0598390102386475,-13,5897.0,1.6897391080856323,-73,9950.0
11120,0.35073256492614746,-0.42414847016334534,4,5897.0,-0.2498634159564972,-8,9950.0
11130,0.35154303908348083,1.4703361988067627,-7,5897.0,0.7346431612968445,77,9950.0
11140,0.35150495171546936,2.4479832649230957,17,5897.0,1.564484715461731,79,9950.0
11150,0.3514637053012848,2.4229025840759277,40,5897.0,0.2843637764453888,45,9950.0
11160,0.3514159917831421,1.7361832857131958,15,5897.0,-0.08064497262239456,3,9950.0
11170,0.3524053990840912,1.045413613319397,17,5897.0,-2.00439715385437,-73,9950.0
11180,0.35233262181282043,-0.8237032890319824,16,5897.0,0.6531066298484802,-87,9950.0
11190,0.35224515199661255,-1.3315575122833252,-12,5897.0,-0.8068317174911499,-82,9950.0
11200,0.3521486222743988,-1.198561191558838,24,5897.0,-0.20923738181591034,-85,9950.0
11210,0.3520411252975464,-1.0463515520095825,-18,5897.0,-1.0227506160736084,64,9950.0
11220,0.3515129089355469,-1.7079269886016846,-34,5897.0,1.3317310810089111,118,9950.0
11230,0.3513964116573334,0.7396480441093445,-43,5897.0,-1.4580938816070557,62,9950.0
11240,0.35125863552093506,-1.9662559032440186,-30,5897.0,0.6530736684799194,102,9950.0
11250,0.35109981894493103,-0.35772308707237244,21,5897.0,0.15631118416786194,-8,9950.0
11260,0.3508899211883545,0.6673626899719238,37,5897.0,0.8857419490814209,-57,9950.0
11270,0.3507051169872284,1.7596988677978516,20,5897.0,-0.671127200126648,-128,9950.0
11280,0.35049718618392944,0.19963741302490234,-1,5897.0,0.671779990196228,-68,9950.0
11290,0.3502643406391144,1.1478617191314697,18,5897.0,-0.7881634831428528,-21,9950.0
11300,0.350250244140625,1.5586161613464355,10,5897.0,1.5420777797698975,85,9950.0
11310,0.3495083451271057,2.1179778575897217,22,5897.0,4.103481769561768,-18,9950.0
11320,0.34927672147750854,1.6994630098342896,17,5897.0,2.7401199340820312,60,9950.0
11330,0.34904518723487854,2.0899269580841064,36,5897.0,2.343482255935669,6,9950.0
11340,0.3488115966320038,2.5748960971832275,93,5897.0,4.653495788574219,-55,9950.0
11350,0.3502604067325592,3.252849817276001,54,5897.0,4.349723815917969,-37,9950.0
11360,0.35009798407554626,3.0810153484344482,23,5897.0,1.2818808555603027,-4,9950.0
11370,0.3499533534049988,3.112070322036743,56,5897.0,-3.9366753101348877,-51,9950.0
11380,0.34980109333992004,4.883113384246826,78,5897.0,-4.997864246368408,-48,9950.0
11390,0.34898343682289124,1.5334774255752563,24,5897.0,-4.168566703796387,-7,9950.0
11400,0.348776638507843,2.6980578899383545,27,5897.0,-8.528675079345703,-35,9950.0
11410,0.34855255484580994,2.8341526985168457,35,5897.0,-6.565849781036377,-41,9950.0
11420,0.34832102060317993,1.6851742267608643,72,5897.0,-1.1162198781967163,-51,9950.0
11430,0.3480713367462158,1.230756163597107,34,5897.0,-0.5800274014472961,-20,9950.0
11440,0.34900549054145813,2.3110761642456055,26,5897.0,2.070639133453369,13,9950.0
11450,0.34884515404701233,0.4069727957248688,-23,5897.0,7.133366584777832,85,9950.0
11460,0.3486933410167694,-0.015372192487120628,23,5897.0,9.486257553100586,119,9950.0
11470,0.3485640287399292,0.04928953945636749,-54,5897.0,7.746108055114746,164,9950.0
11480,0.3490343689918518,-0.8728011846542358,-44,5897.0,7.718303203582764,196,9950.0
11490,0.34895771741867065,-2.615523338317871,-49,5897.0,5.638443946838379,106,9950.0
11500,0.3489398956298828,-1.9257571697235107,-23,5897.0,-0.18123988807201385,-37,9950.0
11510,0.3488471210002899,-2.1138627529144287,-10,5897.0,-4.732852935791016,-117,9950.0
11520,0.34883472323417664,1.3547883033752441,36,5897.0,-7.379896640777588,-213,9950.0
11530,0.3486739695072174,1.3456979990005493,82,5897.0,-4.809089660644531,-176,9950.0
11540,0.34852004051208496,0.8512911796569824,46,5897.0,-3.8940110206604004,-152,9950.0
11550,0.3484049141407013,3.660781145095825,85,5897.0,-6.728456974029541,-64,9950.0
11560,0.34831520915031433,4.82628059387207,78,5897.0,-0.9139384627342224,28,9950.0
11570,0.3481375575065613,2.6190261840820312,23,5897.0,0.22932134568691254,91,9950.0
11580,0.348117470741272,3.109380006790161,30,5897.0,1.8596751689910889,132,9950.0
11590,0.34812402725219727,0.8884877562522888,-4,5897.0,7.726853847503662,95,9950.0
11600,0.348142147064209,-1.7489763498306274,-40,5897.0,6.602980613708496,78,9950.0
11610,0.35002997517585754,-2.1331851482391357,-48,5897.0,7.097485065460205,71,9950.0
11620,0.3500848114490509,-3.910098075866699,-70,5897.0,5.410060405731201,52,9950.0
11630,0.3501107394695282,-3.1289589405059814,-67,5897.0,2.371920347213745,73,9950.0
11640,0.35013240575790405,-3.099590539932251,-69,5897.0,1.1586194038391113,9,9950.0
11650,0.3501436114311218,-1.4000438451766968,-41,5897.0,0.3328213095664978,67,9950.0
11660,0.3517480194568634,1.4099209308624268,19,5897.0,-6.055611610412598,-55,9950.0
11670,0.3518473207950592,2.123293399810791,27,5897.0,-4.210382461547852,-73,9950.0
11680,0.3519517183303833,3.469898223876953,45,5897.0,-3.843184232711792,-141,9950.0
11690,0.3520514667034149,5.1355061531066895,114,5897.0,2.0385053157806396,-121,9950.0
11700,0.35131406784057617,4.929288864135742,83,5897.0,-0.9924876689910889,-46,9950.0
11710,0.35135114192962646,3.691406726837158,34,5897.0,-0.8078288435935974,56,9950.0
11720,0.35139042139053345,1.4772136211395264,18,5897.0,3.221879720687866,119,9950.0
11730,0.35142138600349426,-1.0755093097686768,2,5897.0,3.5029759407043457,102,9950.0
11740,0.3508467674255371,-2.5548839569091797,-4,5897.0,3.150718927383423,-19,9950.0
11750,0.35076236724853516,-6.146630764007568,-38,5897.0,4.23715353012085,-28,9950.0
11760,0.35065653920173645,-6.042637348175049,-84,5897.0,3.836651563644409,58,9950.0
11770,0.35051822662353516,-7.308198928833008,-112,5897.0,2.0294604301452637,72,9950.0
11780,0.35036367177963257,-4.45430850982666,-55,5897.0,-3.868422508239746,19,9950.0
11790,0.35168370604515076,-2.979362964630127,-20,5897.0,-0.6357983946800232,-9,9950.0
11800,0.35157713294029236,-1.579689383506775,35,5897.0,0.7154715061187744,-98,9950.0
11810,0.3514608144760132,2.1623055934906006,40,5897.0,-1.3598380088806152,-45,9950.0
11820,0.351318359375,2.842050075531006,56,5897.0,-1.5761017799377441,10,9950.0
11830,0.35064399242401123,2.2621750831604004,33,5897.0,1.1821610927581787,153,9950.0
11840,0.3504365086555481,2.9371235370635986,24,5897.0,-0.021539553999900818,132,9950.0
11850,0.3502199053764343,1.8164652585983276,29,5897.0,3.554736375808716,23,9950.0
11860,0.3499378561973572,-0.2574765086174011,21,5897.0,1.3242907524108887,-58,9950.0
11870,0.3496088981628418,-1.3546414375305176,-43,5897.0,1.333498477935791,-49,9950.0
11880,0.3515247106552124,-3.0611701011657715,-47,5897.0,-0.10936188697814941,44,9950.0
11890,0.35124149918556213,-2.8877694606781006,-90,5897.0,-0.4731859266757965,115,9950.0
11900,0.3509649336338043,-2.551191806793213,-68,5897.0,-0.3620484173297882,39,9950.0
11910,0.3506913483142853,-3.800459861755371,-76,5897.0,-0.968515932559967,-36,9950.0
11920,0.3501052260398865,-3.3910012245178223,-38,5897.0,1.4615483283996582,-37,9950.0
11930,0.34975647926330566,-1.2111934423446655,-13,5897.0,0.29680684208869934,-128,9950.0
11940,0.34940943121910095,-1.1743031740188599,-46,5897.0,-0.4447565972805023,23,9950.0
11950,0.3490604758262634,-1.553880214691162,-73,5897.0,-2.6028194427490234,58,9950.0
11960,0.3486975133419037,-0.7393538951873779,-27,5897.0,-1.1073442697525024,34,9950.0
11970,0.35016244649887085,-0.9870530962944031,-37,5897.0,1.1804498434066772,-41,9950.0
11980,0.3499354124069214,-1.7293978929519653,-12,5897.0,3.828972339630127,-25,9950.0
11990,0.3496887683868408,-0.8319405317306519,-7,5897.0,0.02677655592560768,-79,9950.0
12000,0.3494403064250946,-2.4966020584106445,-86,5897.0,0.7693802118301392,-12,9950.0
12010,0.34940141439437866,-1.0727816820144653,-58,5897.0,-7.251769065856934,-46,9950.0
12020,0.34912431240081787,-2.4210269451141357,-82,5897.0,-1.0012139081954956,26,9950.0
12030,0.34884998202323914,-2.808476448059082,-64,5897.0,-4.598868370056152,-20,9950.0
12040,0.3485662639141083,-2.920247793197632,-17,5897.0,-2.8825161457061768,-167,9950.0
12050,0.3500140607357025,-2.358795166015625,-14,5897.0,-2.1549532413482666,-136,9950.0
12060,0.34981316328048706,-2.19645357131958,15,5897.0,0.01699572615325451,-107,9950.0
12070,0.34961003065109253,0.7729838490486145,33,5897.0,-4.839555740356445,-147,9950.0
12080,0.3494194746017456,-0.32150837779045105,4,5897.0,-2.220737934112549,53,9950.0
12090,0.34923994541168213,0.21833346784114838,-18,5897.0,1.5205248594284058,155,9950.0
12100,0.3502332866191864,-1.160220742225647,0,5897.0,2.9385390281677246,91,9950.0
12110,0.35015568137168884,-0.6873710751533508,5,5897.0,1.6263402700424194,10,9950.0
12120,0.35009267926216125,-1.5590368509292603,-10,5897.0,1.0722861289978027,-56,9950.0
12130,0.35003724694252014,-2.0097086429595947,-42,5897.0,-0.09240025281906128,-59,9950.0
12140,0.3503478169441223,-0.7781527042388916,-10,5897.0,3.3636748790740967,4,9950.0
12150,0.350281298160553,-0.9115577936172485,-21,5897.0,-1.2811315059661865,-5,9950.0
12160,0.3502228558063507,-1.4648154973983765,-20,5897.0,-2.4878129959106445,16,9950.0
12170,0.3501719534397125,-0.7829710245132446,-53,5897.0,-4.291927814483643,-36,9950.0
12180,0.3501430153846741,-1.7637608051300049,-50,5897.0,0.8456158638000488,26,9950.0
12190,0.35129305720329285,1.8011562824249268,17,5897.0,-3.8881301879882812,-71,9950.0
12200,0.3512868583202362,3.9344520568847656,72,5897.0,-1.7969121932983398,-158,9950.0
12210,0.35125604271888733,3.999462842941284,63,5897.0,-1.2001444101333618,-91,9950.0
12220,0.35119345784187317,5.371898651123047,90,5897.0,2.3123226165771484,17,9950.0
12230,0.3518993854522705,6.934606075286865,68,5897.0,-0.01638154126703739,51,9950.0
12240,0.3517693281173706,3.478046178817749,62,5897.0,1.9441018104553223,64,9950.0
12250,0.35177022218704224,1.4900665283203125,8,5897.0,2.4633092880249023,34,9950.0
12260,0.3516256809234619,-0.491105318069458,19,5897.0,5.667689323425293,6,9950.0
12270,0.35325780510902405,-1.8569793701171875,-21,5897.0,4.294979572296143,49,9950.0
12280,0.353224515914917,-1.5523253679275513,-16,5897.0,4.192526817321777,137,9950.0
12290,0.3532363772392273,-0.3928970992565155,3,5897.0,3.6426148414611816,136,9950.0
12300,0.3532031774520874,0.40830403566360474,7,5897.0,-0.0330595001578331,20,9950.0
12310,0.35314032435417175,0.8018893599510193,-9,5897.0,1.145247459411621,33,9950.0
12320,0.35294073820114136,-1.1425352096557617,64,5897.0,0.4925363063812256,-107,9950.0
12330,0.3529486656188965,-0.837961733341217,39,5897.0,-3.204704523086548,-109,9950.0
12340,0.35286787152290344,-1.034095048904419,51,5897.0,-3.5418195724487305,-158,9950.0
12350,0.35277965664863586,-0.13451728224754333,38,5897.0,-3.930516242980957,36,9950.0
12360,0.3527999222278595,2.9337804317474365,74,5897.0,-1.16888427734375,96,9950.0
12370,0.35256069898605347,4.544743061065674,96,5897.0,0.7878493666648865,65,9950.0
12380,0.35257086157798767,1.8485881090164185,105,5897.0,4.031299591064453,0,9950.0
12390,0.3522224724292755,4.509768009185791,79,5897.0,1.500007152557373,-42,9950.0
12400,0.35222285985946655,3.7775580883026123,56,5897.0,1.0922932624816895,3,9950.0
12410,0.35212889313697815,1.9030979871749878,-21,5897.0,2.0808873176574707,100,9950.0
12420,0.3521316349506378,-0.7869566679000854,-6,5897.0,-4.832634925842285,41,9950.0
12430,0.3516128957271576,-1.6698722839355469,-17,5897.0,-2.088515520095825,-46,9950.0
12440,0.3516225218772888,-1.732356309890747,-89,5897.0,-1.6103452444076538,-94,9950.0
12450,0.3519916832447052,-4.458703994750977,-50,5897.0,-0.36307454109191895,-109,9950.0
12460,0.3517128527164459,-3.3400027751922607,-60,5897.0,-1.8125675916671753,-14,9950.0
12470,0.35141250491142273,-1.1706368923187256,-43,5897.0,0.45455431938171387,24,9950.0
12480,0.3511139750480652,-2.578439950942993,-51,5897.0,1.9109866619110107,113,9950.0
12490,0.35205021500587463,-1.2556816339492798,-41,5897.0,3.352513313293457,65,9950.0
12500,0.35182058811187744,-0.5595901608467102,-31,5897.0,2.1356937885284424,-11,9950.0
12510,0.3516067862510681,-0.5950934290885925,3,5897.0,-2.0588741302490234,-145,9950.0
12520,0.35137879848480225,-0.4471377432346344,-3,5897.0,-0.48332810401916504,-79,9950.0
12530,0.3511267602443695,-0.502555251121521,-9,5897.0,-2.104398012161255,-57,9950.0
12540,0.3521184027194977,0.5955885052680969,-4,5897.0,-0.8190171718597412,64,9950.0
12550,0.3519574701786041,-0.24199865758419037,1,5897.0,-4.049387454986572,37,9950.0
12560,0.3517415523529053,-0.7040218114852905,-71,5897.0,-4.329180717468262,16,9950.0
12570,0.3515157401561737,-0.6833443641662598,9,5897.0,-2.571464776992798,-29,9950.0
12580,0.35279422998428345,-1.5826653242111206,29,5897.0,-3.158449649810791,-90,9950.0
12590,0.352785587310791,-1.164127230644226,5,5897.0,2.983293294906616,-13,9950.0
12600,0.35272490978240967,0.7705969214439392,7,5897.0,0.31571948528289795,-18,9950.0
12610,0.3526647686958313,0.21464121341705322,7,5897.0,0.6593186855316162,82,9950.0
12620,0.3525918424129486,1.9695645570755005,29,5897.0,-3.328883647918701,-14,9950.0
12630,0.35229671001434326,2.353440999984741,53,5897.0,-2.2086222171783447,-31,9950.0
12640,0.352153480052948,3.182253360748291,113,5897.0,-0.7919597625732422,-78,9950.0
12650,0.3519953489303589,3.966327667236328,134,5897.0,-1.8704088926315308,-95,9950.0
12660,0.3517873287200928,4.0654072761535645,86,5897.0,-0.8333415985107422,-10,9950.0
12670,0.35289111733436584,4.67770528793335,61,5897.0,0.7099588513374329,62,9950.0
12680,0.35272958874702454,1.240883231163025,17,5897.0,3.0938527584075928,132,9950.0
12690,0.3525536060333252,2.7590768337249756,16,5897.0,-2.2252540588378906,58,9950.0
12700,0.3524150550365448,0.36246687173843384,-4,5897.0,-3.4248766899108887,20,9950.0
12710,0.3525576591491699,0.13231833279132843,-5,5897.0,-3.317002773284912,-65,9950.0
12720,0.35246309638023376,-2.880819797515869,-29,5897.0,-0.35861459374427795,-80,9950.0
12730,0.35239550471305847,-3.8326146602630615,-59,5897.0,1.90864896774292,-31,9950.0
12740,0.3523441553115845,-1.4083659648895264,-30,5897.0,-2.0979440212249756,-92,9950.0
12750,0.3522775173187256,-1.689464807510376,-42,5897.0,-1.2278168201446533,-15,9950.0
12760,0.3528796136379242,-0.6311593651771545,-30,5897.0,-0.5313823819160461,72,9950.0
12770,0.35276079177856445,-0.5997907519340515,-37,5897.0,-3.021104574203491,35,9950.0
12780,0.3526051938533783,-1.7775123119354248,-44,5897.0,1.9213478565216064,29,9950.0
12790,0.35241472721099854,-0.9689231514930725,-38,5897.0,-2.0543389320373535,-109,9950.0
12800,0.3521319329738617,-0.9669327139854431,6,5897.0,-0.20507600903511047,-87,9950.0
12810,0.3519105017185211,0.6907376050949097,55,5897.0,-0.4183349013328552,-36,9950.0
12820,0.3516835570335388,4.093300819396973,46,5897.0,1.6612123250961304,90,9950.0
12830,0.3514454662799835,0.16193372011184692,28,5897.0,3.724757432937622,121,9950.0
12840,0.3512107729911804,0.5338806509971619,12,5897.0,5.724671840667725,166,9950.0
12850,0.35019367933273315,-1.1151700019836426,-27,5897.0,4.068352222442627,132,9950.0
12860,0.34991756081581116,-3.4149374961853027,-51,5897.0,6.202404499053955,116,9950.0
12870,0.34964480996131897,-3.3705945014953613,-50,5897.0,6.321855068206787,53,9950.0
12880,0.34937891364097595,-4.093862056732178,-36,5897.0,3.952004909515381,-47,9950.0
12890,0.35059279203414917,-1.5890878438949585,-19,5897.0,0.38571396470069885,-49,9950.0
12900,0.3503904342651367,0.40349313616752625,22,5897.0,-3.0066781044006348,-107,9950.0
12910,0.3501550555229187,0.8121268153190613,-19,5897.0,-1.3063294887542725,-51,9950.0
12920,0.3498724699020386,1.320562481880188,0,5897.0,-3.092916488647461,28,9950.0
12930,0.3508487045764923,1.0625910758972168,-3,5897.0,0.1523328274488449,71,9950.0
12940,0.350647896528244,1.6536974906921387,15,5897.0,3.374549150466919,113,9950.0
12950,0.3504074215888977,0.7206598520278931,-1,5897.0,4.977601528167725,89,9950.0
12960,0.3501818776130676,-1.7925888299942017,9,5897.0,9.386773109436035,77,9950.0
12970,0.3499702513217926,-1.9317387342453003,9,5897.0,7.084598064422607,103,9950.0
12980,0.35104700922966003,-1.5584461688995361,4,5897.0,5.772711753845215,57,9950.0
12990,0.35091614723205566,-2.995169162750244,-22,5897.0,6.6570143699646,135,9950.0
13000,0.3507665991783142,-1.0897676944732666,-18,5897.0,3.318714141845703,158,9950.0
13010,0.3506118357181549,-1.5224859714508057,-67,5897.0,4.179958343505859,176,9950.0
13020,0.35148417949676514,-0.2467503845691681,-4,5897.0,-0.4082465171813965,30,9950.0
13030,0.3513696491718292,1.3273892402648926,23,5897.0,-6.060731887817383,-27,9950.0
13040,0.3512631952762604,3.4469568729400635,42,5897.0,-6.6044487953186035,-125,9950.0
13050,0.3511752784252167,1.7123653888702393,29,5897.0,-7.555787563323975,-120,9950.0
13060,0.35140883922576904,3.7223880290985107,41,5897.0,-6.144341945648193,-171,9950.0
13070,0.3513045608997345,4.408076286315918,56,5897.0,-5.110495090484619,-156,9950.0
13080,0.3512253761291504,3.0332744121551514,60,5897.0,-2.459972620010376,50,9950.0
13090,0.3511734902858734,3.6705644130706787,50,5897.0,4.199254989624023,182,9950.0
13100,0.3511206805706024,1.810634970664978,18,5897.0,8.300284385681152,215,9950.0
13110,0.3518620729446411,1.047303318977356,14,5897.0,10.491806030273438,165,9950.0
13120,0.3518272042274475,-0.41429397463798523,29,5897.0,9.226584434509277,36,9950.0
13130,0.35178613662719727,-0.9960789680480957,11,5897.0,9.34426498413086,78,9950.0
13140,0.3517204523086548,-1.443092942237854,33,5897.0,2.4187591075897217,3,9950.0
13150,0.352145254611969,-0.14504402875900269,19,5897.0,-0.7531628012657166,71,9950.0
13160,0.35202184319496155,0.010388322174549103,-1,5897.0,-0.43353939056396484,81,9950.0
13170,0.35188546776771545,3.35811185836792,40,5897.0,-5.977668285369873,17,9950.0
13180,0.3517013490200043,1.455197811126709,64,5897.0,-2.478271245956421,-75,9950.0
13190,0.35146549344062805,2.129939079284668,28,5897.0,-5.20459508895874,-120,9950.0
13200,0.3511125445365906,2.5078463554382324,39,5897.0,-1.2068859338760376,-66,9950.0
13210,0.35081958770751953,3.280092716217041,72,5897.0,-1.4681864976882935,-25,9950.0
13220,0.3505142331123352,0.884581446647644,13,5897.0,0.41681256890296936,76,9950.0
13230,0.350187212228775,0.6626944541931152,-23,5897.0,1.6587824821472168,92,9950.0
13240,0.3514564335346222,-1.9361331462860107,-50,5897.0,1.9715248346328735,37,9950.0
13250,0.35119274258613586,-3.4495530128479004,-60,5897.0,2.8992514610290527,62,9950.0
13260,0.35094529390335083,-2.5886948108673096,-33,5897.0,1.3507063388824463,21,9950.0
13270,0.3507053554058075,-4.440196990966797,-102,5897.0,0.41861268877983093,100,9950.0
13280,0.3504738509654999,-4.012687683105469,-64,5897.0,0.7900528907775879,72,9950.0
13290,0.3512289524078369,-3.8613996505737305,-53,5897.0,1.9829554557800293,24,9950.0
13300,0.3510471284389496,-1.8782448768615723,-36,5897.0,1.797518253326416,9,9950.0
13310,0.3508646786212921,-2.1285440921783447,-16,5897.0,0.1007380485534668,-78,9950.0
13320,0.3507373631000519,-0.09483341872692108,1,5897.0,-0.38255155086517334,-116,9950.0
13330,0.3511648178100586,-1.3431638479232788,-76,5897.0,-1.2188490629196167,-44,9950.0
13340,0.35102444887161255,0.5077961683273315,-15,5897.0,-1.9502921104431152,-13,9950.0
13350,0.3508971631526947,2.7004189491271973,12,5897.0,-4.586639881134033,21,9950.0
13360,0.35076195001602173,0.002568259835243225,4,5897.0,-3.4583680629730225,-6,9950.0
13370,0.35227933526039124,1.0150516033172607,16,5897.0,-2.619154214859009,-75,9950.0
13380,0.35219621658325195,1.7560259103775024,41,5897.0,2.966658115386963,-119,9950.0
13390,0.3520950973033905,1.0307625532150269,22,5897.0,-3.3460793495178223,-148,9950.0
13400,0.35197222232818604,2.6716325283050537,22,5897.0,-4.418039798736572,-35,9950.0
13410,0.35182908177375793,0.6658358573913574,7,5897.0,-5.910297393798828,19,9950.0
13420,0.3521975874900818,0.026228059083223343,-27,5897.0,-2.3892107009887695,40,9950.0
13430,0.3520691990852356,-1.6706637144088745,-3,5897.0,-1.2184160947799683,-25,9950.0
13440,0.3519151210784912,-3.3365907669067383,-30,5897.0,1.1293017864227295,-101,9950.0
13450,0.3517371416091919,-4.815998554229736,-33,5897.0,0.965256929397583,-52,9950.0
13460,0.35285380482673645,-1.9386500120162964,-15,5897.0,0.08583774417638779,49,9950.0
13470,0.35271456837654114,-2.057846784591675,-22,5897.0,0.8943926095962524,147,9950.0
13480,0.3525850474834442,-0.10330826044082642,6,5897.0,-0.793495774269104,94,9950.0
13490,0.3524259626865387,3.5676491260528564,66,5897.0,-0.14010080695152283,11,9950.0
13500,0.35217055678367615,0.15486247837543488,57,5897.0,2.093292236328125,-67,9950.0
13510,0.35201823711395264,-0.8387889862060547,-5,5897.0,-0.08140336722135544,-44,9950.0
13520,0.35183218121528625,-0.8210259079933167,-8,5897.0,0.22024326026439667,77,9950.0
13530,0.35166776180267334,-1.0750287771224976,-12,5897.0,-1.1064660549163818,91,9950.0
13540,0.3514440059661865,-0.40046510100364685,-54,5897.0,-0.7515303492546082,109,9950.0
13550,0.3522856831550598,-1.3714977502822876,-24,5897.0,-2.1490631103515625,28,9950.0
13560,0.3520769476890564,-1.9753443002700806,-7,5897.0,-4.274110317230225,-141,9950.0
13570,0.35187166929244995,-1.1700130701065063,-62,5897.0,-2.8883605003356934,-120,9950.0
13580,0.35165292024612427,-2.959934949874878,-31,5897.0,-3.1231279373168945,-87,9950.0
13590,0.3505103588104248,-1.158795714378357,-49,5897.0,-3.824824810028076,83,9950.0
13600,0.35023367404937744,-1.237847089767456,-55,5897.0,-1.2550030946731567,35,9950.0
13610,0.3499394953250885,0.3707490563392639,-25,5897.0,2.6906142234802246,17,9950.0
13620,0.34962910413742065,-0.8204218149185181,-26,5897.0,2.4843969345092773,30,9950.0
13630,0.34931689500808716,0.016610581427812576,-20,5897.0,3.636272668838501,-83,9950.0
13640,0.35004812479019165,-1.426237940788269,-28,5897.0,4.552236080169678,17,9950.0
13650,0.3497692942619324,-0.5143006443977356,-63,5897.0,-0.7988189458847046,62,9950.0
13660,0.34947291016578674,-1.3144068717956543,-40,5897.0,0.672913134098053,83,9950.0
13670,0.3491727113723755,-2.313413619995117,-43,5897.0,-0.47032928466796875,42,9950.0
13680,0.35009852051734924,-2.6663100719451904,-36,5897.0,1.18922758102417,-27,9950.0
13690,0.3498326241970062,-2.04784893989563,-22,5897.0,-0.08856712281703949,-135,9950.0
13700,0.34955549240112305,-3.6461331844329834,-22,5897.0,-0.4924071133136749,-131,9950.0
13710,0.3492828607559204,-4.0869903564453125,-36,5897.0,-0.8737021088600159,-33,9950.0
13720,0.3497716784477234,-0.7583887577056885,12,5897.0,-0.6749392747879028,32,9950.0
13730,0.34954673051834106,0.16613487899303436,3,5897.0,-3.9791903495788574,50,9950.0
13740,0.3493266999721527,1.1728618144989014,45,5897.0,1.7676852941513062,94,9950.0
13750,0.34909316897392273,2.1984221935272217,68,5897.0,2.75331711769104,83,9950.0
13760,0.34885963797569275,1.9008558988571167,53,5897.0,5.049550533294678,39,9950.0
13770,0.3499915301799774,0.2569720149040222,-24,5897.0,7.028554439544678,68,9950.0
13780,0.34985050559043884,0.421793669462204,-4,5897.0,2.202615976333618,21,9950.0
13790,0.3497602939605713,-0.06891769915819168,-14,5897.0,-1.698269248008728,-34,9950.0
13800,0.3496915102005005,-1.5204746723175049,-21,5897.0,-0.7861871719360352,20,9950.0
13810,0.35054951906204224,0.28985896706581116,1,5897.0,-2.8737595081329346,1,9950.0
13820,0.3505327105522156,-0.2564050555229187,5,5897.0,-2.3984875679016113,-94,9950.0
13830,0.35049986839294434,0.9921528100967407,25,5897.0,-4.05334997177124,-56,9950.0
13840,0.3504314124584198,2.7728488445281982,48,5897.0,-0.8699450492858887,-74,9950.0
13850,0.3503841459751129,3.987395763397217,99,5897.0,-1.2701408863067627,-150,9950.0
13860,0.3518027663230896,4.2892985343933105,86,5897.0,1.0271581411361694,-48,9950.0
13870,0.3518610894680023,5.007106304168701,83,5897.0,-0.5680776834487915,50,9950.0
13880,0.3519362211227417,4.864920616149902,71,5897.0,0.6900823712348938,128,9950.0
13890,0.3520262539386749,2.679140090942383,4,5897.0,5.155289173126221,174,9950.0
13900,0.35246777534484863,1.3512732982635498,52,5897.0,5.107930660247803,-13,9950.0
13910,0.3525722026824951,-0.14850953221321106,69,5897.0,6.001049518585205,18,9950.0
13920,0.35269424319267273,-0.21595679223537445,54,5897.0,6.859126567840576,17,9950.0
13930,0.35283875465393066,1.795006275177002,27,5897.0,-0.42646223306655884,119,9950.0
13940,0.35371142625808716,2.2127203941345215,63,5897.0,0.8453095555305481,79,9950.0
13950,0.35380879044532776,4.476806640625,50,5897.0,0.6863844394683838,0,9950.0
13960,0.3538370728492737,3.978365421295166,76,5897.0,2.2710072994232178,-52,9950.0
13970,0.3538440465927124,2.9777705669403076,102,5897.0,3.6376020908355713,-23,9950.0
13980,0.35383340716362,4.749125957489014,88,5897.0,0.554079532623291,78,9950.0
13990,0.3538903295993805,0.8122374415397644,6,5897.0,2.870061159133911,117,9950.0
14000,0.35386350750923157,0.6105732917785645,4,5897.0,0.13497459888458252,41,9950.0
14010,0.3538118600845337,-0.2906864583492279,2,5897.0,0.1139504611492157,-116,9950.0
14020,0.35373249650001526,-1.7790523767471313,-16,5897.0,0.2666558027267456,-46,9950.0
14030,0.3548974096775055,-1.5482836961746216,-4,5897.0,2.4363555908203125,62,9950.0
14040,0.3548077642917633,-0.6231913566589355,-2,5897.0,-2.261241912841797,47,9950.0
14050,0.35468026995658875,1.363481879234314,30,5897.0,-0.7954353094100952,53,9950.0
14060,0.3545118570327759,0.16666749119758606,56,5897.0,1.682072639465332,17,9950.0
14070,0.35430416464805603,-0.4288628101348877,54,5897.0,1.1551258563995361,-28,9950.0
14080,0.35354989767074585,0.8039251565933228,-3,5897.0,-2.2921197414398193,7,9950.0
14090,0.3532654047012329,-1.2900116443634033,-40,5897.0,0.8877046704292297,87,9950.0
14100,0.35296231508255005,-0.6874391436576843,41,5897.0,-3.452051877975464,-16,9950.0
14110,0.352638840675354,-0.9439835548400879,28,5897.0,0.663342297077179,-121,9950.0
14120,0.3525691032409668,-2.2511348724365234,4,5897.0,-1.0920771360397339,-2,9950.0
14130,0.35219311714172363,-1.952406406402588,11,5897.0,-2.24318528175354,30,9950.0
14140,0.3517971336841583,-2.4432857036590576,-36,5897.0,1.1495897769927979,136,9950.0
14150,0.3513786494731903,-2.8515937328338623,-47,5897.0,-4.719965934753418,-70,9950.0
14160,0.3509658873081207,-3.804032564163208,-4,5897.0,0.7636050581932068,0,9950.0
14170,0.35051804780960083,-1.1868877410888672,11,5897.0,2.2980353832244873,-29,9950.0
14180,0.3500577211380005,-1.2170360088348389,9,5897.0,5.260776042938232,62,9950.0
14190,0.34960198402404785,-0.6540690064430237,-24,5897.0,4.923584461212158,169,9950.0
14200,0.3491518199443817,-0.41535699367523193,-25,5897.0,3.064091444015503,131,9950.0
14210,0.3492068946361542,-2.942777395248413,-30,5897.0,1.4451816082000732,108,9950.0
14220,0.3487902879714966,-3.914334535598755,-55,5897.0,2.324047327041626,10,9950.0
14230,0.3483385145664215,-4.966020584106445,-110,5897.0,-4.705967903137207,-104,9950.0
14240,0.3478970527648926,-2.160515785217285,-35,5897.0,-3.0843470096588135,-130,9950.0
14250,0.3480387032032013,-2.1643850803375244,-16,5897.0,-4.534178733825684,-128,9950.0
