timestamp,kalman.stateZ,gyro.x,gyro.xRaw,gyro.xVariance,gyro.y,gyro.yRaw,gyro.yVariance
0,0.3284991383552551,-7.542880058288574,-103,6864.0,-6.1938276290893555,-120,9981.0
10,0.3282841145992279,-4.496021270751953,-47,6864.0,-10.449155807495117,-205,9981.0
20,0.3292335867881775,0.4101576507091522,43,6864.0,-16.07744598388672,-294,9981.0
30,0.3291672468185425,4.275717735290527,80,6864.0,-20.546295166015625,-358,9981.0
40,0.32925865054130554,5.143340587615967,83,6864.0,-24.237464904785156,-404,9981.0
50,0.3294527530670166,4.148731231689453,47,6864.0,-27.074068069458008,-450,9981.0
60,0.3299405574798584,2.066352128982544,31,6864.0,-26.060930252075195,-397,9981.0
70,0.3307809829711914,2.2003040313720703,42,6864.0,-18.234464645385742,-252,9981.0
80,0.3312036395072937,3.093559503555298,61,6864.0,-7.099926948547363,-61,9981.0
90,0.33179715275764465,4.569460391998291,73,6864.0,4.361870288848877,110,9981.0
100,0.33224499225616455,1.5547610521316528,12,6864.0,13.278509140014648,251,9981.0
110,0.3327697813510895,-1.3100430965423584,-29,6864.0,20.046438217163086,350,9981.0
120,0.3328106105327606,-3.8830668926239014,-78,6864.0,24.11167335510254,411,9981.0
130,0.33266040682792664,-6.368215084075928,-115,6864.0,25.630680084228516,422,9981.0
140,0.3323116898536682,-7.880107879638672,-130,6864.0,24.781341552734375,396,9981.0
150,0.33124205470085144,-7.1511149406433105,-109,6864.0,22.33975601196289,357,9981.0
160,0.33110737800598145,-3.91951584815979,-42,6864.0,17.18071746826172,247,9981.0
170,0.33098527789115906,1.8999998569488525,53,6864.0,7.913632392883301,81,9981.0
180,0.33105477690696716,5.173815727233887,110,6864.0,-7.379406452178955,-221,9981.0
190,0.33155664801597595,7.4180521965026855,122,6864.0,-25.452173233032227,-476,9981.0
200,0.33040541410446167,7.0737175941467285,116,6864.0,-34.6283073425293,-553,9981.0
210,0.3311672508716583,8.109576225280762,119,6864.0,-34.3448486328125,-523,9981.0
220,0.33201485872268677,7.201166152954102,82,6864.0,-21.623580932617188,-240,9981.0
230,0.33291304111480713,2.187006711959839,-15,6864.0,-7.107858180999756,-50,9981.0
240,0.3326207399368286,-4.11484956741333,16,6864.0,5.436103820800781,41,9981.0
250,0.33314546942710876,1.9578096866607666,105,6864.0,3.503390312194824,58,9981.0
260,0.3334793746471405,4.119663715362549,1,6864.0,2.8479363918304443,55,9981.0
270,0.3336390554904938,2.3238675594329834,65,6864.0,-4.049289703369141,-152,9981.0
280,0.33364999294281006,1.1257636547088623,-6,6864.0,-14.492449760437012,-285,9981.0
290,0.3332926630973816,0.7935338020324707,-19,6864.0,-29.623371124267578,-510,9981.0
300,0.33307915925979614,0.9047463536262512,-3,6864.0,-44.040924072265625,-720,9981.0
310,0.3330024480819702,-2.2662439346313477,38,6864.0,-53.279544830322266,-932,9981.0
320,0.33321866393089294,-4.610406398773193,-60,6864.0,-57.19856643676758,-1008,9981.0
330,0.3337390422821045,-7.163371562957764,-28,6864.0,-65.42186737060547,-957,9981.0
340,0.3335285782814026,-1.2396361827850342,-37,6864.0,-65.31993103027344,-1021,9981.0
350,0.33568766713142395,3.186249256134033,59,6864.0,-45.006404876708984,-522,9981.0
360,0.3371157944202423,4.084696292877197,89,6864.0,1.3996719121932983,242,9981.0
370,0.34080588817596436,3.395901679992676,27,6864.0,46.22893142700195,939,9981.0
380,0.34255003929138184,2.462061882019043,47,6864.0,85.32514953613281,1516,9981.0
390,0.34358152747154236,-2.447493553161621,-21,6864.0,111.9171142578125,2075,9981.0
400,0.3450118601322174,1.722641110420227,6,6864.0,126.08429718017578,2098,9981.0
410,0.3456810712814331,6.424829006195068,218,6864.0,124.11380004882812,1859,9981.0
420,0.34538063406944275,14.037873268127441,399,6864.0,98.67448425292969,1272,9981.0
430,0.34720754623413086,17.16042137145996,311,6864.0,50.01042556762695,575,9981.0
440,0.34764719009399414,13.838271141052246,135,6864.0,-3.73454213142395,-89,9981.0
450,0.3482496738433838,2.1516318321228027,-97,6864.0,-45.31735610961914,-762,9981.0
460,0.3445400595664978,-13.913320541381836,-303,6864.0,-80.68184661865234,-1504,9981.0
470,0.34489136934280396,-23.200660705566406,-379,6864.0,-107.61769104003906,-1789,9981.0
480,0.34551262855529785,-22.611316680908203,-439,6864.0,-120.35631561279297,-1900,9981.0
490,0.3453153371810913,-22.329362869262695,-304,6864.0,-115.13740539550781,-1676,9981.0
500,0.3446228802204132,-12.194998741149902,-173,6864.0,-93.59442138671875,-1196,9981.0
510,0.345954030752182,3.309380531311035,140,6864.0,-44.561092376708984,-478,9981.0
520,0.3476152718067169,15.782083511352539,270,6864.0,-0.040007203817367554,35,9981.0
530,0.3481915295124054,22.70186424255371,385,6864.0,37.788597106933594,762,9981.0
540,0.34864217042922974,22.780458450317383,390,6864.0,74.57685852050781,1354,9981.0
550,0.3506273329257965,11.906307220458984,105,6864.0,104.04730987548828,1815,9981.0
560,0.35050448775291443,-0.4298006296157837,-120,6864.0,122.15209197998047,2017,9981.0
570,0.35003378987312317,-6.952766418457031,-113,6864.0,110.74356842041016,1640,9981.0
580,0.3488587737083435,-8.825603485107422,-100,6864.0,85.20233154296875,1158,9981.0
590,0.34547558426856995,-2.3183135986328125,89,6864.0,46.87837219238281,511,9981.0
600,0.34529563784599304,9.312590599060059,231,6864.0,8.133445739746094,-68,9981.0
610,0.34498143196105957,12.407455444335938,78,6864.0,-47.759620666503906,-1261,9981.0
620,0.3455900251865387,2.5387449264526367,9,6864.0,-109.32504272460938,-2154,9981.0
630,0.3462737202644348,-10.930787086486816,-181,6864.0,-151.99185180664062,-2778,9981.0
640,0.34294891357421875,-17.473403930664062,-340,6864.0,-158.77235412597656,-2490,9981.0
650,0.3427104353904724,-20.064979553222656,-128,6864.0,-140.61270141601562,-2186,9981.0
660,0.3425649404525757,-10.384267807006836,-160,6864.0,-103.42022705078125,-1398,9981.0
670,0.34335216879844666,-11.57459545135498,-200,6864.0,-41.01864242553711,-418,9981.0
680,0.3503497242927551,-4.818359375,-36,6864.0,19.359241485595703,623,9981.0
690,0.35164037346839905,6.042308807373047,128,6864.0,74.1539077758789,1489,9981.0
700,0.3530642092227936,9.333346366882324,190,6864.0,105.73869323730469,1792,9981.0
710,0.35378068685531616,6.826651573181152,107,6864.0,114.39551544189453,1563,9981.0
720,0.3544601500034332,-5.36476993560791,-64,6864.0,100.99612426757812,1590,9981.0
730,0.3549272418022156,-4.897261619567871,60,6864.0,85.49927520751953,1155,9981.0
740,0.35604220628738403,0.989657461643219,56,6864.0,57.43650436401367,762,9981.0
750,0.3571891784667969,1.1189079284667969,-24,6864.0,8.361281394958496,-21,9981.0
760,0.358531653881073,-1.753212571144104,-103,6864.0,-37.70365524291992,-647,9981.0
770,0.3538709282875061,1.2915730476379395,63,6864.0,-62.40052032470703,-1148,9981.0
780,0.35509106516838074,2.6978683471679688,-50,6864.0,-67.09419250488281,-916,9981.0
790,0.3560412526130676,-0.4440065324306488,51,6864.0,-40.54042053222656,-542,9981.0
800,0.3569573163986206,4.881376266479492,47,6864.0,-11.68929386138916,-55,9981.0
810,0.3555380702018738,5.927208423614502,103,6864.0,17.054996490478516,599,9981.0
820,0.35616981983184814,12.864967346191406,223,6864.0,47.169883728027344,889,9981.0
830,0.35652807354927063,8.981882095336914,69,6864.0,67.63328552246094,1289,9981.0
840,0.35661420226097107,3.351797103881836,17,6864.0,72.11707305908203,1248,9981.0
850,0.3566199243068695,-0.2958938777446747,-137,6864.0,60.31477355957031,998,9981.0
860,0.35324475169181824,-6.375816345214844,-95,6864.0,41.92179870605469,596,9981.0
870,0.35278600454330444,-8.672979354858398,-174,6864.0,15.520888328552246,21,9981.0
880,0.3528098464012146,-7.7853474617004395,-22,6864.0,-16.190961837768555,-578,9981.0
890,0.35292041301727295,-6.534399032592773,-129,6864.0,-51.8907356262207,-949,9981.0
900,0.3487340807914734,-9.368982315063477,-59,6864.0,-75.84380340576172,-1362,9981.0
910,0.3487653434276581,-11.063118934631348,-181,6864.0,-95.74076080322266,-1694,9981.0
920,0.34869706630706787,1.3094825744628906,92,6864.0,-97.01728820800781,-1427,9981.0
930,0.3501727283000946,12.341516494750977,240,6864.0,-66.5240478515625,-875,9981.0
940,0.34880486130714417,5.333250045776367,66,6864.0,-21.281389236450195,-289,9981.0
950,0.3498750329017639,0.2507338225841522,-50,6864.0,25.69738006591797,471,9981.0
960,0.3509131669998169,2.8213765621185303,51,6864.0,67.92498779296875,1249,9981.0
970,0.35147470235824585,1.4598702192306519,99,6864.0,104.38272857666016,1758,9981.0
980,0.3524155616760254,3.6865928173065186,144,6864.0,116.2484359741211,1849,9981.0
990,0.35164961218833923,1.0876379013061523,-4,6864.0,119.11717987060547,1840,9981.0
1000,0.35149866342544556,-6.238800525665283,0,6864.0,97.45943450927734,1383,9981.0
1010,0.35391825437545776,-10.092170715332031,-237,6864.0,53.6317253112793,795,9981.0
1020,0.3541930913925171,-11.5018310546875,-198,6864.0,-3.934229612350464,-456,9981.0
1030,0.34937238693237305,-13.872482299804688,-216,6864.0,-61.72658920288086,-1219,9981.0
1040,0.3508155941963196,-7.39178991317749,-18,6864.0,-117.8282699584961,-2183,9981.0
1050,0.35123127698898315,5.988215923309326,88,6864.0,-164.8438720703125,-2793,9981.0
1060,0.3518793284893036,22.422195434570312,474,6864.0,-203.35708618164062,-3383,9981.0
1070,0.3518946170806885,22.608842849731445,313,6864.0,-203.57998657226562,-3366,9981.0
1080,0.3495630621910095,9.268170356750488,117,6864.0,-167.2117919921875,-2689,9981.0
1090,0.35577070713043213,-9.345854759216309,-171,6864.0,-109.22276306152344,-1463,9981.0
1100,0.35622355341911316,-9.082535743713379,-142,6864.0,-38.754581451416016,-309,9981.0
1110,0.35850393772125244,-6.709963798522949,-137,6864.0,23.4674072265625,826,9981.0
1120,0.3667680323123932,-4.105302333831787,-75,6864.0,80.91032409667969,1753,9981.0
1130,0.36810940504074097,6.707298278808594,161,6864.0,124.9335708618164,2322,9981.0
1140,0.36940857768058777,17.818981170654297,321,6864.0,149.587646484375,2555,9981.0
1150,0.37066730856895447,26.104097366333008,378,6864.0,157.36647033691406,2441,9981.0
1160,0.3647023141384125,23.596067428588867,306,6864.0,141.6430206298828,2350,9981.0
1170,0.36589565873146057,9.087106704711914,-5,6864.0,125.0064926147461,2057,9981.0
1180,0.3665519654750824,-15.36858081817627,-464,6864.0,99.93161010742188,1486,9981.0
1190,0.36691156029701233,-45.54421615600586,-776,6864.0,49.06640625,414,9981.0
1200,0.3690136671066284,-57.37205505371094,-906,6864.0,-17.0290470123291,-494,9981.0
1210,0.3606283962726593,-45.21599197387695,-532,6864.0,-63.63688659667969,-1175,9981.0
1220,0.3614571690559387,-5.070199966430664,23,6864.0,-86.18682861328125,-1317,9981.0
1230,0.36276906728744507,36.379276275634766,756,6864.0,-80.5876693725586,-1201,9981.0
1240,0.3640071153640747,62.4183464050293,1020,6864.0,-52.99456787109375,-747,9981.0
1250,0.3581816256046295,55.020545959472656,721,6864.0,-29.05913543701172,-256,9981.0
1260,0.35836976766586304,27.642086029052734,276,6864.0,4.053276062011719,430,9981.0
1270,0.358612060546875,-7.701096057891846,-269,6864.0,41.406761169433594,963,9981.0
1280,0.3584381341934204,-33.21192932128906,-588,6864.0,70.45941162109375,1267,9981.0
1290,0.35751208662986755,-41.75370407104492,-742,6864.0,81.3453598022461,1353,9981.0
1300,0.3543209731578827,-34.21812057495117,-430,6864.0,79.44942474365234,1222,9981.0
1310,0.3531951606273651,-13.00079345703125,25,6864.0,60.18436050415039,772,9981.0
1320,0.35258421301841736,11.752402305603027,205,6864.0,20.678571701049805,84,9981.0
1330,0.35243546962738037,24.03249168395996,525,6864.0,-23.687440872192383,-643,9981.0
1340,0.34697210788726807,25.912921905517578,368,6864.0,-52.54020309448242,-1017,9981.0
1350,0.34712138772010803,10.294382095336914,-51,6864.0,-76.03340148925781,-1267,9981.0
1360,0.3470887839794159,-4.887757778167725,-99,6864.0,-76.71930694580078,-1241,9981.0
1370,0.34715282917022705,-15.224361419677734,-147,6864.0,-67.31131744384766,-1016,9981.0
1380,0.34728771448135376,-4.760735034942627,26,6864.0,-60.16340255737305,-910,9981.0
1390,0.3460519015789032,5.20483922958374,97,6864.0,-27.4649715423584,-215,9981.0
1400,0.34576013684272766,15.878384590148926,310,6864.0,2.0945844650268555,208,9981.0
1410,0.3454539179801941,21.224117279052734,209,6864.0,33.6115837097168,814,9981.0
1420,0.34525248408317566,10.414340019226074,147,6864.0,48.7640495300293,886,9981.0
1430,0.3476574718952179,-11.212899208068848,-244,6864.0,56.64697265625,735,9981.0
1440,0.34756699204444885,-19.007343292236328,-285,6864.0,38.644935607910156,447,9981.0
1450,0.3477904200553894,-20.75088119506836,-389,6864.0,4.497095108032227,14,9981.0
1460,0.348850280046463,-18.036338806152344,-228,6864.0,-27.095048904418945,-571,9981.0
1470,0.3490491211414337,-1.3394075632095337,110,6864.0,-52.490997314453125,-1029,9981.0
1480,0.34956806898117065,11.517644882202148,163,6864.0,-64.7943344116211,-1053,9981.0
1490,0.350284218788147,6.837718963623047,23,6864.0,-69.26241302490234,-979,9981.0
1500,0.3512670397758484,-3.4828193187713623,-146,6864.0,-61.92094421386719,-838,9981.0
1510,0.35224294662475586,-11.742793083190918,-245,6864.0,-27.26724624633789,-271,9981.0
1520,0.3534107208251953,-1.1671369075775146,-10,6864.0,12.284024238586426,357,9981.0
1530,0.3553794324398041,24.94578742980957,394,6864.0,46.23717498779297,992,9981.0
1540,0.3562917411327362,38.22576141357422,608,6864.0,74.96017456054688,1468,9981.0
1550,0.3576759994029999,30.640838623046875,406,6864.0,93.29322814941406,1661,9981.0
1560,0.3578149080276489,11.082247734069824,22,6864.0,97.98005676269531,1539,9981.0
1570,0.35845625400543213,-18.76363182067871,-507,6864.0,84.97998046875,1265,9981.0
1580,0.3597024083137512,-40.90761184692383,-723,6864.0,58.64631652832031,807,9981.0
1590,0.3599216043949127,-53.224918365478516,-789,6864.0,35.80524826049805,309,9981.0
1600,0.3552679419517517,-40.79852294921875,-527,6864.0,12.202247619628906,221,9981.0
1610,0.35547247529029846,-17.272680282592773,-224,6864.0,-12.486006736755371,-278,9981.0
1620,0.35561686754226685,14.199841499328613,348,6864.0,-25.120866775512695,-483,9981.0
1630,0.35578107833862305,39.3045768737793,755,6864.0,-34.643226623535156,-697,9981.0
1640,0.35605913400650024,41.63275909423828,612,6864.0,-36.93730545043945,-665,9981.0
1650,0.35260188579559326,18.91667938232422,222,6864.0,-50.59830856323242,-835,9981.0
1660,0.3528284728527069,-15.681195259094238,-349,6864.0,-49.72359085083008,-759,9981.0
1670,0.3532159924507141,-28.60457992553711,-518,6864.0,-23.293752670288086,-179,9981.0
1680,0.35317787528038025,-19.032451629638672,-306,6864.0,-1.4663701057434082,196,9981.0
1690,0.3507798910140991,1.7181966304779053,115,6864.0,20.38787078857422,579,9981.0
1700,0.3503926992416382,20.148820877075195,336,6864.0,44.60293960571289,748,9981.0
1710,0.34980618953704834,22.65901756286621,242,6864.0,56.550567626953125,1071,9981.0
1720,0.3487810492515564,17.641210556030273,289,6864.0,59.965736389160156,1026,9981.0
1730,0.34788626432418823,19.768936157226562,283,6864.0,44.03520202636719,510,9981.0
1740,0.34690141677856445,13.788188934326172,225,6864.0,23.750690460205078,304,9981.0
1750,0.3457725942134857,5.052517890930176,129,6864.0,-1.269398808479309,-158,9981.0
1760,0.34577667713165283,-2.8830652236938477,-133,6864.0,-32.70623779296875,-560,9981.0
1770,0.3455510437488556,-16.66143798828125,-406,6864.0,-65.15408325195312,-1226,9981.0
1780,0.34348174929618835,-37.546607971191406,-614,6864.0,-91.43983459472656,-1624,9981.0
1790,0.34299033880233765,-42.80813980102539,-639,6864.0,-89.24056243896484,-1413,9981.0
1800,0.34278324246406555,-20.667329788208008,-160,6864.0,-70.37543487548828,-1016,9981.0
1810,0.3428385555744171,18.475862503051758,486,6864.0,-51.836669921875,-609,9981.0
1820,0.3463767468929291,39.30293655395508,674,6864.0,-26.72742462158203,-287,9981.0
1830,0.34722617268562317,49.94577407836914,685,6864.0,7.80853271484375,300,9981.0
1840,0.34756726026535034,29.82813262939453,261,6864.0,32.05388259887695,714,9981.0
1850,0.34792518615722656,2.1985554695129395,-94,6864.0,46.215858459472656,976,9981.0
1860,0.34831148386001587,-19.80535316467285,-407,6864.0,57.20500946044922,1054,9981.0
1870,0.35041189193725586,-28.8435115814209,-532,6864.0,49.27559280395508,766,9981.0
1880,0.3506421744823456,-29.353235244750977,-477,6864.0,38.66804885864258,349,9981.0
1890,0.35101568698883057,-6.448075294494629,219,6864.0,8.978617668151855,-88,9981.0
1900,0.3514115810394287,24.159862518310547,594,6864.0,-22.196441650390625,-531,9981.0
1910,0.3496997058391571,42.20658874511719,562,6864.0,-48.54579544067383,-779,9981.0
1920,0.3498706817626953,18.705015182495117,-5,6864.0,-71.48016357421875,-1282,9981.0
1930,0.35004037618637085,-31.94811248779297,-855,6864.0,-95.35665893554688,-1494,9981.0
1940,0.35014593601226807,-71.89456176757812,-1284,6864.0,-98.62134552001953,-1457,9981.0
1950,0.35042834281921387,-66.109130859375,-948,6864.0,-73.3986587524414,-886,9981.0
1960,0.35230347514152527,-32.78496551513672,-286,6864.0,-27.55628204345703,-37,9981.0
1970,0.35371407866477966,12.969294548034668,424,6864.0,17.67959213256836,753,9981.0
1980,0.354282408952713,46.405738830566406,824,6864.0,73.49503326416016,1553,9981.0
1990,0.35673725605010986,54.36616516113281,780,6864.0,106.46883392333984,1856,9981.0
2000,0.3569435775279999,40.035850524902344,474,6864.0,128.1680145263672,2113,9981.0
2010,0.3579184114933014,11.456398010253906,66,6864.0,132.7672119140625,2238,9981.0
2020,0.3579469323158264,-15.346040725708008,-424,6864.0,126.97565460205078,2001,9981.0
2030,0.3580819070339203,-31.121496200561523,-475,6864.0,96.02983856201172,1458,9981.0
2040,0.35423097014427185,-27.225496292114258,-439,6864.0,50.07428741455078,729,9981.0
2050,0.35373201966285706,-8.175970077514648,-26,6864.0,6.638672828674316,-224,9981.0
2060,0.353486567735672,14.923905372619629,358,6864.0,-35.75056076049805,-727,9981.0
2070,0.3540199100971222,20.37847137451172,277,6864.0,-69.36032104492188,-1180,9981.0
2080,0.3540317416191101,9.08613109588623,-33,6864.0,-93.7034912109375,-1563,9981.0
2090,0.3499293625354767,-4.3100056648254395,-73,6864.0,-108.7101058959961,-1756,9981.0
2100,0.34983178973197937,0.13957953453063965,17,6864.0,-95.68891143798828,-1332,9981.0
2110,0.34977585077285767,0.4587586522102356,-32,6864.0,-51.772621154785156,-742,9981.0
2120,0.35109925270080566,-4.31257438659668,-149,6864.0,-15.825338363647461,-120,9981.0
2130,0.3505856394767761,3.8375375270843506,53,6864.0,11.02883243560791,347,9981.0
2140,0.3502102792263031,6.323284149169922,116,6864.0,25.328672409057617,617,9981.0
2150,0.3496294915676117,-4.8256025314331055,-107,6864.0,44.486080169677734,848,9981.0
2160,0.3488088548183441,-19.857982635498047,-388,6864.0,65.47039794921875,1043,9981.0
2170,0.34782758355140686,-22.122913360595703,-334,6864.0,64.45431518554688,859,9981.0
2180,0.34738627076148987,-16.220989227294922,-146,6864.0,46.60919189453125,718,9981.0
2190,0.3461795747280121,-10.620718955993652,-117,6864.0,28.810279846191406,409,9981.0
2200,0.34516167640686035,3.5214109420776367,13,6864.0,-6.9006452560424805,-317,9981.0
2210,0.34443679451942444,10.963829040527344,342,6864.0,-51.271949768066406,-1045,9981.0
2220,0.3436775505542755,21.780113220214844,343,6864.0,-94.722900390625,-1677,9981.0
2230,0.3429323732852936,20.683116912841797,277,6864.0,-121.9176025390625,-1993,9981.0
2240,0.34272006154060364,11.370954513549805,118,6864.0,-135.7223663330078,-2258,9981.0
2250,0.3418385088443756,-1.9722484350204468,-56,6864.0,-132.42550659179688,-2104,9981.0
2260,0.3433290123939514,-13.483941078186035,-179,6864.0,-95.7734375,-1532,9981.0
2270,0.3427002429962158,-2.5100526809692383,161,6864.0,-46.23384475708008,-541,9981.0
2280,0.34505191445350647,33.42632293701172,640,6864.0,14.181154251098633,481,9981.0
2290,0.34575843811035156,41.16200637817383,631,6864.0,62.586097717285156,1171,9981.0
2300,0.3464067280292511,29.859243392944336,395,6864.0,100.29570007324219,1790,9981.0
2310,0.35341697931289673,2.7342545986175537,-128,6864.0,123.76042175292969,1930,9981.0
2320,0.3545471131801605,-37.922462463378906,-719,6864.0,111.66754150390625,1643,9981.0
2330,0.3556167185306549,-64.658203125,-1020,6864.0,91.66773986816406,1370,9981.0
2340,0.35628223419189453,-53.453895568847656,-804,6864.0,67.15160369873047,976,9981.0
2350,0.3533112108707428,-16.843250274658203,-66,6864.0,24.439010620117188,214,9981.0
2360,0.3546348810195923,28.230327606201172,639,6864.0,-21.085063934326172,-669,9981.0
2370,0.35584843158721924,57.67119598388672,1045,6864.0,-40.6358757019043,-626,9981.0
2380,0.35691139101982117,52.51890563964844,779,6864.0,-52.860252380371094,-772,9981.0
2390,0.3579309582710266,15.175700187683105,-12,6864.0,-49.113037109375,-771,9981.0
2400,0.35510876774787903,-27.631805419921875,-722,6864.0,-32.4243049621582,-354,9981.0
2410,0.35628828406333923,-57.0413932800293,-1003,6864.0,-7.511951446533203,186,9981.0
2420,0.3572593331336975,-63.41766357421875,-1041,6864.0,21.86544418334961,602,9981.0
2430,0.35829582810401917,-53.616539001464844,-888,6864.0,51.45277786254883,946,9981.0
2440,0.3559225797653198,-34.76432800292969,-466,6864.0,58.25251388549805,1060,9981.0
2450,0.3570680320262909,3.558225631713867,210,6864.0,51.34176254272461,762,9981.0
2460,0.35844549536705017,45.9001579284668,886,6864.0,35.049137115478516,485,9981.0
2470,0.359323650598526,69.8415756225586,1257,6864.0,19.203006744384766,87,9981.0
2480,0.3566111624240875,72.80502319335938,1189,6864.0,1.686562418937683,22,9981.0
2490,0.3573153018951416,57.87594985961914,895,6864.0,3.2138798236846924,111,9981.0
2500,0.3574368357658386,32.144901275634766,345,6864.0,14.245817184448242,183,9981.0
2510,0.3573033809661865,-3.732588291168213,-227,6864.0,6.104762077331543,38,9981.0
2520,0.35741573572158813,-34.91585159301758,-720,6864.0,-17.14996910095215,-436,9981.0
2530,0.35361436009407043,-58.2017936706543,-995,6864.0,-35.0297966003418,-639,9981.0
2540,0.35312962532043457,-52.013057708740234,-589,6864.0,-36.62598419189453,-531,9981.0
2550,0.3526640832424164,-22.208894729614258,-143,6864.0,-30.52326202392578,-448,9981.0
2560,0.352030873298645,12.683893203735352,357,6864.0,-8.603699684143066,42,9981.0
2570,0.3521023690700531,36.89464569091797,739,6864.0,22.637680053710938,483,9981.0
2580,0.3511276841163635,39.91419982910156,568,6864.0,49.89793395996094,834,9981.0
2590,0.34996935725212097,25.537220001220703,230,6864.0,66.24271392822266,1190,9981.0
2600,0.3483497202396393,6.271934986114502,13,6864.0,67.1876449584961,1139,9981.0
2610,0.34690967202186584,-8.931607246398926,-327,6864.0,48.70578384399414,628,9981.0
2620,0.34609344601631165,-27.13157844543457,-502,6864.0,14.301859855651855,77,9981.0
2630,0.34436696767807007,-29.634946823120117,-471,6864.0,-27.03580093383789,-824,9981.0
2640,0.34323108196258545,-23.306161880493164,-277,6864.0,-66.69938659667969,-1370,9981.0
2650,0.342002272605896,-7.533344268798828,80,6864.0,-111.80716705322266,-1995,9981.0
2660,0.3392293155193329,15.672053337097168,337,6864.0,-130.92332458496094,-2182,9981.0
2670,0.3380124866962433,23.60620880126953,339,6864.0,-141.9410858154297,-2225,9981.0
2680,0.33665382862091064,13.369839668273926,93,6864.0,-135.89219665527344,-2023,9981.0
2690,0.3358684480190277,1.2402219772338867,-75,6864.0,-101.24614715576172,-1361,9981.0
2700,0.3423861265182495,2.067451000213623,-65,6864.0,-51.226646423339844,-504,9981.0
2710,0.3436671197414398,6.452770709991455,7,6864.0,-2.5260000228881836,194,9981.0
2720,0.3452501595020294,9.81527328491211,255,6864.0,44.778621673583984,878,9981.0
2730,0.34728550910949707,21.956270217895508,402,6864.0,95.58391571044922,1638,9981.0
2740,0.3483937978744507,10.974682807922363,181,6864.0,131.8072052001953,2143,9981.0
2750,0.35229426622390747,-9.507285118103027,-254,6864.0,150.49285888671875,2401,9981.0
2760,0.35350683331489563,-25.888463973999023,-397,6864.0,150.83033752441406,2343,9981.0
2770,0.354032039642334,-25.06830596923828,-227,6864.0,122.6942138671875,1847,9981.0
2780,0.35829275846481323,-11.248834609985352,-131,6864.0,80.8403549194336,1164,9981.0
2790,0.35373634099960327,8.607551574707031,174,6864.0,30.117855072021484,253,9981.0
2800,0.35506534576416016,12.561001777648926,183,6864.0,-23.863365173339844,-741,9981.0
2810,0.3571297526359558,7.751936912536621,108,6864.0,-80.24608612060547,-1564,9981.0
2820,0.3586254119873047,-11.235901832580566,-316,6864.0,-122.40301513671875,-2070,9981.0
2830,0.35973644256591797,-26.654632568359375,-442,6864.0,-151.5780792236328,-2423,9981.0
2840,0.3555885851383209,-28.910112380981445,-582,6864.0,-159.04864501953125,-2520,9981.0
2850,0.35543546080589294,-27.42300033569336,-382,6864.0,-132.81488037109375,-1943,9981.0
2860,0.35864776372909546,0.048922792077064514,193,6864.0,-93.74256896972656,-1392,9981.0
2870,0.3586577773094177,32.06497573852539,561,6864.0,-50.544830322265625,-697,9981.0
2880,0.36135169863700867,49.14838409423828,799,6864.0,9.593465805053711,345,9981.0
2890,0.3628711402416229,47.66072082519531,659,6864.0,67.84154510498047,1388,9981.0
2900,0.3644132614135742,30.120206832885742,392,6864.0,117.9209213256836,2309,9981.0
2910,0.364864706993103,4.348367691040039,-44,6864.0,155.35089111328125,2772,9981.0
2920,0.3628702163696289,-21.759647369384766,-490,6864.0,166.014892578125,2646,9981.0
2930,0.36251965165138245,-40.73576736450195,-705,6864.0,144.0775604248047,2176,9981.0
2940,0.3631727993488312,-39.05888366699219,-519,6864.0,108.58500671386719,1633,9981.0
2950,0.3620629906654358,-11.810908317565918,-181,6864.0,58.237953186035156,868,9981.0
2960,0.36136478185653687,6.102288722991943,152,6864.0,10.797646522521973,-166,9981.0
2970,0.3530098795890808,7.718355655670166,89,6864.0,-43.664756774902344,-953,9981.0
2980,0.3525660037994385,5.901183128356934,243,6864.0,-89.6980972290039,-1738,9981.0
2990,0.3526532053947449,9.249626159667969,83,6864.0,-107.21475982666016,-1709,9981.0
3000,0.3526844084262848,-10.099444389343262,-240,6864.0,-83.6407470703125,-1179,9981.0
3010,0.3475619852542877,-24.284454345703125,-357,6864.0,-52.66451644897461,-792,9981.0
3020,0.3476884961128235,-19.421977996826172,-176,6864.0,-13.370471954345703,-164,9981.0
3030,0.34769219160079956,13.435046195983887,328,6864.0,28.851348876953125,543,9981.0
3040,0.34758833050727844,35.41572189331055,688,6864.0,60.32353591918945,1045,9981.0
3050,0.34691333770751953,36.21758270263672,601,6864.0,73.31111907958984,1035,9981.0
3060,0.34512993693351746,14.00551986694336,41,6864.0,62.113643646240234,1006,9981.0
3070,0.3442494571208954,-14.733735084533691,-280,6864.0,50.433650970458984,818,9981.0
3080,0.3440631628036499,-31.62448501586914,-595,6864.0,26.239063262939453,240,9981.0
3090,0.3440895080566406,-25.505781173706055,-354,6864.0,-24.6606502532959,-577,9981.0
3100,0.3431577682495117,-10.336721420288086,-103,6864.0,-79.20211791992188,-1604,9981.0
3110,0.34375226497650146,2.54589581489563,187,6864.0,-115.24154663085938,-1964,9981.0
3120,0.34421515464782715,18.336597442626953,431,6864.0,-122.07393646240234,-2018,9981.0
3130,0.3442855775356293,29.590253829956055,490,6864.0,-103.3632583618164,-1584,9981.0
3140,0.3469119071960449,29.74319076538086,477,6864.0,-67.80319213867188,-981,9981.0
3150,0.3481515944004059,14.708877563476562,248,6864.0,-28.04145622253418,-480,9981.0
3160,0.3490580916404724,-0.9181609749794006,-66,6864.0,4.024863243103027,233,9981.0
3170,0.3499767482280731,-12.06514835357666,-310,6864.0,44.1666374206543,1090,9981.0
3180,0.3509526550769806,-17.996400833129883,-332,6864.0,74.54649353027344,1490,9981.0
3190,0.3520453870296478,-22.291379928588867,-435,6864.0,81.6577377319336,1332,9981.0
3200,0.35243549942970276,-27.969911575317383,-525,6864.0,75.03280639648438,1344,9981.0
3210,0.35256826877593994,-21.952213287353516,-314,6864.0,64.32190704345703,936,9981.0
3220,0.3528231680393219,-7.6181745529174805,-48,6864.0,45.21632385253906,565,9981.0
3230,0.35087162256240845,16.07435417175293,465,6864.0,20.43438148498535,7,9981.0
3240,0.35118600726127625,34.137351989746094,682,6864.0,-6.241322040557861,-220,9981.0
3250,0.35168296098709106,38.68452072143555,689,6864.0,-33.19976806640625,-894,9981.0
3260,0.35221609473228455,30.216890335083008,380,6864.0,-65.7955551147461,-1161,9981.0
3270,0.3527277410030365,7.675863265991211,24,6864.0,-63.389347076416016,-1122,9981.0
3280,0.34856849908828735,-17.78102684020996,-408,6864.0,-39.190765380859375,-576,9981.0
3290,0.3489845097064972,-29.051923751831055,-526,6864.0,-3.391639232635498,242,9981.0
3300,0.3497002124786377,-33.821380615234375,-494,6864.0,37.526123046875,820,9981.0
3310,0.3499108552932739,-25.701391220092773,-464,6864.0,76.19786071777344,1485,9981.0
3320,0.3486694097518921,-20.95935821533203,-282,6864.0,106.72431182861328,1871,9981.0
3330,0.34870463609695435,-4.94838809967041,-25,6864.0,121.37504577636719,2082,9981.0
3340,0.34829550981521606,9.696331024169922,120,6864.0,110.5203628540039,1774,9981.0
3350,0.3492116332054138,10.250602722167969,103,6864.0,82.43255615234375,1172,9981.0
3360,0.3452107608318329,-1.6912766695022583,-116,6864.0,46.56821823120117,529,9981.0
3370,0.34509819746017456,-3.8089966773986816,11,6864.0,2.6043872833251953,-270,9981.0
3380,0.3452216386795044,8.216928482055664,336,6864.0,-44.4239387512207,-1078,9981.0
3390,0.34504926204681396,27.207292556762695,435,6864.0,-106.38662719726562,-1803,9981.0
3400,0.3454497456550598,30.832300186157227,439,6864.0,-143.92835998535156,-2436,9981.0
3410,0.3435634672641754,19.28447151184082,186,6864.0,-147.9790496826172,-2123,9981.0
3420,0.3433959186077118,3.8476760387420654,-31,6864.0,-115.14302062988281,-1601,9981.0
3430,0.34447526931762695,-8.123892784118652,-169,6864.0,-72.85498809814453,-991,9981.0
3440,0.34449705481529236,-13.096782684326172,-231,6864.0,-19.147695541381836,-53,9981.0
3450,0.3458216190338135,-9.809674263000488,-28,6864.0,33.07966232299805,661,9981.0
3460,0.34552180767059326,-9.670434951782227,-102,6864.0,69.51216888427734,1169,9981.0
3470,0.34533509612083435,-7.1356048583984375,-74,6864.0,94.61820220947266,1527,9981.0
3480,0.34519636631011963,4.625613212585449,227,6864.0,89.33785247802734,1269,9981.0
3490,0.3447977602481842,17.296728134155273,263,6864.0,64.69649505615234,1021,9981.0
3500,0.34415876865386963,23.018909454345703,311,6864.0,36.23632049560547,495,9981.0
3510,0.34338220953941345,14.047755241394043,90,6864.0,2.939352512359619,3,9981.0
3520,0.3433319330215454,-10.90463924407959,-320,6864.0,-35.661319732666016,-907,9981.0
3530,0.3436054587364197,-40.80952453613281,-699,6864.0,-86.09610748291016,-1682,9981.0
3540,0.3429678678512573,-51.8962516784668,-777,6864.0,-132.2095489501953,-2542,9981.0
3550,0.3422539234161377,-26.18840217590332,-201,6864.0,-167.92745971679688,-2791,9981.0
3560,0.34320852160453796,-0.8620139956474304,164,6864.0,-158.0475311279297,-2700,9981.0
3570,0.34223029017448425,27.05067253112793,552,6864.0,-126.34561920166016,-1935,9981.0
3580,0.3467249274253845,40.83714294433594,766,6864.0,-77.59212493896484,-1103,9981.0
3590,0.34847554564476013,32.49191665649414,452,6864.0,-26.459630966186523,-193,9981.0
3600,0.3501974940299988,10.385101318359375,107,6864.0,27.788204193115234,744,9981.0
3610,0.35170891880989075,-9.504748344421387,-261,6864.0,83.48136901855469,1597,9981.0
3620,0.3526994287967682,-22.745986938476562,-472,6864.0,129.22132873535156,2209,9981.0
3630,0.35800084471702576,-27.297611236572266,-374,6864.0,156.28797912597656,2572,9981.0
3640,0.35886260867118835,-19.896060943603516,-164,6864.0,163.8416748046875,2512,9981.0
3650,0.3596736788749695,4.534534931182861,262,6864.0,145.11691284179688,2234,9981.0
3660,0.3601550757884979,23.83613395690918,435,6864.0,111.78179931640625,1647,9981.0
3670,0.3543083965778351,31.125640869140625,579,6864.0,77.92459869384766,1153,9981.0
3680,0.3562854528427124,20.061620712280273,99,6864.0,32.960514068603516,467,9981.0
3690,0.35768595337867737,-16.827041625976562,-465,6864.0,-23.24188232421875,-642,9981.0
3700,0.35970979928970337,-40.873756408691406,-729,6864.0,-78.52796936035156,-1312,9981.0
3710,0.36165010929107666,-42.635189056396484,-748,6864.0,-94.91850280761719,-1493,9981.0
3720,0.35505804419517517,-25.390581130981445,-305,6864.0,-87.72396087646484,-1324,9981.0
3730,0.35638317465782166,-0.2349148988723755,66,6864.0,-69.56752014160156,-845,9981.0
3740,0.3580871522426605,23.388071060180664,459,6864.0,-34.12004470825195,-426,9981.0
3750,0.3600046932697296,35.96955871582031,571,6864.0,8.719701766967773,303,9981.0
3760,0.3562271296977997,27.981281280517578,449,6864.0,46.95797348022461,780,9981.0
3770,0.35728174448013306,20.30807876586914,227,6864.0,77.34563446044922,1429,9981.0
3780,0.3578234314918518,5.7217302322387695,34,6864.0,99.44170379638672,1735,9981.0
3790,0.3578437566757202,-6.832108497619629,-196,6864.0,104.51895141601562,1866,9981.0
3800,0.3533957898616791,-14.922260284423828,-304,6864.0,93.25761413574219,1463,9981.0
3810,0.352702796459198,-19.38636016845703,-337,6864.0,66.56121826171875,892,9981.0
3820,0.3513525128364563,-13.518653869628906,-173,6864.0,27.14801025390625,350,9981.0
3830,0.3516670763492584,-4.683126926422119,-98,6864.0,-26.44427490234375,-528,9981.0
3840,0.3513588309288025,2.5457303524017334,-88,6864.0,-73.48223876953125,-1412,9981.0
3850,0.34610050916671753,2.916630983352661,68,6864.0,-109.51798248291016,-1987,9981.0
3860,0.34609124064445496,9.001468658447266,185,6864.0,-127.15272521972656,-2003,9981.0
3870,0.3455069959163666,5.765953540802002,78,6864.0,-112.05167388916016,-1606,9981.0
3880,0.34455907344818115,7.100524425506592,124,6864.0,-75.44593811035156,-842,9981.0
3890,0.3442992568016052,11.43502140045166,252,6864.0,-33.3061408996582,-167,9981.0
3900,0.34385979175567627,18.197044372558594,219,6864.0,10.244535446166992,428,9981.0
3910,0.34357884526252747,9.6779203414917,115,6864.0,40.544410705566406,737,9981.0
3920,0.3434157967567444,-4.622803211212158,-123,6864.0,61.454368591308594,893,9981.0
3930,0.34310537576675415,-21.40724754333496,-398,6864.0,61.34458923339844,884,9981.0
3940,0.3423166871070862,-29.85772705078125,-449,6864.0,46.87031555175781,503,9981.0
3950,0.3423701524734497,-26.43161392211914,-272,6864.0,22.678159713745117,174,9981.0
3960,0.3425194323062897,-11.148421287536621,-76,6864.0,-14.36195182800293,-452,9981.0
3970,0.3433058559894562,13.001774787902832,415,6864.0,-52.85676574707031,-1052,9981.0
3980,0.3415948450565338,43.79998779296875,804,6864.0,-79.94048309326172,-1303,9981.0
3990,0.3422083556652069,60.30735397338867,974,6864.0,-90.44660186767578,-1451,9981.0
4000,0.34253883361816406,36.23274230957031,382,6864.0,-76.89350128173828,-1187,9981.0
4010,0.34509703516960144,-1.8047055006027222,-142,6864.0,-54.96528625488281,-802,9981.0
4020,0.3465389907360077,-28.02531623840332,-540,6864.0,-21.46410369873047,-191,9981.0
4030,0.3476525843143463,-35.73105239868164,-603,6864.0,16.311635971069336,605,9981.0
4040,0.3487302362918854,-29.24872589111328,-376,6864.0,61.02095031738281,1149,9981.0
4050,0.34933772683143616,-15.634490013122559,-216,6864.0,93.95355224609375,1494,9981.0
4060,0.34999334812164307,-1.3343093395233154,98,6864.0,117.02765655517578,1895,9981.0
4070,0.3497776687145233,8.83565902709961,135,6864.0,124.05338287353516,1971,9981.0
4080,0.3493616282939911,14.725367546081543,304,6864.0,110.95494842529297,1618,9981.0
4090,0.3511734902858734,13.786442756652832,229,6864.0,79.2990951538086,1173,9981.0
4100,0.35117629170417786,5.267655372619629,90,6864.0,41.657562255859375,438,9981.0
4110,0.34590446949005127,-2.5042130947113037,111,6864.0,6.565224647521973,-164,9981.0
4120,0.3459022343158722,-3.69445538520813,-26,6864.0,-33.04048538208008,-706,9981.0
4130,0.34633123874664307,-9.556671142578125,-221,6864.0,-74.0312271118164,-1352,9981.0
4140,0.3467565178871155,-16.660362243652344,-336,6864.0,-110.62124633789062,-1895,9981.0
4150,0.34692952036857605,-19.51001739501953,-290,6864.0,-113.05072021484375,-1722,9981.0
4160,0.3425472378730774,-15.947391510009766,-297,6864.0,-94.86531066894531,-1486,9981.0
4170,0.343612939119339,-9.863212585449219,-15,6864.0,-66.42964172363281,-1083,9981.0
4180,0.344155877828598,-0.2976929247379303,-14,6864.0,-33.595123291015625,-331,9981.0
4190,0.34502503275871277,7.822437763214111,219,6864.0,8.065876960754395,465,9981.0
4200,0.34612345695495605,25.110801696777344,384,6864.0,48.9801025390625,1076,9981.0
4210,0.34656035900115967,28.925872802734375,540,6864.0,85.09803009033203,1544,9981.0
4220,0.34686151146888733,25.366914749145508,360,6864.0,104.30526733398438,1671,9981.0
4230,0.3465152680873871,9.695784568786621,180,6864.0,102.0904769897461,1428,9981.0
4240,0.343935489654541,-1.2811051607131958,-26,6864.0,86.3932113647461,1274,9981.0
4250,0.3439119756221771,-12.778648376464844,-217,6864.0,59.126956939697266,644,9981.0
4260,0.34471258521080017,-15.364646911621094,-113,6864.0,10.607491493225098,-209,9981.0
4270,0.34606674313545227,-8.048201560974121,6,6864.0,-45.439697265625,-1039,9981.0
4280,0.34745320677757263,3.8141651153564453,106,6864.0,-84.43628692626953,-1430,9981.0
4290,0.3438107371330261,10.132902145385742,175,6864.0,-102.3868637084961,-1843,9981.0
4300,0.34455862641334534,11.301032066345215,451,6864.0,-102.77482604980469,-1691,9981.0
4310,0.3448963761329651,10.715082168579102,111,6864.0,-87.20997619628906,-1402,9981.0
4320,0.34490859508514404,5.852851390838623,130,6864.0,-61.82015609741211,-842,9981.0
4330,0.344992458820343,2.201296329498291,-29,6864.0,-31.45660972595215,-359,9981.0
4340,0.34565621614456177,-8.77587604522705,-116,6864.0,0.3018670082092285,151,9981.0
4350,0.3458007276058197,-12.31735897064209,-273,6864.0,34.951385498046875,540,9981.0
4360,0.3457585871219635,-18.001066207885742,-299,6864.0,55.15221405029297,984,9981.0
4370,0.34555351734161377,-21.8665828704834,-417,6864.0,57.612449645996094,1044,9981.0
4380,0.3458181321620941,-14.233891487121582,-192,6864.0,54.93226623535156,916,9981.0
4390,0.34562453627586365,-7.379910945892334,-150,6864.0,41.76893997192383,827,9981.0
4400,0.3459719717502594,-4.414947032928467,-121,6864.0,21.13450050354004,275,9981.0
4410,0.34628206491470337,1.9215031862258911,73,6864.0,-12.09274959564209,-315,9981.0
4420,0.34217044711112976,9.275140762329102,118,6864.0,-49.73383712768555,-798,9981.0
4430,0.34274786710739136,6.839086055755615,-23,6864.0,-81.87867736816406,-1364,9981.0
4440,0.34326231479644775,-3.463831901550293,-56,6864.0,-90.19212341308594,-1496,9981.0
4450,0.3431040346622467,-5.8089118003845215,-118,6864.0,-77.57887268066406,-1209,9981.0
4460,0.34688788652420044,-6.921009063720703,-48,6864.0,-50.05261993408203,-825,9981.0
4470,0.34780198335647583,3.6409926414489746,121,6864.0,-4.74118709564209,301,9981.0
4480,0.34933334589004517,15.420134544372559,212,6864.0,45.18324661254883,945,9981.0
4490,0.3514137268066406,17.15060806274414,311,6864.0,81.30880737304688,1396,9981.0
4500,0.3524636924266815,12.522632598876953,136,6864.0,103.4889144897461,1789,9981.0
4510,0.35100215673446655,7.952126502990723,130,6864.0,110.98342895507812,1741,9981.0
4520,0.35141080617904663,1.832192063331604,40,6864.0,97.82695770263672,1598,9981.0
4530,0.3517118990421295,-2.4167752265930176,-179,6864.0,73.57294464111328,1176,9981.0
4540,0.3548419773578644,1.5619372129440308,-68,6864.0,39.690555572509766,572,9981.0
4550,0.3478226959705353,-2.1328351497650146,-186,6864.0,5.652081489562988,-89,9981.0
4560,0.348369836807251,-14.884739875793457,-304,6864.0,-32.493736267089844,-767,9981.0
4570,0.34900563955307007,-24.47072410583496,-262,6864.0,-79.07010650634766,-1681,9981.0
4580,0.34950515627861023,-14.089696884155273,-77,6864.0,-114.06005859375,-1961,9981.0
4590,0.3500526547431946,4.120250225067139,164,6864.0,-114.04830169677734,-1868,9981.0
4600,0.34544694423675537,16.38480567932129,355,6864.0,-91.49946594238281,-1343,9981.0
4610,0.34559541940689087,19.466405868530273,271,6864.0,-55.42854309082031,-447,9981.0
4620,0.3474389314651489,14.7453031539917,222,6864.0,-0.35431376099586487,181,9981.0
4630,0.34761613607406616,7.333140850067139,129,6864.0,46.55060577392578,1029,9981.0
4640,0.34857484698295593,-2.1145622730255127,-90,6864.0,87.39200592041016,1682,9981.0
4650,0.34877917170524597,-9.648005485534668,-122,6864.0,105.82807159423828,1631,9981.0
4660,0.3485488295555115,-9.086357116699219,-117,6864.0,100.52022552490234,1533,9981.0
4670,0.34832391142845154,-8.12236499786377,-135,6864.0,77.63228607177734,1120,9981.0
4680,0.3432084918022156,-6.662246227264404,-100,6864.0,42.277339935302734,368,9981.0
4690,0.34240013360977173,1.17599356174469,81,6864.0,-1.0383214950561523,-409,9981.0
4700,0.3424074649810791,2.301361560821533,86,6864.0,-49.53598403930664,-1193,9981.0
4710,0.3421168923377991,2.697835683822632,44,6864.0,-104.53594207763672,-1884,9981.0
4720,0.34259673953056335,1.6687320470809937,22,6864.0,-131.41456604003906,-2214,9981.0
4730,0.33999761939048767,-0.9065771698951721,-27,6864.0,-123.90076446533203,-1765,9981.0
4740,0.3396604359149933,-10.148720741271973,-203,6864.0,-92.43869018554688,-1285,9981.0
4750,0.3411792814731598,-13.958756446838379,-123,6864.0,-46.458953857421875,-522,9981.0
4760,0.34146884083747864,-5.8673014640808105,-85,6864.0,5.095065593719482,235,9981.0
4770,0.3452858328819275,7.798770904541016,238,6864.0,45.9157829284668,905,9981.0
4780,0.3459295928478241,16.98552131652832,254,6864.0,80.30735778808594,1517,9981.0
4790,0.34622228145599365,17.463911056518555,284,6864.0,96.34061431884766,1595,9981.0
4800,0.3464756906032562,12.235579490661621,133,6864.0,95.35660552978516,1576,9981.0
4810,0.34638023376464844,4.872900009155273,42,6864.0,85.89070892333984,1182,9981.0
4820,0.3458534777164459,-2.363755941390991,85,6864.0,61.954200744628906,666,9981.0
4830,0.3462505638599396,-1.2418851852416992,15,6864.0,18.909839630126953,76,9981.0
4840,0.3466111719608307,-13.863765716552734,-294,6864.0,-21.84610939025879,-629,9981.0
4850,0.3475770950317383,-24.57823371887207,-364,6864.0,-71.1910171508789,-1490,9981.0
4860,0.3431412875652313,-22.110490798950195,-105,6864.0,-93.42424774169922,-1650,9981.0
4870,0.34360143542289734,-0.30544185638427734,70,6864.0,-83.4218978881836,-1176,9981.0
4880,0.3439127206802368,15.499933242797852,247,6864.0,-48.881954193115234,-479,9981.0
4890,0.34435832500457764,23.058134078979492,429,6864.0,-6.608539581298828,52,9981.0
4900,0.34593167901039124,28.869712829589844,407,6864.0,24.658933639526367,457,9981.0
4910,0.34641459584236145,21.671457290649414,344,6864.0,60.518131256103516,1027,9981.0
4920,0.3473251461982727,3.5380566120147705,-72,6864.0,80.49382781982422,1503,9981.0
4930,0.34762054681777954,-17.191509246826172,-397,6864.0,82.39683532714844,1366,9981.0
4940,0.34765589237213135,-29.033933639526367,-522,6864.0,69.42362976074219,924,9981.0
4950,0.34372103214263916,-31.41444206237793,-413,6864.0,46.18825149536133,577,9981.0
4960,0.3434089720249176,-22.466306686401367,-272,6864.0,21.988698959350586,231,9981.0
4970,0.3431139290332794,-6.995287895202637,-17,6864.0,-6.314205646514893,-230,9981.0
4980,0.34336960315704346,13.280935287475586,299,6864.0,-31.966495513916016,-814,9981.0
4990,0.34108495712280273,23.80791664123535,453,6864.0,-64.82730865478516,-1297,9981.0
5000,0.34100139141082764,18.333070755004883,315,6864.0,-81.44988250732422,-1278,9981.0
5010,0.3410717844963074,15.959310531616211,179,6864.0,-70.73343658447266,-930,9981.0
5020,0.3414025604724884,5.300632953643799,72,6864.0,-42.30429458618164,-487,9981.0
5030,0.341636061668396,-3.520820140838623,-128,6864.0,-8.816802978515625,42,9981.0
5040,0.34173375368118286,-12.122468948364258,-199,6864.0,35.517608642578125,671,9981.0
5050,0.3420346975326538,-12.22999095916748,-200,6864.0,59.37248992919922,1213,9981.0
5060,0.3419913947582245,-7.019230365753174,-100,6864.0,73.84561920166016,1293,9981.0
5070,0.34152212738990784,1.156732439994812,116,6864.0,77.33155822753906,1136,9981.0
5080,0.3409097194671631,7.914444923400879,230,6864.0,70.52426147460938,1076,9981.0
5090,0.3402470052242279,10.928552627563477,173,6864.0,46.05830383300781,605,9981.0
5100,0.34038564562797546,10.71216869354248,149,6864.0,11.84844970703125,-48,9981.0
5110,0.34053924679756165,3.9744949340820312,132,6864.0,-30.80291748046875,-935,9981.0
5120,0.33854445815086365,-1.5577155351638794,9,6864.0,-73.50595092773438,-1558,9981.0
5130,0.33868131041526794,-16.271995544433594,-311,6864.0,-102.79884338378906,-1801,9981.0
5140,0.3390076458454132,-30.504186630249023,-587,6864.0,-113.1703109741211,-1783,9981.0
5150,0.3392433822154999,-26.96647071838379,-292,6864.0,-111.18792724609375,-1705,9981.0
5160,0.3409211039543152,-0.39620643854141235,114,6864.0,-86.6903305053711,-1023,9981.0
5170,0.3418014347553253,13.942277908325195,243,6864.0,-41.79168701171875,-515,9981.0
5180,0.3430344760417938,20.592689514160156,356,6864.0,-2.758411169052124,129,9981.0
5190,0.34432074427604675,12.746371269226074,127,6864.0,37.457096099853516,921,9981.0
5200,0.34536755084991455,7.284337520599365,87,6864.0,72.95673370361328,1305,9981.0
5210,0.3474309742450714,1.6963924169540405,-11,6864.0,90.64005279541016,1495,9981.0
5220,0.3482363820075989,-5.007662296295166,-140,6864.0,97.84838104248047,1552,9981.0
5230,0.3487852215766907,-10.342921257019043,-189,6864.0,93.6441879272461,1368,9981.0
5240,0.350405216217041,-11.755701065063477,-195,6864.0,71.90392303466797,989,9981.0
5250,0.35082733631134033,-8.411917686462402,-62,6864.0,37.92829895019531,377,9981.0
5260,0.3456982672214508,-1.0730104446411133,62,6864.0,-11.022576332092285,-332,9981.0
5270,0.3470681309700012,5.454990863800049,68,6864.0,-60.938720703125,-1033,9981.0
5280,0.3479231595993042,9.372835159301758,80,6864.0,-96.35220336914062,-1557,9981.0
5290,0.34900593757629395,12.030718803405762,172,6864.0,-120.44766998291016,-1995,9981.0
5300,0.34521859884262085,9.908757209777832,144,6864.0,-123.00789642333984,-2089,9981.0
5310,0.3456307649612427,5.246797561645508,139,6864.0,-99.20269012451172,-1377,9981.0
5320,0.3490450084209442,13.314260482788086,200,6864.0,-48.204341888427734,-442,9981.0
5330,0.3507940173149109,11.599740982055664,224,6864.0,7.1604509353637695,148,9981.0
5340,0.3516678810119629,10.755027770996094,126,6864.0,51.84527587890625,1144,9981.0
5350,0.35383936762809753,6.83404541015625,31,6864.0,87.57678985595703,1564,9981.0
5360,0.3549318313598633,-11.500789642333984,-224,6864.0,104.9144287109375,1650,9981.0
5370,0.35617795586586,-22.18675994873047,-407,6864.0,106.7551040649414,1839,9981.0
5380,0.35729172825813293,-17.33831214904785,-298,6864.0,100.59068298339844,1707,9981.0
5390,0.35308000445365906,-9.501602172851562,-151,6864.0,89.01285552978516,1435,9981.0
5400,0.3535075783729553,1.180109977722168,74,6864.0,58.06920623779297,746,9981.0
5410,0.3549063801765442,6.3278021812438965,111,6864.0,8.779276847839355,-120,9981.0
5420,0.3557136654853821,-1.0588942766189575,-49,6864.0,-38.216617584228516,-696,9981.0
5430,0.3483789265155792,-14.198256492614746,-262,6864.0,-71.10086822509766,-1156,9981.0
5440,0.34900081157684326,-20.606388092041016,-378,6864.0,-81.04792022705078,-1240,9981.0
5450,0.3496403396129608,-7.88687801361084,-41,6864.0,-72.30164337158203,-1191,9981.0
5460,0.35040679574012756,20.63974952697754,433,6864.0,-45.08985900878906,-788,9981.0
5470,0.351345032453537,32.95608139038086,448,6864.0,-30.55082130432129,-311,9981.0
5480,0.34772422909736633,26.184492111206055,378,6864.0,-3.2286643981933594,139,9981.0
5490,0.34850016236305237,18.98225212097168,330,6864.0,29.758846282958984,359,9981.0
5500,0.3488951027393341,8.361027717590332,-10,6864.0,48.006858825683594,975,9981.0
5510,0.34897416830062866,-13.764968872070312,-348,6864.0,58.63929748535156,1055,9981.0
5520,0.3457389175891876,-28.940031051635742,-513,6864.0,63.82952117919922,962,9981.0
5530,0.34567931294441223,-34.31233215332031,-512,6864.0,54.35161590576172,580,9981.0
5540,0.34518155455589294,-27.375450134277344,-302,6864.0,27.641029357910156,210,9981.0
5550,0.34468206763267517,-10.418126106262207,12,6864.0,1.9752033948898315,-134,9981.0
5560,0.3399202227592468,8.73246955871582,197,6864.0,-32.562957763671875,-702,9981.0
5570,0.34019601345062256,24.983715057373047,397,6864.0,-83.37232208251953,-1359,9981.0
5580,0.34071850776672363,25.912487030029297,345,6864.0,-122.6627426147461,-2167,9981.0
5590,0.3414507210254669,13.483438491821289,173,6864.0,-145.7033233642578,-2476,9981.0
5600,0.34173616766929626,-1.9078203439712524,-73,6864.0,-152.52731323242188,-2497,9981.0
5610,0.34189099073410034,-7.034120559692383,-155,6864.0,-137.5833740234375,-2052,9981.0
5620,0.34252798557281494,-9.297579765319824,-64,6864.0,-94.56526947021484,-1240,9981.0
5630,0.34437111020088196,-3.123065948486328,-67,6864.0,-37.91411209106445,-543,9981.0
5640,0.34623080492019653,-2.482959270477295,-27,6864.0,8.351366996765137,439,9981.0
5650,0.3521777391433716,0.5282543897628784,-35,6864.0,51.92607498168945,1054,9981.0
5660,0.3539680242538452,-10.39281177520752,-164,6864.0,101.94696807861328,1949,9981.0
5670,0.3562297523021698,-9.840536117553711,-148,6864.0,136.03074645996094,2268,9981.0
5680,0.3577215075492859,-4.658681869506836,-13,6864.0,137.8433837890625,2009,9981.0
5690,0.3587709367275238,-5.958707332611084,-70,6864.0,120.27600860595703,1888,9981.0
5700,0.3560289144515991,-9.895220756530762,-202,6864.0,99.1904296875,1638,9981.0
5710,0.35647672414779663,-4.485270977020264,-106,6864.0,73.27635955810547,1151,9981.0
5720,0.35692182183265686,3.8375253677368164,128,6864.0,34.23040771484375,353,9981.0
5730,0.35924437642097473,21.609743118286133,421,6864.0,-11.581771850585938,-418,9981.0
5740,0.35075247287750244,31.101587295532227,649,6864.0,-51.75101089477539,-920,9981.0
5750,0.35146650671958923,34.72404479980469,469,6864.0,-67.49488830566406,-1107,9981.0
5760,0.3519993722438812,20.34342384338379,143,6864.0,-67.97480773925781,-1220,9981.0
5770,0.35281094908714294,-10.212637901306152,-221,6864.0,-52.5336799621582,-739,9981.0
5780,0.3477676808834076,-33.85635757446289,-617,6864.0,-18.094276428222656,-22,9981.0
5790,0.3481499254703522,-31.882532119750977,-472,6864.0,18.09370994567871,332,9981.0
5800,0.34862011671066284,-24.361835479736328,-258,6864.0,45.44817352294922,953,9981.0
5810,0.3490314185619354,-9.244590759277344,-84,6864.0,63.09053421020508,1219,9981.0
5820,0.34904783964157104,8.381778717041016,193,6864.0,65.75318145751953,999,9981.0
5830,0.34470969438552856,17.939538955688477,340,6864.0,50.681121826171875,508,9981.0
5840,0.34489136934280396,14.856790542602539,258,6864.0,32.80630874633789,425,9981.0
5850,0.34465041756629944,4.500305652618408,-5,6864.0,18.61288833618164,346,9981.0
5860,0.34469178318977356,-0.44150930643081665,-44,6864.0,4.396417617797852,108,9981.0
5870,0.34233537316322327,0.8814513683319092,-19,6864.0,-16.41270637512207,-368,9981.0
5880,0.3424285650253296,-3.4784276485443115,-78,6864.0,-28.724714279174805,-606,9981.0
5890,0.3425889015197754,-6.607965469360352,43,6864.0,-21.723913192749023,-217,9981.0
5900,0.3424471616744995,2.5321078300476074,123,6864.0,-4.353008270263672,155,9981.0
5910,0.3424832224845886,16.113866806030273,317,6864.0,9.35676097869873,334,9981.0
5920,0.3403834104537964,22.348337173461914,322,6864.0,27.862531661987305,522,9981.0
5930,0.3398086428642273,24.317302703857422,312,6864.0,35.172061920166016,516,9981.0
5940,0.33898037672042847,16.087711334228516,96,6864.0,36.77480697631836,517,9981.0
5950,0.3379434645175934,4.845422744750977,-45,6864.0,12.162052154541016,-95,9981.0
5960,0.3375331163406372,-11.800312995910645,-267,6864.0,-22.873104095458984,-583,9981.0
5970,0.3376644551753998,-28.25830078125,-501,6864.0,-60.8580322265625,-1043,9981.0
5980,0.33745014667510986,-35.87399673461914,-570,6864.0,-97.52767944335938,-1667,9981.0
5990,0.3373451232910156,-39.706329345703125,-657,6864.0,-125.08985900878906,-2140,9981.0
6000,0.335877388715744,-31.99708366394043,-506,6864.0,-146.06399536132812,-2299,9981.0
6010,0.33539116382598877,-6.724259853363037,10,6864.0,-147.45188903808594,-2345,9981.0
6020,0.33793148398399353,18.219497680664062,343,6864.0,-104.21294403076172,-1517,9981.0
6030,0.33820417523384094,24.339744567871094,310,6864.0,-46.98442459106445,-292,9981.0
6040,0.339740514755249,27.917659759521484,423,6864.0,4.662451267242432,177,9981.0
6050,0.3455137014389038,20.947673797607422,315,6864.0,49.76987838745117,1049,9981.0
6060,0.34644976258277893,6.018875598907471,6,6864.0,84.4873275756836,1516,9981.0
6070,0.3478083610534668,2.285889148712158,12,6864.0,115.72534942626953,2043,9981.0
6080,0.3491958677768707,-3.1445014476776123,4,6864.0,133.95452880859375,2267,9981.0
6090,0.3493712246417999,-6.6024017333984375,-134,6864.0,133.16799926757812,2140,9981.0
6100,0.35013508796691895,-7.099591255187988,-123,6864.0,114.98890686035156,1743,9981.0
6110,0.3517775535583496,-7.584455490112305,-165,6864.0,83.0482177734375,1181,9981.0
6120,0.35249051451683044,-6.235222339630127,-128,6864.0,44.493289947509766,555,9981.0
6130,0.35321521759033203,1.7372461557388306,73,6864.0,-1.1719926595687866,-285,9981.0
6140,0.3472582995891571,12.009705543518066,146,6864.0,-49.72927474975586,-1015,9981.0
6150,0.34831702709198,14.096278190612793,170,6864.0,-92.6695327758789,-1638,9981.0
6160,0.3493193984031677,8.507122039794922,141,6864.0,-115.03406524658203,-1966,9981.0
6170,0.3500649929046631,2.502573251724243,75,6864.0,-116.36933135986328,-1830,9981.0
6180,0.34767454862594604,-8.3477201461792,-210,6864.0,-87.89776611328125,-1261,9981.0
6190,0.3491772711277008,-17.74789047241211,-329,6864.0,-49.41826629638672,-636,9981.0
6200,0.35072895884513855,-22.4612979888916,-360,6864.0,-5.412895202636719,136,9981.0
6210,0.35190388560295105,-12.285511016845703,-189,6864.0,35.29527282714844,817,9981.0
6220,0.35166579484939575,-1.1562533378601074,100,6864.0,77.9066390991211,1524,9981.0
6230,0.3521948754787445,6.978420734405518,91,6864.0,111.53874206542969,1932,9981.0
6240,0.35253775119781494,7.533773899078369,46,6864.0,117.10010528564453,1768,9981.0
6250,0.3524811863899231,-0.2612769305706024,-16,6864.0,97.24547576904297,1489,9981.0
6260,0.35224291682243347,-4.618006706237793,-21,6864.0,77.61590576171875,1120,9981.0
6270,0.3482402265071869,-1.6090635061264038,57,6864.0,47.52634048461914,683,9981.0
6280,0.3480386435985565,20.44672966003418,463,6864.0,15.810250282287598,129,9981.0
6290,0.3483509123325348,40.02082443237305,687,6864.0,-34.240699768066406,-693,9981.0
6300,0.34947216510772705,33.70464324951172,434,6864.0,-69.32317352294922,-1206,9981.0
6310,0.3468380272388458,14.007548332214355,137,6864.0,-90.76017761230469,-1562,9981.0
6320,0.346903920173645,-6.031243324279785,-141,6864.0,-78.72842407226562,-1243,9981.0
6330,0.3468201458454132,-20.31125259399414,-398,6864.0,-49.616058349609375,-587,9981.0
6340,0.3468044698238373,-31.623001098632812,-596,6864.0,-18.451831817626953,-68,9981.0
6350,0.34662720561027527,-32.93434143066406,-525,6864.0,9.100095748901367,158,9981.0
6360,0.3456503748893738,-21.184743881225586,-212,6864.0,26.26634979248047,488,9981.0
6370,0.3450673222541809,-5.907207489013672,-14,6864.0,32.07767868041992,616,9981.0
6380,0.34440621733665466,7.3000311851501465,146,6864.0,22.33077049255371,298,9981.0
6390,0.34406396746635437,5.331531047821045,52,6864.0,-8.48643684387207,-251,9981.0
6400,0.3434652090072632,3.3814525604248047,31,6864.0,-29.180282592773438,-523,9981.0
6410,0.343048095703125,11.046942710876465,186,6864.0,-45.03468322753906,-762,9981.0
6420,0.34270909428596497,16.422359466552734,368,6864.0,-59.13706588745117,-1128,9981.0
6430,0.3425549864768982,17.263629913330078,234,6864.0,-72.59386444091797,-1273,9981.0
6440,0.34123489260673523,4.2633867263793945,-109,6864.0,-75.65367889404297,-1053,9981.0
6450,0.34062638878822327,-8.424795150756836,-151,6864.0,-51.94475555419922,-644,9981.0
6460,0.3413400948047638,-11.259648323059082,-134,6864.0,-15.876858711242676,12,9981.0
6470,0.3419378697872162,-11.781140327453613,-189,6864.0,19.648761749267578,595,9981.0
6480,0.34261661767959595,-4.569622039794922,54,6864.0,55.61805725097656,950,9981.0
6490,0.34568700194358826,3.4535276889801025,43,6864.0,85.2662124633789,1648,9981.0
6500,0.3465331792831421,1.7765852212905884,-36,6864.0,107.26737213134766,1919,9981.0
6510,0.34688466787338257,-3.8955774307250977,-15,6864.0,116.55316162109375,1713,9981.0
6520,0.34818392992019653,-1.0585427284240723,9,6864.0,102.04085540771484,1350,9981.0
6530,0.344708114862442,-0.772192120552063,78,6864.0,77.9623031616211,991,9981.0
6540,0.3445836901664734,5.929521083831787,198,6864.0,48.682247161865234,614,9981.0
6550,0.34500232338905334,11.366217613220215,178,6864.0,14.657512664794922,74,9981.0
6560,0.34587201476097107,2.741997718811035,-50,6864.0,-30.44325828552246,-795,9981.0
6570,0.3468417525291443,-11.36723518371582,-207,6864.0,-86.32579040527344,-1571,9981.0
6580,0.3447425067424774,-21.244144439697266,-372,6864.0,-126.26756286621094,-2215,9981.0
6590,0.3453045189380646,-18.044775009155273,-273,6864.0,-119.82646942138672,-1771,9981.0
6600,0.34688934683799744,-9.378512382507324,-154,6864.0,-93.50186157226562,-1247,9981.0
6610,0.34741273522377014,5.674977779388428,221,6864.0,-49.39509582519531,-672,9981.0
6620,0.34646326303482056,23.31797981262207,475,6864.0,-3.592763662338257,47,9981.0
6630,0.3473155200481415,25.25391387939453,329,6864.0,30.716815948486328,710,9981.0
6640,0.3482624888420105,18.65303611755371,168,6864.0,58.43572998046875,1041,9981.0
6650,0.34881582856178284,2.7605643272399902,28,6864.0,77.68350219726562,1231,9981.0
6660,0.34735265374183655,-8.95812702178955,-235,6864.0,81.91545867919922,1479,9981.0
6670,0.3469652533531189,-21.679119110107422,-412,6864.0,82.20927429199219,1349,9981.0
6680,0.34682658314704895,-22.46792221069336,-377,6864.0,67.04459381103516,818,9981.0
6690,0.3460925221443176,-14.280118942260742,-201,6864.0,36.887508392333984,322,9981.0
6700,0.34639304876327515,-6.6546101570129395,71,6864.0,-1.5771864652633667,-412,9981.0
6710,0.3418302834033966,7.838822841644287,239,6864.0,-41.46978759765625,-986,9981.0
6720,0.3413752615451813,14.840408325195312,391,6864.0,-74.52135467529297,-1449,9981.0
6730,0.34101054072380066,26.116535186767578,505,6864.0,-90.87474060058594,-1528,9981.0
6740,0.3401730954647064,23.696609497070312,245,6864.0,-95.60877990722656,-1293,9981.0
6750,0.33768150210380554,4.398021221160889,-22,6864.0,-71.03580474853516,-1081,9981.0
6760,0.3368287682533264,-3.077181339263916,6,6864.0,-48.55833435058594,-780,9981.0
6770,0.33540380001068115,-11.103200912475586,-152,6864.0,-26.84148406982422,-223,9981.0
6780,0.3336791694164276,-9.941779136657715,-184,6864.0,-0.5838440656661987,32,9981.0
6790,0.3322719931602478,-12.760509490966797,-230,6864.0,26.82729721069336,531,9981.0
6800,0.3323195278644562,-11.645501136779785,-200,6864.0,54.25156784057617,995,9981.0
6810,0.33150526881217957,-9.97398853302002,-134,6864.0,67.76779174804688,1134,9981.0
6820,0.3308553695678711,-10.521957397460938,-171,6864.0,66.31744384765625,1104,9981.0
6830,0.330366849899292,-10.901968002319336,-226,6864.0,55.02659225463867,765,9981.0
6840,0.3275095522403717,-11.878349304199219,-183,6864.0,31.53134536743164,229,9981.0
6850,0.3285883963108063,-3.3537237644195557,84,6864.0,-3.849499464035034,-437,9981.0
6860,0.32908686995506287,14.74586296081543,390,6864.0,-48.95186996459961,-1131,9981.0
6870,0.33006808161735535,32.36952209472656,549,6864.0,-97.09369659423828,-1616,9981.0
6880,0.32439321279525757,26.161975860595703,284,6864.0,-125.65744018554688,-1853,9981.0
6890,0.3257106840610504,10.361710548400879,55,6864.0,-113.82737731933594,-1760,9981.0
6900,0.3260626196861267,-6.4743523597717285,-163,6864.0,-75.9960708618164,-1005,9981.0
6910,0.32669302821159363,-13.840039253234863,-228,6864.0,-28.100454330444336,-266,9981.0
6920,0.3292314112186432,-24.278057098388672,-436,6864.0,16.107206344604492,470,9981.0
6930,0.32930758595466614,-26.343332290649414,-414,6864.0,59.0799674987793,1105,9981.0
6940,0.3309149742126465,-9.970649719238281,13,6864.0,100.09125518798828,1909,9981.0
6950,0.3322063386440277,14.663744926452637,267,6864.0,136.80967712402344,2391,9981.0
6960,0.33328866958618164,34.284915924072266,591,6864.0,148.82342529296875,2314,9981.0
6970,0.33028241991996765,34.944522857666016,550,6864.0,138.0301055908203,2044,9981.0
6980,0.33090513944625854,27.20199966430664,479,6864.0,111.75817108154297,1627,9981.0
6990,0.33067455887794495,14.947826385498047,246,6864.0,69.88825225830078,899,9981.0
7000,0.33284732699394226,-1.0419671535491943,-107,6864.0,11.286335945129395,-20,9981.0
7010,0.3348449468612671,-16.508453369140625,-349,6864.0,-52.23758316040039,-968,9981.0
7020,0.32701176404953003,-18.344675064086914,-334,6864.0,-115.05554962158203,-1905,9981.0
7030,0.3283710777759552,-13.52176570892334,-270,6864.0,-145.87400817871094,-2275,9981.0
7040,0.32881107926368713,-8.216642379760742,-91,6864.0,-138.51113891601562,-2276,9981.0
7050,0.3307109475135803,0.5540913343429565,112,6864.0,-107.79718780517578,-1660,9981.0
7060,0.32555192708969116,5.106393814086914,55,6864.0,-62.66640853881836,-650,9981.0
7070,0.3259143829345703,3.715708017349243,46,6864.0,-7.571519374847412,82,9981.0
7080,0.32664886116981506,-1.890905499458313,-32,6864.0,30.94158363342285,688,9981.0
7090,0.32762062549591064,-6.023706436157227,-132,6864.0,67.71381378173828,1282,9981.0
7100,0.32301783561706543,-6.008971214294434,-110,6864.0,97.07073211669922,1774,9981.0
7110,0.3225429356098175,-8.62533187866211,-150,6864.0,117.87470245361328,1996,9981.0
7120,0.3216036856174469,-11.222432136535645,-204,6864.0,117.01582336425781,1833,9981.0
7130,0.32123735547065735,-10.727663040161133,-81,6864.0,95.11766052246094,1257,9981.0
7140,0.31967076659202576,-6.428678512573242,31,6864.0,57.32386016845703,359,9981.0
7150,0.3126119077205658,1.9112579822540283,147,6864.0,-2.4010043144226074,-532,9981.0
7160,0.3118988275527954,4.456832408905029,175,6864.0,-54.345619201660156,-1470,9981.0
7170,0.310647189617157,6.194364547729492,198,6864.0,-103.97279357910156,-2043,9981.0
7180,0.30979782342910767,9.922465324401855,274,6864.0,-128.10494995117188,-2130,9981.0
7190,0.3069480061531067,25.039819717407227,416,6864.0,-121.05084228515625,-1652,9981.0
7200,0.3047575354576111,34.7057991027832,502,6864.0,-80.28447723388672,-982,9981.0
7210,0.304751992225647,25.197805404663086,307,6864.0,-28.30497932434082,-199,9981.0
7220,0.30321207642555237,16.381223678588867,211,6864.0,17.575000762939453,482,9981.0
7230,0.30206388235092163,2.122624635696411,-39,6864.0,55.18488311767578,1171,9981.0
7240,0.29763996601104736,-9.460478782653809,-258,6864.0,82.93688201904297,1305,9981.0
7250,0.2959325313568115,-24.852008819580078,-392,6864.0,94.41117095947266,1503,9981.0
7260,0.29442137479782104,-33.60426330566406,-632,6864.0,95.59076690673828,1550,9981.0
7270,0.2924540340900421,-35.59996032714844,-665,6864.0,78.40599822998047,1112,9981.0
7280,0.2872127890586853,-36.39780807495117,-551,6864.0,47.219268798828125,482,9981.0
7290,0.28642386198043823,-27.766633987426758,-305,6864.0,4.531915187835693,-242,9981.0
7300,0.28645017743110657,-15.321269989013672,-84,6864.0,-49.882911682128906,-1071,9981.0
7310,0.28646567463874817,-2.336751937866211,-2,6864.0,-102.68635559082031,-1767,9981.0
7320,0.2830362319946289,6.9626383781433105,79,6864.0,-137.81875610351562,-2283,9981.0
7330,0.28281572461128235,9.242753028869629,264,6864.0,-153.8359375,-2588,9981.0
7340,0.2837677299976349,10.8514404296875,240,6864.0,-142.24012756347656,-2173,9981.0
7350,0.2827771306037903,16.33545684814453,299,6864.0,-107.92923736572266,-1714,9981.0
7360,0.28419265151023865,20.54243278503418,316,6864.0,-61.16204833984375,-648,9981.0
7370,0.2812208831310272,18.558210372924805,308,6864.0,6.659461498260498,390,9981.0
7380,0.2825692594051361,18.266050338745117,298,6864.0,74.89788055419922,1468,9981.0
7390,0.2845645248889923,13.003918647766113,181,6864.0,131.6833953857422,2258,9981.0
7400,0.28591108322143555,13.706462860107422,251,6864.0,156.4503631591797,2700,9981.0
7410,0.2812887728214264,9.248833656311035,108,6864.0,158.94219970703125,2689,9981.0
7420,0.2826390862464905,4.08913516998291,16,6864.0,144.31158447265625,2275,9981.0
7430,0.2820289134979248,0.2731902301311493,11,6864.0,120.8260269165039,1799,9981.0
7440,0.28176796436309814,-2.819362163543701,-68,6864.0,77.55094909667969,1104,9981.0
7450,0.28177154064178467,-9.318987846374512,-229,6864.0,26.240015029907227,240,9981.0
7460,0.27731451392173767,-18.241151809692383,-367,6864.0,-37.133522033691406,-748,9981.0
7470,0.2778985798358917,-19.914831161499023,-424,6864.0,-95.17615509033203,-1575,9981.0
7480,0.27893537282943726,-19.50684356689453,-408,6864.0,-138.00430297851562,-2189,9981.0
7490,0.2791149914264679,-21.58868408203125,-415,6864.0,-158.24107360839844,-2570,9981.0
7500,0.2749595046043396,-14.809624671936035,-161,6864.0,-164.17977905273438,-2567,9981.0
7510,0.2743561565876007,1.3346823453903198,145,6864.0,-145.738525390625,-2132,9981.0
7520,0.2730458676815033,20.72862434387207,381,6864.0,-111.87381744384766,-1734,9981.0
7530,0.2729726731777191,33.69649887084961,683,6864.0,-66.96659088134766,-835,9981.0
7540,0.2705180048942566,44.49595260620117,721,6864.0,-8.121275901794434,193,9981.0
7550,0.27063190937042236,41.13249206542969,607,6864.0,52.8417854309082,1103,9981.0
7560,0.27282410860061646,27.09699249267578,354,6864.0,100.79827117919922,1769,9981.0
7570,0.2733709514141083,-2.2992231845855713,-210,6864.0,135.614501953125,2358,9981.0
7580,0.2743608057498932,-35.713626861572266,-687,6864.0,153.17698669433594,2326,9981.0
7590,0.26857468485832214,-61.2723503112793,-1112,6864.0,141.7744598388672,2315,9981.0
7600,0.26796284317970276,-71.02542114257812,-1236,6864.0,113.1634292602539,1838,9981.0
7610,0.2680133581161499,-62.384952545166016,-1019,6864.0,81.9084243774414,1194,9981.0
7620,0.270485520362854,-46.76240921020508,-637,6864.0,44.99229049682617,528,9981.0
7630,0.2658165395259857,-26.19955825805664,-323,6864.0,-2.2451131343841553,-253,9981.0
7640,0.2662687599658966,-10.45312213897705,-60,6864.0,-41.38235855102539,-773,9981.0
7650,0.26668304204940796,7.973649978637695,158,6864.0,-58.97140121459961,-856,9981.0
7660,0.2670685946941376,24.49631118774414,394,6864.0,-55.97709655761719,-824,9981.0
7670,0.2671507000923157,34.23534393310547,543,6864.0,-34.51634979248047,-483,9981.0
7680,0.26158851385116577,25.738628387451172,411,6864.0,-11.780876159667969,-34,9981.0
7690,0.26137372851371765,18.739356994628906,274,6864.0,12.195146560668945,315,9981.0
7700,0.26120084524154663,12.08375072479248,190,6864.0,27.847532272338867,391,9981.0
7710,0.2608349919319153,8.178254127502441,130,6864.0,37.742340087890625,505,9981.0
7720,0.2572069466114044,7.312521934509277,199,6864.0,43.757930755615234,741,9981.0
7730,0.2565312385559082,11.787510871887207,170,6864.0,43.835384368896484,975,9981.0
7740,0.2556196451187134,20.33031463623047,270,6864.0,41.49453353881836,783,9981.0
7750,0.2556299865245819,21.76535415649414,351,6864.0,31.435070037841797,384,9981.0
7760,0.2533208429813385,17.608013153076172,397,6864.0,8.988412857055664,-154,9981.0
7770,0.2525210976600647,13.274102210998535,296,6864.0,-15.614895820617676,-549,9981.0
7780,0.2519942820072174,6.007041931152344,69,6864.0,-42.696041107177734,-708,9981.0
7790,0.2514384984970093,-0.9592626690864563,-178,6864.0,-57.27016830444336,-811,9981.0
7800,0.2506338059902191,-7.252804756164551,-156,6864.0,-58.67446517944336,-806,9981.0
7810,0.24950334429740906,-12.706510543823242,-191,6864.0,-36.09166717529297,-442,9981.0
7820,0.24858902394771576,-20.336942672729492,-431,6864.0,-6.986069679260254,69,9981.0
7830,0.2480640411376953,-20.17290496826172,-295,6864.0,27.63011932373047,625,9981.0
7840,0.2478412389755249,-14.277417182922363,-157,6864.0,53.42496871948242,1034,9981.0
7850,0.24712330102920532,-1.1788815259933472,127,6864.0,72.71857452392578,1327,9981.0
7860,0.2459488958120346,14.573712348937988,281,6864.0,77.94574737548828,1251,9981.0
7870,0.2459484040737152,23.09999656677246,438,6864.0,64.67835235595703,780,9981.0
7880,0.245470330119133,32.93231964111328,583,6864.0,42.80506134033203,430,9981.0
7890,0.24407513439655304,34.878746032714844,692,6864.0,14.904202461242676,-172,9981.0
7900,0.24368242919445038,32.2053108215332,581,6864.0,-17.405536651611328,-624,9981.0
7910,0.24385610222816467,19.843595504760742,323,6864.0,-48.54600143432617,-1028,9981.0
7920,0.2435493767261505,5.793442249298096,35,6864.0,-79.61004638671875,-1398,9981.0
7930,0.24359039962291718,-8.832353591918945,-334,6864.0,-99.47871398925781,-1510,9981.0
7940,0.24222919344902039,-25.7382755279541,-491,6864.0,-100.34395599365234,-1559,9981.0
7950,0.2420870065689087,-43.741455078125,-720,6864.0,-81.28343200683594,-1215,9981.0
7960,0.24137084186077118,-48.65445327758789,-841,6864.0,-50.812828063964844,-791,9981.0
7970,0.24040858447551727,-49.46687316894531,-731,6864.0,-19.65314292907715,-301,9981.0
7980,0.23868688941001892,-40.67304229736328,-617,6864.0,5.863118648529053,319,9981.0
7990,0.237511545419693,-25.356687545776367,-428,6864.0,24.577438354492188,604,9981.0
8000,0.23722290992736816,-8.172364234924316,-107,6864.0,36.32143020629883,675,9981.0
8010,0.2362149953842163,6.495028018951416,203,6864.0,44.07746505737305,799,9981.0
8020,0.23541602492332458,21.78264045715332,382,6864.0,38.69666290283203,784,9981.0
8030,0.23177649080753326,27.999460220336914,416,6864.0,32.28255081176758,560,9981.0
8040,0.2311907410621643,34.189361572265625,500,6864.0,14.160862922668457,160,9981.0
8050,0.23053714632987976,34.51676940917969,623,6864.0,-8.590106010437012,-344,9981.0
8060,0.2300911694765091,32.601661682128906,604,6864.0,-35.26133728027344,-795,9981.0
8070,0.22772471606731415,26.074499130249023,405,6864.0,-47.431800842285156,-829,9981.0
8080,0.22752217948436737,16.04451560974121,229,6864.0,-33.168914794921875,-603,9981.0
8090,0.22651983797550201,12.794828414916992,190,6864.0,-17.55579376220703,-164,9981.0
8100,0.22785454988479614,1.2412183284759521,-57,6864.0,4.942225933074951,355,9981.0
8110,0.22869662940502167,-15.4779691696167,-362,6864.0,22.391416549682617,371,9981.0
8120,0.2283046394586563,-30.111785888671875,-464,6864.0,25.397472381591797,230,9981.0
8130,0.22767798602581024,-32.49555587768555,-444,6864.0,26.07246208190918,328,9981.0
8140,0.22677189111709595,-25.970321655273438,-380,6864.0,31.948280334472656,567,9981.0
8150,0.22591803967952728,-16.50129508972168,-342,6864.0,38.824607849121094,771,9981.0
8160,0.22110731899738312,-5.116178035736084,-151,6864.0,40.18626403808594,766,9981.0
8170,0.2204086184501648,1.8327842950820923,-10,6864.0,41.02314376831055,665,9981.0
8180,0.22005680203437805,6.24666690826416,183,6864.0,31.55023956298828,350,9981.0
8190,0.2197495400905609,11.007433891296387,150,6864.0,14.002829551696777,128,9981.0
8200,0.21816660463809967,14.638790130615234,276,6864.0,-4.22448205947876,-60,9981.0
8210,0.21774059534072876,17.498090744018555,228,6864.0,-22.65633773803711,-303,9981.0
8220,0.21734201908111572,16.35582733154297,182,6864.0,-40.39156723022461,-528,9981.0
8230,0.21675759553909302,17.867740631103516,222,6864.0,-46.1662712097168,-672,9981.0
8240,0.216449573636055,12.695958137512207,180,6864.0,-39.258026123046875,-502,9981.0
8250,0.21637798845767975,3.0811612606048584,-23,6864.0,-18.918516159057617,-190,9981.0
8260,0.21631920337677002,-6.668887615203857,-234,6864.0,8.047944068908691,168,9981.0
8270,0.21676005423069,-28.270742416381836,-502,6864.0,30.2878475189209,425,9981.0
8280,0.21607567369937897,-42.27574920654297,-652,6864.0,45.963043212890625,820,9981.0
8290,0.21329960227012634,-46.74802780151367,-803,6864.0,52.966529846191406,953,9981.0
8300,0.2131422758102417,-37.32838439941406,-674,6864.0,46.200592041015625,806,9981.0
8310,0.2123035043478012,-21.53896141052246,-339,6864.0,36.33725357055664,574,9981.0
8320,0.2121347188949585,-7.686715602874756,-52,6864.0,27.431028366088867,276,9981.0
8330,0.20828457176685333,6.3949503898620605,239,6864.0,18.226613998413086,56,9981.0
8340,0.20776838064193726,19.560420989990234,518,6864.0,8.863454818725586,-29,9981.0
8350,0.20741420984268188,30.12348175048828,631,6864.0,-3.547060012817383,-115,9981.0
8360,0.20742309093475342,38.181461334228516,649,6864.0,-16.915428161621094,-299,9981.0
8370,0.20706908404827118,42.20235061645508,622,6864.0,-28.67167854309082,-438,9981.0
8380,0.20688757300376892,37.86981201171875,578,6864.0,-37.64668273925781,-685,9981.0
8390,0.20700521767139435,33.780616760253906,574,6864.0,-45.74801254272461,-754,9981.0
8400,0.20714795589447021,27.50604248046875,414,6864.0,-42.240333557128906,-666,9981.0
8410,0.20719869434833527,20.178659439086914,350,6864.0,-26.480026245117188,-450,9981.0
8420,0.20503836870193481,13.668526649475098,204,6864.0,-5.519196033477783,123,9981.0
8430,0.2058734893798828,3.313474655151367,-55,6864.0,18.428165435791016,554,9981.0
8440,0.2059209942817688,-5.897564888000488,-113,6864.0,44.402626037597656,882,9981.0
8450,0.2060117870569229,-17.245641708374023,-346,6864.0,60.09832000732422,1063,9981.0
8460,0.2043652981519699,-24.96706199645996,-440,6864.0,65.93914031982422,938,9981.0
8470,0.20407572388648987,-27.48348617553711,-375,6864.0,61.52957534790039,776,9981.0
8480,0.2036137878894806,-26.90633201599121,-283,6864.0,46.83584976196289,650,9981.0
8490,0.20401635766029358,-23.427621841430664,-307,6864.0,30.71743392944336,359,9981.0
8500,0.20326168835163116,-18.268896102905273,-294,6864.0,4.5044779777526855,21,9981.0
8510,0.20002588629722595,-11.060850143432617,-242,6864.0,-21.86460304260254,-437,9981.0
8520,0.19903847575187683,-5.298924446105957,-146,6864.0,-43.86026382446289,-766,9981.0
8530,0.1981872022151947,3.4745962619781494,8,6864.0,-61.87750244140625,-1020,9981.0
8540,0.19719147682189941,6.811481952667236,115,6864.0,-70.12542724609375,-1090,9981.0
8550,0.19454863667488098,6.719343185424805,162,6864.0,-68.35726165771484,-922,9981.0
8560,0.19299042224884033,7.832779884338379,92,6864.0,-52.01729202270508,-690,9981.0
8570,0.19444958865642548,-2.965564727783203,-21,6864.0,-18.724376678466797,11,9981.0
8580,0.19399811327457428,-17.52033805847168,-361,6864.0,15.686051368713379,314,9981.0
8590,0.19379110634326935,-22.90925407409668,-268,6864.0,43.75801086425781,624,9981.0
8600,0.19205904006958008,-15.311966896057129,-184,6864.0,57.5916633605957,909,9981.0
8610,0.1914149969816208,-10.73393440246582,-61,6864.0,62.201416015625,827,9981.0
8620,0.19071897864341736,0.3121771514415741,175,6864.0,57.7803955078125,737,9981.0
8630,0.18992380797863007,12.873008728027344,254,6864.0,44.86978530883789,783,9981.0
8640,0.1882445067167282,16.11711883544922,214,6864.0,30.937755584716797,633,9981.0
8650,0.1876676082611084,16.482696533203125,232,6864.0,9.240424156188965,45,9981.0
8660,0.18656693398952484,16.81239128112793,351,6864.0,-10.989729881286621,-409,9981.0
8670,0.18548192083835602,17.28710174560547,295,6864.0,-31.08863639831543,-565,9981.0
8680,0.18308161199092865,15.864768981933594,252,6864.0,-42.31782531738281,-863,9981.0
8690,0.1821209341287613,13.95479965209961,331,6864.0,-50.1431884765625,-921,9981.0
8700,0.18098461627960205,8.457975387573242,96,6864.0,-40.41089630126953,-657,9981.0
8710,0.1798473745584488,-4.709109783172607,-11,6864.0,-20.29475975036621,-409,9981.0
8720,0.1792803406715393,-10.627545356750488,-197,6864.0,-5.2256340980529785,-30,9981.0
8730,0.17868642508983612,-14.619743347167969,-157,6864.0,17.21128273010254,243,9981.0
8740,0.177885502576828,-18.792430877685547,-334,6864.0,34.38420867919922,643,9981.0
8750,0.17720501124858856,-20.105104446411133,-227,6864.0,48.97319030761719,768,9981.0
8760,0.1768816113471985,-9.469460487365723,-161,6864.0,49.27772903442383,856,9981.0
8770,0.17771700024604797,-1.9275052547454834,-50,6864.0,42.44709777832031,692,9981.0
8780,0.1773509532213211,8.094324111938477,168,6864.0,32.12568664550781,486,9981.0
8790,0.176944300532341,15.501702308654785,220,6864.0,16.572795867919922,122,9981.0
8800,0.1778877228498459,19.044740676879883,438,6864.0,-1.1504329442977905,-235,9981.0
8810,0.17783616483211517,22.198705673217773,288,6864.0,-21.703859329223633,-322,9981.0
8820,0.17771100997924805,21.14337921142578,285,6864.0,-35.25691223144531,-603,9981.0
8830,0.17743930220603943,15.255281448364258,165,6864.0,-41.20733642578125,-546,9981.0
8840,0.17719747126102448,8.940071105957031,57,6864.0,-43.21977615356445,-714,9981.0
8850,0.177043616771698,-2.2307357788085938,-163,6864.0,-34.78586196899414,-429,9981.0
8860,0.17929278314113617,-9.973094940185547,-184,6864.0,-20.31654167175293,-229,9981.0
8870,0.1796385794878006,-20.088680267333984,-421,6864.0,-1.2971861362457275,116,9981.0
8880,0.1798781007528305,-25.981367111206055,-404,6864.0,19.014596939086914,534,9981.0
8890,0.17954201996326447,-29.3822021484375,-530,6864.0,40.25607681274414,730,9981.0
8900,0.17949452996253967,-29.700210571289062,-443,6864.0,51.25556564331055,874,9981.0
8910,0.17974279820919037,-21.599733352661133,-293,6864.0,50.548545837402344,622,9981.0
8920,0.1794772744178772,-12.292871475219727,-59,6864.0,43.64167785644531,550,9981.0
8930,0.17911067605018616,-0.011170673184096813,18,6864.0,24.865739822387695,416,9981.0
8940,0.17969205975532532,13.34074878692627,283,6864.0,8.05479621887207,102,9981.0
8950,0.17912845313549042,22.2116756439209,273,6864.0,-9.313197135925293,-26,9981.0
8960,0.1784992814064026,25.402660369873047,363,6864.0,-24.281652450561523,-538,9981.0
8970,0.1771174520254135,20.540424346923828,358,6864.0,-33.20867156982422,-658,9981.0
8980,0.17556700110435486,14.188775062561035,288,6864.0,-36.51689147949219,-735,9981.0
8990,0.17433293163776398,8.776090621948242,123,6864.0,-33.09389114379883,-452,9981.0
9000,0.17287440598011017,-2.0433077812194824,110,6864.0,-20.524648666381836,-227,9981.0
9010,0.17275190353393555,-8.499500274658203,-75,6864.0,-4.447287082672119,-11,9981.0
9020,0.17170751094818115,-7.207235813140869,-214,6864.0,13.11658000946045,289,9981.0
9030,0.17078183591365814,-11.976668357849121,-107,6864.0,28.83989143371582,520,9981.0
9040,0.1707417368888855,-9.99730396270752,-212,6864.0,40.16709899902344,666,9981.0
9050,0.17004245519638062,-7.558589458465576,-204,6864.0,45.229434967041016,914,9981.0
9060,0.1692655384540558,-6.153145790100098,-101,6864.0,45.696537017822266,694,9981.0
9070,0.16837604343891144,-3.23482346534729,-137,6864.0,40.330604553222656,487,9981.0
9080,0.16901341080665588,2.677130699157715,193,6864.0,26.379796981811523,155,9981.0
9090,0.16944469511508942,9.577251434326172,187,6864.0,4.874183177947998,25,9981.0
9100,0.16898533701896667,15.76464557647705,301,6864.0,-11.323795318603516,-159,9981.0
9110,0.16703885793685913,22.476747512817383,294,6864.0,-24.512605667114258,-450,9981.0
9120,0.1680348813533783,21.168336868286133,287,6864.0,-31.813697814941406,-510,9981.0
9130,0.16673550009727478,18.733783721923828,370,6864.0,-34.04657745361328,-584,9981.0
9140,0.1666344404220581,13.597774505615234,249,6864.0,-27.67439079284668,-502,9981.0
9150,0.16643789410591125,3.4838902950286865,12,6864.0,-16.86715316772461,-249,9981.0
9160,0.16570526361465454,-5.6579389572143555,-65,6864.0,-0.7486919164657593,130,9981.0
9170,0.16512392461299896,-13.046178817749023,-101,6864.0,19.954242706298828,394,9981.0
9180,0.16443848609924316,-14.889219284057617,-232,6864.0,34.92033004760742,539,9981.0
9190,0.1640384942293167,-15.878536224365234,-213,6864.0,39.95795822143555,655,9981.0
9200,0.16318416595458984,-15.808463096618652,-268,6864.0,35.54735565185547,522,9981.0
9210,0.16438114643096924,-16.60471534729004,-381,6864.0,27.317609786987305,552,9981.0
9220,0.16354532539844513,-17.045846939086914,-262,6864.0,15.258318901062012,209,9981.0
9230,0.16248898208141327,-15.205428123474121,-169,6864.0,3.252436399459839,-162,9981.0
9240,0.1613684445619583,-9.352546691894531,-192,6864.0,-10.700227737426758,-158,9981.0
9250,0.16085831820964813,-6.2781805992126465,-34,6864.0,-20.757295608520508,-222,9981.0
9260,0.16151750087738037,3.006742238998413,19,6864.0,-25.535812377929688,-479,9981.0
9270,0.16058675944805145,9.297022819519043,122,6864.0,-25.4819278717041,-539,9981.0
9280,0.1598980873823166,15.244214057922363,339,6864.0,-25.186872482299805,-393,9981.0
9290,0.15899033844470978,18.067276000976562,374,6864.0,-17.986581802368164,-225,9981.0
9300,0.16207648813724518,18.21286964416504,252,6864.0,-10.529118537902832,-96,9981.0
9310,0.16074787080287933,11.698987007141113,75,6864.0,3.9410648345947266,163,9981.0
9320,0.1604517549276352,9.553749084472656,82,6864.0,16.520477294921875,359,9981.0
9330,0.1622573584318161,3.6496222019195557,4,6864.0,33.55995178222656,544,9981.0
9340,0.16396421194076538,-6.617133140563965,-202,6864.0,38.84596633911133,584,9981.0
9350,0.16416439414024353,-20.475854873657227,-228,6864.0,39.73023986816406,573,9981.0
9360,0.16459211707115173,-25.152694702148438,-367,6864.0,30.417198181152344,461,9981.0
9370,0.16441182792186737,-28.997711181640625,-538,6864.0,12.702437400817871,91,9981.0
9380,0.16436028480529785,-27.398889541625977,-492,6864.0,-4.005331993103027,-87,9981.0
9390,0.1698445975780487,-20.809127807617188,-205,6864.0,-15.13927936553955,-330,9981.0
9400,0.1697622537612915,-13.36368179321289,-114,6864.0,-21.446651458740234,-434,9981.0
9410,0.16981607675552368,-5.43767786026001,-118,6864.0,-26.025707244873047,-385,9981.0
9420,0.16934773325920105,1.2366176843643188,-18,6864.0,-24.467077255249023,-344,9981.0
9430,0.1702250987291336,6.150697708129883,202,6864.0,-22.095134735107422,-431,9981.0
9440,0.17086540162563324,11.810959815979004,266,6864.0,-16.882661819458008,-328,9981.0
9450,0.17232869565486908,17.5352725982666,267,6864.0,-10.844950675964355,-126,9981.0
9460,0.17387010157108307,20.863574981689453,317,6864.0,-3.660273551940918,79,9981.0
9470,0.1743398904800415,22.09699249267578,362,6864.0,4.435234069824219,228,9981.0
9480,0.1747816652059555,21.785194396972656,344,6864.0,18.852046966552734,415,9981.0
9490,0.17543913424015045,21.343791961669922,290,6864.0,31.267677307128906,535,9981.0
9500,0.17548224329948425,16.392311096191406,253,6864.0,37.38286590576172,605,9981.0
9510,0.17871901392936707,11.004571914672852,218,6864.0,34.26401138305664,470,9981.0
9520,0.18142735958099365,3.4106924533843994,153,6864.0,25.603801727294922,323,9981.0
9530,0.18204449117183685,-0.4921863377094269,-15,6864.0,13.204888343811035,179,9981.0
9540,0.18357184529304504,-1.1470152139663696,-115,6864.0,-1.1935008764266968,13,9981.0
9550,0.18394508957862854,-5.965179920196533,-123,6864.0,-11.383973121643066,-162,9981.0
9560,0.1790667325258255,-8.6466703414917,-172,6864.0,-18.433902740478516,-308,9981.0
9570,0.17896579205989838,-8.918768882751465,-223,6864.0,-25.604097366333008,-476,9981.0
9580,0.1786186248064041,-13.322440147399902,-241,6864.0,-29.743473052978516,-602,9981.0
9590,0.1780022531747818,-14.076824188232422,-188,6864.0,-34.556148529052734,-608,9981.0
9600,0.17305678129196167,-19.59752082824707,-245,6864.0,-30.422576904296875,-527,9981.0
9610,0.17266348004341125,-22.059480667114258,-212,6864.0,-21.84829330444336,-398,9981.0
9620,0.17223748564720154,-14.564958572387695,-272,6864.0,-10.623848915100098,-55,9981.0
9630,0.17190439999103546,-11.341999053955078,-202,6864.0,5.284398078918457,194,9981.0
9640,0.17091906070709229,-4.749792575836182,-116,6864.0,20.395496368408203,529,9981.0
9650,0.17031101882457733,1.482265830039978,53,6864.0,31.562721252441406,537,9981.0
9660,0.1694955676794052,9.840882301330566,252,6864.0,34.86962127685547,458,9981.0
9670,0.16876982152462006,15.381476402282715,309,6864.0,36.425323486328125,622,9981.0
9680,0.16828899085521698,18.482479095458984,256,6864.0,32.06415557861328,487,9981.0
9690,0.1658507138490677,19.352888107299805,241,6864.0,25.802867889404297,297,9981.0
9700,0.16534169018268585,17.535816192626953,302,6864.0,12.040301322937012,50,9981.0
9710,0.16446983814239502,12.052223205566406,175,6864.0,-0.6293034553527832,1,9981.0
9720,0.16443122923374176,2.8603498935699463,37,6864.0,-15.831826210021973,-235,9981.0
9730,0.16324463486671448,-2.645423650741577,-79,6864.0,-27.925182342529297,-506,9981.0
9740,0.1611473262310028,-13.82089614868164,-186,6864.0,-30.389738082885742,-533,9981.0
9750,0.1600467413663864,-19.25703239440918,-277,6864.0,-29.018892288208008,-422,9981.0
9760,0.15950243175029755,-21.68292999267578,-367,6864.0,-22.49245834350586,-236,9981.0
9770,0.159164696931839,-18.764968872070312,-322,6864.0,-11.380568504333496,-44,9981.0
9780,0.15836066007614136,-13.57150936126709,-147,6864.0,7.1573967933654785,180,9981.0
9790,0.15802021324634552,-4.647263050079346,46,6864.0,24.149694442749023,541,9981.0
9800,0.1570393294095993,5.00628662109375,90,6864.0,31.641878128051758,608,9981.0
9810,0.15707501769065857,14.066040992736816,328,6864.0,32.6570930480957,491,9981.0
9820,0.15780211985111237,25.809307098388672,462,6864.0,34.28424835205078,577,9981.0
9830,0.15951791405677795,29.85800552368164,440,6864.0,30.681907653808594,595,9981.0
9840,0.15913395583629608,26.73408317565918,494,6864.0,25.893333435058594,283,9981.0
9850,0.15981721878051758,21.946975708007812,391,6864.0,14.18004322052002,231,9981.0
9860,0.16000133752822876,13.94660758972168,214,6864.0,2.7641351222991943,55,9981.0
9870,0.16092649102210999,6.794627666473389,51,6864.0,-7.920039176940918,-304,9981.0
9880,0.16102255880832672,-3.1823325157165527,-6,6864.0,-20.887447357177734,-384,9981.0
9890,0.1619686484336853,-12.42825698852539,-208,6864.0,-30.27777671813965,-455,9981.0
9900,0.1624850034713745,-17.570112228393555,-391,6864.0,-35.81662368774414,-623,9981.0
9910,0.1642736941576004,-22.10426139831543,-319,6864.0,-37.82994079589844,-660,9981.0
9920,0.1639156937599182,-23.24506950378418,-364,6864.0,-32.3246955871582,-410,9981.0
9930,0.16415348649024963,-19.41327667236328,-296,6864.0,-18.96649742126465,-160,9981.0
9940,0.164157897233963,-9.355985641479492,-106,6864.0,4.082808017730713,183,9981.0
9950,0.16541901230812073,5.64388370513916,209,6864.0,33.18112564086914,640,9981.0
9960,0.16675761342048645,13.186805725097656,267,6864.0,54.22620391845703,1015,9981.0
9970,0.16823166608810425,16.536907196044922,230,6864.0,62.07267761230469,868,9981.0
9980,0.16884544491767883,16.808910369873047,312,6864.0,54.876686096191406,837,9981.0
9990,0.16942398250102997,14.63808822631836,228,6864.0,43.653865814208984,693,9981.0
10000,0.171469047665596,13.613039016723633,265,6864.0,17.002593994140625,110,9981.0
10010,0.1716817021369934,11.587430953979492,127,6864.0,-7.543233871459961,-91,9981.0
10020,0.17175331711769104,6.464839935302734,17,6864.0,-23.090904235839844,-480,9981.0
10030,0.17161902785301208,-0.2487155944108963,31,6864.0,-37.722198486328125,-686,9981.0
10040,0.1716192364692688,-8.428858757019043,-177,6864.0,-42.005489349365234,-567,9981.0
10050,0.1713576763868332,-10.105920791625977,-213,6864.0,-36.12498474121094,-530,9981.0
10060,0.17101259529590607,-8.396393775939941,-93,6864.0,-26.045137405395508,-473,9981.0
10070,0.17083480954170227,-6.832515716552734,-75,6864.0,-17.084184646606445,-211,9981.0
10080,0.17063069343566895,-6.6600022315979,-150,6864.0,-4.445718288421631,38,9981.0
10090,0.17167489230632782,-6.084863185882568,-166,6864.0,13.670110702514648,243,9981.0
10100,0.1715884655714035,-5.902098655700684,-58,6864.0,30.51483154296875,502,9981.0
10110,0.1719805896282196,-7.6437225341796875,-92,6864.0,49.59852981567383,996,9981.0
10120,0.17228297889232635,-12.579832077026367,-273,6864.0,61.74870681762695,1022,9981.0
10130,0.17229048907756805,-13.37355899810791,-166,6864.0,59.493682861328125,881,9981.0
10140,0.17253561317920685,-11.691976547241211,-212,6864.0,38.80192184448242,565,9981.0
10150,0.1725563406944275,-13.78421688079834,-172,6864.0,14.155415534973145,58,9981.0
10160,0.1724124401807785,-5.223450660705566,-46,6864.0,-10.921690940856934,-165,9981.0
10170,0.17277036607265472,7.8962178230285645,213,6864.0,-26.142070770263672,-581,9981.0
10180,0.17669449746608734,22.875789642333984,444,6864.0,-36.84629440307617,-607,9981.0
10190,0.17648117244243622,29.351205825805664,444,6864.0,-46.26244354248047,-851,9981.0
10200,0.1761014312505722,23.7314453125,394,6864.0,-51.48405075073242,-823,9981.0
10210,0.1767648160457611,11.496755599975586,131,6864.0,-43.36970520019531,-605,9981.0
10220,0.17825129628181458,1.313894271850586,-23,6864.0,-27.48040771484375,-421,9981.0
10230,0.178682342171669,-4.586493968963623,-38,6864.0,-10.574082374572754,-214,9981.0
10240,0.17938202619552612,-4.686061859130859,-39,6864.0,2.544969081878662,232,9981.0
10250,0.1799953579902649,-2.457648277282715,-92,6864.0,17.438091278076172,425,9981.0
10260,0.18066295981407166,-3.250943422317505,-85,6864.0,33.334537506103516,553,9981.0
10270,0.18140219151973724,-5.539272308349609,-9,6864.0,43.59622573852539,719,9981.0
10280,0.18198899924755096,-6.719986915588379,-107,6864.0,42.59280014038086,716,9981.0
10290,0.18378786742687225,-5.255026817321777,-91,6864.0,36.02501678466797,469,9981.0
10300,0.18499143421649933,0.5329594016075134,109,6864.0,18.838275909423828,256,9981.0
10310,0.1844506412744522,4.059535503387451,24,6864.0,1.3786121606826782,-40,9981.0
10320,0.1851179450750351,7.657083988189697,146,6864.0,-12.32179069519043,-347,9981.0
10330,0.185805544257164,7.974522113800049,143,6864.0,-22.32324981689453,-355,9981.0
10340,0.18650633096694946,5.559354782104492,0,6864.0,-32.29241943359375,-483,9981.0
10350,0.18509504199028015,0.10349041223526001,-33,6864.0,-35.112892150878906,-658,9981.0
10360,0.18558131158351898,-4.687925338745117,-81,6864.0,-32.05375289916992,-493,9981.0
10370,0.18690471351146698,-10.164896965026855,-184,6864.0,-28.67291831970215,-337,9981.0
10380,0.1879686415195465,-10.544825553894043,-245,6864.0,-21.253280639648438,-210,9981.0
10390,0.1887865513563156,-9.40062141418457,-253,6864.0,-10.868115425109863,-157,9981.0
10400,0.18720638751983643,-10.232932090759277,-162,6864.0,-1.3503971099853516,68,9981.0
10410,0.18781238794326782,-13.576712608337402,-221,6864.0,17.65093231201172,425,9981.0
10420,0.18887409567832947,-14.054539680480957,-291,6864.0,27.998048782348633,547,9981.0
10430,0.18974511325359344,-11.036027908325195,-107,6864.0,37.044490814208984,502,9981.0
10440,0.18937934935092926,-1.102669596672058,94,6864.0,33.26154708862305,537,9981.0
10450,0.18955104053020477,12.977757453918457,251,6864.0,12.80123233795166,-6,9981.0
10460,0.19079917669296265,28.145179748535156,630,6864.0,-5.464888095855713,-91,9981.0
10470,0.19099856913089752,42.06827163696289,682,6864.0,-12.728610038757324,-169,9981.0
10480,0.19129066169261932,42.96083068847656,641,6864.0,-17.555625915527344,-333,9981.0
10490,0.19055968523025513,32.66500473022461,470,6864.0,-14.059534072875977,-207,9981.0
10500,0.19115763902664185,12.979191780090332,165,6864.0,-14.637213706970215,-224,9981.0
10510,0.1915832906961441,-7.6936540603637695,-257,6864.0,-10.687305450439453,-90,9981.0
10520,0.19240419566631317,-24.08472442626953,-491,6864.0,-6.178258895874023,-106,9981.0
10530,0.19160351157188416,-32.31700134277344,-490,6864.0,-6.108691215515137,-138,9981.0
10540,0.19236412644386292,-33.052982330322266,-520,6864.0,-11.253430366516113,-155,9981.0
10550,0.19311723113059998,-30.07464027404785,-503,6864.0,-15.583700180053711,-294,9981.0
10560,0.1933521032333374,-22.652599334716797,-259,6864.0,-13.356339454650879,-253,9981.0
10570,0.19212400913238525,-10.271961212158203,-109,6864.0,-3.756373882293701,-10,9981.0
10580,0.19279859960079193,1.7899354696273804,39,6864.0,8.013314247131348,185,9981.0
10590,0.19447650015354156,15.291535377502441,357,6864.0,15.963020324707031,276,9981.0
10600,0.1955733448266983,25.417760848999023,420,6864.0,24.590694427490234,497,9981.0
10610,0.1969197392463684,29.8624267578125,415,6864.0,32.134544372558594,542,9981.0
10620,0.19683386385440826,29.334178924560547,481,6864.0,31.116878509521484,356,9981.0
10630,0.19765879213809967,22.733007431030273,390,6864.0,26.547391891479492,466,9981.0
10640,0.1985887736082077,18.59909439086914,279,6864.0,26.548097610473633,523,9981.0
10650,0.1990903913974762,9.482547760009766,75,6864.0,24.924604415893555,335,9981.0
10660,0.19979427754878998,-0.5858228802680969,1,6864.0,15.533732414245605,132,9981.0
10670,0.20057110488414764,-6.532494068145752,-94,6864.0,1.6487631797790527,1,9981.0
10680,0.20142041146755219,-11.18847942352295,-239,6864.0,-11.75471019744873,-180,9981.0
10690,0.20218412578105927,-14.567538261413574,-287,6864.0,-21.949979782104492,-413,9981.0
10700,0.20293770730495453,-16.613162994384766,-177,6864.0,-26.998884201049805,-493,9981.0
10710,0.2041013389825821,-11.380934715270996,-80,6864.0,-24.086599349975586,-390,9981.0
10720,0.20506463944911957,-4.709409236907959,-112,6864.0,-11.637465476989746,-55,9981.0
10730,0.2060883790254593,-8.917216300964355,-230,6864.0,0.17056003212928772,194,9981.0
10740,0.2072216272354126,-13.139631271362305,-255,6864.0,11.393718719482422,146,9981.0
10750,0.207243874669075,-6.547285556793213,-18,6864.0,13.522016525268555,80,9981.0
10760,0.20813196897506714,-1.137372374534607,88,6864.0,7.560918807983398,159,9981.0
10770,0.2089276760816574,4.365231990814209,39,6864.0,2.448401927947998,88,9981.0
10780,0.20979374647140503,13.647235870361328,167,6864.0,4.342304706573486,53,9981.0
10790,0.2100442796945572,18.62561798095703,344,6864.0,5.375596523284912,28,9981.0
10800,0.2110811173915863,22.212974548339844,418,6864.0,3.5184426307678223,27,9981.0
10810,0.21220248937606812,17.86079216003418,277,6864.0,-3.8260157108306885,-89,9981.0
10820,0.21314182877540588,11.912556648254395,127,6864.0,-13.31137752532959,-218,9981.0
10830,0.21457315981388092,3.287548780441284,-26,6864.0,-22.307941436767578,-322,9981.0
10840,0.21544574201107025,-5.106075286865234,-80,6864.0,-29.107389450073242,-589,9981.0
10850,0.21686770021915436,-11.684200286865234,-167,6864.0,-26.565467834472656,-444,9981.0
10860,0.21791790425777435,-19.497467041015625,-272,6864.0,-13.11567211151123,-199,9981.0
10870,0.21896864473819733,-20.808130264282227,-345,6864.0,7.464570045471191,166,9981.0
10880,0.22039414942264557,-26.735652923583984,-420,6864.0,19.764249801635742,374,9981.0
10890,0.2218158096075058,-27.92892074584961,-487,6864.0,33.78264617919922,574,9981.0
10900,0.22289708256721497,-26.520164489746094,-420,6864.0,31.409055709838867,401,9981.0
10910,0.22539466619491577,-18.461715698242188,-207,6864.0,20.246753692626953,241,9981.0
10920,0.22375699877738953,-6.7004804611206055,-52,6864.0,0.5321536064147949,0,9981.0
10930,0.22468918561935425,4.734185695648193,103,6864.0,-16.226686477661133,-382,9981.0
10940,0.22573243081569672,22.330238342285156,468,6864.0,-25.7667293548584,-465,9981.0
10950,0.22667816281318665,39.73366928100586,646,6864.0,-23.399126052856445,-322,9981.0
10960,0.22790972888469696,48.829280853271484,768,6864.0,-18.84504508972168,-300,9981.0
10970,0.2304183691740036,40.90024185180664,659,6864.0,-19.168230056762695,-329,9981.0
10980,0.2315906435251236,25.792123794555664,345,6864.0,-23.261320114135742,-393,9981.0
10990,0.23289185762405396,10.352884292602539,48,6864.0,-27.137985229492188,-365,9981.0
11000,0.23425698280334473,-2.9125664234161377,-190,6864.0,-24.454626083374023,-243,9981.0
11010,0.23403550684452057,-9.102243423461914,-236,6864.0,-2.8731796741485596,143,9981.0
11020,0.23547862470149994,-16.767234802246094,-311,6864.0,27.74870491027832,524,9981.0
11030,0.23698537051677704,-24.49919319152832,-325,6864.0,46.73204040527344,810,9981.0
11040,0.23791857063770294,-26.451169967651367,-398,6864.0,48.97270584106445,699,9981.0
11050,0.23840706050395966,-27.409826278686523,-491,6864.0,27.49509048461914,230,9981.0
11060,0.23978398740291595,-25.73411750793457,-331,6864.0,6.177424430847168,-3,9981.0
11070,0.24060413241386414,-19.221147537231445,-301,6864.0,-16.517316818237305,-287,9981.0
11080,0.2412259876728058,-8.296896934509277,3,6864.0,-33.20075988769531,-686,9981.0
11090,0.24171894788742065,0.13697700202465057,18,6864.0,-36.746517181396484,-491,9981.0
11100,0.2392408549785614,9.957266807556152,208,6864.0,-28.342693328857422,-495,9981.0
11110,0.2395143359899521,24.295129776000977,611,6864.0,-16.678197860717773,-233,9981.0
11120,0.23997345566749573,40.33661651611328,697,6864.0,-2.032902479171753,78,9981.0
11130,0.24051907658576965,45.708683013916016,704,6864.0,5.630020618438721,103,9981.0
11140,0.2403499335050583,41.32275390625,559,6864.0,7.917756080627441,91,9981.0
11150,0.240931898355484,19.25702476501465,252,6864.0,11.955286026000977,106,9981.0
11160,0.24177789688110352,-4.185888290405273,-257,6864.0,11.984457015991211,110,9981.0
11170,0.24290840327739716,-23.43675422668457,-514,6864.0,7.168997764587402,250,9981.0
11180,0.24399058520793915,-42.55955505371094,-778,6864.0,9.538119316101074,90,9981.0
11190,0.24410545825958252,-50.68475341796875,-766,6864.0,8.826797485351562,129,9981.0
11200,0.24515607953071594,-41.78777313232422,-675,6864.0,2.3634910583496094,-6,9981.0
11210,0.2459120899438858,-21.401020050048828,-144,6864.0,-1.4654916524887085,3,9981.0
11220,0.24641072750091553,3.4398276805877686,101,6864.0,-7.748325347900391,-187,9981.0
11230,0.24722810089588165,11.632930755615234,219,6864.0,-23.5759220123291,-453,9981.0
11240,0.24787649512290955,15.985063552856445,299,6864.0,-19.713159561157227,-279,9981.0
11250,0.24848973751068115,27.2338924407959,455,6864.0,-9.54641056060791,-68,9981.0
11260,0.24899643659591675,36.78310012817383,691,6864.0,-1.6962710618972778,-39,9981.0
11270,0.24820569157600403,37.25046157836914,594,6864.0,-1.576666235923767,-6,9981.0
11280,0.24889647960662842,28.221954345703125,329,6864.0,-4.112485408782959,-19,9981.0
11290,0.24963100254535675,16.699792861938477,260,6864.0,-5.313332557678223,-173,9981.0
11300,0.25037887692451477,7.067894458770752,98,6864.0,-9.27080249786377,-243,9981.0
11310,0.25134241580963135,-7.875120639801025,-164,6864.0,-8.326565742492676,-49,9981.0
11320,0.25310152769088745,-12.35133171081543,-214,6864.0,-1.3053488731384277,71,9981.0
11330,0.25423285365104675,-12.354000091552734,-207,6864.0,18.178720474243164,350,9981.0
11340,0.25532785058021545,-14.964125633239746,-273,6864.0,40.49694061279297,691,9981.0
11350,0.2561700940132141,-17.85721778869629,-216,6864.0,45.660552978515625,757,9981.0
11360,0.25836095213890076,-11.82871150970459,-194,6864.0,40.84281539916992,667,9981.0
11370,0.25956782698631287,-6.611318588256836,-143,6864.0,28.65372657775879,371,9981.0
11380,0.26024526357650757,-4.701964378356934,-18,6864.0,17.751785278320312,220,9981.0
11390,0.260504812002182,-3.9665369987487793,-92,6864.0,1.8949408531188965,37,9981.0
11400,0.26135334372520447,-4.711096286773682,-191,6864.0,-26.48686408996582,-594,9981.0
11410,0.26591604948043823,-15.502013206481934,-214,6864.0,-45.53089141845703,-857,9981.0
11420,0.26666632294654846,-20.243045806884766,-316,6864.0,-61.30751037597656,-986,9981.0
11430,0.2669985294342041,-21.530681610107422,-410,6864.0,-73.71468353271484,-1235,9981.0
11440,0.26660266518592834,-16.463972091674805,-253,6864.0,-71.48905944824219,-1135,9981.0
11450,0.2711346745491028,-3.0080699920654297,112,6864.0,-48.51713562011719,-706,9981.0
11460,0.2741967737674713,12.053874015808105,219,6864.0,-17.133563995361328,-46,9981.0
11470,0.276115357875824,17.783084869384766,229,6864.0,19.377595901489258,552,9981.0
11480,0.2779025137424469,21.433645248413086,336,6864.0,55.653079986572266,1038,9981.0
11490,0.2785409092903137,29.94089698791504,613,6864.0,87.84651947021484,1540,9981.0
11500,0.2799323499202728,36.50938415527344,575,6864.0,91.51158905029297,1478,9981.0
11510,0.2810259759426117,37.604454040527344,646,6864.0,67.28488159179688,879,9981.0
11520,0.28194791078567505,36.33992004394531,581,6864.0,27.156795501708984,373,9981.0
11530,0.2834353446960449,27.598085403442383,460,6864.0,-4.214965343475342,-347,9981.0
11540,0.2844369113445282,23.995609283447266,380,6864.0,-38.76481246948242,-714,9981.0
11550,0.2851741909980774,17.75350570678711,202,6864.0,-59.007572174072266,-999,9981.0
11560,0.2860705256462097,4.896154403686523,56,6864.0,-75.52774810791016,-1378,9981.0
11570,0.2872886061668396,-5.021955490112305,-105,6864.0,-81.28825378417969,-1250,9981.0
11580,0.2887844145298004,-16.390928268432617,-392,6864.0,-72.93111419677734,-1081,9981.0
11590,0.2897760272026062,-33.75942611694336,-723,6864.0,-64.56987762451172,-1039,9981.0
11600,0.29052263498306274,-49.908287048339844,-765,6864.0,-48.23444747924805,-695,9981.0
11610,0.2939656376838684,-33.9697380065918,-366,6864.0,-7.937872409820557,106,9981.0
11620,0.2956567704677582,-17.78371238708496,-222,6864.0,40.76860046386719,904,9981.0
11630,0.29743632674217224,-11.892523765563965,-226,6864.0,74.10272979736328,1356,9981.0
11640,0.29894742369651794,3.320164442062378,181,6864.0,86.49234008789062,1344,9981.0
11650,0.30062898993492126,21.600048065185547,462,6864.0,78.30447387695312,1193,9981.0
11660,0.302109032869339,30.382375717163086,440,6864.0,50.037078857421875,602,9981.0
11670,0.30410057306289673,28.213714599609375,519,6864.0,11.507560729980469,-94,9981.0
11680,0.3053363859653473,25.467103958129883,381,6864.0,-24.221141815185547,-508,9981.0
11690,0.30687442421913147,17.939176559448242,181,6864.0,-49.197021484375,-900,9981.0
11700,0.30826324224472046,2.2895731925964355,-32,6864.0,-61.23920440673828,-1101,9981.0
11710,0.3106015920639038,-15.704261779785156,-262,6864.0,-62.00481414794922,-1052,9981.0
11720,0.3125118613243103,-32.14820861816406,-586,6864.0,-59.00539779663086,-907,9981.0
11730,0.31429043412208557,-44.69005584716797,-866,6864.0,-53.656864166259766,-715,9981.0
11740,0.3158947825431824,-57.003623962402344,-1000,6864.0,-33.98933410644531,-310,9981.0
11750,0.3177347183227539,-59.946128845214844,-1049,6864.0,-9.363188743591309,-25,9981.0
11760,0.3196224868297577,-53.806663513183594,-738,6864.0,9.569652557373047,262,9981.0
11770,0.32164517045021057,-23.23046112060547,-61,6864.0,34.07541275024414,681,9981.0
11780,0.32353946566581726,13.265656471252441,433,6864.0,57.415557861328125,1080,9981.0
11790,0.32582607865333557,43.329612731933594,876,6864.0,71.25503540039062,1246,9981.0
11800,0.32710376381874084,65.60102844238281,1025,6864.0,70.07511901855469,1064,9981.0
11810,0.32929685711860657,64.78077697753906,1031,6864.0,56.90677261352539,796,9981.0
11820,0.3309292793273926,56.89234924316406,951,6864.0,28.19070816040039,218,9981.0
11830,0.3323637843132019,41.74473190307617,631,6864.0,-2.580749273300171,-121,9981.0
11840,0.334474116563797,21.794403076171875,261,6864.0,-23.443050384521484,-403,9981.0
11850,0.33538714051246643,1.7058185338974,-167,6864.0,-36.924766540527344,-491,9981.0
11860,0.33680886030197144,-21.9005126953125,-556,6864.0,-46.10466766357422,-694,9981.0
11870,0.3383694291114807,-48.45391845703125,-888,6864.0,-41.50625228881836,-583,9981.0
11880,0.3399018347263336,-64.17940521240234,-1065,6864.0,-28.99527359008789,-311,9981.0
11890,0.33995988965034485,-71.46502685546875,-1255,6864.0,-7.849004745483398,-46,9981.0
11900,0.341660737991333,-67.80099487304688,-1012,6864.0,9.019519805908203,204,9981.0
11910,0.34281009435653687,-36.50535202026367,-380,6864.0,25.46697235107422,425,9981.0
11920,0.3444233536720276,-3.8357625007629395,98,6864.0,38.747352600097656,689,9981.0
11930,0.342611163854599,14.971626281738281,299,6864.0,50.03059005737305,894,9981.0
11940,0.3434547483921051,22.403261184692383,343,6864.0,50.14894104003906,750,9981.0
11950,0.3439733386039734,25.43360137939453,483,6864.0,44.49668884277344,663,9981.0
11960,0.3444516956806183,30.163299560546875,560,6864.0,34.04776382446289,472,9981.0
11970,0.34452468156814575,36.375328063964844,543,6864.0,11.1102933883667,188,9981.0
11980,0.3444713354110718,39.17269515991211,584,6864.0,-11.099922180175781,-337,9981.0
11990,0.3446037173271179,32.6346435546875,489,6864.0,-36.89555740356445,-757,9981.0
12000,0.34508833289146423,19.87332534790039,334,6864.0,-56.21455764770508,-1099,9981.0
12010,0.3451191782951355,5.071466445922852,28,6864.0,-67.82320404052734,-1142,9981.0
12020,0.34376877546310425,-20.084030151367188,-451,6864.0,-67.99671936035156,-1127,9981.0
12030,0.3439466655254364,-51.20436477661133,-920,6864.0,-53.26462936401367,-816,9981.0
12040,0.34402844309806824,-65.7952880859375,-1103,6864.0,-28.81167984008789,-426,9981.0
12050,0.3446272611618042,-70.68596649169922,-1208,6864.0,6.505066871643066,277,9981.0
12060,0.34537366032600403,-57.52110290527344,-827,6864.0,25.580841064453125,499,9981.0
12070,0.3450344502925873,-21.446582794189453,-211,6864.0,47.56989669799805,843,9981.0
12080,0.3458819091320038,18.13389015197754,446,6864.0,43.9676513671875,633,9981.0
12090,0.3466246426105499,46.443214416503906,952,6864.0,42.52616500854492,647,9981.0
12100,0.3474436402320862,67.19087982177734,1106,6864.0,30.793027877807617,550,9981.0
12110,0.34853193163871765,66.4033432006836,1032,6864.0,18.631723403930664,251,9981.0
12120,0.34894904494285583,58.82645034790039,944,6864.0,7.4817728996276855,1,9981.0
12130,0.3491825461387634,46.719966888427734,736,6864.0,-9.159135818481445,-228,9981.0
12140,0.3498961627483368,20.684757232666016,229,6864.0,-35.42884063720703,-696,9981.0
12150,0.35041359066963196,-8.625635147094727,-370,6864.0,-46.621246337890625,-713,9981.0
12160,0.351179838180542,-48.91277313232422,-967,6864.0,-44.32304000854492,-626,9981.0
12170,0.35166624188423157,-66.66704559326172,-1206,6864.0,-37.23539733886719,-517,9981.0
12180,0.35267072916030884,-72.23641204833984,-1255,6864.0,-27.915964126586914,-355,9981.0
12190,0.35352638363838196,-72.8320541381836,-1226,6864.0,-14.134218215942383,-112,9981.0
12200,0.35256657004356384,-51.462581634521484,-639,6864.0,12.764995574951172,262,9981.0
12210,0.35355889797210693,-7.5792622566223145,332,6864.0,36.405208587646484,787,9981.0
12220,0.35515522956848145,39.297698974609375,707,6864.0,52.26218795776367,930,9981.0
12230,0.35654282569885254,63.00049591064453,1129,6864.0,51.806190490722656,747,9981.0
12240,0.35582926869392395,64.78767395019531,1089,6864.0,47.6434440612793,749,9981.0
12250,0.35674166679382324,54.442893981933594,818,6864.0,42.02640151977539,718,9981.0
12260,0.35741427540779114,40.94536209106445,591,6864.0,27.195894241333008,285,9981.0
12270,0.35885345935821533,30.51569938659668,456,6864.0,-0.0784180760383606,-243,9981.0
12280,0.3593839704990387,15.4868745803833,270,6864.0,-27.262042999267578,-546,9981.0
12290,0.35870638489723206,4.751077651977539,-61,6864.0,-48.9358024597168,-803,9981.0
12300,0.3592543601989746,-15.051838874816895,-371,6864.0,-60.504520416259766,-961,9981.0
12310,0.35966989398002625,-22.846534729003906,-491,6864.0,-60.457489013671875,-904,9981.0
12320,0.3602571189403534,-39.17496109008789,-812,6864.0,-58.442710876464844,-902,9981.0
12330,0.35993269085884094,-60.69221878051758,-1129,6864.0,-41.90400695800781,-405,9981.0
12340,0.36036428809165955,-69.69915771484375,-1137,6864.0,-6.369383811950684,38,9981.0
12350,0.36211350560188293,-62.55246353149414,-795,6864.0,28.33836555480957,590,9981.0
12360,0.36375269293785095,-23.630943298339844,-80,6864.0,56.25809097290039,1023,9981.0
12370,0.36115482449531555,15.509765625,551,6864.0,67.25550079345703,1154,9981.0
12380,0.3626810908317566,56.14420700073242,1063,6864.0,63.166831970214844,970,9981.0
12390,0.36370500922203064,81.2219009399414,1393,6864.0,44.806365966796875,500,9981.0
12400,0.3645816147327423,76.18168640136719,1177,6864.0,17.034887313842773,206,9981.0
12410,0.3651646375656128,64.17401123046875,906,6864.0,2.5280165672302246,20,9981.0
12420,0.36477047204971313,50.90174865722656,717,6864.0,-17.737380981445312,-494,9981.0
12430,0.36524757742881775,34.94694137573242,446,6864.0,-44.67122268676758,-888,9981.0
12440,0.3655638098716736,17.474905014038086,123,6864.0,-55.662818908691406,-993,9981.0
12450,0.3663008511066437,-16.387100219726562,-446,6864.0,-59.32051467895508,-953,9981.0
12460,0.3665965795516968,-51.811256408691406,-914,6864.0,-61.35966491699219,-981,9981.0
12470,0.36715441942214966,-58.077423095703125,-1001,6864.0,-53.39088821411133,-733,9981.0
12480,0.36793363094329834,-60.95256805419922,-943,6864.0,-29.38615608215332,-334,9981.0
12490,0.368407666683197,-56.730533599853516,-885,6864.0,6.671334743499756,246,9981.0
12500,0.3695076107978821,-31.244775772094727,-268,6864.0,37.88677978515625,653,9981.0
12510,0.3709511458873749,8.962780952453613,393,6864.0,54.720401763916016,925,9981.0
12520,0.37164536118507385,48.172000885009766,847,6864.0,47.90324401855469,870,9981.0
12530,0.37217551469802856,55.01005554199219,765,6864.0,35.61000442504883,522,9981.0
12540,0.3726803660392761,41.03456497192383,602,6864.0,27.904760360717773,384,9981.0
12550,0.3736816346645355,22.047073364257812,322,6864.0,23.70261573791504,319,9981.0
12560,0.37405452132225037,7.35912561416626,102,6864.0,9.60986614227295,34,9981.0
12570,0.37428244948387146,-1.6532167196273804,-105,6864.0,-16.8001708984375,-298,9981.0
12580,0.37461572885513306,-7.301543235778809,-192,6864.0,-36.14912414550781,-668,9981.0
12590,0.37526094913482666,-20.773080825805664,-448,6864.0,-41.28510665893555,-646,9981.0
12600,0.3756682276725769,-46.635982513427734,-854,6864.0,-22.920934677124023,-298,9981.0
12610,0.37600043416023254,-56.915855407714844,-821,6864.0,2.2008743286132812,18,9981.0
12620,0.37616947293281555,-45.13335037231445,-623,6864.0,9.37258243560791,180,9981.0
12630,0.37668123841285706,-25.62190055847168,-352,6864.0,13.07459545135498,307,9981.0
12640,0.3772437274456024,-5.492450714111328,-98,6864.0,16.103378295898438,224,9981.0
12650,0.37778380513191223,9.772174835205078,268,6864.0,23.94765281677246,419,9981.0
12660,0.37836992740631104,24.600427627563477,466,6864.0,24.29909324645996,387,9981.0
12670,0.37901926040649414,35.915794372558594,537,6864.0,12.806528091430664,226,9981.0
12680,0.379690021276474,37.394813537597656,585,6864.0,8.445754051208496,48,9981.0
12690,0.3800840377807617,28.662860870361328,481,6864.0,6.191034317016602,59,9981.0
12700,0.38041526079177856,20.16706085205078,354,6864.0,7.104970932006836,102,9981.0
12710,0.3808104991912842,13.590631484985352,140,6864.0,4.322076797485352,141,9981.0
12720,0.38118642568588257,8.192578315734863,43,6864.0,0.410417377948761,13,9981.0
12730,0.38336339592933655,1.9505810737609863,-6,6864.0,-4.727635860443115,-33,9981.0
12740,0.383748322725296,2.0503740310668945,-36,6864.0,-5.905956268310547,-91,9981.0
12750,0.38418012857437134,-3.7361912727355957,-78,6864.0,-3.8710224628448486,-129,9981.0
12760,0.3847121596336365,-10.714882850646973,-144,6864.0,-4.860977649688721,-190,9981.0
12770,0.3857114613056183,-13.502732276916504,-182,6864.0,-9.167632102966309,-268,9981.0
12780,0.3862081468105316,-14.462345123291016,-105,6864.0,-7.446724891662598,-156,9981.0
12790,0.38670021295547485,-2.5149142742156982,122,6864.0,-4.9383344650268555,-100,9981.0
12800,0.3871508538722992,5.791957855224609,160,6864.0,12.002212524414062,243,9981.0
12810,0.3873903751373291,5.912646293640137,104,6864.0,31.05194091796875,521,9981.0
12820,0.38781580328941345,0.014045779593288898,28,6864.0,42.334320068359375,646,9981.0
12830,0.3882366716861725,-6.755943775177002,-140,6864.0,48.27783966064453,741,9981.0
12840,0.3885835111141205,-8.828462600708008,-162,6864.0,39.759796142578125,616,9981.0
12850,0.38871973752975464,-11.052661895751953,-220,6864.0,29.992780685424805,432,9981.0
12860,0.3884667754173279,-4.795347213745117,-41,6864.0,6.45074987411499,7,9981.0
12870,0.38848260045051575,17.90743637084961,418,6864.0,-20.857141494750977,-591,9981.0
12880,0.3885084092617035,31.420326232910156,572,6864.0,-37.70566940307617,-714,9981.0
12890,0.38853052258491516,32.06724548339844,533,6864.0,-46.82264709472656,-865,9981.0
12900,0.38676339387893677,9.454686164855957,118,6864.0,-39.0296516418457,-630,9981.0
12910,0.38681891560554504,-15.671257972717285,-306,6864.0,-25.65461540222168,-420,9981.0
12920,0.38749346137046814,-28.8718204498291,-432,6864.0,-0.7770366072654724,130,9981.0
12930,0.38788771629333496,-31.495988845825195,-481,6864.0,19.801721572875977,369,9981.0
12940,0.38819658756256104,-25.250009536743164,-293,6864.0,39.66374206542969,644,9981.0
12950,0.3863452672958374,-15.657689094543457,-156,6864.0,53.50101089477539,962,9981.0
12960,0.386442095041275,-11.488088607788086,-88,6864.0,64.88492584228516,1005,9981.0
12970,0.3866990804672241,-8.564103126525879,-221,6864.0,56.1855354309082,836,9981.0
12980,0.38646844029426575,-14.387415885925293,-240,6864.0,36.6864128112793,362,9981.0
12990,0.3878978490829468,-21.164501190185547,-336,6864.0,19.810649871826172,163,9981.0
13000,0.38806357979774475,-21.811763763427734,-325,6864.0,-0.1839389055967331,-10,9981.0
13010,0.38798096776008606,-6.613862037658691,35,6864.0,-25.684146881103516,-666,9981.0
13020,0.3878636360168457,18.00802993774414,425,6864.0,-51.715511322021484,-1037,9981.0
13030,0.38879093527793884,29.970373153686523,519,6864.0,-64.49816131591797,-1020,9981.0
13040,0.388696551322937,32.09672927856445,434,6864.0,-64.57926940917969,-918,9981.0
13050,0.3888229429721832,22.319137573242188,180,6864.0,-53.2985954284668,-773,9981.0
13060,0.38887685537338257,-3.908400058746338,-217,6864.0,-39.8154411315918,-581,9981.0
13070,0.38912126421928406,-28.934036254882812,-592,6864.0,-26.155183792114258,-370,9981.0
13080,0.3857007622718811,-47.525611877441406,-760,6864.0,-10.961749076843262,-103,9981.0
13090,0.38607707619667053,-52.84156036376953,-734,6864.0,10.04051685333252,167,9981.0
13100,0.38611412048339844,-40.47999954223633,-498,6864.0,36.384498596191406,753,9981.0
13110,0.38660404086112976,-23.375137329101562,-311,6864.0,52.29275131225586,940,9981.0
13120,0.3843895196914673,-2.5018954277038574,-12,6864.0,55.1152458190918,830,9981.0
13130,0.3844626545906067,15.47624683380127,371,6864.0,44.022884368896484,687,9981.0
13140,0.3845919966697693,41.666622161865234,772,6864.0,22.272428512573242,174,9981.0
13150,0.3844990134239197,72.5,1398,6864.0,-1.632271647453308,-35,9981.0
13160,0.3845721483230591,101.05259704589844,1592,6864.0,-14.876716613769531,-263,9981.0
13170,0.38443514704704285,95.1094741821289,1433,6864.0,-40.43994903564453,-851,9981.0
13180,0.38422438502311707,59.013912200927734,847,6864.0,-58.22484588623047,-1029,9981.0
13190,0.38461971282958984,9.523244857788086,-23,6864.0,-56.40332794189453,-802,9981.0
13200,0.3851871192455292,-30.25421142578125,-676,6864.0,-42.1181640625,-551,9981.0
13210,0.3848983943462372,-59.008079528808594,-1083,6864.0,-31.246109008789062,-412,9981.0
13220,0.3854741156101227,-67.14849090576172,-1139,6864.0,-24.87972640991211,-342,9981.0
13230,0.38590118288993835,-70.01725769042969,-1158,6864.0,-13.226160049438477,-139,9981.0
13240,0.38637590408325195,-67.67327117919922,-952,6864.0,3.1548900604248047,90,9981.0
13250,0.3838465213775635,-38.371456146240234,-425,6864.0,9.654289245605469,163,9981.0
13260,0.3841034173965454,-3.669215202331543,14,6864.0,8.784537315368652,240,9981.0
13270,0.3842450976371765,16.333091735839844,319,6864.0,15.814373970031738,177,9981.0
13280,0.38452431559562683,26.155902862548828,527,6864.0,26.001386642456055,440,9981.0
13290,0.38457804918289185,33.115577697753906,583,6864.0,27.46546173095703,500,9981.0
13300,0.3824458122253418,43.40241622924805,690,6864.0,9.627361297607422,-28,9981.0
13310,0.38264143466949463,39.88225555419922,630,6864.0,-21.31560516357422,-477,9981.0
13320,0.38310015201568604,17.27599334716797,124,6864.0,-39.783241271972656,-616,9981.0
13330,0.3835415244102478,-14.99413013458252,-443,6864.0,-39.93324279785156,-577,9981.0
13340,0.3816439211368561,-34.90726089477539,-622,6864.0,-42.42817306518555,-726,9981.0
13350,0.3819581866264343,-44.373382568359375,-672,6864.0,-40.867130279541016,-661,9981.0
13360,0.3824481964111328,-38.98338317871094,-502,6864.0,-29.341930389404297,-421,9981.0
13370,0.3828619420528412,-26.23812484741211,-461,6864.0,-12.561708450317383,5,9981.0
13380,0.383834570646286,-34.76198959350586,-620,6864.0,13.579383850097656,288,9981.0
13390,0.3822714686393738,-37.368980407714844,-499,6864.0,39.79661178588867,771,9981.0
13400,0.3826417624950409,-17.280513763427734,-193,6864.0,62.7737922668457,1112,9981.0
13410,0.38270920515060425,11.457906723022461,405,6864.0,66.57868957519531,1039,9981.0
13420,0.3835340440273285,41.304508209228516,693,6864.0,59.42263412475586,893,9981.0
13430,0.38484349846839905,57.18670654296875,1073,6864.0,30.490341186523438,320,9981.0
13440,0.38502925634384155,67.03292083740234,1057,6864.0,-6.284379959106445,-285,9981.0
13450,0.3857080638408661,63.23240280151367,1007,6864.0,-32.46693801879883,-524,9981.0
13460,0.38613566756248474,45.0588493347168,528,6864.0,-36.63417434692383,-547,9981.0
13470,0.38865742087364197,11.525135040283203,48,6864.0,-40.806819915771484,-778,9981.0
13480,0.38959652185440063,-22.017593383789062,-378,6864.0,-47.44062423706055,-805,9981.0
13490,0.39076387882232666,-38.35927963256836,-713,6864.0,-43.24061965942383,-559,9981.0
13500,0.3917585611343384,-39.73565673828125,-664,6864.0,-31.730712890625,-535,9981.0
13510,0.3929721713066101,-33.527835845947266,-451,6864.0,-20.53292465209961,-304,9981.0
13520,0.39501601457595825,-27.135160446166992,-374,6864.0,0.6128275394439697,155,9981.0
13530,0.39626675844192505,-13.8323335647583,-209,6864.0,18.779043197631836,394,9981.0
13540,0.3974918723106384,-0.11346953362226486,60,6864.0,28.646913528442383,399,9981.0
13550,0.3986504375934601,4.287356853485107,124,6864.0,39.19584274291992,734,9981.0
13560,0.40223416686058044,15.482260704040527,236,6864.0,39.28515625,586,9981.0
13570,0.40311160683631897,21.927921295166016,448,6864.0,25.668813705444336,299,9981.0
13580,0.40416035056114197,30.740203857421875,486,6864.0,-0.7614545226097107,-5,9981.0
13590,0.40507709980010986,30.032331466674805,466,6864.0,-20.832828521728516,-493,9981.0
13600,0.4057758152484894,23.271108627319336,369,6864.0,-29.60767364501953,-584,9981.0
13610,0.40683919191360474,5.729936599731445,1,6864.0,-28.612333297729492,-417,9981.0
13620,0.4076690673828125,-11.152174949645996,-341,6864.0,-26.791614532470703,-347,9981.0
13630,0.40872353315353394,-21.63484764099121,-381,6864.0,-27.500391006469727,-513,9981.0
13640,0.4097795784473419,-17.438993453979492,-239,6864.0,-24.690547943115234,-440,9981.0
13650,0.41073617339134216,-15.67800235748291,-197,6864.0,-18.350419998168945,-275,9981.0
13660,0.4116203486919403,-16.350479125976562,-262,6864.0,-12.096261024475098,-52,9981.0
13670,0.41254714131355286,-16.279090881347656,-294,6864.0,0.3770705759525299,211,9981.0
13680,0.41342827677726746,-3.425008773803711,111,6864.0,22.438182830810547,421,9981.0
13690,0.41451579332351685,16.59453773498535,440,6864.0,43.04429244995117,726,9981.0
13700,0.41517651081085205,25.99136734008789,401,6864.0,56.0665168762207,1030,9981.0
13710,0.41572755575180054,26.541898727416992,346,6864.0,53.03291702270508,734,9981.0
13720,0.4161371886730194,25.806690216064453,507,6864.0,29.6097354888916,247,9981.0
13730,0.4161374270915985,25.322811126708984,331,6864.0,-8.957971572875977,-325,9981.0
13740,0.41526031494140625,14.067727088928223,147,6864.0,-39.959083557128906,-843,9981.0
13750,0.41528061032295227,-1.1437921524047852,-98,6864.0,-47.070011138916016,-738,9981.0
13760,0.41509416699409485,-18.83310317993164,-366,6864.0,-41.181095123291016,-586,9981.0
13770,0.41498157382011414,-34.75712966918945,-694,6864.0,-27.3720645904541,-266,9981.0
13780,0.414045125246048,-37.990631103515625,-620,6864.0,-6.3835978507995605,-74,9981.0
13790,0.4140734374523163,-25.829038619995117,-337,6864.0,3.829505205154419,55,9981.0
13800,0.4140407145023346,-19.977170944213867,-378,6864.0,5.943752765655518,206,9981.0
13810,0.4141921103000641,-15.80199146270752,-166,6864.0,15.93520736694336,190,9981.0
13820,0.4143960773944855,-1.4063005447387695,68,6864.0,19.468223571777344,448,9981.0
13830,0.4145650267601013,17.578384399414062,304,6864.0,26.4342041015625,363,9981.0
13840,0.41475751996040344,30.627836227416992,558,6864.0,33.936973571777344,649,9981.0
13850,0.414896696805954,27.87190055847168,364,6864.0,39.951744079589844,622,9981.0
13860,0.41503775119781494,16.52186393737793,290,6864.0,43.58700942993164,649,9981.0
13870,0.4160621762275696,11.189865112304688,109,6864.0,20.48518943786621,310,9981.0
13880,0.41609251499176025,10.667933464050293,244,6864.0,-13.073431968688965,-432,9981.0
13890,0.416256844997406,8.229909896850586,98,6864.0,-44.19218444824219,-767,9981.0
13900,0.4163582921028137,-0.6727925539016724,-109,6864.0,-54.77939987182617,-905,9981.0
13910,0.4181661605834961,-13.224971771240234,-193,6864.0,-48.445980072021484,-738,9981.0
13920,0.4183192551136017,-23.87458610534668,-479,6864.0,-33.80851745605469,-371,9981.0
13930,0.4185693562030792,-32.67558288574219,-651,6864.0,-13.436088562011719,-164,9981.0
13940,0.4189096987247467,-32.71556854248047,-368,6864.0,0.130311518907547,14,9981.0
13950,0.4195018410682678,-13.470626831054688,-163,6864.0,5.061739921569824,189,9981.0
13960,0.41829147934913635,4.480113506317139,114,6864.0,4.603070259094238,16,9981.0
13970,0.418943852186203,19.57242202758789,460,6864.0,3.9326016902923584,102,9981.0
13980,0.4196319580078125,32.425567626953125,478,6864.0,17.584815979003906,478,9981.0
13990,0.4202846586704254,30.763553619384766,533,6864.0,52.61490249633789,971,9981.0
14000,0.4190765619277954,29.297504425048828,547,6864.0,77.37462615966797,1247,9981.0
14010,0.41915249824523926,29.011672973632812,474,6864.0,65.25520324707031,1019,9981.0
14020,0.41962239146232605,25.2406005859375,324,6864.0,30.506223678588867,260,9981.0
14030,0.4199203848838806,4.364269256591797,3,6864.0,-13.667747497558594,-382,9981.0
