timestamp,kalman.stateZ,gyro.x,gyro.xRaw,gyro.xVariance,gyro.y,gyro.yRaw,gyro.yVariance
0,0.30649375915527344,1.7215155363082886,15,6864.0,-16.494003295898438,-264,9981.0
10,0.3066849410533905,-1.538873314857483,-31,6864.0,-15.739954948425293,-257,9981.0
20,0.3069886267185211,-4.984741687774658,-102,6864.0,-15.92441177368164,-266,9981.0
30,0.30699223279953003,-9.255785942077637,-161,6864.0,-16.395442962646484,-266,9981.0
40,0.30618900060653687,-12.598039627075195,-218,6864.0,-14.962027549743652,-235,9981.0
50,0.3061157166957855,-16.511852264404297,-287,6864.0,-12.408273696899414,-180,9981.0
60,0.3063107430934906,-19.095300674438477,-316,6864.0,-8.887319564819336,-134,9981.0
70,0.30633366107940674,-18.11550521850586,-269,6864.0,-6.164310932159424,-90,9981.0
80,0.30586403608322144,-10.339086532592773,-116,6864.0,-5.164266109466553,-89,9981.0
90,0.30590641498565674,1.6182304620742798,93,6864.0,-5.807765960693359,-101,9981.0
100,0.3060092329978943,13.971242904663086,272,6864.0,-7.249871253967285,-127,9981.0
110,0.3061780035495758,22.61980628967285,400,6864.0,-6.713602542877197,-94,9981.0
120,0.3050169348716736,25.0500431060791,415,6864.0,-1.6557477712631226,15,9981.0
130,0.30520322918891907,23.40126609802246,372,6864.0,6.972537517547607,152,9981.0
140,0.3054182827472687,19.07329750061035,290,6864.0,12.911696434020996,238,9981.0
150,0.30556365847587585,11.489726066589355,132,6864.0,15.99638843536377,273,9981.0
160,0.30559173226356506,-1.0019224882125854,-66,6864.0,17.588577270507812,304,9981.0
170,0.3047887682914734,-12.934672355651855,-254,6864.0,18.020231246948242,300,9981.0
180,0.3046462833881378,-21.135066986083984,-377,6864.0,17.597755432128906,283,9981.0
190,0.3046379089355469,-23.743061065673828,-360,6864.0,14.373163223266602,199,9981.0
200,0.3046149015426636,-19.99312973022461,-277,6864.0,4.88252067565918,16,9981.0
210,0.30316588282585144,-14.266178131103516,-175,6864.0,-10.340112686157227,-275,9981.0
220,0.3033788800239563,1.7156784534454346,129,6864.0,-38.92887496948242,-809,9981.0
230,0.30374759435653687,15.70728588104248,348,6864.0,-66.19092559814453,-1242,9981.0
240,0.30427998304367065,23.480260848999023,398,6864.0,-102.06958770751953,-1790,9981.0
250,0.3049103021621704,24.791282653808594,467,6864.0,-127.74462890625,-2146,9981.0
260,0.30508413910865784,29.183313369750977,459,6864.0,-135.06744384765625,-2109,9981.0
270,0.30679431557655334,26.208463668823242,426,6864.0,-126.90266418457031,-2087,9981.0
280,0.306191623210907,17.0924015045166,286,6864.0,-105.92991638183594,-1782,9981.0
290,0.30655768513679504,11.300370216369629,158,6864.0,-74.10657501220703,-1213,9981.0
300,0.30861157178878784,1.6916718482971191,201,6864.0,-43.08582305908203,-576,9981.0
310,0.30878740549087524,-0.10772232711315155,-60,6864.0,-10.265292167663574,-6,9981.0
320,0.31042638421058655,-6.598930358886719,-94,6864.0,13.829745292663574,337,9981.0
330,0.3105744421482086,-13.923954010009766,-225,6864.0,36.95164489746094,620,9981.0
340,0.31619420647621155,-16.618648529052734,-301,6864.0,60.17696762084961,1209,9981.0
350,0.3170369863510132,-14.74599552154541,-264,6864.0,71.81415557861328,1169,9981.0
360,0.3178650140762329,-21.40288543701172,-309,6864.0,68.78866577148438,966,9981.0
370,0.31861746311187744,-11.308542251586914,-93,6864.0,58.73137664794922,869,9981.0
380,0.31915774941444397,12.525824546813965,346,6864.0,41.709407806396484,514,9981.0
390,0.3177661597728729,27.401029586791992,504,6864.0,17.136329650878906,34,9981.0
400,0.3183087706565857,32.219051361083984,554,6864.0,-7.936602592468262,-307,9981.0
410,0.31896549463272095,26.267040252685547,400,6864.0,-26.134891510009766,-502,9981.0
420,0.3195919096469879,18.51352882385254,384,6864.0,-41.080162048339844,-906,9981.0
430,0.31779709458351135,15.163609504699707,185,6864.0,-54.12190246582031,-969,9981.0
440,0.3183214068412781,3.7709763050079346,93,6864.0,-56.104488372802734,-1095,9981.0
450,0.31886154413223267,-0.29591476917266846,-98,6864.0,-53.388832092285156,-843,9981.0
460,0.3197897672653198,-12.795814514160156,-246,6864.0,-53.81317901611328,-753,9981.0
470,0.32054463028907776,-26.122486114501953,-540,6864.0,-42.56291198730469,-598,9981.0
480,0.31984439492225647,-39.21437072753906,-824,6864.0,-14.880814552307129,-28,9981.0
490,0.32152828574180603,-61.11455535888672,-1058,6864.0,34.858306884765625,819,9981.0
500,0.32320109009742737,-64.92121887207031,-1086,6864.0,77.851318359375,1588,9981.0
510,0.32580769062042236,-50.33167266845703,-696,6864.0,99.60315704345703,1741,9981.0
520,0.32538729906082153,-26.193693161010742,-297,6864.0,101.78514099121094,1637,9981.0
530,0.32658395171165466,7.982814311981201,316,6864.0,84.73027801513672,1108,9981.0
540,0.32794564962387085,37.83655548095703,823,6864.0,59.05014419555664,721,9981.0
550,0.3289417624473572,58.41612243652344,1090,6864.0,28.737037658691406,321,9981.0
560,0.3266811668872833,82.61247253417969,1359,6864.0,-2.1888113021850586,-175,9981.0
570,0.3272525370121002,89.84622192382812,1418,6864.0,-45.41737747192383,-815,9981.0
580,0.328254759311676,83.36797332763672,1192,6864.0,-72.28092193603516,-1212,9981.0
590,0.32882994413375854,59.134666442871094,620,6864.0,-87.3678207397461,-1259,9981.0
600,0.3315788209438324,9.224845886230469,-121,6864.0,-73.75473022460938,-1071,9981.0
610,0.3302595913410187,-26.7159423828125,-686,6864.0,-42.8961067199707,-454,9981.0
620,0.3322986960411072,-57.16625213623047,-989,6864.0,7.281404495239258,396,9981.0
630,0.3334287703037262,-71.94314575195312,-1184,6864.0,50.49154281616211,1057,9981.0
640,0.33396029472351074,-67.96540069580078,-1159,6864.0,79.55237579345703,1503,9981.0
650,0.3318678140640259,-50.08074951171875,-780,6864.0,95.26366424560547,1703,9981.0
660,0.3317453861236572,-30.755300521850586,-471,6864.0,92.93301391601562,1349,9981.0
670,0.3312799036502838,-17.385892868041992,-233,6864.0,71.15715789794922,1038,9981.0
680,0.3324772119522095,-12.472973823547363,-152,6864.0,32.98670959472656,398,9981.0
690,0.33025306463241577,-4.882068157196045,-45,6864.0,-11.33745288848877,-398,9981.0
700,0.3304424285888672,16.93531036376953,471,6864.0,-52.419837951660156,-1108,9981.0
710,0.33050626516342163,48.97248840332031,896,6864.0,-91.15845489501953,-1586,9981.0
720,0.33004721999168396,71.92924499511719,1241,6864.0,-130.24107360839844,-2303,9981.0
730,0.3299204409122467,76.44194793701172,1171,6864.0,-141.47909545898438,-2355,9981.0
740,0.32956475019454956,56.815452575683594,881,6864.0,-129.74313354492188,-2095,9981.0
750,0.328970730304718,36.40561294555664,550,6864.0,-93.01480102539062,-1352,9981.0
760,0.33184289932250977,7.982446670532227,-22,6864.0,-27.112167358398438,-257,9981.0
770,0.3322894275188446,-25.804309844970703,-540,6864.0,31.514745712280273,791,9981.0
780,0.3337624967098236,-43.14606857299805,-777,6864.0,78.66384887695312,1595,9981.0
790,0.334283709526062,-51.13477325439453,-864,6864.0,112.51683044433594,2090,9981.0
800,0.3342922329902649,-57.41140365600586,-940,6864.0,126.3239517211914,1996,9981.0
810,0.3338576555252075,-57.2620849609375,-869,6864.0,113.01616668701172,1676,9981.0
820,0.33068281412124634,-50.03825378417969,-733,6864.0,81.39466094970703,1337,9981.0
830,0.32971638441085815,-22.99139976501465,-241,6864.0,36.686100006103516,172,9981.0
840,0.33048802614212036,9.978175163269043,338,6864.0,-20.518327713012695,-441,9981.0
850,0.3312324583530426,36.260223388671875,660,6864.0,-73.83273315429688,-1510,9981.0
860,0.33225181698799133,59.5360107421875,1046,6864.0,-116.21062469482422,-2097,9981.0
870,0.3276301622390747,72.33954620361328,1196,6864.0,-141.8646240234375,-2209,9981.0
880,0.32737839221954346,55.830284118652344,750,6864.0,-135.08450317382812,-2038,9981.0
890,0.329653263092041,26.32270622253418,226,6864.0,-110.00621795654297,-1538,9981.0
900,0.33006706833839417,-4.854401588439941,-191,6864.0,-55.0968132019043,-636,9981.0
910,0.331073135137558,-27.222103118896484,-591,6864.0,0.9276293516159058,323,9981.0
920,0.3322071433067322,-47.22734069824219,-872,6864.0,54.63773727416992,1129,9981.0
930,0.33267781138420105,-57.44099044799805,-1007,6864.0,97.85468292236328,1847,9981.0
940,0.333345890045166,-51.96200942993164,-883,6864.0,125.85362243652344,2016,9981.0
950,0.333280086517334,-39.41300582885742,-591,6864.0,124.0728988647461,1809,9981.0
960,0.33020085096359253,-18.273469924926758,-169,6864.0,98.25572204589844,1516,9981.0
970,0.33163052797317505,2.6797940731048584,99,6864.0,59.69783020019531,723,9981.0
980,0.3314051032066345,15.163444519042969,257,6864.0,15.325831413269043,63,9981.0
990,0.33126121759414673,16.84944725036621,254,6864.0,-28.330114364624023,-614,9981.0
1000,0.32758426666259766,10.63176441192627,171,6864.0,-70.10527801513672,-1474,9981.0
1010,0.3276262581348419,6.4405670166015625,124,6864.0,-112.28564453125,-1903,9981.0
1020,0.32793906331062317,9.9832124710083,155,6864.0,-135.9999237060547,-2132,9981.0
1030,0.32800808548927307,7.44506311416626,59,6864.0,-124.48857116699219,-1937,9981.0
1040,0.3262968957424164,-11.677374839782715,-308,6864.0,-99.09722137451172,-1470,9981.0
1050,0.33011141419410706,-26.396249771118164,-397,6864.0,-49.663780212402344,-614,9981.0
1060,0.3306272029876709,-18.242483139038086,-194,6864.0,17.219465255737305,443,9981.0
1070,0.33169683814048767,3.420698404312134,112,6864.0,73.4693832397461,1329,9981.0
1080,0.33227574825286865,11.150717735290527,354,6864.0,111.52471923828125,1886,9981.0
1090,0.3324078619480133,22.042810440063477,400,6864.0,133.1955108642578,2215,9981.0
1100,0.3331308960914612,17.79218292236328,263,6864.0,128.28919982910156,2182,9981.0
1110,0.3326791822910309,13.131430625915527,137,6864.0,112.58198547363281,1590,9981.0
1120,0.33279383182525635,7.222682952880859,119,6864.0,83.50529479980469,1076,9981.0
1130,0.3300740122795105,3.113971471786499,-19,6864.0,39.13956069946289,363,9981.0
1140,0.33025720715522766,-3.6167430877685547,-2,6864.0,-12.608543395996094,-588,9981.0
1150,0.3310537040233612,-7.00588321685791,-183,6864.0,-65.11358642578125,-1300,9981.0
1160,0.33192577958106995,-1.0277680158615112,77,6864.0,-113.81906127929688,-2135,9981.0
1170,0.33265870809555054,11.257022857666016,346,6864.0,-130.75633239746094,-2147,9981.0
1180,0.3300659954547882,22.66054344177246,341,6864.0,-117.30879211425781,-1676,9981.0
1190,0.330504834651947,19.238561630249023,223,6864.0,-76.7155990600586,-893,9981.0
1200,0.33198779821395874,6.172058582305908,-43,6864.0,-26.850927352905273,23,9981.0
1210,0.333796888589859,-5.073835372924805,-216,6864.0,30.44571876525879,840,9981.0
1220,0.33469849824905396,-16.962060928344727,-419,6864.0,68.20193481445312,1444,9981.0
1230,0.3355432152748108,-23.899412155151367,-425,6864.0,98.29532623291016,1895,9981.0
1240,0.336346298456192,-21.3519287109375,-331,6864.0,120.00961303710938,2004,9981.0
1250,0.3366006314754486,-5.864943981170654,114,6864.0,121.31841278076172,1776,9981.0
1260,0.334960013628006,15.820266723632812,399,6864.0,94.0329360961914,1295,9981.0
1270,0.3349699378013611,29.150774002075195,512,6864.0,53.12076950073242,769,9981.0
1280,0.33486539125442505,23.27317237854004,222,6864.0,12.11581039428711,-39,9981.0
1290,0.33586013317108154,5.748617649078369,46,6864.0,-31.534931182861328,-751,9981.0
1300,0.3366490602493286,-13.882625579833984,-256,6864.0,-83.908203125,-1588,9981.0
1310,0.3342859447002411,-30.18490982055664,-632,6864.0,-123.09395599365234,-1993,9981.0
1320,0.33455008268356323,-39.25078582763672,-685,6864.0,-126.4883804321289,-2031,9981.0
1330,0.3349578380584717,-30.812604904174805,-445,6864.0,-118.60556030273438,-1801,9981.0
1340,0.3368971645832062,-15.001646995544434,-139,6864.0,-85.8491439819336,-1246,9981.0
1350,0.3354368209838867,-3.5272324085235596,13,6864.0,-37.30826950073242,-501,9981.0
1360,0.3360382318496704,-4.047918796539307,25,6864.0,10.668660163879395,351,9981.0
1370,0.337418794631958,-1.349841833114624,130,6864.0,54.186790466308594,1004,9981.0
1380,0.3381158709526062,5.272428512573242,108,6864.0,90.2156753540039,1638,9981.0
1390,0.3371175527572632,6.670139312744141,79,6864.0,121.62689971923828,2102,9981.0
1400,0.3374907672405243,14.136765480041504,159,6864.0,130.51345825195312,2178,9981.0
1410,0.33716318011283875,26.85851287841797,417,6864.0,113.09197235107422,1658,9981.0
1420,0.33860689401626587,37.13880920410156,735,6864.0,73.59675598144531,1032,9981.0
1430,0.33789873123168945,29.89319610595703,290,6864.0,26.64972496032715,234,9981.0
1440,0.3341987133026123,1.4737577438354492,-121,6864.0,-31.63192367553711,-854,9981.0
1450,0.33455735445022583,-24.691761016845703,-391,6864.0,-89.83615112304688,-1671,9981.0
1460,0.3342394530773163,-40.90568161010742,-762,6864.0,-133.0809326171875,-2318,9981.0
1470,0.3345489501953125,-50.42790603637695,-928,6864.0,-155.3806610107422,-2587,9981.0
1480,0.3322732150554657,-49.47835922241211,-763,6864.0,-152.99366760253906,-2368,9981.0
1490,0.3321853280067444,-26.934621810913086,-252,6864.0,-109.53746795654297,-1535,9981.0
1500,0.3349411189556122,1.347734808921814,220,6864.0,-45.67143630981445,-511,9981.0
1510,0.3355294167995453,23.723661422729492,512,6864.0,21.804306030273438,574,9981.0
1520,0.3366745412349701,36.25428009033203,637,6864.0,71.72982788085938,1446,9981.0
1530,0.337298721075058,43.0458984375,671,6864.0,109.25476837158203,1968,9981.0
1540,0.33773577213287354,37.014949798583984,524,6864.0,127.643310546875,2072,9981.0
1550,0.3384583592414856,24.8795108795166,294,6864.0,117.3017807006836,1756,9981.0
1560,0.33867543935775757,11.861469268798828,194,6864.0,85.00120544433594,1141,9981.0
1570,0.3365492522716522,-1.2368565797805786,-29,6864.0,46.201255798339844,683,9981.0
1580,0.33681052923202515,-9.512463569641113,-213,6864.0,6.073311805725098,-253,9981.0
1590,0.33830541372299194,-15.160929679870605,-239,6864.0,-41.035911560058594,-914,9981.0
1600,0.33922645449638367,-17.353330612182617,-349,6864.0,-83.34420776367188,-1319,9981.0
1610,0.3365907073020935,-22.88821029663086,-375,6864.0,-94.53179931640625,-1521,9981.0
1620,0.33726993203163147,-26.07090950012207,-325,6864.0,-83.54513549804688,-1461,9981.0
1630,0.33832141757011414,-12.097431182861328,-79,6864.0,-62.059898376464844,-879,9981.0
1640,0.33885475993156433,1.215725302696228,4,6864.0,-24.71628189086914,-177,9981.0
1650,0.33967074751853943,5.512153625488281,116,6864.0,22.27691650390625,535,9981.0
1660,0.33779460191726685,11.950679779052734,180,6864.0,63.963260650634766,1277,9981.0
1670,0.3378604054450989,19.320261001586914,364,6864.0,93.58375549316406,1743,9981.0
1680,0.33778586983680725,28.831151962280273,341,6864.0,111.3651351928711,1807,9981.0
1690,0.33708491921424866,24.46128273010254,309,6864.0,108.66913604736328,1564,9981.0
1700,0.3322920799255371,12.551369667053223,255,6864.0,83.18307495117188,1185,9981.0
1710,0.3324959874153137,5.738582611083984,57,6864.0,38.19612121582031,550,9981.0
1720,0.3320913016796112,-8.87287712097168,-282,6864.0,-13.959097862243652,-655,9981.0
1730,0.33209988474845886,-27.514617919921875,-405,6864.0,-69.6690444946289,-1329,9981.0
1740,0.33294808864593506,-30.820106506347656,-546,6864.0,-107.06542205810547,-1769,9981.0
1750,0.33008888363838196,-35.88738250732422,-672,6864.0,-129.68096923828125,-2197,9981.0
1760,0.3302992582321167,-42.64815902709961,-659,6864.0,-118.16439819335938,-1847,9981.0
1770,0.33051687479019165,-34.43333435058594,-417,6864.0,-68.80145263671875,-781,9981.0
1780,0.33124786615371704,-6.422737121582031,48,6864.0,-23.04697036743164,31,9981.0
1790,0.3326924741268158,20.34395408630371,417,6864.0,26.50261878967285,901,9981.0
1800,0.3332490921020508,40.344791412353516,796,6864.0,67.63143920898438,1166,9981.0
1810,0.3340282142162323,50.7172737121582,875,6864.0,91.18832397460938,1509,9981.0
1820,0.33424949645996094,47.58495330810547,733,6864.0,95.99734497070312,1558,9981.0
1830,0.33227428793907166,35.85111618041992,363,6864.0,86.3252944946289,1315,9981.0
1840,0.33343905210494995,17.605131149291992,162,6864.0,57.15204620361328,727,9981.0
1850,0.333755224943161,-8.665889739990234,-248,6864.0,19.80409812927246,183,9981.0
1860,0.33390411734580994,-25.352588653564453,-525,6864.0,-21.344606399536133,-640,9981.0
1870,0.33490461111068726,-32.920284271240234,-548,6864.0,-55.17961883544922,-1121,9981.0
1880,0.33279338479042053,-24.436866760253906,-361,6864.0,-88.99319458007812,-1430,9981.0
1890,0.33294522762298584,-12.47376823425293,-167,6864.0,-104.052001953125,-1733,9981.0
1900,0.33274203538894653,-3.5581538677215576,16,6864.0,-92.98370361328125,-1514,9981.0
1910,0.3333311080932617,3.4582927227020264,129,6864.0,-73.10518646240234,-1077,9981.0
1920,0.3330914378166199,7.690483570098877,195,6864.0,-41.6204833984375,-480,9981.0
1930,0.33333054184913635,14.103206634521484,337,6864.0,-4.134485721588135,108,9981.0
1940,0.33355244994163513,22.916234970092773,406,6864.0,33.557464599609375,762,9981.0
1950,0.3343502879142761,24.551183700561523,405,6864.0,81.11469268798828,1644,9981.0
1960,0.3341884911060333,22.291894912719727,183,6864.0,114.33782196044922,2113,9981.0
1970,0.33326977491378784,0.9425647258758545,-182,6864.0,126.47080993652344,1927,9981.0
1980,0.3327542841434479,-24.077781677246094,-531,6864.0,100.00939178466797,1371,9981.0
1990,0.3325968086719513,-36.934513092041016,-585,6864.0,58.284305572509766,946,9981.0
2000,0.33290889859199524,-34.592586517333984,-540,6864.0,20.271167755126953,43,9981.0
2010,0.32933127880096436,-16.995241165161133,-208,6864.0,-21.305789947509766,-477,9981.0
2020,0.3293948173522949,4.797214508056641,168,6864.0,-60.31711959838867,-1209,9981.0
2030,0.3296946883201599,26.593339920043945,567,6864.0,-103.1068344116211,-1742,9981.0
2040,0.32976245880126953,34.87987518310547,435,6864.0,-125.9207534790039,-2099,9981.0
2050,0.3291195034980774,22.526235580444336,284,6864.0,-119.26600646972656,-1961,9981.0
2060,0.32938921451568604,16.502248764038086,292,6864.0,-102.83200073242188,-1577,9981.0
2070,0.3290020525455475,8.15103530883789,124,6864.0,-62.15589904785156,-815,9981.0
2080,0.3319801688194275,-2.356382369995117,10,6864.0,-4.327585697174072,149,9981.0
2090,0.3322227895259857,4.610661029815674,50,6864.0,50.237098693847656,1035,9981.0
2100,0.3338030278682709,0.46018096804618835,-76,6864.0,94.07609558105469,1756,9981.0
2110,0.33410370349884033,-6.4828948974609375,-159,6864.0,127.39772033691406,2249,9981.0
2120,0.33477717638015747,-8.65686321258545,-197,6864.0,134.80982971191406,2137,9981.0
2130,0.33449363708496094,-8.03313159942627,5,6864.0,118.6364517211914,1812,9981.0
2140,0.3326145112514496,-4.56876802444458,-113,6864.0,86.9891357421875,1256,9981.0
2150,0.33211421966552734,-3.596149444580078,-67,6864.0,40.0550537109375,308,9981.0
2160,0.33277037739753723,-6.498383522033691,-139,6864.0,-19.010414123535156,-433,9981.0
2170,0.33310914039611816,-16.260299682617188,-278,6864.0,-72.73460388183594,-1584,9981.0
2180,0.33351659774780273,-16.268436431884766,-277,6864.0,-127.1369400024414,-2279,9981.0
2190,0.33100801706314087,-19.576934814453125,-350,6864.0,-163.44302368164062,-2630,9981.0
2200,0.3315710425376892,-19.256057739257812,-284,6864.0,-153.91726684570312,-2466,9981.0
2210,0.33109357953071594,-12.939346313476562,-85,6864.0,-119.0140609741211,-1871,9981.0
2220,0.3301357626914978,3.522956609725952,131,6864.0,-70.061279296875,-869,9981.0
2230,0.33215221762657166,21.556055068969727,354,6864.0,2.416929244995117,353,9981.0
2240,0.33304181694984436,26.14025115966797,398,6864.0,67.99359893798828,1347,9981.0
2250,0.3337714672088623,30.335285186767578,451,6864.0,112.28438568115234,2018,9981.0
2260,0.3339489698410034,27.629362106323242,392,6864.0,133.02268981933594,2125,9981.0
2270,0.3345167934894562,17.429983139038086,215,6864.0,132.2166290283203,2043,9981.0
2280,0.3338160812854767,0.1232607290148735,-123,6864.0,106.04386901855469,1706,9981.0
2290,0.3356773555278778,-14.9453125,-345,6864.0,64.27631378173828,858,9981.0
2300,0.3359358608722687,-25.218400955200195,-385,6864.0,14.238035202026367,53,9981.0
2310,0.3363569676876068,-30.00259780883789,-594,6864.0,-37.01978302001953,-878,9981.0
2320,0.33332329988479614,-29.066850662231445,-371,6864.0,-82.69438934326172,-1553,9981.0
2330,0.33383363485336304,-16.29138946533203,-161,6864.0,-114.31755828857422,-1854,9981.0
2340,0.33457615971565247,-2.606003761291504,-88,6864.0,-122.16889190673828,-2009,9981.0
2350,0.33519697189331055,-19.440441131591797,-346,6864.0,-100.73796844482422,-1730,9981.0
2360,0.3343571722507477,-33.0621452331543,-587,6864.0,-78.2906723022461,-1106,9981.0
2370,0.335916131734848,-35.878082275390625,-538,6864.0,-28.290679931640625,-146,9981.0
2380,0.33706167340278625,-21.432167053222656,-332,6864.0,22.357284545898438,606,9981.0
2390,0.3385785222053528,-2.8138859272003174,-6,6864.0,67.5240707397461,1425,9981.0
2400,0.33659330010414124,24.06574821472168,526,6864.0,97.80856323242188,1728,9981.0
2410,0.3370956480503082,44.84344482421875,822,6864.0,116.72462463378906,1863,9981.0
2420,0.3372015357017517,54.87472152709961,953,6864.0,115.49486541748047,1749,9981.0
2430,0.3370547592639923,56.588558197021484,763,6864.0,97.07013702392578,1537,9981.0
2440,0.33602389693260193,32.38731384277344,435,6864.0,65.05199432373047,863,9981.0
2450,0.33364027738571167,14.730359077453613,63,6864.0,17.16633415222168,-182,9981.0
2460,0.33354562520980835,-13.367956161499023,-336,6864.0,-29.322145462036133,-728,9981.0
2470,0.33410197496414185,-31.172317504882812,-595,6864.0,-77.93779754638672,-1434,9981.0
2480,0.3347186744213104,-36.56847381591797,-634,6864.0,-121.65504455566406,-2206,9981.0
2490,0.33398857712745667,-32.60301208496094,-430,6864.0,-137.0420379638672,-2246,9981.0
2500,0.3341355323791504,-11.605961799621582,34,6864.0,-117.86840057373047,-1734,9981.0
2510,0.33453255891799927,15.995658874511719,418,6864.0,-69.29292297363281,-782,9981.0
2520,0.3354930579662323,24.12031364440918,376,6864.0,-8.832280158996582,123,9981.0
2530,0.33686333894729614,10.823128700256348,158,6864.0,41.18996047973633,965,9981.0
2540,0.33613359928131104,7.223006725311279,182,6864.0,89.38784790039062,1489,9981.0
2550,0.3367469906806946,8.228532791137695,79,6864.0,111.75003051757812,1888,9981.0
2560,0.3367559015750885,9.620269775390625,144,6864.0,113.71820831298828,1916,9981.0
2570,0.3383277356624603,11.426566123962402,233,6864.0,99.86365509033203,1633,9981.0
2580,0.33375877141952515,15.950981140136719,259,6864.0,71.18508911132812,1036,9981.0
2590,0.33360087871551514,22.907623291015625,381,6864.0,32.353431701660156,136,9981.0
2600,0.33356600999832153,16.969303131103516,306,6864.0,-26.056110382080078,-590,9981.0
2610,0.33434396982192993,-3.257575035095215,-262,6864.0,-73.45512390136719,-1311,9981.0
2620,0.33501720428466797,-39.3824577331543,-876,6864.0,-98.0818862915039,-1667,9981.0
2630,0.33064180612564087,-69.84324645996094,-1278,6864.0,-104.40807342529297,-1656,9981.0
2640,0.33075541257858276,-79.5902099609375,-1279,6864.0,-94.32209014892578,-1411,9981.0
2650,0.3306029736995697,-75.3021240234375,-1096,6864.0,-70.52198791503906,-1068,9981.0
2660,0.3330836892127991,-47.20097351074219,-543,6864.0,-40.554813385009766,-785,9981.0
2670,0.333147257566452,-10.132372856140137,72,6864.0,-19.4626407623291,-233,9981.0
2680,0.33353477716445923,23.349319458007812,532,6864.0,22.359703063964844,556,9981.0
2690,0.33459362387657166,48.33344650268555,824,6864.0,57.83650207519531,1206,9981.0
2700,0.33504605293273926,62.854469299316406,1058,6864.0,84.62844848632812,1593,9981.0
2710,0.33338016271591187,68.96869659423828,1076,6864.0,95.37085723876953,1636,9981.0
2720,0.333740770816803,67.44910430908203,955,6864.0,95.75525665283203,1477,9981.0
2730,0.3334977924823761,50.68000411987305,739,6864.0,83.18335723876953,1168,9981.0
2740,0.3346383273601532,28.648427963256836,379,6864.0,52.133331298828125,658,9981.0
2750,0.3357202410697937,-4.30147123336792,-147,6864.0,0.20367832481861115,-272,9981.0
2760,0.33347272872924805,-44.29841232299805,-993,6864.0,-47.91232681274414,-906,9981.0
2770,0.33452287316322327,-91.02527618408203,-1728,6864.0,-79.07760620117188,-1233,9981.0
2780,0.3351339101791382,-105.2767562866211,-1680,6864.0,-91.74160766601562,-1436,9981.0
2790,0.3354245722293854,-86.21292114257812,-1332,6864.0,-76.63114929199219,-1136,9981.0
2800,0.33241063356399536,-59.48653030395508,-938,6864.0,-40.83570098876953,-554,9981.0
2810,0.3342750072479248,-30.5855712890625,-266,6864.0,-10.691361427307129,-59,9981.0
2820,0.3355375826358795,13.72384262084961,474,6864.0,29.730363845825195,519,9981.0
2830,0.3369423449039459,63.132930755615234,1206,6864.0,57.98885726928711,1129,9981.0
2840,0.3365888297557831,91.37635803222656,1666,6864.0,71.38997650146484,1333,9981.0
2850,0.33673980832099915,102.71719360351562,1525,6864.0,76.16154479980469,1198,9981.0
2860,0.3383771777153015,88.38746643066406,1304,6864.0,67.09346771240234,1142,9981.0
2870,0.3382015526294708,61.30757522583008,834,6864.0,46.341915130615234,787,9981.0
2880,0.3379686772823334,27.426179885864258,274,6864.0,17.295007705688477,150,9981.0
2890,0.332602858543396,-1.906200885772705,-238,6864.0,-18.128759384155273,-474,9981.0
2900,0.3327059745788574,-35.21022415161133,-710,6864.0,-54.331398010253906,-950,9981.0
2910,0.333173930644989,-63.100223541259766,-1101,6864.0,-78.14768981933594,-1396,9981.0
2920,0.3331450819969177,-83.41399383544922,-1319,6864.0,-80.70320892333984,-1443,9981.0
2930,0.32995444536209106,-68.91011047363281,-965,6864.0,-57.10111618041992,-885,9981.0
2940,0.33026158809661865,-46.758785247802734,-556,6864.0,-24.657272338867188,-204,9981.0
2950,0.3311648964881897,-20.126468658447266,-100,6864.0,14.387641906738281,407,9981.0
2960,0.3315965235233307,13.264440536499023,340,6864.0,53.71785354614258,985,9981.0
2970,0.3318166136741638,52.085262298583984,858,6864.0,75.85643768310547,1475,9981.0
2980,0.32904091477394104,70.42118835449219,1201,6864.0,85.8795166015625,1455,9981.0
2990,0.3294225335121155,74.82878875732422,1240,6864.0,82.41922760009766,1075,9981.0
3000,0.3288800120353699,61.49018859863281,983,6864.0,70.16667938232422,1062,9981.0
3010,0.32783517241477966,49.015708923339844,731,6864.0,39.12312316894531,594,9981.0
3020,0.32712090015411377,26.731822967529297,303,6864.0,0.12216879427433014,-231,9981.0
3030,0.3277990221977234,-2.6039600372314453,-287,6864.0,-48.375526428222656,-1012,9981.0
3040,0.32841619849205017,-45.03929138183594,-882,6864.0,-97.00566864013672,-1803,9981.0
3050,0.32876744866371155,-88.85262298583984,-1569,6864.0,-135.844970703125,-2526,9981.0
3060,0.32761555910110474,-114.3097915649414,-1907,6864.0,-159.0371551513672,-2663,9981.0
3070,0.32916563749313354,-114.95437622070312,-1727,6864.0,-146.80357360839844,-2267,9981.0
3080,0.329729288816452,-80.50425720214844,-1140,6864.0,-119.16790771484375,-1645,9981.0
3090,0.32946938276290894,-47.159027099609375,-572,6864.0,-82.11762237548828,-1000,9981.0
3100,0.33112213015556335,-11.722723960876465,-17,6864.0,-39.76342010498047,-368,9981.0
3110,0.3330133557319641,21.943513870239258,516,6864.0,-4.66602087020874,87,9981.0
3120,0.3346720039844513,47.55746078491211,896,6864.0,19.991432189941406,543,9981.0
3130,0.3363614082336426,61.77678680419922,1173,6864.0,59.36963653564453,1066,9981.0
3140,0.3377794623374939,70.11165618896484,1257,6864.0,90.17888641357422,1441,9981.0
3150,0.337017685174942,68.46353912353516,1172,6864.0,100.1626968383789,1505,9981.0
3160,0.33757922053337097,60.848480224609375,922,6864.0,89.41732025146484,1308,9981.0
3170,0.3380875289440155,49.631771087646484,728,6864.0,71.72509765625,989,9981.0
3180,0.33854395151138306,41.13126754760742,556,6864.0,38.4254150390625,509,9981.0
3190,0.3395567834377289,19.786401748657227,219,6864.0,10.418606758117676,119,9981.0
3200,0.336373507976532,-7.174952030181885,-366,6864.0,-12.711864471435547,-168,9981.0
3210,0.3375217616558075,-46.410858154296875,-1017,6864.0,-25.75319480895996,-492,9981.0
3220,0.3385825753211975,-72.87397003173828,-1408,6864.0,-28.91452407836914,-491,9981.0
3230,0.3396483063697815,-94.74716186523438,-1568,6864.0,-17.83617401123047,-312,9981.0
3240,0.33509719371795654,-92.65237426757812,-1420,6864.0,17.49671745300293,412,9981.0
3250,0.33586230874061584,-61.495079040527344,-802,6864.0,56.98695755004883,1034,9981.0
3260,0.3368731737136841,-22.225278854370117,-147,6864.0,75.07373809814453,1300,9981.0
3270,0.3379759192466736,28.886959075927734,616,6864.0,84.29912567138672,1466,9981.0
3280,0.3345809578895569,67.13250732421875,1181,6864.0,74.09425354003906,964,9981.0
3290,0.3345097005367279,83.08748626708984,1455,6864.0,55.27495574951172,890,9981.0
3300,0.3336367607116699,83.41566467285156,1323,6864.0,41.736610412597656,662,9981.0
3310,0.33392468094825745,68.1348648071289,949,6864.0,23.731931686401367,371,9981.0
3320,0.33353132009506226,41.02399826049805,540,6864.0,-9.52395248413086,-294,9981.0
3330,0.3304831385612488,8.187739372253418,-7,6864.0,-45.30070114135742,-1117,9981.0
3340,0.33042216300964355,-31.655237197875977,-612,6864.0,-68.037841796875,-1147,9981.0
3350,0.32978424429893494,-40.476646423339844,-622,6864.0,-75.97377014160156,-1230,9981.0
3360,0.32917076349258423,-34.043914794921875,-537,6864.0,-82.8717269897461,-1294,9981.0
3370,0.3271755278110504,-37.89920425415039,-676,6864.0,-77.23023223876953,-1177,9981.0
3380,0.32646796107292175,-40.13587951660156,-688,6864.0,-66.8177261352539,-944,9981.0
3390,0.32586514949798584,-38.522193908691406,-566,6864.0,-35.02888107299805,-451,9981.0
3400,0.3274971544742584,-14.556624412536621,-33,6864.0,1.5348944664001465,177,9981.0
3410,0.32633933424949646,31.49944305419922,762,6864.0,47.54482650756836,973,9981.0
3420,0.3268781006336212,67.61498260498047,1188,6864.0,87.47874450683594,1722,9981.0
3430,0.32661643624305725,82.96847534179688,1296,6864.0,97.6308364868164,1672,9981.0
3440,0.3269214630126953,77.70301055908203,1230,6864.0,89.2203140258789,1394,9981.0
3450,0.3271651268005371,68.41461944580078,1087,6864.0,78.6880874633789,1020,9981.0
3460,0.32550135254859924,45.16300964355469,609,6864.0,41.57056427001953,534,9981.0
3470,0.32526567578315735,17.79926109313965,122,6864.0,-7.744794845581055,-219,9981.0
3480,0.3260904550552368,-19.464040756225586,-463,6864.0,-41.02296829223633,-804,9981.0
3490,0.32684093713760376,-56.984840393066406,-978,6864.0,-67.20520782470703,-1366,9981.0
3500,0.32578304409980774,-69.64324951171875,-1125,6864.0,-97.16680908203125,-1746,9981.0
3510,0.3253020942211151,-72.91112518310547,-1322,6864.0,-119.23362731933594,-1900,9981.0
3520,0.3258672058582306,-79.57353973388672,-1368,6864.0,-124.16024780273438,-1881,9981.0
3530,0.32523950934410095,-82.46572875976562,-1328,6864.0,-116.9692611694336,-1859,9981.0
3540,0.3246263563632965,-56.87049865722656,-735,6864.0,-84.66834259033203,-1342,9981.0
3550,0.32602009177207947,-10.156258583068848,63,6864.0,-34.35307312011719,-466,9981.0
3560,0.3273540437221527,30.9332275390625,585,6864.0,3.5281848907470703,268,9981.0
3570,0.32867076992988586,44.69327926635742,869,6864.0,48.26818084716797,1038,9981.0
3580,0.3305268883705139,54.826942443847656,786,6864.0,86.70480346679688,1742,9981.0
3590,0.33239471912384033,46.28171920776367,729,6864.0,116.23001098632812,2012,9981.0
3600,0.3328510820865631,50.20804977416992,737,6864.0,124.35130310058594,2030,9981.0
3610,0.33368444442749023,42.754249572753906,590,6864.0,115.49508666992188,1624,9981.0
3620,0.3339410722255707,23.839143753051758,303,6864.0,77.11186981201172,1060,9981.0
3630,0.33011162281036377,-0.3224022686481476,31,6864.0,46.63841247558594,723,9981.0
3640,0.3304332494735718,-10.246869087219238,-246,6864.0,20.452049255371094,202,9981.0
3650,0.33074167370796204,-18.976099014282227,-474,6864.0,-13.152746200561523,-236,9981.0
3660,0.3312128186225891,-35.62870788574219,-648,6864.0,-40.732181549072266,-897,9981.0
3670,0.33189353346824646,-59.213748931884766,-1041,6864.0,-69.74251556396484,-1341,9981.0
3680,0.3296094834804535,-67.0257568359375,-959,6864.0,-82.15868377685547,-1328,9981.0
3690,0.3310680389404297,-50.12834167480469,-698,6864.0,-78.1516342163086,-1178,9981.0
3700,0.3319198787212372,-23.962848663330078,-371,6864.0,-52.4817008972168,-685,9981.0
3710,0.3331212103366852,-8.060294151306152,-39,6864.0,-28.027965545654297,-258,9981.0
3720,0.33214035630226135,14.25722885131836,329,6864.0,-0.5589357614517212,66,9981.0
3730,0.33387601375579834,33.35380172729492,465,6864.0,22.278783798217773,508,9981.0
3740,0.33529436588287354,42.941429138183594,758,6864.0,50.48958969116211,1068,9981.0
3750,0.33620551228523254,45.81556701660156,839,6864.0,82.1285400390625,1386,9981.0
3760,0.3370172679424286,46.627418518066406,847,6864.0,90.51119995117188,1322,9981.0
3770,0.33448827266693115,52.53860092163086,938,6864.0,79.34098052978516,1156,9981.0
3780,0.335207998752594,60.336021423339844,1089,6864.0,67.2824478149414,964,9981.0
3790,0.3353855609893799,48.75242233276367,638,6864.0,46.792076110839844,629,9981.0
3800,0.33541953563690186,21.480615615844727,72,6864.0,18.397724151611328,226,9981.0
3810,0.3342715799808502,-17.01219367980957,-550,6864.0,-14.347405433654785,-219,9981.0
3820,0.33446723222732544,-61.8013916015625,-1274,6864.0,-39.324928283691406,-694,9981.0
3830,0.3354988098144531,-88.74010467529297,-1597,6864.0,-51.794246673583984,-773,9981.0
3840,0.33574098348617554,-92.19908905029297,-1423,6864.0,-59.22430419921875,-1025,9981.0
3850,0.33374106884002686,-71.89929962158203,-1063,6864.0,-61.3056526184082,-1020,9981.0
3860,0.33371034264564514,-39.468360900878906,-289,6864.0,-58.265750885009766,-1070,9981.0
3870,0.33410218358039856,-1.6456141471862793,215,6864.0,-45.33156967163086,-700,9981.0
3880,0.3343763053417206,23.61151123046875,563,6864.0,-29.171062469482422,-424,9981.0
3890,0.33484676480293274,34.17011260986328,581,6864.0,-9.959306716918945,-53,9981.0
3900,0.3329007625579834,37.759700775146484,581,6864.0,11.764250755310059,347,9981.0
3910,0.33358851075172424,34.43156433105469,550,6864.0,31.867271423339844,623,9981.0
3920,0.33399155735969543,30.61042594909668,466,6864.0,45.865962982177734,753,9981.0
3930,0.33407652378082275,40.25751495361328,641,6864.0,52.9057502746582,949,9981.0
3940,0.3311842381954193,50.78873062133789,817,6864.0,40.98356246948242,731,9981.0
3950,0.33062389492988586,49.26679611206055,771,6864.0,19.96230125427246,252,9981.0
3960,0.3300260901451111,28.876407623291016,244,6864.0,2.0666165351867676,-46,9981.0
3970,0.32954782247543335,-9.758743286132812,-373,6864.0,-16.4044132232666,-350,9981.0
3980,0.3296656906604767,-43.540287017822266,-770,6864.0,-43.69728469848633,-803,9981.0
3990,0.329233318567276,-67.86083984375,-1226,6864.0,-54.352561950683594,-958,9981.0
4000,0.3289957046508789,-82.86624145507812,-1377,6864.0,-50.7166633605957,-800,9981.0
4010,0.32885873317718506,-76.82746887207031,-1103,6864.0,-34.393959045410156,-484,9981.0
4020,0.3292388617992401,-49.18404769897461,-624,6864.0,-7.337804317474365,-135,9981.0
4030,0.3276083767414093,-8.372474670410156,158,6864.0,9.871667861938477,139,9981.0
4040,0.32765993475914,33.20963668823242,788,6864.0,21.446067810058594,254,9981.0
4050,0.3280978500843048,58.43048858642578,914,6864.0,22.518970489501953,526,9981.0
4060,0.3279527723789215,53.8798828125,832,6864.0,19.36786460876465,363,9981.0
4070,0.3263859748840332,44.14073944091797,658,6864.0,11.479525566101074,108,9981.0
4080,0.325886070728302,37.26443099975586,581,6864.0,7.4808526039123535,55,9981.0
4090,0.3255855441093445,33.41929244995117,600,6864.0,8.088312149047852,88,9981.0
4100,0.32587748765945435,29.161033630371094,558,6864.0,11.118454933166504,42,9981.0
4110,0.325501412153244,20.675233840942383,255,6864.0,6.998301029205322,40,9981.0
4120,0.3243902325630188,6.9932661056518555,45,6864.0,2.588265895843506,-2,9981.0
4130,0.3240090310573578,-18.3490047454834,-306,6864.0,-14.977161407470703,-341,9981.0
4140,0.3238697052001953,-51.93134307861328,-1040,6864.0,-35.033164978027344,-685,9981.0
4150,0.32363176345825195,-79.5884780883789,-1480,6864.0,-55.12550735473633,-793,9981.0
4160,0.32321295142173767,-91.91529083251953,-1458,6864.0,-53.4400634765625,-735,9981.0
4170,0.3224201500415802,-67.64762115478516,-967,6864.0,-44.558387756347656,-700,9981.0
4180,0.3246239721775055,-12.699467658996582,10,6864.0,-24.826648712158203,-372,9981.0
4190,0.32556387782096863,28.11332130432129,729,6864.0,10.417384147644043,234,9981.0
4200,0.3264608681201935,53.845245361328125,1010,6864.0,44.575679779052734,869,9981.0
4210,0.32664942741394043,68.55217742919922,1086,6864.0,70.21929168701172,1345,9981.0
4220,0.32712289690971375,71.66363525390625,1141,6864.0,84.22250366210938,1532,9981.0
4230,0.3276458978652954,62.799442291259766,948,6864.0,86.04841613769531,1287,9981.0
4240,0.32743918895721436,46.57963562011719,746,6864.0,79.15685272216797,1124,9981.0
4250,0.3255060017108917,38.98019027709961,643,6864.0,44.68484878540039,612,9981.0
4260,0.32672977447509766,17.07756233215332,154,6864.0,-2.473658323287964,-229,9981.0
4270,0.3272276818752289,-12.445418357849121,-500,6864.0,-48.35673522949219,-948,9981.0
4280,0.3283725082874298,-56.90025329589844,-1066,6864.0,-82.13772583007812,-1437,9981.0
4290,0.32606828212738037,-84.75279998779297,-1414,6864.0,-109.31208801269531,-2068,9981.0
4300,0.32689347863197327,-91.66909790039062,-1446,6864.0,-132.76681518554688,-2225,9981.0
4310,0.3269306719303131,-74.50654602050781,-930,6864.0,-131.3076934814453,-2122,9981.0
4320,0.3265931308269501,-32.87255859375,-405,6864.0,-106.40727996826172,-1630,9981.0
4330,0.32759740948677063,3.4981329441070557,189,6864.0,-66.29339599609375,-848,9981.0
4340,0.3312011957168579,23.91431427001953,482,6864.0,-15.467389106750488,-12,9981.0
4350,0.3326740860939026,30.86090850830078,511,6864.0,45.597267150878906,985,9981.0
4360,0.33375847339630127,35.65345764160156,552,6864.0,102.52289581298828,1804,9981.0
4370,0.336591899394989,38.05756759643555,546,6864.0,143.75575256347656,2473,9981.0
4380,0.3348779082298279,37.6512336730957,679,6864.0,165.1065673828125,2804,9981.0
4390,0.3356547951698303,38.068607330322266,549,6864.0,162.55007934570312,2599,9981.0
4400,0.3358539938926697,31.051971435546875,283,6864.0,141.68414306640625,2239,9981.0
4410,0.3352576196193695,17.580181121826172,236,6864.0,101.11280822753906,1242,9981.0
4420,0.3377360999584198,6.573165416717529,80,6864.0,45.91156005859375,387,9981.0
4430,0.33525729179382324,-3.1134185791015625,-90,6864.0,-12.282670021057129,-614,9981.0
4440,0.335930198431015,-24.72296714782715,-640,6864.0,-75.01639556884766,-1469,9981.0
4450,0.33785998821258545,-53.691810607910156,-1040,6864.0,-128.88450622558594,-2390,9981.0
4460,0.3390961289405823,-72.2046127319336,-1182,6864.0,-156.62826538085938,-2546,9981.0
4470,0.3360562026500702,-63.32046127319336,-851,6864.0,-147.8434295654297,-2472,9981.0
4480,0.33677807450294495,-39.87969970703125,-432,6864.0,-119.8760986328125,-1793,9981.0
4490,0.33747008442878723,-15.142806053161621,-37,6864.0,-81.43302917480469,-1170,9981.0
4500,0.3385910093784332,7.727854251861572,237,6864.0,-46.793121337890625,-527,9981.0
4510,0.33755019307136536,20.681989669799805,444,6864.0,-3.877607822418213,206,9981.0
4520,0.3387550711631775,37.443355560302734,781,6864.0,41.732852935791016,826,9981.0
4530,0.33980557322502136,49.28797149658203,855,6864.0,88.45504760742188,1652,9981.0
4540,0.3410286009311676,49.14004898071289,792,6864.0,117.53419494628906,1934,9981.0
4550,0.3415755033493042,39.921878814697266,693,6864.0,121.65200805664062,1989,9981.0
4560,0.33829763531684875,26.110578536987305,418,6864.0,106.24735260009766,1531,9981.0
4570,0.33796724677085876,13.347855567932129,83,6864.0,70.68423461914062,1097,9981.0
4580,0.3378276526927948,-5.223441123962402,-226,6864.0,31.8746395111084,384,9981.0
4590,0.3382970988750458,-30.425071716308594,-667,6864.0,-11.295784950256348,-428,9981.0
4600,0.3348715007305145,-57.19985580444336,-1007,6864.0,-51.86935043334961,-1054,9981.0
4610,0.3352296054363251,-64.61298370361328,-938,6864.0,-75.94937133789062,-1303,9981.0
4620,0.3352661728858948,-37.31166076660156,-358,6864.0,-67.15311431884766,-999,9981.0
4630,0.3367653489112854,6.60580587387085,256,6864.0,-43.278324127197266,-518,9981.0
4640,0.33313778042793274,35.18461608886719,643,6864.0,-9.942076683044434,74,9981.0
4650,0.33335644006729126,53.76466369628906,867,6864.0,17.531082153320312,431,9981.0
4660,0.333207905292511,59.05767059326172,868,6864.0,34.17619323730469,757,9981.0
4670,0.3334089517593384,44.96698760986328,658,6864.0,47.824005126953125,899,9981.0
4680,0.332848459482193,24.2558536529541,248,6864.0,56.369964599609375,878,9981.0
4690,0.3297923505306244,3.811569929122925,-79,6864.0,49.72746658325195,825,9981.0
4700,0.3290461599826813,-10.218209266662598,-152,6864.0,33.27824020385742,289,9981.0
4710,0.3292981684207916,-18.456300735473633,-295,6864.0,-2.1196279525756836,-158,9981.0
4720,0.3290627896785736,-19.12120819091797,-179,6864.0,-28.435216903686523,-614,9981.0
4730,0.3255324363708496,-26.204063415527344,-627,6864.0,-62.14518737792969,-1039,9981.0
4740,0.32608798146247864,-56.17485427856445,-1077,6864.0,-83.25565338134766,-1425,9981.0
4750,0.3260141611099243,-78.59896087646484,-1311,6864.0,-97.85787963867188,-1729,9981.0
4760,0.3259536027908325,-65.31114196777344,-870,6864.0,-85.69629669189453,-1283,9981.0
4770,0.3262459635734558,-28.49688720703125,-188,6864.0,-60.64308166503906,-883,9981.0
4780,0.3247583210468292,9.809630393981934,288,6864.0,-21.147703170776367,-109,9981.0
4790,0.3250570595264435,39.80600357055664,723,6864.0,23.783056259155273,747,9981.0
4800,0.3258286118507385,63.8287353515625,1115,6864.0,55.210819244384766,1125,9981.0
4810,0.32582971453666687,78.94738006591797,1253,6864.0,72.25726318359375,1202,9981.0
4820,0.32484155893325806,76.50164031982422,1163,6864.0,81.03728485107422,1261,9981.0
4830,0.324868768453598,59.38916778564453,934,6864.0,68.51891326904297,1011,9981.0
4840,0.32547232508659363,35.30641174316406,490,6864.0,47.772804260253906,484,9981.0
4850,0.32586678862571716,6.4271345138549805,24,6864.0,19.291828155517578,126,9981.0
4860,0.3231954574584961,-22.40937614440918,-348,6864.0,-22.195297241210938,-679,9981.0
4870,0.3238307535648346,-57.97224426269531,-1145,6864.0,-62.589412689208984,-1235,9981.0
4880,0.32432764768600464,-93.40916442871094,-1601,6864.0,-94.57890319824219,-1609,9981.0
4890,0.3245179057121277,-112.33686065673828,-1823,6864.0,-101.45712280273438,-1601,9981.0
4900,0.32531243562698364,-99.09979248046875,-1555,6864.0,-78.35041809082031,-1018,9981.0
4910,0.32478824257850647,-68.08797454833984,-851,6864.0,-61.68482971191406,-799,9981.0
4920,0.3294279873371124,-14.989291191101074,-78,6864.0,-36.052467346191406,-318,9981.0
4930,0.32990193367004395,27.379663467407227,700,6864.0,-5.286440849304199,102,9981.0
4940,0.33134952187538147,59.234073638916016,1068,6864.0,30.445711135864258,498,9981.0
4950,0.3312404453754425,68.5716323852539,1188,6864.0,52.35639572143555,931,9981.0
4960,0.3318001329898834,75.82170867919922,1326,6864.0,71.90652465820312,1160,9981.0
4970,0.3325449824333191,75.54313659667969,1266,6864.0,77.51128387451172,1228,9981.0
4980,0.3330743908882141,69.1965560913086,1147,6864.0,79.08014678955078,1172,9981.0
4990,0.3329578936100006,68.43511962890625,1059,6864.0,70.08338928222656,1180,9981.0
5000,0.33226075768470764,48.1929817199707,590,6864.0,69.59074401855469,1120,9981.0
5010,0.332443505525589,6.591655731201172,-219,6864.0,54.19618225097656,708,9981.0
5020,0.33447834849357605,-43.56559371948242,-1039,6864.0,13.218581199645996,160,9981.0
5030,0.3361302614212036,-83.8387222290039,-1551,6864.0,-11.238154411315918,-302,9981.0
5040,0.33107274770736694,-102.63863372802734,-1623,6864.0,-24.649471282958984,-489,9981.0
5050,0.3317162096500397,-90.33458709716797,-1292,6864.0,-34.19049835205078,-625,9981.0
5060,0.3324752449989319,-63.94034957885742,-847,6864.0,-29.73441505432129,-425,9981.0
5070,0.3326288163661957,-44.51021194458008,-568,6864.0,-17.990371704101562,-175,9981.0
5080,0.3307949900627136,-23.09656524658203,-123,6864.0,0.2678700387477875,2,9981.0
5090,0.33164918422698975,5.918827056884766,296,6864.0,-2.3915317058563232,43,9981.0
5100,0.3329737186431885,47.563758850097656,1045,6864.0,-11.417343139648438,-273,9981.0
5110,0.3344683349132538,84.86591339111328,1463,6864.0,-24.543434143066406,-514,9981.0
5120,0.33521902561187744,96.9171371459961,1728,6864.0,-35.58002471923828,-651,9981.0
5130,0.3339696228504181,105.10271453857422,1845,6864.0,-25.978242874145508,-422,9981.0
5140,0.33455538749694824,102.57318115234375,1553,6864.0,2.713613986968994,252,9981.0
5150,0.3349290192127228,75.29837799072266,1136,6864.0,42.08160400390625,751,9981.0
5160,0.33530545234680176,29.612895965576172,228,6864.0,57.862220764160156,1144,9981.0
5170,0.33559662103652954,-24.4426212310791,-605,6864.0,71.74264526367188,1323,9981.0
5180,0.3357853591442108,-62.581424713134766,-1187,6864.0,71.14102172851562,1232,9981.0
5190,0.3355249762535095,-78.19386291503906,-1214,6864.0,55.29254913330078,857,9981.0
5200,0.3352293074131012,-73.44554901123047,-1327,6864.0,26.215862274169922,200,9981.0
5210,0.3351893424987793,-70.8585433959961,-1080,6864.0,-2.811873435974121,-271,9981.0
5220,0.3329896330833435,-59.045997619628906,-930,6864.0,-32.74340057373047,-739,9981.0
5230,0.3324907720088959,-35.78265380859375,-352,6864.0,-63.32151794433594,-1126,9981.0
5240,0.3324722349643707,2.8403704166412354,176,6864.0,-70.87188720703125,-966,9981.0
5250,0.33257654309272766,39.56153106689453,815,6864.0,-58.44424819946289,-900,9981.0
5260,0.32988685369491577,67.2523422241211,1102,6864.0,-48.692691802978516,-599,9981.0
5270,0.32954537868499756,71.59060668945312,1121,6864.0,-18.771703720092773,-8,9981.0
5280,0.32957977056503296,62.896888732910156,1010,6864.0,13.93232536315918,443,9981.0
5290,0.3298834562301636,43.846717834472656,606,6864.0,42.50478744506836,820,9981.0
5300,0.3292572498321533,14.837501525878906,62,6864.0,56.35303497314453,1067,9981.0
5310,0.3287755846977234,-11.730324745178223,-357,6864.0,61.280426025390625,1114,9981.0
5320,0.3283252418041229,-28.209840774536133,-574,6864.0,48.41489028930664,743,9981.0
5330,0.32801365852355957,-43.50633239746094,-789,6864.0,22.764585494995117,146,9981.0
5340,0.3275383710861206,-58.801788330078125,-974,6864.0,-16.331850051879883,-582,9981.0
5350,0.32542192935943604,-67.56083679199219,-1079,6864.0,-57.9528694152832,-993,9981.0
5360,0.32496556639671326,-69.0790023803711,-1159,6864.0,-82.7446060180664,-1465,9981.0
5370,0.32411283254623413,-62.9539680480957,-1021,6864.0,-87.82859802246094,-1370,9981.0
5380,0.32424187660217285,-49.928558349609375,-659,6864.0,-74.92906188964844,-1271,9981.0
5390,0.32349807024002075,-25.30499267578125,-239,6864.0,-56.87213897705078,-793,9981.0
5400,0.3232834041118622,16.736900329589844,528,6864.0,-31.066463470458984,-257,9981.0
5410,0.32339876890182495,63.107173919677734,1110,6864.0,-3.803755521774292,93,9981.0
5420,0.32385924458503723,85.15940856933594,1407,6864.0,25.64684295654297,456,9981.0
5430,0.32402127981185913,87.3935546875,1445,6864.0,43.38327407836914,801,9981.0
5440,0.32526084780693054,81.07422637939453,1365,6864.0,63.410465240478516,1055,9981.0
5450,0.3258609175682068,74.16323852539062,1206,6864.0,82.86550903320312,1252,9981.0
5460,0.3253799080848694,48.59592056274414,740,6864.0,93.93572998046875,1514,9981.0
5470,0.3247026801109314,18.14638328552246,66,6864.0,86.48793029785156,1274,9981.0
5480,0.32532238960266113,-22.164278030395508,-504,6864.0,47.15885543823242,733,9981.0
5490,0.3263435959815979,-51.46272659301758,-1031,6864.0,-8.148764610290527,-488,9981.0
5500,0.32705092430114746,-75.14958190917969,-1312,6864.0,-72.03237915039062,-1474,9981.0
5510,0.328281968832016,-82.15196990966797,-1277,6864.0,-110.175048828125,-1971,9981.0
5520,0.3257703185081482,-81.74042510986328,-1383,6864.0,-131.92724609375,-2122,9981.0
5530,0.3263623118400574,-64.50884246826172,-927,6864.0,-134.63047790527344,-2066,9981.0
5540,0.3263539671897888,-37.180240631103516,-583,6864.0,-117.3849105834961,-1925,9981.0
5550,0.32680973410606384,-14.712435722351074,-184,6864.0,-106.05511474609375,-1609,9981.0
5560,0.326429158449173,9.087226867675781,350,6864.0,-78.76158905029297,-1146,9981.0
5570,0.3292686343193054,45.07826232910156,821,6864.0,-41.9679069519043,-517,9981.0
5580,0.3323507308959961,54.63271713256836,873,6864.0,5.411664009094238,245,9981.0
5590,0.3344016373157501,53.683692932128906,849,6864.0,47.30681228637695,1205,9981.0
5600,0.3378533124923706,45.71807098388672,771,6864.0,98.839111328125,2009,9981.0
5610,0.3389504849910736,36.531681060791016,541,6864.0,133.79513549804688,2452,9981.0
5620,0.3402290642261505,32.09799575805664,430,6864.0,157.0317840576172,2683,9981.0
5630,0.34197622537612915,21.519454956054688,390,6864.0,163.6490020751953,2623,9981.0
5640,0.3436583876609802,14.589612007141113,145,6864.0,142.44871520996094,2177,9981.0
5650,0.34425318241119385,-3.2697227001190186,-61,6864.0,112.24297332763672,1601,9981.0
5660,0.33952999114990234,-21.26795196533203,-532,6864.0,73.53199768066406,1069,9981.0
5670,0.3398793041706085,-40.844730377197266,-793,6864.0,27.971872329711914,198,9981.0
5680,0.34071168303489685,-57.29592514038086,-1012,6864.0,-15.223915100097656,-421,9981.0
5690,0.342193067073822,-55.280757904052734,-904,6864.0,-62.28497314453125,-1255,9981.0
5700,0.3370346128940582,-44.90755081176758,-646,6864.0,-101.87433624267578,-2029,9981.0
5710,0.3376714289188385,-23.616722106933594,-141,6864.0,-124.58454895019531,-2192,9981.0
5720,0.33819329738616943,1.5701782703399658,135,6864.0,-126.40253448486328,-2034,9981.0
5730,0.33881625533103943,20.598031997680664,484,6864.0,-106.44561767578125,-1594,9981.0
5740,0.33663809299468994,31.565471649169922,499,6864.0,-64.2233657836914,-701,9981.0
5750,0.336763858795166,34.4225959777832,582,6864.0,-10.520743370056152,383,9981.0
5760,0.33765923976898193,34.833030700683594,574,6864.0,47.16196823120117,1215,9981.0
5770,0.33884501457214355,25.187274932861328,315,6864.0,94.82566833496094,1795,9981.0
5780,0.33920392394065857,4.907377243041992,-32,6864.0,127.90226745605469,2279,9981.0
5790,0.3346811532974243,-14.653550148010254,-324,6864.0,137.4873046875,2060,9981.0
5800,0.3339124917984009,-32.12924575805664,-665,6864.0,111.82843780517578,1672,9981.0
5810,0.33314764499664307,-41.49451446533203,-752,6864.0,71.75605773925781,897,9981.0
5820,0.3335287868976593,-41.72684097290039,-605,6864.0,23.325366973876953,123,9981.0
5830,0.32914647459983826,-26.642471313476562,-315,6864.0,-27.778820037841797,-729,9981.0
5840,0.32944685220718384,-2.4428396224975586,84,6864.0,-85.0964584350586,-1598,9981.0
5850,0.33032217621803284,30.499988555908203,661,6864.0,-133.38682556152344,-2283,9981.0
5860,0.3301190137863159,52.95271682739258,949,6864.0,-150.30654907226562,-2575,9981.0
5870,0.3307573199272156,56.77040481567383,932,6864.0,-128.46282958984375,-1933,9981.0
5880,0.32785332202911377,48.273502349853516,807,6864.0,-77.93049621582031,-1093,9981.0
5890,0.32783043384552,38.47724914550781,618,6864.0,-17.12868309020996,-80,9981.0
5900,0.32888975739479065,20.15966033935547,385,6864.0,43.90005111694336,798,9981.0
5910,0.3289707601070404,9.993821144104004,80,6864.0,88.41063690185547,1523,9981.0
5920,0.32813042402267456,-4.329843044281006,-103,6864.0,116.00106048583984,1984,9981.0
5930,0.3273499608039856,-19.888952255249023,-305,6864.0,121.22086334228516,1863,9981.0
5940,0.32728180289268494,-36.51441955566406,-669,6864.0,95.53750610351562,1420,9981.0
5950,0.3276898264884949,-45.12031173706055,-627,6864.0,50.4492301940918,662,9981.0
5960,0.3227676451206207,-41.551429748535156,-719,6864.0,1.132580041885376,-307,9981.0
5970,0.3233911991119385,-41.99263381958008,-644,6864.0,-55.188262939453125,-1210,9981.0
5980,0.32465237379074097,-45.29777908325195,-808,6864.0,-115.35053253173828,-1944,9981.0
5990,0.32496553659439087,-38.28464889526367,-575,6864.0,-159.5364990234375,-2890,9981.0
6000,0.32628384232521057,-19.746585845947266,-112,6864.0,-180.47125244140625,-3001,9981.0
6010,0.325212687253952,17.300031661987305,521,6864.0,-167.2024383544922,-2677,9981.0
6020,0.3260899484157562,52.22346115112305,840,6864.0,-133.4450225830078,-1856,9981.0
6030,0.33002981543540955,60.87883377075195,1025,6864.0,-85.0042724609375,-1024,9981.0
6040,0.3312062621116638,56.047569274902344,921,6864.0,-15.493847846984863,200,9981.0
6050,0.33395180106163025,54.11910629272461,842,6864.0,67.23551940917969,1276,9981.0
6060,0.33630695939064026,46.15829849243164,659,6864.0,125.24983978271484,2153,9981.0
6070,0.3371647596359253,28.07817268371582,363,6864.0,159.88800048828125,2660,9981.0
6080,0.33871492743492126,2.8110625743865967,-57,6864.0,164.4410858154297,2595,9981.0
6090,0.3396804928779602,-27.14093017578125,-624,6864.0,150.39419555664062,2297,9981.0
6100,0.33657634258270264,-54.645225524902344,-959,6864.0,118.9964599609375,1638,9981.0
6110,0.3383089005947113,-66.94306945800781,-997,6864.0,68.95536804199219,934,9981.0
6120,0.3384034037590027,-67.54446411132812,-1168,6864.0,8.94339656829834,-172,9981.0
6130,0.3395574986934662,-60.01071548461914,-914,6864.0,-61.5643310546875,-1278,9981.0
6140,0.3320891857147217,-46.38820266723633,-674,6864.0,-117.3112564086914,-2194,9981.0
6150,0.3338957130908966,-22.348236083984375,-212,6864.0,-154.8665008544922,-2637,9981.0
6160,0.33428579568862915,18.63128089904785,559,6864.0,-162.9552459716797,-2648,9981.0
6170,0.33354586362838745,64.49427795410156,1148,6864.0,-147.9923553466797,-2048,9981.0
6180,0.33141347765922546,86.65960693359375,1441,6864.0,-103.6905517578125,-1413,9981.0
6190,0.3344980478286743,78.5621337890625,1156,6864.0,-54.03765869140625,-529,9981.0
6200,0.33471328020095825,54.94035720825195,722,6864.0,3.1585137844085693,275,9981.0
6210,0.33650681376457214,24.361927032470703,318,6864.0,54.19297409057617,1099,9981.0
6220,0.3382126986980438,-4.362232685089111,-277,6864.0,104.49799346923828,1865,9981.0
6230,0.3371327221393585,-34.18705749511719,-651,6864.0,135.57383728027344,2280,9981.0
6240,0.33781948685646057,-46.91490936279297,-733,6864.0,149.17713928222656,2358,9981.0
6250,0.3383542001247406,-47.53923797607422,-781,6864.0,155.04661560058594,2389,9981.0
6260,0.33812224864959717,-32.14684295654297,-361,6864.0,135.03134155273438,2008,9981.0
6270,0.33408182859420776,-19.70509147644043,-314,6864.0,90.62895202636719,1331,9981.0
6280,0.334125816822052,-14.033719062805176,-252,6864.0,29.50419807434082,180,9981.0
6290,0.33450838923454285,-8.089244842529297,-83,6864.0,-33.60170364379883,-782,9981.0
6300,0.3353901505470276,-6.884102821350098,-82,6864.0,-78.60193634033203,-1444,9981.0
6310,0.3309444487094879,1.2383040189743042,130,6864.0,-86.87451171875,-1279,9981.0
6320,0.33093345165252686,13.943580627441406,234,6864.0,-78.87578582763672,-1153,9981.0
6330,0.3307260572910309,19.958602905273438,345,6864.0,-58.202598571777344,-707,9981.0
6340,0.330383837223053,24.083885192871094,377,6864.0,-24.706388473510742,-82,9981.0
6350,0.329959899187088,20.380685806274414,272,6864.0,10.93555736541748,287,9981.0
6360,0.32786864042282104,7.8211140632629395,15,6864.0,30.874855041503906,618,9981.0
6370,0.32706257700920105,-3.7152726650238037,-88,6864.0,43.64642333984375,747,9981.0
6380,0.3261279761791229,-6.403254985809326,-103,6864.0,54.420372009277344,939,9981.0
6390,0.32507574558258057,0.670335054397583,-40,6864.0,60.53293228149414,1052,9981.0
6400,0.3237016499042511,2.419654369354248,79,6864.0,51.729862213134766,907,9981.0
6410,0.3227861821651459,3.6777079105377197,-24,6864.0,32.487449645996094,447,9981.0
6420,0.32217466831207275,-3.1916072368621826,-148,6864.0,7.680414199829102,-23,9981.0
6430,0.32171860337257385,-16.448705673217773,-357,6864.0,-21.64885902404785,-731,9981.0
6440,0.32149726152420044,-29.581510543823242,-504,6864.0,-54.9713020324707,-1072,9981.0
6450,0.3209896981716156,-35.93335723876953,-477,6864.0,-73.26258850097656,-1310,9981.0
6460,0.32038912177085876,-23.992826461791992,-190,6864.0,-63.14848327636719,-885,9981.0
6470,0.3199903964996338,8.720741271972656,421,6864.0,-37.25421905517578,-554,9981.0
6480,0.3197972774505615,31.139446258544922,537,6864.0,-7.295830726623535,38,9981.0
6490,0.32044553756713867,34.378692626953125,652,6864.0,28.239748001098633,587,9981.0
6500,0.31985360383987427,37.8338737487793,679,6864.0,57.356727600097656,840,9981.0
6510,0.3188720643520355,31.331340789794922,499,6864.0,66.92911529541016,974,9981.0
6520,0.31822898983955383,33.40671920776367,596,6864.0,63.196102142333984,961,9981.0
6530,0.3208127021789551,31.710975646972656,639,6864.0,51.581398010253906,705,9981.0
6540,0.3198876678943634,29.09906005859375,353,6864.0,27.96478843688965,406,9981.0
6550,0.31906819343566895,12.854975700378418,153,6864.0,8.845796585083008,170,9981.0
6560,0.31919050216674805,-14.408493995666504,-508,6864.0,-22.576047897338867,-474,9981.0
6570,0.31939414143562317,-46.491661071777344,-861,6864.0,-55.6117057800293,-909,9981.0
6580,0.3202907145023346,-64.4508056640625,-1158,6864.0,-82.35981750488281,-1378,9981.0
6590,0.32016047835350037,-71.14713287353516,-1231,6864.0,-95.01905822753906,-1385,9981.0
6600,0.32025766372680664,-69.86653137207031,-1144,6864.0,-90.57049560546875,-1361,9981.0
6610,0.31968075037002563,-59.633872985839844,-911,6864.0,-70.18115997314453,-881,9981.0
6620,0.3213472366333008,-34.15669631958008,-483,6864.0,-49.546817779541016,-692,9981.0
6630,0.3216237723827362,-8.004403114318848,-42,6864.0,-27.438480377197266,-145,9981.0
6640,0.322416216135025,21.153451919555664,423,6864.0,0.03431883826851845,151,9981.0
6650,0.32286930084228516,35.84306716918945,568,6864.0,15.47384262084961,497,9981.0
6660,0.32568931579589844,47.61342239379883,863,6864.0,39.70949935913086,940,9981.0
6670,0.32618215680122375,69.86723327636719,1118,6864.0,65.17499542236328,1248,9981.0
6680,0.32636559009552,75.87846374511719,1114,6864.0,83.2253646850586,1548,9981.0
6690,0.3273399770259857,74.23941040039062,1155,6864.0,86.59033966064453,1350,9981.0
6700,0.3270799219608307,47.42884826660156,567,6864.0,66.46052551269531,1102,9981.0
6710,0.3263606131076813,9.209420204162598,-40,6864.0,43.523189544677734,669,9981.0
6720,0.3273233473300934,-35.50894546508789,-847,6864.0,11.493145942687988,137,9981.0
6730,0.32855191826820374,-81.61561584472656,-1497,6864.0,-29.26665687561035,-635,9981.0
6740,0.329706072807312,-106.93238830566406,-1819,6864.0,-70.91929626464844,-1224,9981.0
6750,0.32867851853370667,-100.90808868408203,-1673,6864.0,-107.05241394042969,-1784,9981.0
6760,0.3292958736419678,-72.73770904541016,-964,6864.0,-112.52326202392578,-1681,9981.0
6770,0.3333550691604614,-11.263157844543457,32,6864.0,-83.14796447753906,-1004,9981.0
6780,0.334541916847229,47.894657135009766,901,6864.0,-45.56874465942383,-415,9981.0
6790,0.33632418513298035,76.17501068115234,1284,6864.0,4.866471767425537,465,9981.0
6800,0.3387804627418518,78.3956527709961,1170,6864.0,55.83907699584961,1059,9981.0
6810,0.34088534116744995,60.628021240234375,887,6864.0,90.5685806274414,1554,9981.0
6820,0.34284016489982605,37.49108123779297,567,6864.0,107.12482452392578,1601,9981.0
6830,0.3441304862499237,15.064285278320312,154,6864.0,105.59830474853516,1737,9981.0
6840,0.3415585458278656,-2.330533504486084,-171,6864.0,89.89537811279297,1449,9981.0
6850,0.3430972099304199,-13.848531723022461,-230,6864.0,72.14482116699219,1152,9981.0
6860,0.34396398067474365,-11.544105529785156,-263,6864.0,43.1543083190918,720,9981.0
6870,0.3444277346134186,-6.149091720581055,-202,6864.0,6.122912883758545,127,9981.0
6880,0.34104347229003906,-15.097533226013184,-372,6864.0,-25.943889617919922,-639,9981.0
6890,0.3413916230201721,-36.834163665771484,-665,6864.0,-73.1517562866211,-1346,9981.0
6900,0.34241893887519836,-48.139678955078125,-865,6864.0,-113.28694915771484,-1753,9981.0
6910,0.3428119719028473,-38.99167251586914,-610,6864.0,-130.4995880126953,-1980,9981.0
6920,0.34351661801338196,-7.578656196594238,66,6864.0,-109.74259948730469,-1641,9981.0
6930,0.34322866797447205,31.198078155517578,612,6864.0,-69.89958953857422,-961,9981.0
6940,0.3436216711997986,39.98613739013672,676,6864.0,-27.484657287597656,-452,9981.0
6950,0.3436903655529022,42.1544189453125,706,6864.0,13.818867683410645,440,9981.0
6960,0.3446766436100006,33.84410858154297,441,6864.0,59.74700927734375,1192,9981.0
6970,0.344804584980011,7.578681468963623,-33,6864.0,81.82860565185547,1544,9981.0
6980,0.3447910249233246,-28.321578979492188,-611,6864.0,88.55982208251953,1340,9981.0
6990,0.3445751667022705,-52.56593704223633,-885,6864.0,76.39907836914062,869,9981.0
7000,0.3441373109817505,-59.949066162109375,-836,6864.0,42.08572769165039,417,9981.0
7010,0.3448857367038727,-36.25232696533203,-360,6864.0,-1.760624647140503,-227,9981.0
7020,0.3419545590877533,-0.8103656768798828,113,6864.0,-47.962799072265625,-979,9981.0
7030,0.34189513325691223,24.708127975463867,482,6864.0,-88.42189025878906,-1727,9981.0
7040,0.34199073910713196,27.39320182800293,418,6864.0,-120.75664520263672,-1955,9981.0
7050,0.3418295383453369,27.976863861083984,450,6864.0,-127.0592041015625,-2024,9981.0
7060,0.3419989347457886,34.472843170166016,538,6864.0,-112.0063247680664,-1619,9981.0
7070,0.3423140048980713,34.64754867553711,690,6864.0,-66.74755096435547,-866,9981.0
7080,0.3424634337425232,30.22259521484375,371,6864.0,-6.632421970367432,153,9981.0
7090,0.3426571488380432,12.639738082885742,32,6864.0,41.80586624145508,1051,9981.0
7100,0.3486880362033844,-2.549440383911133,13,6864.0,75.85327911376953,1551,9981.0
7110,0.34890317916870117,-1.3657138347625732,-74,6864.0,111.33634948730469,1790,9981.0
7120,0.3488565981388092,-10.613547325134277,-161,6864.0,125.97148895263672,2006,9981.0
7130,0.34814462065696716,-8.249679565429688,-98,6864.0,117.54387664794922,1607,9981.0
7140,0.3488144874572754,-8.335017204284668,-117,6864.0,97.04499053955078,1391,9981.0
7150,0.3448123633861542,-16.640483856201172,-273,6864.0,65.28333282470703,895,9981.0
7160,0.34384217858314514,-25.685245513916016,-453,6864.0,23.823894500732422,124,9981.0
7170,0.34299853444099426,-35.14357376098633,-454,6864.0,-25.62283706665039,-774,9981.0
7180,0.3428170382976532,-28.329360961914062,-391,6864.0,-85.23040771484375,-1506,9981.0
7190,0.3384890556335449,-12.124083518981934,-235,6864.0,-128.43756103515625,-2064,9981.0
7200,0.3373527228832245,-6.63263463973999,-56,6864.0,-136.61727905273438,-2160,9981.0
7210,0.3361434042453766,9.727643013000488,234,6864.0,-125.34101867675781,-1985,9981.0
7220,0.3377176523208618,33.13558578491211,585,6864.0,-90.14706420898438,-1129,9981.0
7230,0.33701586723327637,46.8611946105957,838,6864.0,-27.724445343017578,-29,9981.0
7240,0.33550891280174255,48.276588439941406,667,6864.0,45.62965774536133,1038,9981.0
7250,0.3363887667655945,36.145328521728516,539,6864.0,95.32756805419922,1775,9981.0
7260,0.3365389108657837,16.782907485961914,127,6864.0,131.59548950195312,2313,9981.0
7270,0.3372223377227783,-12.71623706817627,-243,6864.0,149.86856079101562,2473,9981.0
7280,0.33205050230026245,-32.258331298828125,-603,6864.0,144.8109130859375,2286,9981.0
7290,0.33189794421195984,-37.41677474975586,-653,6864.0,121.64297485351562,1868,9981.0
7300,0.3333769738674164,-42.66191482543945,-773,6864.0,73.47623443603516,954,9981.0
7310,0.3337506949901581,-35.731048583984375,-440,6864.0,23.334306716918945,-9,9981.0
7320,0.3284294605255127,-18.01233673095703,-154,6864.0,-37.562278747558594,-816,9981.0
7330,0.330266535282135,-1.424147129058838,-104,6864.0,-92.78470611572266,-1629,9981.0
7340,0.33083710074424744,-0.35799118876457214,20,6864.0,-113.84597778320312,-1991,9981.0
7350,0.3325890004634857,5.403296947479248,120,6864.0,-113.54315948486328,-1833,9981.0
7360,0.3338024914264679,12.332082748413086,327,6864.0,-88.37312316894531,-1376,9981.0
7370,0.32965773344039917,15.003729820251465,231,6864.0,-49.26759719848633,-664,9981.0
7380,0.3314993381500244,20.62514877319336,401,6864.0,-2.324024200439453,114,9981.0
7390,0.3324563801288605,31.77330780029297,555,6864.0,29.787614822387695,400,9981.0
7400,0.3334100544452667,21.939491271972656,321,6864.0,47.35941696166992,789,9981.0
7410,0.33208388090133667,8.185017585754395,43,6864.0,64.02752685546875,1155,9981.0
7420,0.3325269818305969,-8.13963794708252,-243,6864.0,63.76814651489258,1071,9981.0
7430,0.3332182466983795,-18.570186614990234,-305,6864.0,45.676513671875,730,9981.0
7440,0.33338338136672974,-24.32625961303711,-482,6864.0,21.988834381103516,349,9981.0
7450,0.32991454005241394,-22.14409828186035,-339,6864.0,-4.160733699798584,-243,9981.0
7460,0.3300949037075043,-10.854837417602539,-90,6864.0,-32.64124298095703,-662,9981.0
7470,0.33035412430763245,3.412473201751709,34,6864.0,-60.15767288208008,-1033,9981.0
7480,0.33088696002960205,16.50800323486328,332,6864.0,-81.83320617675781,-1338,9981.0
7490,0.33084508776664734,27.631420135498047,440,6864.0,-78.87713623046875,-1072,9981.0
7500,0.32912740111351013,32.509273529052734,573,6864.0,-61.3848876953125,-790,9981.0
7510,0.32967454195022583,33.50352478027344,540,6864.0,-21.84619140625,-87,9981.0
7520,0.32949650287628174,28.42864990234375,454,6864.0,23.693195343017578,495,9981.0
7530,0.329199880361557,10.648367881774902,7,6864.0,66.54083251953125,1141,9981.0
7540,0.3294452428817749,-12.438117027282715,-253,6864.0,87.76029968261719,1615,9981.0
7550,0.3291071057319641,-28.263547897338867,-609,6864.0,84.026123046875,1345,9981.0
7560,0.3283121883869171,-39.80833053588867,-639,6864.0,55.83345413208008,914,9981.0
7570,0.3274275064468384,-43.80755615234375,-820,6864.0,24.296579360961914,385,9981.0
7580,0.3266395330429077,-38.575721740722656,-614,6864.0,-8.373684883117676,-329,9981.0
7590,0.32287055253982544,-20.25676727294922,-198,6864.0,-37.396915435791016,-808,9981.0
7600,0.3232311010360718,7.719545364379883,211,6864.0,-69.434326171875,-1234,9981.0
7610,0.322364866733551,32.22490692138672,665,6864.0,-93.5936279296875,-1765,9981.0
7620,0.3210254907608032,44.59923553466797,752,6864.0,-110.9942855834961,-1939,9981.0
7630,0.3207148611545563,41.92344284057617,677,6864.0,-126.64364624023438,-2059,9981.0
7640,0.3192109763622284,31.001911163330078,483,6864.0,-104.91915130615234,-1361,9981.0
7650,0.31874728202819824,22.528118133544922,235,6864.0,-42.67743682861328,-317,9981.0
7660,0.3179503083229065,9.582426071166992,77,6864.0,22.7058162689209,816,9981.0
7670,0.3207929730415344,6.285431385040283,139,6864.0,89.9093246459961,1841,9981.0
7680,0.3206537365913391,8.02117919921875,159,6864.0,134.8612060546875,2441,9981.0
7690,0.31978362798690796,5.026242256164551,1,6864.0,161.488525390625,2797,9981.0
7700,0.31826528906822205,4.110945701599121,-17,6864.0,170.43572998046875,2979,9981.0
7710,0.32032808661460876,-2.061655282974243,-199,6864.0,157.3197784423828,2306,9981.0
7720,0.31593698263168335,-29.887441635131836,-741,6864.0,112.99012756347656,1440,9981.0
7730,0.3141632676124573,-57.45054244995117,-978,6864.0,44.677703857421875,185,9981.0
7740,0.31314703822135925,-66.06684112548828,-1066,6864.0,-25.517505645751953,-668,9981.0
7750,0.3132420778274536,-52.67164993286133,-784,6864.0,-79.2756576538086,-1662,9981.0
7760,0.30857887864112854,-32.27317810058594,-279,6864.0,-123.50578308105469,-2242,9981.0
7770,0.306733101606369,-5.00743293762207,23,6864.0,-158.85720825195312,-2706,9981.0
7780,0.3044333755970001,24.197362899780273,545,6864.0,-178.74798583984375,-2978,9981.0
7790,0.3046964704990387,51.018436431884766,979,6864.0,-181.6591796875,-2847,9981.0
7800,0.3016323447227478,65.5578384399414,1045,6864.0,-155.89993286132812,-2300,9981.0
7810,0.29664507508277893,65.2630386352539,1049,6864.0,-111.10540008544922,-1509,9981.0
7820,0.29396146535873413,55.4091796875,763,6864.0,-56.61710739135742,-356,9981.0
7830,0.2965594530105591,33.615814208984375,476,6864.0,13.357926368713379,598,9981.0
7840,0.29730379581451416,11.987786293029785,83,6864.0,83.75048828125,1564,9981.0
7850,0.2986794412136078,-9.03525447845459,-233,6864.0,141.56056213378906,2351,9981.0
7860,0.2988124191761017,-34.39716339111328,-649,6864.0,179.12571716308594,2969,9981.0
7870,0.29933565855026245,-60.111080169677734,-1086,6864.0,195.86215209960938,3151,9981.0
7880,0.2998482286930084,-71.17328643798828,-1199,6864.0,191.8113250732422,2973,9981.0
7890,0.2949453294277191,-66.90447998046875,-953,6864.0,168.0124969482422,2700,9981.0
7900,0.2941831052303314,-53.18684768676758,-813,6864.0,132.24090576171875,1929,9981.0
7910,0.2935878336429596,-35.47296142578125,-491,6864.0,78.57441711425781,1018,9981.0
7920,0.29713577032089233,-12.187788963317871,-126,6864.0,18.04961585998535,74,9981.0
7930,0.2977036237716675,7.8873186111450195,169,6864.0,-38.10928726196289,-843,9981.0
7940,0.2926982641220093,25.757095336914062,472,6864.0,-87.03076934814453,-1617,9981.0
7950,0.29353147745132446,36.23359298706055,677,6864.0,-124.80805206298828,-2202,9981.0
7960,0.2945064902305603,42.35449981689453,731,6864.0,-150.52842712402344,-2527,9981.0
7970,0.29531577229499817,55.203453063964844,880,6864.0,-158.44888305664062,-2491,9981.0
7980,0.29192790389060974,61.42234802246094,992,6864.0,-145.38076782226562,-2118,9981.0
7990,0.2927791476249695,58.147377014160156,939,6864.0,-107.33634948730469,-1518,9981.0
8000,0.2970524728298187,40.731204986572266,529,6864.0,-42.068077087402344,-471,9981.0
8010,0.29945075511932373,7.619696140289307,-77,6864.0,27.683679580688477,650,9981.0
8020,0.30210667848587036,-29.30835723876953,-635,6864.0,78.62377166748047,1532,9981.0
8030,0.2983566224575043,-51.46513748168945,-917,6864.0,119.00521850585938,2088,9981.0
8040,0.29877641797065735,-59.570335388183594,-1024,6864.0,150.22686767578125,2583,9981.0
8050,0.2997860312461853,-64.94465637207031,-913,6864.0,170.7506561279297,2750,9981.0
8060,0.2998434901237488,-62.39488220214844,-1052,6864.0,161.10655212402344,2464,9981.0
8070,0.2954854965209961,-62.23417282104492,-978,6864.0,126.16605377197266,1970,9981.0
8080,0.2977127134799957,-51.301673889160156,-852,6864.0,81.70050811767578,1141,9981.0
8090,0.29694971442222595,-37.16465759277344,-504,6864.0,28.33341407775879,59,9981.0
8100,0.2964909076690674,-17.618867874145508,-123,6864.0,-36.83192443847656,-778,9981.0
8110,0.29152560234069824,5.276181697845459,107,6864.0,-92.00225067138672,-1657,9981.0
8120,0.29060885310173035,28.40762710571289,581,6864.0,-134.75244140625,-2480,9981.0
8130,0.28952714800834656,46.480587005615234,827,6864.0,-158.53306579589844,-2581,9981.0
8140,0.28846627473831177,55.63722610473633,1035,6864.0,-147.07980346679688,-2367,9981.0
8150,0.28659218549728394,57.48236846923828,916,6864.0,-106.63602447509766,-1596,9981.0
8160,0.28692469000816345,50.70051193237305,741,6864.0,-47.910423278808594,-512,9981.0
8170,0.2860579490661621,34.76360321044922,481,6864.0,10.105076789855957,489,9981.0
8180,0.2860201895236969,14.287520408630371,134,6864.0,56.97948455810547,1252,9981.0
8190,0.28630587458610535,-6.921148300170898,-265,6864.0,92.10041046142578,1670,9981.0
8200,0.2819150984287262,-37.63954162597656,-688,6864.0,115.06560516357422,1865,9981.0
8210,0.2812454402446747,-62.03682327270508,-1122,6864.0,123.96880340576172,1910,9981.0
8220,0.27990198135375977,-73.53538513183594,-1244,6864.0,112.14369201660156,1807,9981.0
8230,0.2779550552368164,-68.28081512451172,-1075,6864.0,80.91087341308594,1213,9981.0
8240,0.2765735685825348,-49.48141098022461,-715,6864.0,41.67005157470703,402,9981.0
8250,0.273607462644577,-20.915515899658203,-162,6864.0,-2.1701290607452393,-219,9981.0
8260,0.27266374230384827,5.158865451812744,181,6864.0,-49.66731643676758,-1038,9981.0
8270,0.2720114290714264,27.715208053588867,671,6864.0,-85.92708587646484,-1602,9981.0
8280,0.27081823348999023,42.64635467529297,754,6864.0,-103.062744140625,-1708,9981.0
8290,0.2679373025894165,50.517967224121094,838,6864.0,-96.86415100097656,-1374,9981.0
8300,0.2672671377658844,58.329002380371094,877,6864.0,-66.97706604003906,-743,9981.0
8310,0.26658156514167786,53.72378158569336,716,6864.0,-24.731584548950195,-13,9981.0
8320,0.2670114040374756,33.27077102661133,441,6864.0,17.441524505615234,625,9981.0
8330,0.26427146792411804,17.13323402404785,161,6864.0,55.51124954223633,1187,9981.0
8340,0.2639558017253876,0.7740097045898438,-109,6864.0,84.76597595214844,1523,9981.0
8350,0.26328355073928833,-15.819741249084473,-423,6864.0,103.02375030517578,1684,9981.0
8360,0.2626281976699829,-27.807540893554688,-492,6864.0,95.83003234863281,1555,9981.0
8370,0.2637374997138977,-31.33371925354004,-541,6864.0,71.09561157226562,941,9981.0
8380,0.2590218782424927,-34.210758209228516,-543,6864.0,38.38545227050781,238,9981.0
8390,0.2581064701080322,-27.155046463012695,-278,6864.0,-0.7958722710609436,-294,9981.0
8400,0.2584626078605652,-23.146923065185547,-401,6864.0,-43.940025329589844,-861,9981.0
8410,0.25799867510795593,-16.22564125061035,-221,6864.0,-81.62677764892578,-1526,9981.0
8420,0.2562478184700012,-5.264177322387695,-131,6864.0,-111.44996643066406,-2050,9981.0
8430,0.25532451272010803,3.1873908042907715,124,6864.0,-125.6650161743164,-2087,9981.0
8440,0.25413352251052856,7.6792988777160645,168,6864.0,-114.97480010986328,-1746,9981.0
8450,0.25530683994293213,3.7382380962371826,50,6864.0,-89.75929260253906,-1370,9981.0
8460,0.25429460406303406,-6.632066249847412,-136,6864.0,-51.84764099121094,-683,9981.0
8470,0.25366827845573425,-15.703978538513184,-285,6864.0,-2.083040952682495,174,9981.0
8480,0.25419193506240845,-22.746723175048828,-290,6864.0,50.333351135253906,916,9981.0
8490,0.25430411100387573,-21.185678482055664,-193,6864.0,81.1668701171875,1335,9981.0
8500,0.25445762276649475,-5.516892433166504,-10,6864.0,103.3403091430664,1724,9981.0
8510,0.2540361285209656,11.54002571105957,309,6864.0,113.68608093261719,1930,9981.0
8520,0.25380828976631165,23.45440673828125,425,6864.0,103.11424255371094,1652,9981.0
8530,0.25411567091941833,34.55607223510742,470,6864.0,72.36307525634766,1034,9981.0
8540,0.25386279821395874,40.25012969970703,730,6864.0,35.21651840209961,328,9981.0
8550,0.2518357038497925,42.239627838134766,711,6864.0,0.7360708117485046,-130,9981.0
8560,0.2515035569667816,40.50886535644531,666,6864.0,-33.97894287109375,-652,9981.0
8570,0.2514297068119049,36.96057891845703,458,6864.0,-63.11830139160156,-1100,9981.0
8580,0.2509104907512665,28.539152145385742,415,6864.0,-77.79239654541016,-1222,9981.0
8590,0.2506279945373535,12.021697998046875,131,6864.0,-71.04722595214844,-1031,9981.0
8600,0.25018614530563354,-6.872992038726807,-143,6864.0,-41.88450622558594,-419,9981.0
8610,0.25032395124435425,-17.576879501342773,-346,6864.0,1.7906625270843506,253,9981.0
8620,0.25117626786231995,-27.48788070678711,-516,6864.0,33.394954681396484,745,9981.0
8630,0.25163763761520386,-28.84914207458496,-518,6864.0,53.08446502685547,1088,9981.0
8640,0.2493114024400711,-29.03122329711914,-488,6864.0,65.11654663085938,1201,9981.0
8650,0.2490910142660141,-26.75925064086914,-451,6864.0,67.96939849853516,1076,9981.0
8660,0.24953091144561768,-20.1776180267334,-370,6864.0,58.57034683227539,814,9981.0
8670,0.2493250072002411,-18.38251495361328,-183,6864.0,42.86827087402344,518,9981.0
8680,0.24889832735061646,-8.832897186279297,-53,6864.0,20.344223022460938,275,9981.0
8690,0.24657192826271057,-0.2500082552433014,81,6864.0,-2.5475642681121826,-95,9981.0
8700,0.24632668495178223,8.890735626220703,76,6864.0,-25.89516830444336,-453,9981.0
8710,0.24571609497070312,14.130425453186035,249,6864.0,-51.13644790649414,-980,9981.0
8720,0.24503034353256226,15.580568313598633,260,6864.0,-74.40714263916016,-1409,9981.0
8730,0.24329873919487,13.496676445007324,254,6864.0,-87.09996795654297,-1439,9981.0
8740,0.24323156476020813,17.64234161376953,405,6864.0,-74.1113510131836,-1073,9981.0
8750,0.24261729419231415,19.783058166503906,414,6864.0,-36.968467712402344,-515,9981.0
8760,0.24170519411563873,15.319762229919434,234,6864.0,2.647064208984375,278,9981.0
8770,0.24066990613937378,3.7720792293548584,-63,6864.0,55.23000717163086,1203,9981.0
8780,0.24009552597999573,-13.415690422058105,-353,6864.0,98.61570739746094,1849,9981.0
8790,0.23972226679325104,-23.6575870513916,-453,6864.0,116.205078125,1961,9981.0
8800,0.23850490152835846,-24.314849853515625,-374,6864.0,103.87268829345703,1651,9981.0
8810,0.23751100897789001,-18.919206619262695,-192,6864.0,81.58760070800781,1037,9981.0
8820,0.2374417930841446,-7.024766445159912,-70,6864.0,48.77013397216797,756,9981.0
8830,0.23627136647701263,-0.10874683409929276,-25,6864.0,11.81304931640625,12,9981.0
8840,0.2355813980102539,0.16538991034030914,-25,6864.0,-20.899188995361328,-593,9981.0
8850,0.23487260937690735,-4.542218208312988,-30,6864.0,-53.495479583740234,-930,9981.0
8860,0.23332197964191437,-6.817452430725098,-167,6864.0,-81.22193908691406,-1412,9981.0
8870,0.23215682804584503,-3.512476682662964,-109,6864.0,-97.38652801513672,-1647,9981.0
8880,0.23071755468845367,-1.7638946771621704,18,6864.0,-96.19413757324219,-1476,9981.0
8890,0.22950905561447144,1.280791997909546,126,6864.0,-77.36558532714844,-1241,9981.0
8900,0.2291521281003952,-4.842769622802734,-32,6864.0,-48.8880615234375,-695,9981.0
8910,0.2286134511232376,-8.563090324401855,-89,6864.0,-10.192646026611328,-168,9981.0
8920,0.22841385006904602,-11.381816864013672,-142,6864.0,23.85921287536621,384,9981.0
8930,0.22857864201068878,-3.369494915008545,39,6864.0,48.63328170776367,981,9981.0
8940,0.22814403474330902,7.339980125427246,103,6864.0,70.45011901855469,1213,9981.0
8950,0.2301882654428482,11.441061019897461,191,6864.0,78.008056640625,1434,9981.0
8960,0.22965672612190247,15.869698524475098,180,6864.0,71.14403533935547,1087,9981.0
8970,0.23014792799949646,6.800890922546387,2,6864.0,52.638980865478516,541,9981.0
8980,0.23076988756656647,-4.388828754425049,-102,6864.0,22.94179916381836,171,9981.0
8990,0.22733035683631897,-9.884784698486328,-177,6864.0,-14.850223541259766,-318,9981.0
9000,0.22683784365653992,-9.807347297668457,-183,6864.0,-45.954063415527344,-886,9981.0
9010,0.22608740627765656,-2.7343661785125732,-42,6864.0,-68.0494384765625,-1270,9981.0
9020,0.2247513234615326,2.337993860244751,195,6864.0,-82.12686157226562,-1401,9981.0
9030,0.22427362203598022,5.063709735870361,144,6864.0,-80.06121826171875,-1276,9981.0
9040,0.2228935956954956,2.837965250015259,51,6864.0,-69.71668243408203,-978,9981.0
9050,0.22274161875247955,-0.74184250831604,-67,6864.0,-34.72938537597656,-258,9981.0
9060,0.22302837669849396,-1.163860559463501,-17,6864.0,14.783005714416504,335,9981.0
9070,0.2222774773836136,7.011030197143555,53,6864.0,53.02894973754883,1147,9981.0
9080,0.22664466500282288,6.909421920776367,12,6864.0,81.07147979736328,1442,9981.0
9090,0.2265351265668869,3.9981918334960938,3,6864.0,96.74202728271484,1669,9981.0
9100,0.22632239758968353,2.536383867263794,-12,6864.0,90.23456573486328,1522,9981.0
9110,0.22701013088226318,4.942394733428955,27,6864.0,65.30377197265625,905,9981.0
9120,0.2240130454301834,7.699423313140869,125,6864.0,38.18703079223633,306,9981.0
9130,0.22333580255508423,12.071650505065918,260,6864.0,3.7095398902893066,-35,9981.0
9140,0.22244535386562347,17.712446212768555,327,6864.0,-28.51803207397461,-531,9981.0
9150,0.22092339396476746,19.244827270507812,291,6864.0,-49.75727462768555,-936,9981.0
9160,0.21926060318946838,13.393133163452148,142,6864.0,-60.01339340209961,-1136,9981.0
9170,0.22004196047782898,2.7603325843811035,39,6864.0,-61.21770477294922,-1103,9981.0
9180,0.2189481258392334,-7.543443202972412,-121,6864.0,-55.56673049926758,-870,9981.0
9190,0.21872323751449585,-14.646981239318848,-199,6864.0,-38.164669036865234,-575,9981.0
9200,0.2174883484840393,-14.44681167602539,-195,6864.0,-12.96359920501709,-139,9981.0
9210,0.21807356178760529,-14.589289665222168,-232,6864.0,18.300668716430664,366,9981.0
9220,0.21799422800540924,-18.65958023071289,-277,6864.0,50.37346649169922,892,9981.0
9230,0.2164933830499649,-18.530033111572266,-297,6864.0,83.03469848632812,1477,9981.0
9240,0.21734076738357544,-14.471993446350098,-244,6864.0,95.25182342529297,1551,9981.0
9250,0.2189498096704483,-5.54752254486084,-116,6864.0,88.68448638916016,1580,9981.0
9260,0.21888871490955353,-2.3422508239746094,-84,6864.0,75.50975036621094,1167,9981.0
9270,0.21901360154151917,-2.1504883766174316,43,6864.0,57.52171325683594,716,9981.0
9280,0.21845082938671112,4.401357173919678,172,6864.0,30.718095779418945,339,9981.0
9290,0.21773874759674072,15.477134704589844,269,6864.0,6.854571342468262,148,9981.0
9300,0.21673861145973206,22.018869400024414,330,6864.0,-16.401954650878906,-272,9981.0
9310,0.21535632014274597,22.565961837768555,430,6864.0,-35.783992767333984,-718,9981.0
9320,0.21537336707115173,21.23976707458496,392,6864.0,-46.47654342651367,-889,9981.0
9330,0.2140713632106781,13.294899940490723,201,6864.0,-50.80441665649414,-899,9981.0
9340,0.2144995480775833,0.6093958020210266,-10,6864.0,-46.976722717285156,-782,9981.0
9350,0.21426700055599213,-14.808378219604492,-237,6864.0,-38.13872146606445,-596,9981.0
9360,0.21492771804332733,-27.34591293334961,-489,6864.0,-17.75018310546875,-217,9981.0
9370,0.21486768126487732,-41.156070709228516,-705,6864.0,5.287959098815918,172,9981.0
9380,0.21518315374851227,-45.39334487915039,-680,6864.0,35.47657775878906,781,9981.0
9390,0.21538680791854858,-36.932403564453125,-649,6864.0,64.23027038574219,1164,9981.0
9400,0.21577656269073486,-25.96068572998047,-438,6864.0,73.28242492675781,1192,9981.0
9410,0.21569328010082245,-5.74567985534668,65,6864.0,57.4133415222168,759,9981.0
9420,0.2157842069864273,22.51026725769043,447,6864.0,30.56046485900879,570,9981.0
9430,0.2177014946937561,40.06317901611328,663,6864.0,7.324863910675049,66,9981.0
9440,0.21781203150749207,44.62059783935547,778,6864.0,-9.586099624633789,-275,9981.0
9450,0.21795542538166046,37.979312896728516,623,6864.0,-23.872217178344727,-411,9981.0
9460,0.2178831398487091,27.235610961914062,307,6864.0,-33.625553131103516,-453,9981.0
9470,0.2176947146654129,12.779741287231445,120,6864.0,-36.22383499145508,-587,9981.0
9480,0.2180469036102295,-1.946140170097351,-119,6864.0,-37.05849838256836,-678,9981.0
9490,0.2176937311887741,-14.085129737854004,-201,6864.0,-36.242652893066406,-621,9981.0
9500,0.21772758662700653,-20.947647094726562,-312,6864.0,-31.84808349609375,-555,9981.0
9510,0.21733948588371277,-20.821653366088867,-327,6864.0,-24.52165985107422,-228,9981.0
9520,0.21565157175064087,-16.706470489501953,-307,6864.0,-15.275972366333008,-141,9981.0
9530,0.2156449407339096,-17.659683227539062,-434,6864.0,4.835569381713867,176,9981.0
9540,0.21568027138710022,-27.399980545043945,-548,6864.0,17.997608184814453,397,9981.0
9550,0.21499848365783691,-34.910552978515625,-606,6864.0,31.6732234954834,523,9981.0
9560,0.21522273123264313,-25.387327194213867,-333,6864.0,43.8967399597168,703,9981.0
9570,0.21530035138130188,-12.92540454864502,-54,6864.0,51.494140625,821,9981.0
9580,0.2150852084159851,5.535226821899414,148,6864.0,41.81120300292969,658,9981.0
9590,0.21502648293972015,23.09640121459961,407,6864.0,29.411922454833984,297,9981.0
9600,0.2128419727087021,28.974708557128906,491,6864.0,11.462681770324707,31,9981.0
9610,0.2126655876636505,25.84599494934082,321,6864.0,-12.104559898376465,-237,9981.0
9620,0.2121978998184204,15.504849433898926,125,6864.0,-26.48398208618164,-492,9981.0
9630,0.21175672113895416,0.8973634839057922,25,6864.0,-39.110050201416016,-762,9981.0
9640,0.21139760315418243,-4.425657749176025,-38,6864.0,-44.59723663330078,-732,9981.0
9650,0.21033160388469696,-3.8284451961517334,-16,6864.0,-44.186424255371094,-714,9981.0
9660,0.20967169106006622,2.2608039379119873,-3,6864.0,-39.0452766418457,-483,9981.0
9670,0.20983730256557465,5.761387825012207,23,6864.0,-26.63058090209961,-298,9981.0
9680,0.20958790183067322,0.6109857559204102,-59,6864.0,-4.063419818878174,120,9981.0
9690,0.20948466658592224,-3.6276371479034424,-81,6864.0,29.854759216308594,666,9981.0
9700,0.20990249514579773,-9.11902904510498,-140,6864.0,57.774253845214844,975,9981.0
9710,0.20984870195388794,-10.738640785217285,-66,6864.0,74.50162506103516,1253,9981.0
9720,0.21000593900680542,-1.2070996761322021,64,6864.0,73.5584487915039,1222,9981.0
9730,0.2095579355955124,10.530982971191406,211,6864.0,55.496212005615234,691,9981.0
9740,0.21139270067214966,21.64495277404785,466,6864.0,27.464828491210938,287,9981.0
9750,0.211129292845726,27.404172897338867,465,6864.0,-2.3529131412506104,-88,9981.0
9760,0.21099631488323212,24.797094345092773,343,6864.0,-29.220909118652344,-573,9981.0
9770,0.2107170969247818,16.599714279174805,175,6864.0,-55.24655532836914,-1051,9981.0
9780,0.21030084788799286,1.3534752130508423,54,6864.0,-79.25838470458984,-1435,9981.0
9790,0.2096005529165268,-8.191909790039062,-103,6864.0,-88.08629608154297,-1462,9981.0
9800,0.21008968353271484,-9.501794815063477,-157,6864.0,-85.02298736572266,-1331,9981.0
9810,0.20997639000415802,-5.773946762084961,-133,6864.0,-70.593505859375,-941,9981.0
9820,0.2088974565267563,2.4063706398010254,3,6864.0,-42.779380798339844,-476,9981.0
9830,0.20991989970207214,11.76298713684082,121,6864.0,-10.286811828613281,86,9981.0
9840,0.20990288257598877,12.544037818908691,125,6864.0,31.653017044067383,797,9981.0
9850,0.20963740348815918,4.773024559020996,36,6864.0,76.17056274414062,1410,9981.0
9860,0.21131014823913574,0.6982970833778381,-11,6864.0,99.41808319091797,1757,9981.0
9870,0.21206045150756836,-0.13039815425872803,-22,6864.0,100.92691040039062,1512,9981.0
9880,0.21147488057613373,-5.9740166664123535,-12,6864.0,84.99146270751953,1252,9981.0
9890,0.2145175337791443,-7.1584792137146,-176,6864.0,55.091854095458984,833,9981.0
9900,0.21522578597068787,-7.454294204711914,-73,6864.0,14.698989868164062,-51,9981.0
9910,0.21351930499076843,3.975844621658325,158,6864.0,-25.774457931518555,-582,9981.0
9920,0.21339119970798492,9.51706600189209,121,6864.0,-60.051666259765625,-1026,9981.0
9930,0.21326635777950287,9.842629432678223,160,6864.0,-80.62971496582031,-1473,9981.0
9940,0.21305550634860992,6.21681022644043,158,6864.0,-88.05985260009766,-1490,9981.0
9950,0.21175602078437805,4.101216793060303,58,6864.0,-86.91558074951172,-1423,9981.0
9960,0.21535219252109528,-0.026039866730570793,-14,6864.0,-79.94871520996094,-1196,9981.0
9970,0.216056227684021,2.1064276695251465,-3,6864.0,-55.341800689697266,-718,9981.0
9980,0.21682873368263245,8.958943367004395,164,6864.0,-13.432557106018066,73,9981.0
9990,0.21800173819065094,10.37829303741455,129,6864.0,39.41548156738281,903,9981.0
10000,0.2181912064552307,12.777124404907227,139,6864.0,75.71729278564453,1401,9981.0
10010,0.21868851780891418,5.460203647613525,0,6864.0,88.00740814208984,1494,9981.0
10020,0.21951347589492798,-0.5441967844963074,-94,6864.0,87.83277893066406,1475,9981.0
10030,0.219647616147995,4.085234642028809,75,6864.0,72.19244384765625,1004,9981.0
10040,0.22070670127868652,10.341207504272461,254,6864.0,42.61456298828125,433,9981.0
10050,0.22165845334529877,-2.224668502807617,-28,6864.0,0.3636643588542938,-104,9981.0
10060,0.22173470258712769,-10.771960258483887,-264,6864.0,-26.755491256713867,-436,9981.0
10070,0.22174158692359924,-17.31452178955078,-316,6864.0,-41.7970085144043,-734,9981.0
10080,0.2216247171163559,-12.81408405303955,-170,6864.0,-60.60297775268555,-1063,9981.0
10090,0.22127214074134827,-8.780323028564453,-116,6864.0,-65.13551330566406,-1131,9981.0
10100,0.22088941931724548,-9.621593475341797,-124,6864.0,-55.78032302856445,-927,9981.0
10110,0.2204352170228958,-11.535202980041504,-128,6864.0,-40.20735549926758,-652,9981.0
10120,0.2212216556072235,-12.22932243347168,-127,6864.0,-18.744182586669922,-312,9981.0
10130,0.22501713037490845,-13.584205627441406,-146,6864.0,6.100638389587402,254,9981.0
10140,0.22609730064868927,-12.017045021057129,-153,6864.0,38.38117980957031,694,9981.0
10150,0.22775763273239136,-5.844411849975586,36,6864.0,65.57777404785156,1156,9981.0
10160,0.2286881059408188,4.714680194854736,266,6864.0,90.11209106445312,1595,9981.0
10170,0.23006385564804077,23.06785774230957,524,6864.0,103.75971221923828,1684,9981.0
10180,0.2312769740819931,44.023406982421875,723,6864.0,95.9396743774414,1538,9981.0
10190,0.23234261572360992,47.815574645996094,746,6864.0,75.41560363769531,1157,9981.0
10200,0.23274950683116913,39.931217193603516,628,6864.0,53.99171829223633,660,9981.0
10210,0.2359379380941391,28.27766227722168,431,6864.0,24.943777084350586,269,9981.0
10220,0.2365557998418808,9.756551742553711,54,6864.0,-1.4770843982696533,-68,9981.0
10230,0.23730072379112244,-14.898523330688477,-389,6864.0,-28.165292739868164,-648,9981.0
10240,0.23826497793197632,-32.53498840332031,-576,6864.0,-59.880714416503906,-1234,9981.0
10250,0.23879386484622955,-41.33169937133789,-651,6864.0,-85.72601318359375,-1575,9981.0
10260,0.23801903426647186,-40.908267974853516,-621,6864.0,-100.04487609863281,-1636,9981.0
10270,0.23801562190055847,-29.68929100036621,-479,6864.0,-102.67267608642578,-1638,9981.0
10280,0.23794637620449066,-19.27056884765625,-239,6864.0,-94.13252258300781,-1348,9981.0
10290,0.23880605399608612,-9.791952133178711,-145,6864.0,-64.87652587890625,-1037,9981.0
10300,0.24263639748096466,-17.07340431213379,-337,6864.0,-34.89299011230469,-430,9981.0
10310,0.24096716940402985,-20.97344970703125,-279,6864.0,-0.29569578170776367,219,9981.0
10320,0.24206049740314484,-16.27491569519043,-102,6864.0,34.45412063598633,717,9981.0
10330,0.24381937086582184,1.9368246793746948,205,6864.0,56.87883377075195,979,9981.0
10340,0.24466761946678162,21.247886657714844,397,6864.0,64.7061767578125,1179,9981.0
10350,0.24406404793262482,35.79393005371094,597,6864.0,70.32291412353516,1249,9981.0
10360,0.24501726031303406,40.65334701538086,687,6864.0,71.7794418334961,1072,9981.0
10370,0.24559055268764496,40.131004333496094,726,6864.0,54.980960845947266,675,9981.0
10380,0.24762164056301117,33.75178527832031,547,6864.0,25.28106117248535,142,9981.0
10390,0.24827392399311066,23.246761322021484,353,6864.0,-10.929323196411133,-391,9981.0
10400,0.2461089789867401,15.603452682495117,214,6864.0,-45.9516487121582,-854,9981.0
10410,0.24692045152187347,1.4236088991165161,-84,6864.0,-63.68045425415039,-996,9981.0
10420,0.24784165620803833,-14.021052360534668,-355,6864.0,-59.18927001953125,-822,9981.0
10430,0.24856135249137878,-30.291431427001953,-661,6864.0,-40.253902435302734,-532,9981.0
10440,0.24669122695922852,-35.60009002685547,-560,6864.0,-4.6719560623168945,98,9981.0
10450,0.24725227057933807,-22.476469039916992,-360,6864.0,23.552268981933594,551,9981.0
10460,0.24775321781635284,-7.790201663970947,-133,6864.0,32.18860626220703,579,9981.0
10470,0.24823306500911713,6.865626335144043,135,6864.0,41.10953903198242,663,9981.0
10480,0.24695922434329987,15.330453872680664,329,6864.0,42.71198272705078,651,9981.0
10490,0.24687133729457855,21.42405891418457,460,6864.0,32.918033599853516,367,9981.0
10500,0.2479456663131714,25.48026466369629,465,6864.0,18.336057662963867,293,9981.0
10510,0.24769562482833862,18.52659034729004,187,6864.0,8.41285514831543,129,9981.0
10520,0.2475772649049759,7.02008056640625,3,6864.0,-7.842451095581055,-241,9981.0
10530,0.24622789025306702,-9.092549324035645,-196,6864.0,-35.166439056396484,-737,9981.0
10540,0.2458977997303009,-20.317567825317383,-314,6864.0,-56.30960464477539,-1121,9981.0
10550,0.24559608101844788,-19.615398406982422,-219,6864.0,-52.68761444091797,-835,9981.0
10560,0.2450627088546753,-16.50537872314453,-161,6864.0,-25.612937927246094,-388,9981.0
10570,0.2440750151872635,-9.361063957214355,-51,6864.0,-1.8788607120513916,121,9981.0
10580,0.24407145380973816,7.1644158363342285,116,6864.0,10.709416389465332,301,9981.0
10590,0.2439146786928177,13.802877426147461,138,6864.0,23.1423397064209,611,9981.0
10600,0.2435491532087326,16.709684371948242,166,6864.0,41.37055206298828,689,9981.0
10610,0.24290500581264496,5.620934963226318,25,6864.0,43.32200241088867,643,9981.0
10620,0.24255523085594177,-2.2611048221588135,3,6864.0,43.51982879638672,677,9981.0
10630,0.24197804927825928,-6.149953365325928,-105,6864.0,31.830272674560547,511,9981.0
10640,0.24139916896820068,-2.135488271713257,-42,6864.0,12.909506797790527,137,9981.0
10650,0.24159935116767883,7.228038311004639,236,6864.0,-9.917183876037598,-313,9981.0
10660,0.2406701296567917,14.738775253295898,256,6864.0,-39.37604904174805,-732,9981.0
10670,0.24026043713092804,16.292098999023438,232,6864.0,-62.1343879699707,-1131,9981.0
10680,0.24001623690128326,7.772793292999268,126,6864.0,-72.53871154785156,-1177,9981.0
10690,0.2395762950181961,-5.745038986206055,-107,6864.0,-64.4915542602539,-959,9981.0
10700,0.23999038338661194,-4.359340667724609,-59,6864.0,-34.543785095214844,-326,9981.0
10710,0.24049820005893707,7.642495632171631,171,6864.0,-4.863851070404053,-65,9981.0
10720,0.24060994386672974,21.969022750854492,471,6864.0,16.508962631225586,337,9981.0
10730,0.2408207356929779,28.198974609375,483,6864.0,45.75905990600586,897,9981.0
10740,0.24096472561359406,21.60270118713379,341,6864.0,76.76158905029297,1328,9981.0
10750,0.24117322266101837,8.014272689819336,-45,6864.0,80.14369201660156,1347,9981.0
10760,0.24134474992752075,-19.943782806396484,-557,6864.0,53.4605827331543,639,9981.0
10770,0.24111516773700714,-50.76921463012695,-885,6864.0,4.909749507904053,-142,9981.0
10780,0.24302174150943756,-67.86592864990234,-1136,6864.0,-39.04728698730469,-754,9981.0
10790,0.24471421539783478,-58.09555435180664,-883,6864.0,-78.68077087402344,-1598,9981.0
10800,0.2447667270898819,-40.39374923706055,-491,6864.0,-98.49363708496094,-1665,9981.0
10810,0.24515557289123535,-15.232911109924316,-126,6864.0,-101.03964233398438,-1523,9981.0
10820,0.24582624435424805,8.393755912780762,124,6864.0,-94.75859069824219,-1413,9981.0
10830,0.24680876731872559,18.099285125732422,280,6864.0,-76.24335479736328,-1220,9981.0
10840,0.24739189445972443,16.06352996826172,279,6864.0,-54.552833557128906,-844,9981.0
10850,0.24822615087032318,5.815720081329346,106,6864.0,-19.79276466369629,-147,9981.0
10860,0.24977514147758484,-3.5669777393341064,-108,6864.0,25.941036224365234,638,9981.0
10870,0.25104668736457825,-18.043489456176758,-359,6864.0,65.66361999511719,1315,9981.0
10880,0.2496931105852127,-13.741098403930664,-232,6864.0,89.35450744628906,1579,9981.0
10890,0.2509273886680603,1.6773842573165894,115,6864.0,91.971435546875,1331,9981.0
10900,0.25200411677360535,19.733951568603516,493,6864.0,77.31709289550781,1097,9981.0
10910,0.2539828419685364,32.2696533203125,513,6864.0,49.76517868041992,649,9981.0
10920,0.25585079193115234,28.722370147705078,345,6864.0,8.666825294494629,-184,9981.0
10930,0.2567308843135834,15.106707572937012,237,6864.0,-32.68367004394531,-825,9981.0
10940,0.2577701210975647,0.23285211622714996,-44,6864.0,-64.98169708251953,-1105,9981.0
10950,0.258841872215271,-10.385915756225586,-264,6864.0,-85.58770751953125,-1406,9981.0
10960,0.25992581248283386,-19.39525032043457,-419,6864.0,-94.10005187988281,-1422,9981.0
10970,0.2614159882068634,-19.46534538269043,-361,6864.0,-89.69622802734375,-1317,9981.0
10980,0.262077659368515,-10.387910842895508,-108,6864.0,-67.823486328125,-847,9981.0
10990,0.2650066614151001,-1.2792959213256836,-20,6864.0,-33.23918151855469,-288,9981.0
11000,0.2662058174610138,0.9599160552024841,15,6864.0,13.04593563079834,613,9981.0
11010,0.26837265491485596,4.578978538513184,155,6864.0,65.36913299560547,1402,9981.0
11020,0.27096036076545715,13.160721778869629,203,6864.0,105.30716705322266,1901,9981.0
11030,0.2727033495903015,10.334476470947266,181,6864.0,127.28453063964844,2057,9981.0
11040,0.2744716703891754,9.536104202270508,177,6864.0,127.54850769042969,1817,9981.0
11050,0.27726179361343384,-4.088705539703369,-108,6864.0,96.47484588623047,1267,9981.0
11060,0.2790166437625885,-27.638051986694336,-505,6864.0,44.38295364379883,591,9981.0
11070,0.2805972099304199,-36.16727828979492,-649,6864.0,-1.9808564186096191,-221,9981.0
11080,0.28270769119262695,-34.85517501831055,-507,6864.0,-36.85988998413086,-839,9981.0
11090,0.2843264937400818,-19.413175582885742,-208,6864.0,-75.17967987060547,-1292,9981.0
11100,0.28512558341026306,4.664148330688477,130,6864.0,-95.99130249023438,-1593,9981.0
11110,0.2864527106285095,19.453777313232422,370,6864.0,-94.6795425415039,-1613,9981.0
11120,0.2885531485080719,32.428382873535156,644,6864.0,-85.03443908691406,-1347,9981.0
11130,0.2898009121417999,43.83210372924805,780,6864.0,-66.1944808959961,-986,9981.0
11140,0.28939345479011536,49.838504791259766,840,6864.0,-33.69871520996094,-376,9981.0
11150,0.2915486991405487,55.35403823852539,864,6864.0,1.1228110790252686,230,9981.0
11160,0.2936970889568329,58.78882598876953,931,6864.0,34.78419876098633,676,9981.0
11170,0.2950257360935211,44.34928512573242,516,6864.0,71.92265319824219,1258,9981.0
11180,0.2978767156600952,12.17762279510498,69,6864.0,88.82098388671875,1359,9981.0
11190,0.29742082953453064,-19.701892852783203,-505,6864.0,84.93655395507812,1329,9981.0
11200,0.2986753284931183,-53.603363037109375,-950,6864.0,88.17200469970703,1340,9981.0
11210,0.29975759983062744,-73.68339538574219,-1241,6864.0,68.51178741455078,1007,9981.0
11220,0.3007923364639282,-77.3077163696289,-1277,6864.0,28.219160079956055,352,9981.0
11230,0.3017132580280304,-66.72590637207031,-1035,6864.0,-4.999061107635498,-175,9981.0
11240,0.30280154943466187,-38.08212661743164,-592,6864.0,-26.886215209960938,-550,9981.0
11250,0.3034452497959137,-9.553179740905762,4,6864.0,-41.2213134765625,-813,9981.0
11260,0.3044240176677704,10.225356101989746,262,6864.0,-54.965782165527344,-947,9981.0
11270,0.30502715706825256,20.292701721191406,352,6864.0,-61.810970306396484,-972,9981.0
11280,0.3060186207294464,28.281536102294922,484,6864.0,-60.63269805908203,-858,9981.0
11290,0.30672821402549744,42.30174255371094,687,6864.0,-31.11217498779297,-193,9981.0
11300,0.30771395564079285,50.54402160644531,721,6864.0,29.18512725830078,778,9981.0
11310,0.30868470668792725,40.67085266113281,546,6864.0,71.39612579345703,1338,9981.0
11320,0.30783382058143616,22.235727310180664,203,6864.0,84.66043090820312,1400,9981.0
11330,0.30824193358421326,1.0657392740249634,-101,6864.0,81.82762145996094,1286,9981.0
11340,0.30862531065940857,-17.465608596801758,-354,6864.0,62.831275939941406,1018,9981.0
11350,0.30914878845214844,-23.128427505493164,-501,6864.0,35.91864013671875,507,9981.0
11360,0.3098815083503723,-30.990095138549805,-562,6864.0,0.7294483780860901,-199,9981.0
11370,0.31034159660339355,-35.44683074951172,-548,6864.0,-36.6186408996582,-907,9981.0
11380,0.3111598789691925,-33.216697692871094,-433,6864.0,-68.63642120361328,-1364,9981.0
11390,0.3114358186721802,-25.758316040039062,-296,6864.0,-93.24308013916016,-1534,9981.0
11400,0.3120248317718506,-11.601686477661133,-94,6864.0,-104.53633880615234,-1682,9981.0
11410,0.31113317608833313,1.532525897026062,-31,6864.0,-105.16944122314453,-1583,9981.0
11420,0.3117009401321411,5.865776538848877,-24,6864.0,-85.19052124023438,-1167,9981.0
11430,0.31230974197387695,6.95094633102417,75,6864.0,-52.90631103515625,-691,9981.0
11440,0.31433382630348206,7.879137992858887,174,6864.0,-9.545557975769043,131,9981.0
11450,0.3131351172924042,22.214860916137695,387,6864.0,40.7784538269043,829,9981.0
11460,0.31462210416793823,27.828975677490234,457,6864.0,76.04194641113281,1375,9981.0
11470,0.3157012462615967,30.55650520324707,478,6864.0,90.32844543457031,1526,9981.0
11480,0.3164697587490082,22.294639587402344,187,6864.0,93.15292358398438,1565,9981.0
11490,0.31335651874542236,-6.695003032684326,-260,6864.0,72.1988525390625,1144,9981.0
11500,0.3139905631542206,-30.585033416748047,-719,6864.0,31.38905906677246,435,9981.0
11510,0.31453654170036316,-50.11590576171875,-903,6864.0,-11.152462005615234,-364,9981.0
11520,0.31567496061325073,-58.12575912475586,-873,6864.0,-44.01915740966797,-970,9981.0
11530,0.31652745604515076,-49.393577575683594,-659,6864.0,-70.6294937133789,-1311,9981.0
11540,0.315115362405777,-30.55581283569336,-278,6864.0,-82.0398178100586,-1282,9981.0
11550,0.3156053423881531,5.652473449707031,271,6864.0,-81.84716796875,-1322,9981.0
11560,0.3162745535373688,35.24552536010742,606,6864.0,-79.76915740966797,-1140,9981.0
11570,0.3173767328262329,39.23204040527344,576,6864.0,-59.97793197631836,-943,9981.0
11580,0.31486019492149353,24.188579559326172,256,6864.0,-39.472232818603516,-477,9981.0
11590,0.31614455580711365,-3.91564679145813,-134,6864.0,-0.5986852645874023,258,9981.0
11600,0.3173688054084778,-13.389556884765625,-183,6864.0,46.78013610839844,965,9981.0
11610,0.3183034062385559,-9.055341720581055,-11,6864.0,69.24385070800781,1157,9981.0
11620,0.3194616734981537,-1.9533592462539673,157,6864.0,78.09169006347656,1326,9981.0
11630,0.3172122836112976,5.394351482391357,133,6864.0,84.43936157226562,1376,9981.0
11640,0.3175349831581116,6.16445255279541,-14,6864.0,73.0435791015625,1119,9981.0
11650,0.3182501792907715,0.7409513592720032,-85,6864.0,38.938995361328125,389,9981.0
11660,0.31876322627067566,-4.728421211242676,-157,6864.0,1.0376321077346802,-299,9981.0
11670,0.3196655213832855,-11.917150497436523,-152,6864.0,-35.7001953125,-695,9981.0
11680,0.31984972953796387,-1.263015866279602,97,6864.0,-52.98761749267578,-788,9981.0
11690,0.31997150182724,26.0865421295166,504,6864.0,-56.33387756347656,-1018,9981.0
11700,0.3202846050262451,45.36547088623047,780,6864.0,-54.712623596191406,-874,9981.0
11710,0.3192703127861023,53.540069580078125,937,6864.0,-45.67057800292969,-731,9981.0
11720,0.319843053817749,48.64543914794922,812,6864.0,-39.47865295410156,-622,9981.0
11730,0.3209117352962494,52.144775390625,992,6864.0,-12.42988109588623,-66,9981.0
11740,0.32157257199287415,56.61223602294922,851,6864.0,20.920780181884766,436,9981.0
11750,0.32240331172943115,32.89017868041992,464,6864.0,51.75083923339844,909,9981.0
11760,0.3224518895149231,4.343908309936523,9,6864.0,80.20404052734375,1337,9981.0
11770,0.3230477571487427,-11.11159610748291,-162,6864.0,86.21613311767578,1387,9981.0
11780,0.3235445022583008,-10.718881607055664,-128,6864.0,86.24858856201172,1355,9981.0
11790,0.32383275032043457,-9.348311424255371,-218,6864.0,74.5650405883789,1181,9981.0
11800,0.32483235001564026,-14.442188262939453,-313,6864.0,47.3587760925293,650,9981.0
11810,0.32569289207458496,-18.639585494995117,-306,6864.0,10.977441787719727,-117,9981.0
11820,0.32682183384895325,-31.365158081054688,-513,6864.0,-31.244861602783203,-719,9981.0
11830,0.3275705873966217,-43.586360931396484,-694,6864.0,-66.25161743164062,-1213,9981.0
11840,0.3283730447292328,-41.35982894897461,-686,6864.0,-101.99266052246094,-1763,9981.0
11850,0.3310782015323639,-27.361223220825195,-427,6864.0,-124.527587890625,-2096,9981.0
11860,0.3328535556793213,-7.578489780426025,19,6864.0,-124.7569580078125,-2025,9981.0
11870,0.3334874212741852,15.868375778198242,421,6864.0,-90.9452133178711,-1364,9981.0
11880,0.33504873514175415,36.72783279418945,709,6864.0,-48.81013107299805,-613,9981.0
11890,0.3328242599964142,47.294227600097656,788,6864.0,-6.072018146514893,45,9981.0
11900,0.33454954624176025,31.48160743713379,327,6864.0,29.87750244140625,683,9981.0
11910,0.33566537499427795,4.277994632720947,17,6864.0,55.329830169677734,827,9981.0
11920,0.3371821343898773,-10.468414306640625,-202,6864.0,58.27308654785156,942,9981.0
11930,0.33455702662467957,-18.64036750793457,-351,6864.0,50.08393478393555,748,9981.0
11940,0.33541831374168396,-28.547338485717773,-534,6864.0,34.23137664794922,500,9981.0
11950,0.3362951874732971,-35.43914031982422,-646,6864.0,17.088106155395508,255,9981.0
11960,0.3372548818588257,-34.03894805908203,-621,6864.0,-2.246983766555786,-77,9981.0
11970,0.3382120728492737,-28.791501998901367,-463,6864.0,-9.84485912322998,-119,9981.0
11980,0.33684244751930237,-12.679472923278809,-147,6864.0,-5.373863220214844,-15,9981.0
11990,0.3377752900123596,2.745452642440796,114,6864.0,-0.5558584332466125,-13,9981.0
12000,0.33879899978637695,9.931824684143066,148,6864.0,-0.5604996681213379,15,9981.0
12010,0.33978188037872314,4.055411338806152,67,6864.0,-0.34924569725990295,-5,9981.0
12020,0.3388423025608063,0.49958500266075134,63,6864.0,11.755393028259277,371,9981.0
12030,0.33971866965293884,7.431249618530273,157,6864.0,35.21146011352539,635,9981.0
12040,0.3406040072441101,20.799209594726562,438,6864.0,47.399078369140625,891,9981.0
12050,0.3412643373012543,41.65092849731445,687,6864.0,61.068424224853516,1069,9981.0
12060,0.3422771096229553,36.6987190246582,513,6864.0,63.20621109008789,950,9981.0
12070,0.34166982769966125,8.536076545715332,-27,6864.0,38.01935958862305,520,9981.0
12080,0.34216511249542236,-27.681398391723633,-612,6864.0,13.101882934570312,96,9981.0
12090,0.34241414070129395,-44.95756530761719,-706,6864.0,-15.905855178833008,-448,9981.0
12100,0.34267428517341614,-44.13277816772461,-652,6864.0,-34.57729721069336,-711,9981.0
12110,0.34363263845443726,-43.03094482421875,-656,6864.0,-48.19906234741211,-803,9981.0
12120,0.34359923005104065,-43.84488296508789,-615,6864.0,-47.507080078125,-826,9981.0
12130,0.34362873435020447,-32.839263916015625,-400,6864.0,-32.34205627441406,-550,9981.0
12140,0.34408479928970337,-19.740774154663086,-179,6864.0,-22.31789779663086,-364,9981.0
12150,0.344008207321167,-6.616937637329102,23,6864.0,-6.225506782531738,-96,9981.0
12160,0.3442312479019165,8.22718620300293,233,6864.0,8.88199234008789,201,9981.0
12170,0.3445512354373932,11.42555046081543,206,6864.0,28.928556442260742,557,9981.0
12180,0.3447279930114746,11.120915412902832,165,6864.0,38.760311126708984,676,9981.0
12190,0.34501540660858154,5.972501277923584,-23,6864.0,43.04076385498047,790,9981.0
12200,0.3458837568759918,-3.3020684719085693,-112,6864.0,40.797794342041016,689,9981.0
12210,0.34604519605636597,-1.6034907102584839,-43,6864.0,34.277408599853516,471,9981.0
12220,0.34635546803474426,7.808292865753174,147,6864.0,19.51239776611328,165,9981.0
12230,0.3461851477622986,13.521611213684082,356,6864.0,7.690248966217041,82,9981.0
12240,0.34709432721138,21.34081268310547,411,6864.0,2.1683943271636963,39,9981.0
12250,0.34691786766052246,19.523706436157227,233,6864.0,-14.547004699707031,-290,9981.0
12260,0.34697192907333374,11.483621597290039,98,6864.0,-40.642539978027344,-692,9981.0
12270,0.3468075394630432,5.658533096313477,68,6864.0,-53.53455352783203,-890,9981.0
12280,0.3466354310512543,8.58923053741455,75,6864.0,-59.58290481567383,-898,9981.0
12290,0.3478689193725586,6.693209648132324,104,6864.0,-54.42596435546875,-759,9981.0
12300,0.3480236530303955,16.55240821838379,368,6864.0,-33.5335578918457,-264,9981.0
12310,0.348330557346344,22.353532791137695,289,6864.0,3.421628952026367,293,9981.0
12320,0.34856486320495605,11.588600158691406,135,6864.0,22.57182502746582,484,9981.0
12330,0.3497682213783264,0.5304583311080933,-67,6864.0,26.59579849243164,586,9981.0
12340,0.3499537706375122,-11.220736503601074,-245,6864.0,34.755332946777344,608,9981.0
12350,0.35007306933403015,-10.83456802368164,-121,6864.0,38.08218765258789,616,9981.0
12360,0.35013970732688904,6.424695014953613,229,6864.0,36.47819900512695,470,9981.0
12370,0.3512309193611145,25.451303482055664,544,6864.0,28.735261917114258,431,9981.0
12380,0.3513050079345703,32.65392303466797,512,6864.0,18.646554946899414,309,9981.0
12390,0.3517436981201172,25.65306282043457,289,6864.0,-2.7408220767974854,-6,9981.0
12400,0.35174471139907837,15.326383590698242,164,6864.0,-19.751489639282227,-419,9981.0
12410,0.35184141993522644,3.380645751953125,74,6864.0,-34.09495544433594,-706,9981.0
12420,0.3521868586540222,-1.8251373767852783,52,6864.0,-44.37763977050781,-845,9981.0
12430,0.3521800935268402,4.504197597503662,170,6864.0,-45.67268371582031,-602,9981.0
12440,0.35239070653915405,16.272464752197266,256,6864.0,-27.171213150024414,-334,9981.0
12450,0.35263752937316895,11.770792007446289,97,6864.0,-12.773441314697266,-97,9981.0
12460,0.35351982712745667,-2.2995243072509766,-163,6864.0,11.35515022277832,324,9981.0
12470,0.35401451587677,-18.92408561706543,-444,6864.0,24.078887939453125,494,9981.0
12480,0.354371577501297,-32.07902526855469,-612,6864.0,36.031063079833984,641,9981.0
12490,0.3547942042350769,-34.739662170410156,-545,6864.0,37.05703353881836,543,9981.0
12500,0.35517507791519165,-27.00535774230957,-287,6864.0,29.832515716552734,429,9981.0
12510,0.3548731207847595,-7.6516289710998535,5,6864.0,23.342662811279297,356,9981.0
12520,0.3549645245075226,8.207168579101562,197,6864.0,11.2185697555542,140,9981.0
12530,0.3551599681377411,23.290170669555664,386,6864.0,-7.892841339111328,-260,9981.0
12540,0.35531890392303467,30.286014556884766,543,6864.0,-31.896949768066406,-650,9981.0
12550,0.35673078894615173,35.02456283569336,645,6864.0,-53.108219146728516,-930,9981.0
12560,0.356904000043869,36.70844650268555,584,6864.0,-63.94231033325195,-1010,9981.0
12570,0.3572128713130951,41.37591552734375,614,6864.0,-67.02862548828125,-997,9981.0
12580,0.35748186707496643,36.129913330078125,442,6864.0,-66.14993286132812,-925,9981.0
12590,0.3597441017627716,22.257205963134766,250,6864.0,-46.797489166259766,-599,9981.0
12600,0.36091041564941406,3.0730576515197754,-54,6864.0,-22.66988754272461,-148,9981.0
12610,0.3615632653236389,-21.17119789123535,-486,6864.0,6.194201946258545,258,9981.0
12620,0.3624487519264221,-36.972896575927734,-649,6864.0,35.571598052978516,723,9981.0
12630,0.3634290099143982,-48.52898025512695,-880,6864.0,63.84994125366211,1208,9981.0
12640,0.36402028799057007,-52.63972473144531,-935,6864.0,74.21385955810547,1247,9981.0
12650,0.36459067463874817,-47.163272857666016,-774,6864.0,65.65364074707031,919,9981.0
12660,0.3655370771884918,-32.72856521606445,-358,6864.0,38.88182067871094,460,9981.0
12670,0.36650142073631287,-12.31983470916748,-156,6864.0,-3.412262201309204,-173,9981.0
12680,0.36957067251205444,10.563462257385254,238,6864.0,-44.04920959472656,-888,9981.0
12690,0.3705298900604248,32.574462890625,708,6864.0,-67.7591781616211,-1254,9981.0
12700,0.3714810609817505,45.28257369995117,756,6864.0,-80.90951538085938,-1312,9981.0
12710,0.37240514159202576,50.06196594238281,779,6864.0,-81.38787841796875,-1240,9981.0
12720,0.3740752339363098,48.433746337890625,685,6864.0,-79.94781494140625,-1196,9981.0
12730,0.37501198053359985,34.02986526489258,384,6864.0,-69.31669616699219,-1022,9981.0
12740,0.37602072954177856,8.780094146728516,10,6864.0,-40.18330764770508,-548,9981.0
12750,0.3772987127304077,-15.345904350280762,-306,6864.0,-2.3545873165130615,50,9981.0
12760,0.37901315093040466,-30.847454071044922,-552,6864.0,34.45656204223633,619,9981.0
12770,0.38045722246170044,-36.286476135253906,-577,6864.0,61.862335205078125,1131,9981.0
12780,0.3818468451499939,-29.574546813964844,-444,6864.0,81.09911346435547,1388,9981.0
12790,0.3829948604106903,-21.537567138671875,-341,6864.0,87.30962371826172,1420,9981.0
12800,0.38409215211868286,-21.251731872558594,-236,6864.0,88.22746276855469,1285,9981.0
12810,0.3857032358646393,-7.816005706787109,55,6864.0,58.94434356689453,734,9981.0
12820,0.38633257150650024,21.09343719482422,478,6864.0,18.60702133178711,132,9981.0
12830,0.3870774507522583,43.493961334228516,735,6864.0,-12.11699104309082,-272,9981.0
12840,0.38781383633613586,46.75136947631836,653,6864.0,-31.511390686035156,-510,9981.0
12850,0.388576477766037,34.86249923706055,429,6864.0,-43.97682189941406,-610,9981.0
12860,0.3913829028606415,14.206287384033203,109,6864.0,-36.903141021728516,-445,9981.0
12870,0.3923976421356201,-7.037810325622559,-260,6864.0,-23.441123962402344,-408,9981.0
12880,0.3935452997684479,-27.085962295532227,-477,6864.0,-26.595535278320312,-556,9981.0
12890,0.39444419741630554,-41.31919860839844,-745,6864.0,-24.01582908630371,-425,9981.0
12900,0.39449912309646606,-55.63383102416992,-984,6864.0,-13.13346004486084,-96,9981.0
12910,0.3955431580543518,-64.41442108154297,-1051,6864.0,3.108955144882202,276,9981.0
12920,0.39676186442375183,-58.77425003051758,-896,6864.0,22.816375732421875,651,9981.0
12930,0.397708922624588,-45.343563079833984,-702,6864.0,40.54326629638672,910,9981.0
12940,0.3985559940338135,-32.65042495727539,-482,6864.0,53.23178482055664,1024,9981.0
12950,0.39960163831710815,-13.90925407409668,-57,6864.0,53.46616744995117,873,9981.0
12960,0.4000922441482544,17.063777923583984,533,6864.0,38.53202438354492,464,9981.0
12970,0.40057840943336487,52.137393951416016,998,6864.0,16.44546127319336,35,9981.0
12980,0.40114617347717285,68.70741271972656,1121,6864.0,-7.117815017700195,-301,9981.0
12990,0.40131431818008423,52.381290435791016,689,6864.0,-22.769060134887695,-490,9981.0
13000,0.40151476860046387,13.228596687316895,2,6864.0,-28.477705001831055,-400,9981.0
13010,0.4020313024520874,-18.50417137145996,-431,6864.0,-37.7379150390625,-533,9981.0
13020,0.40228980779647827,-34.502140045166016,-582,6864.0,-38.36800765991211,-526,9981.0
13030,0.4007109999656677,-41.679847717285156,-724,6864.0,-27.31260871887207,-325,9981.0
13040,0.4008465111255646,-50.02677917480469,-867,6864.0,-14.261727333068848,-258,9981.0
13050,0.40097323060035706,-55.002845764160156,-837,6864.0,7.644826889038086,202,9981.0
13060,0.40115633606910706,-38.766700744628906,-470,6864.0,35.00455093383789,522,9981.0
13070,0.40125325322151184,-12.331649780273438,-69,6864.0,40.37049865722656,598,9981.0
13080,0.3997710347175598,3.122657060623169,108,6864.0,38.17082214355469,694,9981.0
13090,0.3995386064052582,15.039331436157227,281,6864.0,43.94008255004883,787,9981.0
13100,0.39908432960510254,31.442359924316406,547,6864.0,34.10409927368164,527,9981.0
13110,0.398679256439209,54.2752799987793,944,6864.0,11.191762924194336,85,9981.0
13120,0.397548109292984,70.80110931396484,1170,6864.0,-8.423517227172852,-310,9981.0
13130,0.3970182240009308,69.02735900878906,1066,6864.0,-27.745929718017578,-607,9981.0
13140,0.3964552581310272,48.27092742919922,666,6864.0,-42.254127502441406,-766,9981.0
13150,0.39583703875541687,16.492809295654297,173,6864.0,-49.70630645751953,-892,9981.0
13160,0.3955746293067932,-10.14029598236084,-269,6864.0,-50.9633674621582,-791,9981.0
13170,0.39380860328674316,-39.91582489013672,-786,6864.0,-44.94095230102539,-683,9981.0
13180,0.39333540201187134,-58.83457565307617,-1053,6864.0,-50.93380355834961,-775,9981.0
13190,0.3930428922176361,-72.25831604003906,-1228,6864.0,-46.95730972290039,-567,9981.0
13200,0.39235252141952515,-74.02994537353516,-1166,6864.0,-30.386903762817383,-277,9981.0
13210,0.3916908800601959,-51.63359069824219,-769,6864.0,-7.794717788696289,4,9981.0
13220,0.39147165417671204,-19.655933380126953,-198,6864.0,22.72459602355957,600,9981.0
13230,0.3912052512168884,10.169074058532715,290,6864.0,61.69489288330078,1087,9981.0
13240,0.3910849392414093,36.22401428222656,775,6864.0,90.39840698242188,1480,9981.0
13250,0.39030784368515015,52.36359405517578,1025,6864.0,91.90206146240234,1484,9981.0
13260,0.3898921310901642,65.34765625,994,6864.0,75.18888854980469,1274,9981.0
13270,0.3893747627735138,65.0841293334961,1042,6864.0,45.244720458984375,495,9981.0
13280,0.3898298144340515,57.86144256591797,962,6864.0,2.979245662689209,-172,9981.0
13290,0.38980552554130554,47.21916198730469,734,6864.0,-36.394195556640625,-717,9981.0
13300,0.38834142684936523,22.867013931274414,207,6864.0,-64.43048095703125,-1054,9981.0
13310,0.38813161849975586,-6.575292587280273,-301,6864.0,-81.11408233642578,-1301,9981.0
13320,0.3885229825973511,-23.960132598876953,-484,6864.0,-89.66278839111328,-1463,9981.0
13330,0.3885476589202881,-32.539432525634766,-589,6864.0,-91.83580017089844,-1442,9981.0
13340,0.3882409930229187,-43.857383728027344,-792,6864.0,-77.98096466064453,-1156,9981.0
13350,0.38842204213142395,-43.65875244140625,-697,6864.0,-54.045677185058594,-705,9981.0
13360,0.3888190984725952,-32.19272994995117,-450,6864.0,-27.015647888183594,-111,9981.0
13370,0.3894161283969879,-9.801708221435547,-58,6864.0,23.88052749633789,684,9981.0
13380,0.3889813721179962,16.605398178100586,310,6864.0,75.91840362548828,1528,9981.0
13390,0.3895697593688965,26.5561466217041,393,6864.0,107.7921371459961,1874,9981.0
13400,0.3899291157722473,21.778614044189453,277,6864.0,100.14995574951172,1532,9981.0
13410,0.3899306356906891,12.30184268951416,165,6864.0,67.09013366699219,750,9981.0
13420,0.3912999927997589,-2.3485348224639893,-35,6864.0,24.637636184692383,139,9981.0
13430,0.39083802700042725,-7.185989856719971,-88,6864.0,-10.20552921295166,-199,9981.0
13440,0.39097097516059875,-4.540807723999023,-88,6864.0,-32.452919006347656,-592,9981.0
13450,0.3912127912044525,4.329194068908691,23,6864.0,-49.23129653930664,-769,9981.0
13460,0.3912777602672577,6.912402153015137,61,6864.0,-51.758819580078125,-806,9981.0
13470,0.3900757431983948,6.647158622741699,44,6864.0,-53.0346794128418,-767,9981.0
13480,0.3902938663959503,6.844522953033447,147,6864.0,-48.288639068603516,-718,9981.0
13490,0.3906334936618805,14.98878002166748,260,6864.0,-27.74083709716797,-197,9981.0
13500,0.39173874258995056,22.008899688720703,354,6864.0,7.0587477684021,411,9981.0
13510,0.39246851205825806,20.321754455566406,272,6864.0,44.991554260253906,968,9981.0
13520,0.39238351583480835,10.934599876403809,131,6864.0,70.85806274414062,1241,9981.0
13530,0.3927934765815735,-1.5698461532592773,-116,6864.0,86.52141571044922,1438,9981.0
13540,0.39353394508361816,-14.088767051696777,-291,6864.0,90.70899200439453,1433,9981.0
13550,0.3936166763305664,-21.21684455871582,-436,6864.0,70.2987289428711,968,9981.0
13560,0.3935243785381317,-25.536619186401367,-477,6864.0,27.494131088256836,242,9981.0
13570,0.3937428593635559,-21.484180450439453,-307,6864.0,-2.2782115936279297,-271,9981.0
13580,0.39391887187957764,-11.321661949157715,-121,6864.0,-24.91904067993164,-658,9981.0
13590,0.3940493166446686,-2.4467034339904785,80,6864.0,-51.179115295410156,-900,9981.0
13600,0.3941849172115326,7.214951992034912,134,6864.0,-63.74927520751953,-938,9981.0
13610,0.3951391577720642,21.408206939697266,366,6864.0,-56.82466506958008,-723,9981.0
13620,0.39571648836135864,37.975257873535156,631,6864.0,-34.764888763427734,-384,9981.0
13630,0.3961946666240692,46.59328079223633,637,6864.0,-18.369491577148438,-36,9981.0
13640,0.3968038558959961,41.128780364990234,611,6864.0,2.3390114307403564,189,9981.0
13650,0.3962548077106476,26.32162857055664,265,6864.0,19.44115447998047,356,9981.0
13660,0.3967069983482361,-2.6201767921447754,-251,6864.0,24.417030334472656,349,9981.0
13670,0.3971273601055145,-46.85249328613281,-945,6864.0,32.59058380126953,484,9981.0
13680,0.3977278172969818,-78.49362182617188,-1289,6864.0,47.68343734741211,764,9981.0
13690,0.3978971838951111,-77.04242706298828,-1160,6864.0,59.45759201049805,947,9981.0
13700,0.39769017696380615,-62.77383804321289,-877,6864.0,53.26368713378906,778,9981.0
13710,0.39847221970558167,-34.80210494995117,-345,6864.0,32.580997467041016,464,9981.0
13720,0.3983195722103119,-2.013535976409912,59,6864.0,10.372085571289062,170,9981.0
13730,0.39840346574783325,18.161849975585938,303,6864.0,1.676604151725769,126,9981.0
13740,0.39865437150001526,23.8984375,448,6864.0,0.012115304358303547,-84,9981.0
13750,0.39883536100387573,30.844602584838867,563,6864.0,-10.31628704071045,-311,9981.0
13760,0.39914554357528687,36.981319427490234,664,6864.0,-24.939226150512695,-533,9981.0
13770,0.39941659569740295,37.129581451416016,740,6864.0,-33.238494873046875,-643,9981.0
13780,0.3987099826335907,36.04602813720703,544,6864.0,-33.39637756347656,-522,9981.0
13790,0.39910170435905457,12.568941116333008,77,6864.0,-18.58298683166504,-151,9981.0
13800,0.39953577518463135,-9.043871879577637,-248,6864.0,-1.0597589015960693,170,9981.0
13810,0.400010883808136,-22.698827743530273,-448,6864.0,16.564252853393555,462,9981.0
13820,0.40045204758644104,-34.141258239746094,-588,6864.0,43.50185012817383,883,9981.0
13830,0.40027666091918945,-41.691001892089844,-710,6864.0,63.84488296508789,1126,9981.0
13840,0.4002656638622284,-33.090919494628906,-569,6864.0,61.34442901611328,1014,9981.0
13850,0.39984408020973206,-19.066028594970703,-270,6864.0,35.64297866821289,567,9981.0
13860,0.4000469148159027,14.211170196533203,298,6864.0,7.299278259277344,81,9981.0
13870,0.39928174018859863,43.987709045410156,834,6864.0,-16.3760986328125,-427,9981.0
13880,0.3988465368747711,52.60968017578125,909,6864.0,-39.34440231323242,-803,9981.0
13890,0.3985590934753418,38.65362548828125,547,6864.0,-45.262699127197266,-824,9981.0
13900,0.398610383272171,9.937518119812012,147,6864.0,-44.05513381958008,-763,9981.0
13910,0.39932844042778015,-10.35051441192627,-184,6864.0,-38.30885314941406,-659,9981.0
13920,0.39934051036834717,-22.190662384033203,-408,6864.0,-27.62336540222168,-475,9981.0
13930,0.39967766404151917,-36.33304214477539,-617,6864.0,-11.325400352478027,-106,9981.0
13940,0.39996370673179626,-37.120853424072266,-620,6864.0,2.5852513313293457,116,9981.0
13950,0.40012767910957336,-32.640403747558594,-456,6864.0,13.091320991516113,301,9981.0
13960,0.39770519733428955,-19.827089309692383,-233,6864.0,33.65636444091797,596,9981.0
13970,0.39755505323410034,-7.3058648109436035,-34,6864.0,49.88475799560547,703,9981.0
13980,0.39718061685562134,-2.5035109519958496,88,6864.0,42.44084167480469,495,9981.0
13990,0.39727285504341125,-2.713805913925171,5,6864.0,13.250441551208496,76,9981.0
14000,0.39517107605934143,0.5928886532783508,3,6864.0,-17.692298889160156,-377,9981.0
