timestamp,kalman.stateZ,gyro.x,gyro.xRaw,gyro.xVariance,gyro.y,gyro.yRaw,gyro.yVariance
0,0.28310418128967285,-0.2520003914833069,2,6266.0,0.7186267375946045,16,9897.0
10,0.28310805559158325,-0.2878478169441223,-3,6266.0,0.5670126080513,16,9897.0
20,0.2831105589866638,-0.891202449798584,-17,6266.0,0.610186755657196,10,9897.0
30,0.2830328047275543,-0.7968541383743286,-10,6266.0,0.23342113196849823,11,9897.0
40,0.28303301334381104,-0.6036450862884521,4,6266.0,-0.13099625706672668,-7,9897.0
50,0.28303009271621704,0.022518215700984,-2,6266.0,-0.2502438426017761,-4,9897.0
60,0.28303980827331543,0.49777886271476746,14,6266.0,-0.1145164892077446,-1,9897.0
70,0.2822321057319641,0.5163549780845642,13,6266.0,-0.20158186554908752,-5,9897.0
80,0.28219443559646606,0.6818561553955078,16,6266.0,-0.07406570017337799,1,9897.0
90,0.28215864300727844,0.5890171527862549,14,6266.0,-0.19312554597854614,-4,9897.0
100,0.28212451934814453,0.3091754615306854,7,6266.0,-0.3167549669742584,-12,9897.0
110,0.28209009766578674,-0.3194907307624817,-7,6266.0,-0.18422912061214447,-1,9897.0
120,0.2820160984992981,-0.23305153846740723,-11,6266.0,-0.5841914415359497,-12,9897.0
130,0.2819790840148926,-0.7220386266708374,-10,6266.0,-0.38469022512435913,-9,9897.0
140,0.2819395363330841,-0.7248245477676392,-17,6266.0,-0.47628360986709595,-3,9897.0
150,0.28192809224128723,-0.2974916398525238,0,6266.0,-0.05049121379852295,-6,9897.0
160,0.2842884361743927,0.020823698490858078,-1,6266.0,-0.18163861334323883,3,9897.0
170,0.2843640446662903,-0.14837810397148132,0,6266.0,-0.6825910806655884,-16,9897.0
180,0.28442156314849854,0.5866444706916809,17,6266.0,-3.5058255195617676,-78,9897.0
190,0.28452640771865845,0.4079205393791199,27,6266.0,-9.723260879516602,-211,9897.0
200,0.28476235270500183,1.2456501722335815,56,6266.0,-18.91870880126953,-373,9897.0
210,0.2841944396495819,3.402190923690796,54,6266.0,-34.48780822753906,-638,9897.0
220,0.28456297516822815,6.129299640655518,56,6266.0,-55.938446044921875,-974,9897.0
230,0.2846355140209198,4.309081554412842,45,6266.0,-75.15518188476562,-1291,9897.0
240,0.2845270037651062,4.391874313354492,20,6266.0,-95.68878936767578,-1618,9897.0
250,0.2837314307689667,2.6151211261749268,74,6266.0,-109.70225524902344,-1890,9897.0
260,0.28338661789894104,-1.3622550964355469,35,6266.0,-122.42791748046875,-2102,9897.0
270,0.28239917755126953,-3.6145646572113037,31,6266.0,-127.37062072753906,-2146,9897.0
280,0.2838679254055023,-1.3579378128051758,-19,6266.0,-129.15992736816406,-2030,9897.0
290,0.28433674573898315,-1.0924639701843262,-60,6266.0,-110.88327026367188,-1716,9897.0
300,0.2834487557411194,-0.317473441362381,-23,6266.0,-92.4288330078125,-1357,9897.0
310,0.28274425864219666,0.6659429669380188,66,6266.0,-66.9306869506836,-1041,9897.0
320,0.28464624285697937,1.930412769317627,77,6266.0,-38.11393356323242,-618,9897.0
330,0.28376561403274536,4.217004776000977,65,6266.0,-10.703924179077148,-31,9897.0
340,0.2829674184322357,5.627391338348389,12,6266.0,13.577546119689941,361,9897.0
350,0.2834892272949219,5.7539801597595215,60,6266.0,31.2176513671875,627,9897.0
360,0.28286299109458923,5.952055931091309,98,6266.0,42.31463623046875,867,9897.0
370,0.2837637960910797,6.718326091766357,134,6266.0,48.86738967895508,833,9897.0
380,0.28447601199150085,5.784043312072754,150,6266.0,46.198333740234375,690,9897.0
390,0.2845730781555176,3.779430627822876,133,6266.0,38.55485153198242,554,9897.0
400,0.2845245897769928,1.6073073148727417,66,6266.0,26.841615676879883,261,9897.0
410,0.2844240665435791,1.3801218271255493,17,6266.0,13.047242164611816,1,9897.0
420,0.2843276858329773,-1.211493968963623,-57,6266.0,-2.394956588745117,-95,9897.0
430,0.28573480248451233,-2.7771594524383545,-67,6266.0,-15.567797660827637,-235,9897.0
440,0.28573107719421387,-3.043100357055664,-86,6266.0,-26.740598678588867,-433,9897.0
450,0.2856740951538086,-3.199446439743042,-84,6266.0,-33.51944351196289,-606,9897.0
460,0.28570789098739624,-3.4638400077819824,-94,6266.0,-33.66813659667969,-631,9897.0
470,0.2859271168708801,-0.8050748705863953,-80,6266.0,-33.310279846191406,-391,9897.0
480,0.2862207293510437,-2.271702766418457,-17,6266.0,-25.578702926635742,-362,9897.0
490,0.28643515706062317,-2.802293539047241,13,6266.0,-13.606964111328125,-322,9897.0
500,0.28704115748405457,-1.9546167850494385,50,6266.0,-2.8468165397644043,-31,9897.0
510,0.2868364453315735,-2.650465250015259,29,6266.0,5.34926176071167,256,9897.0
520,0.2872983515262604,-0.1673995703458786,-35,6266.0,15.375133514404297,308,9897.0
530,0.2873806059360504,-2.211503267288208,-103,6266.0,22.915374755859375,369,9897.0
540,0.28746819496154785,-1.9172803163528442,-118,6266.0,24.58359718322754,498,9897.0
550,0.28810355067253113,-2.7071468830108643,-81,6266.0,31.094650268554688,468,9897.0
560,0.2893524169921875,0.5901718139648438,-38,6266.0,27.380342483520508,410,9897.0
570,0.2893611788749695,-1.0602986812591553,53,6266.0,28.68479347229004,367,9897.0
580,0.2902221083641052,1.5389043092727661,94,6266.0,23.244470596313477,329,9897.0
590,0.29077643156051636,3.397505044937134,126,6266.0,19.348684310913086,263,9897.0
600,0.2914639115333557,6.306312084197998,36,6266.0,15.697259902954102,310,9897.0
610,0.29176992177963257,5.979120254516602,27,6266.0,8.216056823730469,264,9897.0
620,0.29235315322875977,6.3547282218933105,64,6266.0,6.484458923339844,150,9897.0
630,0.293014258146286,7.24464750289917,68,6266.0,3.476886510848999,71,9897.0
640,0.29359596967697144,5.908988952636719,79,6266.0,-0.25387683510780334,-73,9897.0
650,0.2948620319366455,7.519331455230713,150,6266.0,-4.883323669433594,-67,9897.0
660,0.29531100392341614,4.806639671325684,35,6266.0,-2.665498971939087,-140,9897.0
670,0.2957536280155182,2.8494982719421387,1,6266.0,-3.263758420944214,-230,9897.0
680,0.29622185230255127,0.28187650442123413,87,6266.0,-3.1664555072784424,-250,9897.0
690,0.29611343145370483,1.0773792266845703,20,6266.0,-3.640845775604248,-72,9897.0
700,0.2965928912162781,-1.6548932790756226,-69,6266.0,-5.461545944213867,155,9897.0
710,0.296935498714447,-2.196248769760132,-110,6266.0,-2.251546859741211,85,9897.0
720,0.2973126173019409,-5.521336078643799,-31,6266.0,1.0620269775390625,7,9897.0
730,0.2982088327407837,-2.4007294178009033,13,6266.0,-0.646027147769928,-22,9897.0
740,0.2987361550331116,-1.0049432516098022,-29,6266.0,1.265500545501709,21,9897.0
750,0.2992706298828125,-0.6961460709571838,-23,6266.0,2.6387593746185303,-22,9897.0
760,0.29970720410346985,-1.2364475727081299,40,6266.0,3.216386556625366,-141,9897.0
770,0.30002644658088684,-0.03101089969277382,44,6266.0,1.9810205698013306,70,9897.0
780,0.2977904975414276,1.9635498523712158,-64,6266.0,-1.5906448364257812,133,9897.0
790,0.29783689975738525,3.5742530822753906,-31,6266.0,-3.250006914138794,44,9897.0
800,0.2979266941547394,0.2238302379846573,19,6266.0,-3.8386447429656982,-87,9897.0
810,0.29808753728866577,-2.052630662918091,-25,6266.0,-8.43070125579834,-60,9897.0
820,0.2962561547756195,-2.993565797805786,-77,6266.0,-10.854024887084961,-36,9897.0
830,0.2962796986103058,-3.81953501701355,-111,6266.0,-11.05374526977539,-93,9897.0
840,0.29638898372650146,-3.6428744792938232,80,6266.0,-11.851826667785645,-267,9897.0
850,0.2962750494480133,-3.9951744079589844,-15,6266.0,-14.46669864654541,-282,9897.0
860,0.2960415780544281,-2.4943814277648926,-52,6266.0,-15.2142333984375,-328,9897.0
870,0.29626309871673584,-4.084402561187744,-5,6266.0,-15.620157241821289,-518,9897.0
880,0.29617708921432495,-1.2775434255599976,54,6266.0,-19.49135971069336,-349,9897.0
890,0.2961704432964325,-1.8287577629089355,-26,6266.0,-17.129793167114258,-343,9897.0
900,0.2962009310722351,1.2059251070022583,75,6266.0,-17.686161041259766,-434,9897.0
910,0.29543063044548035,1.405179738998413,22,6266.0,-17.15160369873047,-272,9897.0
920,0.2953943610191345,-3.363757848739624,-47,6266.0,-12.37882137298584,-473,9897.0
930,0.29532212018966675,-1.6805745363235474,97,6266.0,-16.535249710083008,-373,9897.0
940,0.2955342233181,-2.7914509773254395,-26,6266.0,-12.424678802490234,-249,9897.0
950,0.2953309118747711,-1.3763056993484497,59,6266.0,-10.506485939025879,-363,9897.0
960,0.29531392455101013,-0.5234286785125732,34,6266.0,-10.367011070251465,-178,9897.0
970,0.29552435874938965,-0.20529316365718842,-2,6266.0,-6.1272783279418945,-382,9897.0
980,0.2955346703529358,4.476421356201172,151,6266.0,-9.877443313598633,-209,9897.0
990,0.2955664098262787,2.705134630203247,-3,6266.0,-3.629469633102417,-166,9897.0
1000,0.2937084138393402,1.1738183498382568,112,6266.0,-4.24575138092041,-222,9897.0
1010,0.2936622202396393,0.7969066500663757,20,6266.0,-3.0772273540496826,-138,9897.0
1020,0.29365792870521545,1.0693421363830566,106,6266.0,-3.172612428665161,-82,9897.0
1030,0.29373037815093994,0.7507625818252563,15,6266.0,-0.9167442321777344,-63,9897.0
1040,0.2931370735168457,-0.14767810702323914,99,6266.0,2.7656452655792236,-190,9897.0
1050,0.29337823390960693,0.7905709147453308,92,6266.0,1.9335895776748657,65,9897.0
1060,0.2937581539154053,0.048185355961322784,128,6266.0,5.057530879974365,-101,9897.0
1070,0.29419416189193726,2.7548608779907227,48,6266.0,5.293246746063232,43,9897.0
1080,0.29470840096473694,-0.3721051514148712,54,6266.0,7.190572261810303,-16,9897.0
1090,0.29515311121940613,-1.409071922302246,-2,6266.0,7.530982971191406,160,9897.0
1100,0.2955856919288635,-2.566215991973877,33,6266.0,10.777462005615234,19,9897.0
1110,0.29591503739356995,0.19350847601890564,-31,6266.0,8.193087577819824,188,9897.0
1120,0.2961585521697998,-3.7664449214935303,0,6266.0,9.200997352600098,230,9897.0
1130,0.29615363478660583,-2.4028520584106445,-109,6266.0,4.058355331420898,215,9897.0
1140,0.29639971256256104,-3.450364351272583,-90,6266.0,4.0297088623046875,79,9897.0
1150,0.29677054286003113,-2.490767478942871,-123,6266.0,2.277515172958374,183,9897.0
1160,0.2969575524330139,-2.7738022804260254,-56,6266.0,4.3591108322143555,36,9897.0
1170,0.2975194454193115,-2.2903687953948975,-73,6266.0,3.5273096561431885,-53,9897.0
1180,0.29802823066711426,1.9424173831939697,92,6266.0,5.985649108886719,45,9897.0
1190,0.2984183728694916,-2.2859854698181152,35,6266.0,9.532621383666992,29,9897.0
1200,0.2989198863506317,-2.022274971008301,3,6266.0,12.409975051879883,254,9897.0
1210,0.2997506260871887,-2.254457950592041,55,6266.0,15.135696411132812,303,9897.0
1220,0.3005022406578064,2.589723587036133,113,6266.0,15.541190147399902,371,9897.0
1230,0.3009951412677765,1.7461678981781006,45,6266.0,16.295124053955078,340,9897.0
1240,0.3016132116317749,5.475951671600342,-55,6266.0,16.32370948791504,450,9897.0
1250,0.30220577120780945,3.771986722946167,32,6266.0,17.577730178833008,350,9897.0
1260,0.3027695119380951,3.798647165298462,-8,6266.0,15.65593147277832,97,9897.0
1270,0.303419291973114,1.544442057609558,90,6266.0,12.600985527038574,178,9897.0
1280,0.30418097972869873,1.9068660736083984,159,6266.0,9.442476272583008,-37,9897.0
1290,0.3049018979072571,1.7304186820983887,-24,6266.0,8.176669120788574,105,9897.0
1300,0.30576449632644653,3.322531223297119,74,6266.0,1.749739646911621,181,9897.0
1310,0.30641835927963257,1.591962218284607,-25,6266.0,0.4732445180416107,-8,9897.0
1320,0.3072991669178009,2.492018938064575,-37,6266.0,-0.8435108065605164,29,9897.0
1330,0.30808568000793457,3.8443610668182373,124,6266.0,-2.5147078037261963,-53,9897.0
1340,0.3087698221206665,5.255542278289795,154,6266.0,-0.1749369353055954,-207,9897.0
1350,0.30905839800834656,6.316438674926758,158,6266.0,0.1477230191230774,10,9897.0
1360,0.3100070655345917,11.098772048950195,281,6266.0,2.202324867248535,100,9897.0
1370,0.310989111661911,11.907350540161133,145,6266.0,5.101960182189941,177,9897.0
1380,0.3119049668312073,11.639275550842285,95,6266.0,7.194529056549072,215,9897.0
1390,0.31242993474006653,8.861084938049316,39,6266.0,7.637176990509033,266,9897.0
1400,0.31333696842193604,3.290800094604492,55,6266.0,5.709689617156982,47,9897.0
1410,0.3141929507255554,-1.3878144025802612,-79,6266.0,9.908473014831543,-80,9897.0
1420,0.3150675892829895,-4.082019805908203,4,6266.0,3.6773931980133057,23,9897.0
1430,0.3159705102443695,-5.272219657897949,44,6266.0,-0.2338102161884308,-117,9897.0
1440,0.3172907829284668,-8.246062278747559,-100,6266.0,-0.031008167192339897,-88,9897.0
1450,0.3181684911251068,-4.167336463928223,-81,6266.0,-2.433035373687744,27,9897.0
1460,0.31901445984840393,-5.904200077056885,-9,6266.0,-1.0679479837417603,-35,9897.0
1470,0.31981560587882996,-1.022497296333313,-99,6266.0,-2.3224172592163086,-9,9897.0
1480,0.31952768564224243,1.5792111158370972,65,6266.0,-3.3458099365234375,-5,9897.0
1490,0.32008758187294006,5.027982711791992,20,6266.0,0.5381908416748047,141,9897.0
1500,0.32062309980392456,6.118353843688965,-6,6266.0,0.7071109414100647,109,9897.0
1510,0.3210502564907074,1.8694781064987183,-40,6266.0,2.305476665496826,225,9897.0
1520,0.32044652104377747,-1.4121133089065552,-148,6266.0,5.777444362640381,121,9897.0
1530,0.32066407799720764,-3.9838719367980957,-132,6266.0,2.3482515811920166,211,9897.0
1540,0.3208234906196594,-5.9314985275268555,-144,6266.0,0.366474449634552,-27,9897.0
1550,0.3209085166454315,-7.119717121124268,-192,6266.0,-1.1924550533294678,143,9897.0
1560,0.32094281911849976,-5.161410808563232,-86,6266.0,-8.046936988830566,-56,9897.0
1570,0.3200981914997101,-6.625117778778076,-209,6266.0,-6.169950008392334,-52,9897.0
1580,0.31996363401412964,-5.868844032287598,-82,6266.0,-9.62472152709961,-108,9897.0
1590,0.319831907749176,-4.14212703704834,-78,6266.0,-11.028636932373047,-283,9897.0
1600,0.31961461901664734,-3.276644468307495,3,6266.0,-10.833596229553223,-209,9897.0
1610,0.31807953119277954,-0.3469144403934479,153,6266.0,-10.08320140838623,-450,9897.0
1620,0.31769391894340515,0.6929486989974976,84,6266.0,-11.168930053710938,-294,9897.0
1630,0.31723418831825256,2.319974660873413,194,6266.0,-13.894692420959473,-289,9897.0
1640,0.31686222553253174,1.499708652496338,91,6266.0,-10.309099197387695,-129,9897.0
1650,0.31511297821998596,5.909775257110596,-3,6266.0,-12.527780532836914,-44,9897.0
1660,0.3144870400428772,3.8406429290771484,0,6266.0,-7.806243896484375,48,9897.0
1670,0.3138555586338043,2.179619312286377,-26,6266.0,-6.255191802978516,-120,9897.0
1680,0.3133545219898224,2.8983166217803955,-64,6266.0,-6.578824520111084,-151,9897.0
1690,0.3128913342952728,0.3251156210899353,27,6266.0,-9.458648681640625,-210,9897.0
1700,0.3114117383956909,1.7751169204711914,158,6266.0,-12.361132621765137,-264,9897.0
1710,0.3108103573322296,0.09645701944828033,107,6266.0,-11.671236991882324,-266,9897.0
1720,0.3102470934391022,-1.2793208360671997,-121,6266.0,-14.768187522888184,-209,9897.0
1730,0.30962854623794556,-0.9087058901786804,-40,6266.0,-12.837929725646973,-36,9897.0
1740,0.3086898922920227,-0.9505007266998291,-28,6266.0,-11.68559741973877,-149,9897.0
1750,0.3082197308540344,-0.27557557821273804,-30,6266.0,-9.329787254333496,-311,9897.0
1760,0.3079119324684143,-3.818002700805664,-11,6266.0,-5.589597225189209,-189,9897.0
1770,0.3075428605079651,-1.4609766006469727,-15,6266.0,-5.0653252601623535,-14,9897.0
1780,0.3071673512458801,-1.0326186418533325,-6,6266.0,-4.1731791496276855,76,9897.0
1790,0.3073010742664337,0.38132336735725403,-67,6266.0,-1.8165767192840576,-32,9897.0
1800,0.3070778250694275,1.4950363636016846,-42,6266.0,-4.075715065002441,-95,9897.0
1810,0.30691584944725037,0.6276576519012451,32,6266.0,-0.9659984111785889,-101,9897.0
1820,0.3067295253276825,2.2207584381103516,160,6266.0,-2.2174577713012695,81,9897.0
1830,0.3079032301902771,2.030940055847168,52,6266.0,-2.5640664100646973,-22,9897.0
1840,0.30794501304626465,1.433884620666504,-70,6266.0,-4.1134748458862305,10,9897.0
1850,0.3081112205982208,-2.1534693241119385,20,6266.0,-5.830352783203125,-66,9897.0
1860,0.30826789140701294,-1.3321764469146729,-62,6266.0,-3.952320098876953,-36,9897.0
1870,0.30838215351104736,-2.782048463821411,40,6266.0,-1.4734182357788086,-187,9897.0
1880,0.3095727562904358,-3.1134538650512695,23,6266.0,-3.3541324138641357,-105,9897.0
1890,0.3098907768726349,-3.2945103645324707,83,6266.0,1.0936352014541626,-56,9897.0
1900,0.31033486127853394,-2.6976089477539062,66,6266.0,0.1616930514574051,81,9897.0
1910,0.31078261137008667,-1.1124980449676514,-89,6266.0,3.6828930377960205,63,9897.0
1920,0.3111264705657959,-0.9101322293281555,-84,6266.0,4.527735710144043,178,9897.0
1930,0.31186243891716003,-1.5762946605682373,-22,6266.0,10.105202674865723,165,9897.0
1940,0.3125516474246979,-0.5485595464706421,2,6266.0,9.202047348022461,76,9897.0
1950,0.3133142292499542,-2.087080240249634,28,6266.0,11.496740341186523,66,9897.0
1960,0.3127407431602478,-2.5904998779296875,-21,6266.0,14.801657676696777,345,9897.0
1970,0.3133808374404907,-1.9940727949142456,87,6266.0,15.316315650939941,324,9897.0
1980,0.3138316869735718,-1.9338984489440918,-125,6266.0,16.750675201416016,281,9897.0
1990,0.3141809403896332,0.3065582811832428,-131,6266.0,14.912882804870605,393,9897.0
2000,0.31449025869369507,-2.330538749694824,-67,6266.0,15.30933952331543,260,9897.0
2010,0.31497201323509216,-0.6888152956962585,4,6266.0,12.718214988708496,133,9897.0
2020,0.3154422640800476,-1.4431111812591553,10,6266.0,14.145792961120605,10,9897.0
2030,0.31582629680633545,0.07933440804481506,135,6266.0,10.382526397705078,202,9897.0
2040,0.3162911832332611,-1.3372440338134766,120,6266.0,10.532769203186035,63,9897.0
2050,0.316474974155426,3.4433164596557617,-61,6266.0,5.269946098327637,219,9897.0
2060,0.3169117271900177,3.9420785903930664,-17,6266.0,4.02901029586792,255,9897.0
2070,0.31733033061027527,5.813186168670654,66,6266.0,4.304559230804443,102,9897.0
2080,0.3177904486656189,6.929718017578125,67,6266.0,3.635049343109131,-33,9897.0
2090,0.3181878924369812,5.853391647338867,141,6266.0,3.790822744369507,36,9897.0
2100,0.31868672370910645,6.547921180725098,235,6266.0,2.0428290367126465,-66,9897.0
2110,0.3191699981689453,3.6104726791381836,103,6266.0,4.1825456619262695,-40,9897.0
2120,0.31948137283325195,3.7256507873535156,34,6266.0,2.55945086479187,143,9897.0
2130,0.31965580582618713,0.7396083474159241,73,6266.0,3.7582037448883057,138,9897.0
2140,0.31938108801841736,1.5901223421096802,-67,6266.0,3.325207471847534,139,9897.0
2150,0.31922146677970886,2.5562639236450195,-25,6266.0,1.916200876235962,196,9897.0
2160,0.31900811195373535,1.4399663209915161,-14,6266.0,2.1775684356689453,156,9897.0
2170,0.3188004195690155,2.544966220855713,-12,6266.0,-0.0704377293586731,-12,9897.0
2180,0.31987476348876953,-2.461904764175415,-110,6266.0,0.7708107233047485,11,9897.0
2190,0.3198254406452179,-0.9693654775619507,63,6266.0,-1.7631582021713257,-93,9897.0
2200,0.3197595179080963,-3.9292409420013428,7,6266.0,-2.2928242683410645,-277,9897.0
2210,0.3196406960487366,-2.2868103981018066,25,6266.0,-5.086502552032471,-94,9897.0
2220,0.3194608688354492,-1.807409644126892,20,6266.0,-4.920253276824951,-74,9897.0
2230,0.3186178207397461,-3.777092456817627,-61,6266.0,-4.899559497833252,-93,9897.0
2240,0.31824004650115967,-0.3124670684337616,-87,6266.0,-6.192755222320557,-33,9897.0
2250,0.3178056478500366,-3.3599026203155518,-39,6266.0,-4.3285675048828125,76,9897.0
2260,0.3174496293067932,0.1511211097240448,-81,6266.0,-4.444972038269043,-81,9897.0
2270,0.3162534534931183,-0.751183271408081,-54,6266.0,-2.413593053817749,-106,9897.0
2280,0.31577426195144653,-0.08507635444402695,62,6266.0,-4.2138895988464355,-117,9897.0
2290,0.3153657615184784,-0.612047016620636,95,6266.0,-3.693535089492798,-279,9897.0
2300,0.3149537146091461,-2.144960403442383,-27,6266.0,-7.353393077850342,-50,9897.0
2310,0.31429195404052734,-2.41115665435791,50,6266.0,-7.265902519226074,-48,9897.0
2320,0.313747763633728,-2.2793967723846436,-57,6266.0,-3.2298800945281982,36,9897.0
2330,0.3132975995540619,-0.10054747760295868,-112,6266.0,-6.690067768096924,-42,9897.0
2340,0.3128763437271118,-0.6295859813690186,-96,6266.0,-4.236473083496094,71,9897.0
2350,0.3124399483203888,-2.124508857727051,19,6266.0,-2.021604061126709,-142,9897.0
2360,0.31242087483406067,-1.8126161098480225,48,6266.0,-3.180016040802002,-146,9897.0
2370,0.31208276748657227,-0.724489688873291,-13,6266.0,-0.5274772644042969,-13,9897.0
2380,0.31171074509620667,3.0915849208831787,61,6266.0,-4.065695762634277,115,9897.0
2390,0.31123045086860657,2.9843547344207764,-24,6266.0,-1.961217999458313,-21,9897.0
2400,0.3120030462741852,6.213278293609619,31,6266.0,-7.961259365081787,-100,9897.0
2410,0.31168073415756226,4.481531143188477,38,6266.0,-8.799403190612793,-159,9897.0
2420,0.3113863170146942,5.7041473388671875,208,6266.0,-5.5479416847229,-155,9897.0
2430,0.3110150396823883,2.4616072177886963,146,6266.0,-3.2307684421539307,-174,9897.0
2440,0.310608834028244,2.0908427238464355,-72,6266.0,-8.665969848632812,-54,9897.0
2450,0.310929536819458,-0.8098543286323547,-130,6266.0,-4.020299434661865,139,9897.0
2460,0.31079426407814026,-0.9822100400924683,-76,6266.0,-1.4824575185775757,35,9897.0
2470,0.31067249178886414,-1.0862841606140137,3,6266.0,-1.4940054416656494,-35,9897.0
2480,0.3105454444885254,-2.5991764068603516,9,6266.0,2.132660150527954,-159,9897.0
2490,0.31146249175071716,-0.14456233382225037,27,6266.0,4.196975231170654,93,9897.0
2500,0.3115088939666748,-0.07237960398197174,24,6266.0,5.410059928894043,181,9897.0
2510,0.3115614056587219,-1.2792677879333496,-29,6266.0,2.450207233428955,165,9897.0
2520,0.31158190965652466,0.8886178731918335,-99,6266.0,0.2480768859386444,82,9897.0
2530,0.3137039542198181,0.3023573160171509,-32,6266.0,1.8277026414871216,117,9897.0
2540,0.3139672875404358,-1.886382818222046,-37,6266.0,2.5987768173217773,-89,9897.0
2550,0.3141949474811554,-2.701342821121216,-17,6266.0,1.1266437768936157,-185,9897.0
2560,0.31441497802734375,-2.560936689376831,-36,6266.0,1.5903936624526978,-5,9897.0
2570,0.31459566950798035,-0.7792919874191284,33,6266.0,-1.060800552368164,139,9897.0
2580,0.31611523032188416,-0.8721264600753784,-2,6266.0,0.7989502549171448,111,9897.0
2590,0.3165188431739807,-0.338269978761673,-59,6266.0,2.6293787956237793,60,9897.0
2600,0.31686824560165405,1.2394717931747437,-73,6266.0,6.9941840171813965,77,9897.0
2610,0.31713539361953735,0.6266414523124695,64,6266.0,10.168313980102539,200,9897.0
2620,0.3176521360874176,3.7301974296569824,155,6266.0,8.952625274658203,16,9897.0
2630,0.31795066595077515,1.6649181842803955,70,6266.0,9.637831687927246,142,9897.0
2640,0.3181952238082886,0.2670063376426697,-71,6266.0,6.923468112945557,177,9897.0
2650,0.31838908791542053,-1.5799678564071655,-4,6266.0,8.5201416015625,304,9897.0
2660,0.31858837604522705,-2.8384220600128174,-108,6266.0,5.809581279754639,118,9897.0
2670,0.31936416029930115,-2.844942331314087,-101,6266.0,5.330417156219482,13,9897.0
2680,0.31953486800193787,-3.6467111110687256,-30,6266.0,2.4203221797943115,11,9897.0
2690,0.31967267394065857,-2.0534472465515137,127,6266.0,1.540485143661499,-7,9897.0
2700,0.3198631703853607,-0.18938256800174713,30,6266.0,-0.6493193507194519,-81,9897.0
2710,0.3188789188861847,2.36505389213562,8,6266.0,-3.4983022212982178,63,9897.0
2720,0.31895726919174194,3.479156970977783,84,6266.0,-3.0295262336730957,55,9897.0
2730,0.318970650434494,5.68517541885376,58,6266.0,-0.24369041621685028,-4,9897.0
2740,0.3190329968929291,5.981242656707764,34,6266.0,2.244558572769165,-83,9897.0
2750,0.32134583592414856,2.6834402084350586,99,6266.0,3.138866901397705,46,9897.0
2760,0.32150471210479736,2.438934087753296,176,6266.0,5.496262073516846,-54,9897.0
2770,0.3215964436531067,-0.09469493478536606,125,6266.0,5.122377395629883,-38,9897.0
2780,0.3217090368270874,2.9304327964782715,23,6266.0,2.6996374130249023,68,9897.0
2790,0.3218701481819153,0.22027164697647095,10,6266.0,3.181931734085083,240,9897.0
2800,0.3200318217277527,-0.2808525860309601,-124,6266.0,4.639670372009277,109,9897.0
2810,0.31995531916618347,-0.03855220973491669,-150,6266.0,-3.5006024837493896,52,9897.0
2820,0.3199291229248047,-4.834964752197266,-170,6266.0,1.4554089307785034,53,9897.0
2830,0.3198288679122925,-3.6561405658721924,-71,6266.0,-3.114518404006958,-140,9897.0
2840,0.32053694128990173,-3.645045280456543,-46,6266.0,-0.45864608883857727,-265,9897.0
2850,0.3203829526901245,-3.2631194591522217,51,6266.0,-1.9227238893508911,-5,9897.0
2860,0.32025599479675293,0.1896122246980667,136,6266.0,-3.915238618850708,-80,9897.0
2870,0.32008254528045654,-0.21721765398979187,33,6266.0,-1.682555913925171,-11,9897.0
2880,0.3199580907821655,2.177314281463623,-80,6266.0,-3.425196409225464,7,9897.0
2890,0.32027581334114075,1.8575561046600342,-22,6266.0,-3.3296010494232178,160,9897.0
2900,0.32017937302589417,2.3025224208831787,-15,6266.0,-3.3769562244415283,-42,9897.0
2910,0.3200204372406006,0.14820316433906555,-48,6266.0,-1.8382108211517334,-87,9897.0
2920,0.319794237613678,-1.3459068536758423,28,6266.0,-3.304542303085327,-11,9897.0
2930,0.3185338079929352,-1.164276361465454,126,6266.0,-2.9911675453186035,-204,9897.0
2940,0.31813135743141174,-3.2237300872802734,-30,6266.0,-1.787227988243103,-73,9897.0
2950,0.31763163208961487,-1.8138868808746338,-73,6266.0,-3.064171552658081,75,9897.0
2960,0.3171955943107605,-2.035101890563965,-53,6266.0,-3.6594879627227783,61,9897.0
2970,0.3176635205745697,-1.5041823387145996,-84,6266.0,-5.626868724822998,-82,9897.0
2980,0.31733012199401855,-0.9892101883888245,-98,6266.0,-5.2515668869018555,-29,9897.0
2990,0.3169128894805908,-0.46679776906967163,26,6266.0,-4.3362321853637695,-61,9897.0
3000,0.316479355096817,-0.13487841188907623,104,6266.0,-2.681243658065796,-111,9897.0
3010,0.3161400854587555,-0.8752257227897644,21,6266.0,-0.5382929444313049,-51,9897.0
3020,0.31743696331977844,3.462909698486328,-45,6266.0,-0.695602536201477,152,9897.0
3030,0.3172279894351959,3.128920793533325,-22,6266.0,-0.9905082583427429,126,9897.0
3040,0.31709024310112,1.6963735818862915,-22,6266.0,0.6262439489364624,-72,9897.0
3050,0.3170798420906067,0.5316171050071716,-7,6266.0,-1.0264124870300293,-141,9897.0
3060,0.31745392084121704,2.106778621673584,66,6266.0,-5.38087797164917,-103,9897.0
3070,0.3173633813858032,3.341299295425415,103,6266.0,-3.3661186695098877,-107,9897.0
3080,0.31732162833213806,2.2558135986328125,2,6266.0,1.2937355041503906,18,9897.0
3090,0.31738072633743286,1.7504345178604126,-126,6266.0,-4.177820682525635,104,9897.0
3100,0.31745854020118713,0.6341015100479126,-98,6266.0,-3.1754698753356934,11,9897.0
3110,0.31601881980895996,-0.6096901893615723,29,6266.0,-1.8205645084381104,-2,9897.0
3120,0.3159066140651703,-0.07707927376031876,34,6266.0,-0.8575007319450378,-146,9897.0
3130,0.3158103823661804,-0.7916945815086365,4,6266.0,-0.06522298604249954,-87,9897.0
3140,0.31566160917282104,-0.26744571328163147,18,6266.0,-2.429912805557251,57,9897.0
3150,0.3144603371620178,0.5043225884437561,72,6266.0,1.3918055295944214,162,9897.0
3160,0.3142627477645874,1.1772257089614868,-52,6266.0,1.7354235649108887,81,9897.0
3170,0.31417325139045715,1.6794748306274414,-89,6266.0,3.940687417984009,60,9897.0
3180,0.3140777349472046,-0.4480164647102356,-31,6266.0,3.949582576751709,68,9897.0
3190,0.31432902812957764,-0.22996164858341217,97,6266.0,4.853120803833008,12,9897.0
3200,0.3141757547855377,-0.4942445456981659,85,6266.0,5.94647741317749,32,9897.0
3210,0.31415295600891113,1.6789628267288208,96,6266.0,2.3239076137542725,0,9897.0
3220,0.31418123841285706,1.1153899431228638,86,6266.0,-1.908341884613037,99,9897.0
3230,0.3141804337501526,-1.64646577835083,-47,6266.0,0.1505376696586609,-18,9897.0
3240,0.3149273693561554,-1.2208561897277832,-17,6266.0,0.7987117767333984,72,9897.0
3250,0.3150886297225952,-3.664809226989746,-79,6266.0,1.0947455167770386,-23,9897.0
3260,0.3152787387371063,-1.6860861778259277,94,6266.0,1.1850136518478394,-27,9897.0
3270,0.31540730595588684,-1.8054132461547852,72,6266.0,-0.3939454257488251,-149,9897.0
3280,0.31452032923698425,-1.458921194076538,-41,6266.0,-0.5741727948188782,86,9897.0
3290,0.31462571024894714,-0.8806707262992859,-47,6266.0,1.4133833646774292,174,9897.0
3300,0.31487104296684265,-2.1724631786346436,-44,6266.0,4.479739189147949,206,9897.0
3310,0.31515225768089294,-1.2675821781158447,-79,6266.0,3.4087326526641846,17,9897.0
3320,0.3153511583805084,0.07265695184469223,-31,6266.0,7.645177364349365,31,9897.0
3330,0.3170011043548584,-0.2294989824295044,63,6266.0,5.918224334716797,113,9897.0
3340,0.3172793388366699,0.14784714579582214,192,6266.0,4.1152567863464355,32,9897.0
3350,0.3175010085105896,-0.035073112696409225,-7,6266.0,2.921522617340088,53,9897.0
3360,0.31762298941612244,1.988723635673523,-88,6266.0,0.6305596828460693,117,9897.0
3370,0.3170485198497772,1.4372199773788452,-60,6266.0,1.7573482990264893,205,9897.0
3380,0.31720975041389465,2.161299705505371,59,6266.0,2.3699374198913574,-24,9897.0
3390,0.31727826595306396,1.5091826915740967,59,6266.0,1.4384818077087402,-116,9897.0
3400,0.317222535610199,1.8350775241851807,74,6266.0,0.22209210693836212,-21,9897.0
3410,0.31934136152267456,1.6258702278137207,112,6266.0,-2.273878574371338,-2,9897.0
3420,0.31937476992607117,1.8824046850204468,55,6266.0,3.1712074279785156,118,9897.0
3430,0.31945663690567017,2.076869249343872,-102,6266.0,3.1332218647003174,208,9897.0
3440,0.31951871514320374,3.1158454418182373,-67,6266.0,3.096588611602783,138,9897.0
3450,0.31963300704956055,0.3068292438983917,28,6266.0,2.582608938217163,82,9897.0
3460,0.31916502118110657,0.12700766324996948,1,6266.0,3.513826847076416,-146,9897.0
3470,0.319271445274353,-0.07710079848766327,13,6266.0,5.49860954284668,-47,9897.0
3480,0.31932052969932556,0.7938656806945801,74,6266.0,0.744682788848877,21,9897.0
3490,0.31944194436073303,1.020537257194519,102,6266.0,0.07366009801626205,65,9897.0
3500,0.3196931779384613,0.4584393799304962,-67,6266.0,1.69595468044281,16,9897.0
3510,0.319679319858551,0.7796911597251892,-90,6266.0,-0.4914295971393585,173,9897.0
3520,0.3196539282798767,-2.0032453536987305,-94,6266.0,1.8315351009368896,114,9897.0
3530,0.3196468949317932,-1.467827320098877,-38,6266.0,-1.7063864469528198,-145,9897.0
3540,0.3195560872554779,-3.938843011856079,-88,6266.0,-0.22406861186027527,-102,9897.0
3550,0.31915897130966187,-0.6825568079948425,59,6266.0,-3.0405383110046387,-132,9897.0
3560,0.3188658058643341,0.12232457101345062,116,6266.0,-3.3445017337799072,-85,9897.0
3570,0.31858712434768677,0.998930037021637,1,6266.0,-4.7729997634887695,-89,9897.0
3580,0.3183717727661133,1.730924367904663,-75,6266.0,-3.712596893310547,58,9897.0
3590,0.31848323345184326,1.030112385749817,-34,6266.0,-1.6045831441879272,98,9897.0
3600,0.31824254989624023,-0.48728013038635254,-42,6266.0,2.5605435371398926,10,9897.0
3610,0.3180554509162903,-0.3700655996799469,-93,6266.0,1.3223414421081543,-169,9897.0
3620,0.31781989336013794,-0.13876327872276306,51,6266.0,2.779017448425293,-23,9897.0
3630,0.31847381591796875,0.29538556933403015,102,6266.0,0.6795178055763245,-36,9897.0
3640,0.31831595301628113,-0.8765266537666321,41,6266.0,1.2561911344528198,-13,9897.0
3650,0.3182411789894104,0.06596527993679047,-103,6266.0,0.23519442975521088,116,9897.0
3660,0.3181289732456207,-0.16004718840122223,-22,6266.0,-2.892085552215576,58,9897.0
3670,0.3179473280906677,1.2203621864318848,20,6266.0,-2.2276880741119385,-45,9897.0
3680,0.3193529546260834,0.21887286007404327,16,6266.0,-1.5918467044830322,-282,9897.0
3690,0.31924766302108765,-0.4168739318847656,50,6266.0,-3.526719093322754,-170,9897.0
3700,0.3190906345844269,0.9399769902229309,-6,6266.0,-4.469088077545166,-1,9897.0
3710,0.31891196966171265,-1.9799466133117676,19,6266.0,-7.515347480773926,-50,9897.0
3720,0.3188351094722748,-0.5793684124946594,-83,6266.0,-8.647462844848633,-56,9897.0
3730,0.31872689723968506,-1.0791605710983276,-124,6266.0,-4.775618076324463,-120,9897.0
3740,0.3185759484767914,0.3968704044818878,30,6266.0,-5.742298603057861,-48,9897.0
3750,0.31835296750068665,0.01563194952905178,95,6266.0,-4.113015174865723,-118,9897.0
3760,0.3181289732456207,1.6858494281768799,133,6266.0,-1.277608036994934,-109,9897.0
3770,0.3183434307575226,2.3186395168304443,-58,6266.0,-1.6323347091674805,40,9897.0
3780,0.3182852864265442,1.0259374380111694,-9,6266.0,0.7465375065803528,185,9897.0
3790,0.3182406723499298,1.7276297807693481,-38,6266.0,2.438058853149414,159,9897.0
3800,0.3181973099708557,-0.16338621079921722,-35,6266.0,7.038626194000244,12,9897.0
3810,0.3177134096622467,1.5541973114013672,-22,6266.0,1.1967110633850098,-44,9897.0
3820,0.3177111744880676,-1.1063002347946167,37,6266.0,-0.37830132246017456,-42,9897.0
3830,0.31768062710762024,-0.9734698534011841,117,6266.0,-2.1997976303100586,-63,9897.0
3840,0.31771984696388245,-0.442929208278656,-33,6266.0,-2.022413969039917,-1,9897.0
3850,0.31866970658302307,1.9699324369430542,-103,6266.0,-3.498511552810669,94,9897.0
3860,0.3188948631286621,0.807566225528717,-98,6266.0,-4.664058208465576,73,9897.0
3870,0.3190785050392151,-0.7480490207672119,36,6266.0,-2.944152355194092,-121,9897.0
3880,0.3192347288131714,1.2104790210723877,-96,6266.0,-0.3817782402038574,21,9897.0
3890,0.31945329904556274,-1.8256052732467651,21,6266.0,3.1084935665130615,-13,9897.0
3900,0.3191405236721039,-0.388479083776474,109,6266.0,2.6982522010803223,-35,9897.0
3910,0.31929802894592285,-1.7523659467697144,78,6266.0,4.1395487785339355,-17,9897.0
3920,0.3194010257720947,-0.6696938872337341,-99,6266.0,4.332869052886963,179,9897.0
3930,0.31952065229415894,0.5425781011581421,-114,6266.0,3.8169496059417725,236,9897.0
3940,0.3193643093109131,-1.3188817501068115,-60,6266.0,2.9253525733947754,188,9897.0
3950,0.31931832432746887,-1.4868006706237793,-76,6266.0,7.255687236785889,32,9897.0
3960,0.3192085325717926,-2.6391513347625732,-68,6266.0,2.5298972129821777,-93,9897.0
3970,0.31913748383522034,-1.8559943437576294,14,6266.0,1.7306267023086548,67,9897.0
3980,0.3191384971141815,-1.1083120107650757,162,6266.0,2.5223522186279297,46,9897.0
3990,0.3198918402194977,0.011417288333177567,-63,6266.0,1.3291364908218384,113,9897.0
4000,0.31995224952697754,4.366549015045166,-56,6266.0,0.4942704141139984,124,9897.0
4010,0.3200959861278534,3.1324496269226074,0,6266.0,-1.0116914510726929,151,9897.0
4020,0.3202973008155823,2.4947245121002197,94,6266.0,2.681366443634033,-12,9897.0
4030,0.3195536434650421,2.975994825363159,86,6266.0,3.386705160140991,-124,9897.0
4040,0.3196599781513214,1.1641205549240112,37,6266.0,5.9482927322387695,33,9897.0
4050,0.3198510706424713,3.2043285369873047,53,6266.0,2.320310115814209,153,9897.0
4060,0.32007142901420593,0.2422032356262207,-8,6266.0,2.973505973815918,122,9897.0
4070,0.3205391466617584,-0.9173223972320557,-98,6266.0,1.6958394050598145,-3,9897.0
4080,0.32063785195350647,-2.663203001022339,-155,6266.0,-0.7952753305435181,17,9897.0
4090,0.3207411468029022,-3.100172281265259,-16,6266.0,-3.8089401721954346,-96,9897.0
4100,0.3208637535572052,-1.199707269668579,71,6266.0,-0.11949604749679565,-98,9897.0
4110,0.32093143463134766,-1.2913963794708252,27,6266.0,0.25084802508354187,-95,9897.0
4120,0.3205886781215668,-0.19146952033042908,-16,6266.0,2.316879987716675,150,9897.0
4130,0.320584237575531,-0.14933325350284576,-4,6266.0,3.4197089672088623,160,9897.0
4140,0.32053709030151367,-0.25516217947006226,-90,6266.0,3.8752686977386475,88,9897.0
4150,0.3203922212123871,0.5786697268486023,-137,6266.0,4.493732929229736,40,9897.0
4160,0.32050585746765137,-1.8924846649169922,-67,6266.0,3.82155442237854,55,9897.0
4170,0.32032880187034607,-0.3025827407836914,71,6266.0,1.1259008646011353,-44,9897.0
4180,0.3201671242713928,-0.18832263350486755,103,6266.0,0.2172257900238037,-136,9897.0
4190,0.31998521089553833,-0.8188419342041016,-58,6266.0,0.0437898188829422,125,9897.0
4200,0.3198574483394623,0.9878561496734619,-34,6266.0,-4.169783592224121,42,9897.0
4210,0.31977325677871704,0.5077952742576599,-34,6266.0,-3.4564943313598633,86,9897.0
4220,0.3197033405303955,0.08037711679935455,-57,6266.0,-2.1117804050445557,-139,9897.0
4230,0.3195938766002655,-1.0127754211425781,-73,6266.0,2.790156841278076,-125,9897.0
4240,0.31945863366127014,-0.8094276189804077,41,6266.0,-2.0694382190704346,-48,9897.0
4250,0.32039785385131836,-0.6708991527557373,142,6266.0,-0.912109375,-5,9897.0
4260,0.32038798928260803,0.22401762008666992,-18,6266.0,1.8390676975250244,113,9897.0
4270,0.3203155994415283,2.669494390487671,-137,6266.0,1.6477233171463013,133,9897.0
4280,0.32018065452575684,0.28523939847946167,-48,6266.0,0.9409815073013306,163,9897.0
4290,0.3208147883415222,-0.0974707081913948,20,6266.0,0.7936338782310486,-45,9897.0
4300,0.32073134183883667,0.4178396761417389,43,6266.0,-0.9726245403289795,-204,9897.0
4310,0.3206014633178711,-3.208730459213257,-35,6266.0,-2.011215925216675,-68,9897.0
4320,0.32038614153862,-0.7243955135345459,26,6266.0,-4.729329586029053,-22,9897.0
4330,0.3202081620693207,-1.4308266639709473,-7,6266.0,-3.465589761734009,77,9897.0
4340,0.3211619257926941,-2.0315029621124268,-106,6266.0,-1.6819183826446533,-11,9897.0
4350,0.32100048661231995,-0.36219578981399536,-70,6266.0,-3.231314182281494,-36,9897.0
4360,0.3207490146160126,-2.3153538703918457,13,6266.0,-5.757832050323486,-52,9897.0
4370,0.32056310772895813,-0.21728868782520294,135,6266.0,-0.9108898639678955,-106,9897.0
4380,0.3207014203071594,-0.23368492722511292,119,6266.0,4.256235122680664,30,9897.0
4390,0.3206353783607483,2.2842605113983154,-38,6266.0,1.6619434356689453,69,9897.0
4400,0.3205377757549286,1.6856458187103271,-28,6266.0,3.992588996887207,180,9897.0
4410,0.32044121623039246,4.034972190856934,17,6266.0,4.8400044441223145,148,9897.0
4420,0.32040664553642273,3.101698160171509,89,6266.0,3.0229549407958984,-60,9897.0
4430,0.319836288690567,2.248494863510132,54,6266.0,3.398399591445923,-131,9897.0
4440,0.31981098651885986,1.0969394445419312,58,6266.0,1.521741271018982,-128,9897.0
4450,0.31980717182159424,-0.3646770715713501,77,6266.0,-1.4739303588867188,72,9897.0
4460,0.31988880038261414,-0.5148411393165588,-5,6266.0,-2.580613851547241,0,9897.0
4470,0.32003718614578247,-0.7713218927383423,-85,6266.0,-6.177286148071289,-77,9897.0
4480,0.32008758187294006,-1.0581663846969604,-62,6266.0,-3.4332313537597656,-62,9897.0
4490,0.3201797902584076,0.16705071926116943,57,6266.0,-4.339008331298828,-79,9897.0
4500,0.3203478455543518,0.8964585661888123,148,6266.0,-1.0579477548599243,-112,9897.0
4510,0.32031598687171936,-0.4348268210887909,24,6266.0,-1.8135541677474976,-79,9897.0
4520,0.32045307755470276,-1.7887200117111206,-121,6266.0,-2.8940489292144775,107,9897.0
4530,0.32059580087661743,-2.599172830581665,-147,6266.0,3.706291437149048,225,9897.0
4540,0.3207882046699524,-2.5214381217956543,-65,6266.0,4.484129905700684,75,9897.0
4550,0.3209383487701416,0.3849634826183319,-7,6266.0,2.747246742248535,66,9897.0
4560,0.32133373618125916,-0.3060869872570038,-49,6266.0,5.491267681121826,121,9897.0
4570,0.3212875425815582,0.8460486531257629,53,6266.0,8.4170560836792,108,9897.0
4580,0.3212890326976776,1.2725889682769775,106,6266.0,4.4941606521606445,-139,9897.0
4590,0.32126325368881226,0.850131094455719,5,6266.0,1.7489373683929443,60,9897.0
4600,0.32145071029663086,2.2962396144866943,-2,6266.0,-0.3350452780723572,115,9897.0
4610,0.3213421404361725,1.2372347116470337,27,6266.0,-3.885742425918579,62,9897.0
4620,0.32125699520111084,1.5606896877288818,-26,6266.0,-1.2202061414718628,-33,9897.0
4630,0.32116591930389404,2.7802209854125977,-35,6266.0,-3.3092503547668457,-148,9897.0
4640,0.32181790471076965,1.5413742065429688,63,6266.0,-2.946962833404541,-72,9897.0
4650,0.321796715259552,-0.6619684100151062,111,6266.0,0.4321563243865967,19,9897.0
4660,0.3218585252761841,-1.1458156108856201,58,6266.0,2.278298854827881,51,9897.0
4670,0.32193514704704285,1.3951416015625,-108,6266.0,1.784421682357788,54,9897.0
4680,0.3219999074935913,0.7757939696311951,-113,6266.0,2.3856725692749023,143,9897.0
4690,0.3236561715602875,-0.8188034296035767,-30,6266.0,2.515519142150879,122,9897.0
4700,0.3238776922225952,-0.8245292901992798,20,6266.0,-0.4879166781902313,-115,9897.0
4710,0.32408106327056885,-1.6553096771240234,59,6266.0,-0.11205088347196579,-140,9897.0
4720,0.3242103159427643,-1.2649178504943848,-49,6266.0,-0.37610340118408203,16,9897.0
4730,0.3233932554721832,-1.0184547901153564,54,6266.0,-0.06497356295585632,135,9897.0
4740,0.32345902919769287,-0.42413488030433655,-24,6266.0,-1.1881446838378906,119,9897.0
4750,0.32349589467048645,-0.7613714337348938,-87,6266.0,-0.1001676470041275,57,9897.0
4760,0.32343652844429016,-1.9456037282943726,-117,6266.0,1.9060566425323486,71,9897.0
4770,0.3233254849910736,-2.62399959564209,-11,6266.0,3.623945713043213,12,9897.0
4780,0.3235446810722351,-0.8226322531700134,138,6266.0,3.553514003753662,9,9897.0
4790,0.32355183362960815,-1.3432552814483643,81,6266.0,1.2263461351394653,-81,9897.0
4800,0.3235606551170349,3.227222442626953,6,6266.0,-3.6578853130340576,31,9897.0
4810,0.32352688908576965,2.156425714492798,40,6266.0,-3.5722200870513916,117,9897.0
4820,0.32531318068504333,2.2504920959472656,42,6266.0,-3.850785493850708,-56,9897.0
4830,0.32545584440231323,1.5368232727050781,-38,6266.0,-2.443908929824829,-116,9897.0
4840,0.32558107376098633,-0.24371366202831268,-73,6266.0,3.7142841815948486,-114,9897.0
4850,0.3257136940956116,0.4649495482444763,79,6266.0,1.6356725692749023,-54,9897.0
4860,0.3240085244178772,-0.90269535779953,99,6266.0,1.2189514636993408,-29,9897.0
4870,0.32415345311164856,-1.5633604526519775,-28,6266.0,-0.3531736135482788,-12,9897.0
4880,0.3242095112800598,-0.17214713990688324,-60,6266.0,-0.09042803943157196,172,9897.0
4890,0.32414400577545166,-2.1656501293182373,-52,6266.0,1.710908055305481,205,9897.0
4900,0.3241177797317505,0.6672684550285339,-40,6266.0,-0.5884436964988708,-8,9897.0
4910,0.32369178533554077,0.2006075233221054,-61,6266.0,-1.2349168062210083,-144,9897.0
4920,0.3236441910266876,-0.18602189421653748,2,6266.0,0.328937828540802,-96,9897.0
4930,0.32356733083724976,0.36258992552757263,92,6266.0,-1.5904237031936646,-7,9897.0
4940,0.3235499858856201,-0.7475845813751221,69,6266.0,-0.6819130182266235,-22,9897.0
4950,0.3225194811820984,1.5653355121612549,-84,6266.0,-3.433903455734253,32,9897.0
4960,0.3223873972892761,1.6947369575500488,-105,6266.0,-1.4372552633285522,133,9897.0
4970,0.3222402334213257,0.44779738783836365,-11,6266.0,-1.9348177909851074,10,9897.0
4980,0.32214948534965515,2.203451633453369,3,6266.0,-2.312386989593506,-113,9897.0
4990,0.3220479190349579,-0.05491980165243149,33,6266.0,2.0567221641540527,-149,9897.0
5000,0.32188931107521057,-0.8288254737854004,64,6266.0,1.623233675956726,25,9897.0
5010,0.32174959778785706,0.9145437479019165,93,6266.0,0.8027064204216003,118,9897.0
5020,0.32163169980049133,1.2273658514022827,-5,6266.0,0.4747479259967804,126,9897.0
5030,0.32158324122428894,1.691428542137146,-98,6266.0,0.3859681189060211,52,9897.0
5040,0.3212040960788727,0.8170024156570435,-67,6266.0,0.7008905410766602,-100,9897.0
5050,0.32103806734085083,0.3070175349712372,79,6266.0,-0.33286070823669434,-101,9897.0
5060,0.3209596574306488,0.5252635478973389,113,6266.0,-0.7390666604042053,-137,9897.0
5070,0.3208938539028168,-0.5256162881851196,10,6266.0,-6.030206203460693,-101,9897.0
5080,0.320846289396286,-0.8181594610214233,-80,6266.0,-2.6278915405273438,58,9897.0
5090,0.32067349553108215,-1.3513344526290894,-28,6266.0,-6.198696613311768,38,9897.0
5100,0.3205784857273102,-1.111649751663208,20,6266.0,-6.2844557762146,-95,9897.0
5110,0.32053014636039734,-0.15911507606506348,-8,6266.0,-1.914014458656311,-154,9897.0
5120,0.3204059600830078,-0.5465825200080872,21,6266.0,0.7733004689216614,-136,9897.0
5130,0.31966471672058105,0.38960596919059753,50,6266.0,0.33021852374076843,63,9897.0
5140,0.3195105791091919,-0.2435133457183838,88,6266.0,2.643740177154541,165,9897.0
5150,0.3193817436695099,1.3133448362350464,-74,6266.0,4.290965557098389,148,9897.0
5160,0.31918689608573914,3.732827663421631,-103,6266.0,3.3578412532806396,73,9897.0
5170,0.3210054337978363,0.6310611963272095,-58,6266.0,4.7060322761535645,-90,9897.0
5180,0.3209758698940277,-0.535840630531311,15,6266.0,3.638957977294922,-16,9897.0
5190,0.321003794670105,-1.0215928554534912,50,6266.0,0.7157225608825684,88,9897.0
5200,0.32100245356559753,-1.4671528339385986,10,6266.0,-0.24883492290973663,-8,9897.0
5210,0.32092365622520447,0.8213115334510803,-4,6266.0,-3.206223487854004,91,9897.0
5220,0.3216981589794159,-0.8113941550254822,29,6266.0,-0.7357805967330933,98,9897.0
5230,0.3217896819114685,2.1482598781585693,4,6266.0,-0.6180931329727173,-38,9897.0
5240,0.3219248354434967,2.100353717803955,-19,6266.0,1.1718560457229614,-169,9897.0
5250,0.3219882547855377,0.6271894574165344,95,6266.0,1.7044190168380737,-39,9897.0
5260,0.32207176089286804,1.7981653213500977,60,6266.0,0.5927806496620178,127,9897.0
5270,0.3222034275531769,0.40556061267852783,24,6266.0,2.860628128051758,110,9897.0
5280,0.32239487767219543,-0.21760500967502594,-58,6266.0,2.8162307739257812,133,9897.0
5290,0.32256191968917847,-0.6010307669639587,-176,6266.0,4.036476135253906,123,9897.0
5300,0.3232206702232361,-2.82053542137146,-73,6266.0,3.102571725845337,-29,9897.0
5310,0.3234613835811615,-4.081846237182617,79,6266.0,4.656246185302734,28,9897.0
5320,0.3237628638744354,-1.055824875831604,81,6266.0,2.8206627368927,-22,9897.0
5330,0.32402825355529785,-2.627096652984619,-49,6266.0,3.6751515865325928,36,9897.0
5340,0.32427698373794556,0.4075678288936615,-62,6266.0,0.1920868456363678,116,9897.0
5350,0.3256840407848358,-0.799220621585846,-46,6266.0,0.2642113268375397,81,9897.0
5360,0.326101154088974,0.821529746055603,16,6266.0,-0.8020037412643433,4,9897.0
5370,0.3264666497707367,1.866195559501648,27,6266.0,2.0459046363830566,-219,9897.0
5380,0.32673415541648865,-0.44232553243637085,61,6266.0,1.126737356185913,-61,9897.0
5390,0.3286077082157135,1.8825525045394897,87,6266.0,-0.928809404373169,91,9897.0
5400,0.3288869261741638,0.9838268756866455,56,6266.0,0.32645824551582336,41,9897.0
5410,0.32907333970069885,0.7480859160423279,-77,6266.0,2.883089303970337,106,9897.0
5420,0.32918989658355713,0.8890025615692139,-120,6266.0,2.158277988433838,184,9897.0
5430,0.32934096455574036,-2.489171028137207,-71,6266.0,2.8212878704071045,133,9897.0
5440,0.3285241425037384,-2.4352946281433105,-15,6266.0,0.9873812794685364,5,9897.0
5450,0.32850560545921326,-1.2725876569747925,11,6266.0,1.58916437625885,-168,9897.0
5460,0.32842540740966797,-1.3109254837036133,41,6266.0,1.6060283184051514,-21,9897.0
5470,0.3283962607383728,0.5801685452461243,97,6266.0,1.5613542795181274,100,9897.0
5480,0.32864251732826233,-0.2941906452178955,60,6266.0,-0.6434566378593445,52,9897.0
5490,0.3286415934562683,-0.06563157588243484,-105,6266.0,-3.3779642581939697,23,9897.0
5500,0.3286503553390503,1.4742240905761719,-27,6266.0,-3.4415831565856934,16,9897.0
5510,0.3287097215652466,1.088027000427246,58,6266.0,0.5139625072479248,86,9897.0
5520,0.32886451482772827,2.3580405712127686,50,6266.0,-1.464080810546875,-154,9897.0
5530,0.3288922607898712,0.5219994187355042,102,6266.0,-4.084135055541992,-170,9897.0
5540,0.32885968685150146,-0.24914349615573883,14,6266.0,-1.6263290643692017,34,9897.0
5550,0.32878631353378296,-3.1716208457946777,36,6266.0,-0.5258080363273621,54,9897.0
5560,0.3286130726337433,-3.568603038787842,-128,6266.0,-0.7513682246208191,47,9897.0
5570,0.3273259103298187,-0.3649022579193115,-151,6266.0,-1.6233640909194946,-27,9897.0
5580,0.32708489894866943,-2.812835931777954,-93,6266.0,-0.8385857343673706,38,9897.0
5590,0.3268873989582062,0.007092551793903112,14,6266.0,1.6397862434387207,63,9897.0
5600,0.32662346959114075,-1.3278268575668335,101,6266.0,4.631599426269531,-120,9897.0
5610,0.32682305574417114,-0.9287849068641663,-19,6266.0,1.5670459270477295,99,9897.0
5620,0.3265838921070099,2.6952803134918213,-12,6266.0,0.6109525561332703,143,9897.0
5630,0.3263598680496216,0.626735270023346,-12,6266.0,1.298840880393982,140,9897.0
5640,0.3261292576789856,2.196345806121826,3,6266.0,-2.0127205848693848,-11,9897.0
5650,0.325840562582016,3.165309429168701,67,6266.0,-3.166855573654175,-213,9897.0
5660,0.3256610929965973,3.33117938041687,158,6266.0,-4.787718296051025,-80,9897.0
5670,0.32551828026771545,1.7039179801940918,124,6266.0,-6.323294639587402,-45,9897.0
5680,0.3254174292087555,0.09175332635641098,-13,6266.0,-7.285451889038086,-20,9897.0
5690,0.3252875804901123,-0.031122388318181038,-93,6266.0,-7.510231971740723,-110,9897.0
5700,0.32507848739624023,-1.7764346599578857,-143,6266.0,-5.78840446472168,-91,9897.0
5710,0.3251085579395294,-2.415452003479004,20,6266.0,-3.3312971591949463,-123,9897.0
5720,0.3252258896827698,-0.6229754090309143,143,6266.0,-2.4637935161590576,-33,9897.0
5730,0.3252946436405182,-1.2096471786499023,45,6266.0,-0.3743705451488495,-43,9897.0
5740,0.32518625259399414,-1.3629766702651978,-50,6266.0,1.5023384094238281,19,9897.0
5750,0.32523345947265625,-0.3971598744392395,-82,6266.0,-1.2007793188095093,136,9897.0
5760,0.3253467082977295,0.7265498638153076,-23,6266.0,0.6558609008789062,93,9897.0
5770,0.32540902495384216,2.618426561355591,104,6266.0,1.4778180122375488,-52,9897.0
5780,0.3254071772098541,0.8892949819564819,86,6266.0,1.0735702514648438,-108,9897.0
5790,0.3264930248260498,-0.8242589831352234,37,6266.0,3.6262269020080566,-55,9897.0
5800,0.3265734612941742,0.40087267756462097,-1,6266.0,3.6700599193573,236,9897.0
5810,0.3265787661075592,-2.0934855937957764,-35,6266.0,-0.20669403672218323,117,9897.0
5820,0.32651564478874207,-1.9551855325698853,-92,6266.0,-1.612687587738037,-82,9897.0
5830,0.3262704908847809,-1.2802658081054688,-76,6266.0,-3.5155718326568604,109,9897.0
5840,0.32631736993789673,-1.5316730737686157,0,6266.0,-2.418407678604126,-39,9897.0
5850,0.32636797428131104,0.12432505935430527,154,6266.0,1.7544701099395752,-199,9897.0
5860,0.3263690173625946,-1.2189733982086182,24,6266.0,1.4372700452804565,-163,9897.0
5870,0.3263678550720215,3.7871932983398438,37,6266.0,0.747349739074707,92,9897.0
5880,0.32547715306282043,1.9860780239105225,36,6266.0,0.3109525144100189,219,9897.0
5890,0.3255971670150757,2.415565252304077,-12,6266.0,0.7508504986763,66,9897.0
5900,0.3257518410682678,0.5555554628372192,-89,6266.0,6.1915106773376465,26,9897.0
5910,0.32593753933906555,-0.8699923753738403,-77,6266.0,4.049809455871582,-73,9897.0
5920,0.3262617886066437,-1.801008939743042,52,6266.0,6.097034931182861,16,9897.0
5930,0.326648473739624,-1.4565211534500122,134,6266.0,1.4965375661849976,16,9897.0
5940,0.32701051235198975,-1.993333339691162,-51,6266.0,3.036071300506592,43,9897.0
5950,0.32737064361572266,2.5512752532958984,-53,6266.0,-0.4421312212944031,49,9897.0
5960,0.3271075189113617,1.9138747453689575,-4,6266.0,2.3175764083862305,170,9897.0
5970,0.32762908935546875,0.8103249073028564,73,6266.0,0.5662282109260559,-58,9897.0
5980,0.32809939980506897,2.035377264022827,97,6266.0,0.8905142545700073,-207,9897.0
5990,0.32845765352249146,1.1502792835235596,11,6266.0,-0.6302503347396851,-74,9897.0
6000,0.32879966497421265,2.7965714931488037,50,6266.0,-3.05649471282959,24,9897.0
6010,0.3288636803627014,-0.9499763250350952,22,6266.0,2.0590672492980957,185,9897.0
6020,0.32913848757743835,-1.171543002128601,-108,6266.0,4.3069281578063965,52,9897.0
6030,0.32931965589523315,-0.32055333256721497,-124,6266.0,5.5115461349487305,100,9897.0
6040,0.32950764894485474,-1.5964292287826538,-69,6266.0,5.4635844230651855,141,9897.0
6050,0.32790878415107727,-1.539629340171814,65,6266.0,4.296884059906006,-52,9897.0
6060,0.3278372585773468,-0.24044957756996155,101,6266.0,5.31228494644165,-67,9897.0
6070,0.3276999294757843,-0.04474511742591858,35,6266.0,3.0316781997680664,20,9897.0
6080,0.32752665877342224,1.4022618532180786,39,6266.0,-0.22008562088012695,93,9897.0
6090,0.32733461260795593,0.7135818004608154,33,6266.0,0.7208282351493835,123,9897.0
6100,0.32663390040397644,1.2925955057144165,-101,6266.0,-0.3258541524410248,-14,9897.0
6110,0.32651156187057495,0.992712676525116,-47,6266.0,0.5222650766372681,-12,9897.0
6120,0.32641828060150146,-1.4124091863632202,32,6266.0,-4.7628173828125,-73,9897.0
6130,0.32628193497657776,-0.4379923939704895,122,6266.0,-3.516303777694702,-178,9897.0
6140,0.3267337381839752,0.27338382601737976,36,6266.0,-5.263401508331299,-100,9897.0
6150,0.3265545070171356,1.4829057455062866,-79,6266.0,-5.871174335479736,-10,9897.0
6160,0.3264566957950592,-0.5164875984191895,-30,6266.0,-4.517489910125732,115,9897.0
6170,0.3263246715068817,-0.47647422552108765,-56,6266.0,-2.9490699768066406,29,9897.0
6180,0.32685136795043945,0.7478371262550354,9,6266.0,-0.47368621826171875,-179,9897.0
6190,0.32662233710289,-0.25977185368537903,11,6266.0,-1.129232406616211,-141,9897.0
6200,0.3264313042163849,0.6698823571205139,49,6266.0,3.169417142868042,22,9897.0
6210,0.3262367844581604,3.2688636779785156,101,6266.0,1.1520179510116577,141,9897.0
6220,0.3260163366794586,2.2212769985198975,33,6266.0,-0.034250929951667786,136,9897.0
6230,0.3269612491130829,1.0368056297302246,-80,6266.0,4.446432113647461,76,9897.0
6240,0.3267815113067627,0.6303204298019409,-114,6266.0,1.3868054151535034,-1,9897.0
6250,0.3265933096408844,-2.6212644577026367,19,6266.0,2.100944995880127,43,9897.0
6260,0.32635167241096497,-3.6893064975738525,55,6266.0,-0.7286468744277954,-14,9897.0
6270,0.32551857829093933,-3.3474910259246826,-6,6266.0,-3.134079694747925,-37,9897.0
6280,0.3252617418766022,-0.8889556527137756,-110,6266.0,-2.8629488945007324,7,9897.0
6290,0.3250542879104614,0.8466610908508301,-82,6266.0,-1.353100299835205,3,9897.0
6300,0.32483404874801636,1.230440378189087,78,6266.0,-3.211425304412842,-85,9897.0
6310,0.32457754015922546,2.9164199829101562,182,6266.0,-0.9436566233634949,-54,9897.0
6320,0.32616522908210754,2.1138384342193604,67,6266.0,-1.4654525518417358,-34,9897.0
6330,0.32606419920921326,4.523934841156006,-41,6266.0,1.379150152206421,57,9897.0
6340,0.32603150606155396,3.9955625534057617,-21,6266.0,-2.384420871734619,27,9897.0
6350,0.32600775361061096,2.122354745864868,34,6266.0,-1.4572855234146118,-41,9897.0
6360,0.32548633217811584,1.600894570350647,92,6266.0,3.1834511756896973,-126,9897.0
6370,0.325330913066864,0.23966264724731445,102,6266.0,0.28018268942832947,-33,9897.0
6380,0.32525399327278137,0.4650084972381592,-66,6266.0,0.9192798733711243,97,9897.0
6390,0.32521942257881165,2.338423728942871,-77,6266.0,1.476172685623169,99,9897.0
6400,0.3251679241657257,-0.15659484267234802,-45,6266.0,1.6413607597351074,105,9897.0
6410,0.32540807127952576,-0.3823162615299225,64,6266.0,0.537842333316803,-36,9897.0
6420,0.3253583610057831,2.831543445587158,133,6266.0,-0.25443434715270996,-150,9897.0
6430,0.32540956139564514,0.14511936902999878,-2,6266.0,1.571411371231079,26,9897.0
6440,0.3254743814468384,-0.18285402655601501,-101,6266.0,1.2031105756759644,114,9897.0
6450,0.3281749188899994,0.4636520743370056,-59,6266.0,-0.14262177050113678,45,9897.0
6460,0.3283187747001648,-0.3398268520832062,60,6266.0,0.6147990226745605,8,9897.0
6470,0.3284800946712494,1.2992401123046875,60,6266.0,-0.6954666972160339,-131,9897.0
6480,0.32867661118507385,0.3583678603172302,55,6266.0,0.1800900399684906,-91,9897.0
6490,0.33016300201416016,0.040924374014139175,-38,6266.0,-1.3315327167510986,53,9897.0
6500,0.3303285539150238,0.363871693611145,-52,6266.0,-2.887284517288208,194,9897.0
6510,0.3305055499076843,-1.167480230331421,-46,6266.0,-0.8904906511306763,-10,9897.0
6520,0.33069244027137756,-1.3201828002929688,-39,6266.0,0.0392349436879158,-53,9897.0
6530,0.3308831453323364,-2.115370035171509,-99,6266.0,5.722592830657959,29,9897.0
6540,0.33012956380844116,-1.6266753673553467,10,6266.0,5.061435699462891,25,9897.0
6550,0.33007919788360596,-1.615022897720337,63,6266.0,2.6326422691345215,-49,9897.0
6560,0.3300704061985016,-0.43591809272766113,-15,6266.0,1.3955905437469482,35,9897.0
6570,0.3300563395023346,0.5245269536972046,-105,6266.0,-1.158406376838684,179,9897.0
6580,0.3295123279094696,0.030715337023139,-57,6266.0,0.38170063495635986,151,9897.0
6590,0.3293299973011017,-0.9174111485481262,8,6266.0,2.2051329612731934,-5,9897.0
6600,0.32914456725120544,1.4692121744155884,63,6266.0,-0.9515225291252136,-152,9897.0
6610,0.32895851135253906,0.458251953125,73,6266.0,1.6040385961532593,-111,9897.0
6620,0.32873713970184326,3.2787270545959473,134,6266.0,1.7840100526809692,64,9897.0
6630,0.3302409052848816,3.2575342655181885,88,6266.0,2.3850040435791016,176,9897.0
6640,0.3300601541996002,3.0672264099121094,-42,6266.0,-0.2237798273563385,22,9897.0
6650,0.3298986256122589,1.987985610961914,-47,6266.0,1.3872357606887817,9,9897.0
6660,0.3296588063240051,-1.0278600454330444,-54,6266.0,4.50187873840332,16,9897.0
6670,0.3294633626937866,-0.20455904304981232,69,6266.0,-1.3898594379425049,-15,9897.0
6680,0.3291606307029724,-1.0249887704849243,125,6266.0,-0.44126376509666443,25,9897.0
6690,0.32894450426101685,-1.4089468717575073,-54,6266.0,-0.3722597062587738,43,9897.0
6700,0.32870638370513916,-1.3469412326812744,-148,6266.0,1.2219514846801758,5,9897.0
6710,0.32966265082359314,-0.7964432835578918,-78,6266.0,-0.2003813236951828,-14,9897.0
6720,0.32939860224723816,-2.191437244415283,1,6266.0,-0.3027472496032715,-43,9897.0
6730,0.329216867685318,-0.10025343298912048,127,6266.0,0.2126583755016327,7,9897.0
6740,0.32906731963157654,-0.5340988636016846,21,6266.0,-0.684967577457428,52,9897.0
6750,0.3288538157939911,-0.012822574004530907,-105,6266.0,-0.2419525682926178,55,9897.0
6760,0.3298884630203247,2.5006179809570312,-32,6266.0,0.9150959253311157,45,9897.0
6770,0.32974788546562195,0.8091737627983093,-7,6266.0,6.415327072143555,94,9897.0
6780,0.32973018288612366,-5.802365303039551,-31,6266.0,10.765634536743164,84,9897.0
6790,0.3298227787017822,-12.218327522277832,-116,6266.0,10.833755493164062,146,9897.0
6800,0.33043649792671204,-9.781441688537598,-211,6266.0,11.391744613647461,182,9897.0
6810,0.3306674659252167,-6.677125453948975,-183,6266.0,4.148370265960693,113,9897.0
6820,0.3309727907180786,-6.449845790863037,-33,6266.0,-3.503145694732666,-123,9897.0
6830,0.33137935400009155,-6.322137355804443,-8,6266.0,-14.586913108825684,-284,9897.0
6840,0.3322456181049347,-3.226045608520508,-88,6266.0,-20.805496215820312,-306,9897.0
6850,0.33254867792129517,5.351474285125732,73,6266.0,-23.407608032226562,-480,9897.0
6860,0.3327997624874115,17.0993709564209,406,6266.0,-25.250263214111328,-354,9897.0
6870,0.33282986283302307,27.707578659057617,535,6266.0,-26.669706344604492,-326,9897.0
6880,0.33261600136756897,28.5230770111084,431,6266.0,-21.862043380737305,-269,9897.0
6890,0.3330094814300537,18.648571014404297,166,6266.0,-12.457334518432617,-181,9897.0
6900,0.3327045142650604,10.338724136352539,-12,6266.0,-7.331370830535889,-117,9897.0
6910,0.3323461711406708,5.329840660095215,51,6266.0,-3.1332170963287354,-83,9897.0
6920,0.33172762393951416,6.06143045425415,165,6266.0,0.04693415015935898,3,9897.0
6930,0.33179885149002075,9.38302993774414,278,6266.0,2.496471643447876,-6,9897.0
6940,0.3311349153518677,8.343328475952148,258,6266.0,6.660571098327637,18,9897.0
6950,0.33023425936698914,7.240857124328613,83,6266.0,9.13843059539795,207,9897.0
6960,0.32920995354652405,17.238094329833984,178,6266.0,6.104213237762451,187,9897.0
6970,0.33040541410446167,20.392444610595703,323,6266.0,5.049325466156006,240,9897.0
6980,0.3296748399734497,22.174530029296875,390,6266.0,4.6605401039123535,138,9897.0
6990,0.3287850618362427,24.2738094329834,388,6266.0,6.608828067779541,-46,9897.0
7000,0.3279486894607544,19.101139068603516,345,6266.0,9.48017692565918,-49,9897.0
7010,0.3279060423374176,12.598464965820312,229,6266.0,7.436359405517578,118,9897.0
7020,0.3284420669078827,12.728849411010742,210,6266.0,10.118597030639648,249,9897.0
7030,0.3269723057746887,12.90893268585205,264,6266.0,10.476265907287598,348,9897.0
7040,0.3263132870197296,12.609222412109375,133,6266.0,16.574705123901367,307,9897.0
7050,0.3249915540218353,13.76759147644043,119,6266.0,17.192094802856445,388,9897.0
7060,0.3249747157096863,13.222657203674316,118,6266.0,18.770654678344727,445,9897.0
7070,0.3245265483856201,10.170273780822754,66,6266.0,25.745792388916016,448,9897.0
7080,0.3225405514240265,5.456207752227783,149,6266.0,28.628698348999023,446,9897.0
7090,0.32174769043922424,3.582144021987915,221,6266.0,31.53905487060547,410,9897.0
7100,0.3205883800983429,0.947945773601532,136,6266.0,33.40288543701172,429,9897.0
7110,0.32111531496047974,-3.996295213699341,-111,6266.0,33.23940658569336,588,9897.0
7120,0.32018765807151794,-6.817171096801758,-247,6266.0,29.7600154876709,573,9897.0
7130,0.31860923767089844,-12.99909496307373,-204,6266.0,26.949146270751953,549,9897.0
7140,0.3173660635948181,-12.325316429138184,-275,6266.0,24.59187126159668,465,9897.0
7150,0.3195054233074188,-9.2765474319458,-147,6266.0,24.062767028808594,289,9897.0
7160,0.3188549876213074,-6.031697750091553,16,6266.0,27.60099220275879,279,9897.0
7170,0.31726646423339844,-3.1963388919830322,-38,6266.0,27.80013084411621,454,9897.0
7180,0.3162198066711426,-1.669215202331543,91,6266.0,24.203657150268555,387,9897.0
7190,0.3209935426712036,-2.390899181365967,-3,6266.0,27.441261291503906,533,9897.0
7200,0.32029998302459717,-3.3597216606140137,-151,6266.0,31.744779586791992,612,9897.0
7210,0.31860700249671936,-2.5366570949554443,-112,6266.0,31.273366928100586,427,9897.0
7220,0.3181479871273041,-4.013296604156494,-39,6266.0,32.812232971191406,387,9897.0
7230,0.31777653098106384,-7.054781436920166,-69,6266.0,34.88041305541992,541,9897.0
7240,0.31985974311828613,-8.983065605163574,-209,6266.0,31.632165908813477,665,9897.0
7250,0.31832945346832275,-12.225608825683594,-270,6266.0,32.804222106933594,627,9897.0
7260,0.31787094473838806,-17.575834274291992,-336,6266.0,31.9906005859375,516,9897.0
7270,0.31759315729141235,-17.548206329345703,-236,6266.0,30.471004486083984,469,9897.0
7280,0.3144857585430145,-17.732789993286133,-176,6266.0,27.92229652404785,399,9897.0
7290,0.3129150867462158,-15.815084457397461,-197,6266.0,25.003936767578125,466,9897.0
7300,0.31197962164878845,-16.707700729370117,-295,6266.0,22.52143669128418,479,9897.0
7310,0.311087429523468,-14.162432670593262,-231,6266.0,21.3057804107666,375,9897.0
7320,0.31065234541893005,-13.802915573120117,-157,6266.0,23.706451416015625,220,9897.0
7330,0.308898001909256,-11.177756309509277,-60,6266.0,17.6519832611084,276,9897.0
7340,0.3078218698501587,-7.575182914733887,-134,6266.0,15.125094413757324,384,9897.0
7350,0.3069600760936737,-7.005406379699707,-166,6266.0,19.169179916381836,382,9897.0
7360,0.30593499541282654,-7.306968688964844,-95,6266.0,17.851423263549805,179,9897.0
7370,0.30460864305496216,-8.636527061462402,-106,6266.0,17.791881561279297,156,9897.0
7380,0.3036009967327118,-11.715378761291504,-112,6266.0,14.256280899047852,260,9897.0
7390,0.3021780550479889,-14.897549629211426,-322,6266.0,14.429008483886719,344,9897.0
7400,0.30102744698524475,-17.3624267578125,-376,6266.0,12.948458671569824,311,9897.0
7410,0.3024959862232208,-19.688810348510742,-375,6266.0,12.076629638671875,246,9897.0
7420,0.3016301095485687,-21.920738220214844,-301,6266.0,15.304512023925781,134,9897.0
7430,0.30075129866600037,-18.89887046813965,-221,6266.0,10.933610916137695,136,9897.0
7440,0.29947683215141296,-12.62071418762207,-239,6266.0,14.370598793029785,304,9897.0
7450,0.2977289855480194,-10.319246292114258,-226,6266.0,13.74715805053711,234,9897.0
7460,0.2988812029361725,-8.234955787658691,-144,6266.0,12.560467720031738,143,9897.0
7470,0.2982117235660553,-6.6943278312683105,-14,6266.0,12.777300834655762,117,9897.0
7480,0.2974250018596649,-7.300314903259277,-71,6266.0,11.118803977966309,210,9897.0
7490,0.2955649197101593,-3.3806686401367188,-119,6266.0,7.529841899871826,249,9897.0
7500,0.29800331592559814,-1.7961113452911377,-114,6266.0,7.702705383300781,138,9897.0
7510,0.2974095642566681,-1.7144501209259033,-68,6266.0,6.938612937927246,20,9897.0
7520,0.29670706391334534,-2.650458335876465,22,6266.0,4.924596309661865,-33,9897.0
7530,0.29593178629875183,-4.668233871459961,32,6266.0,2.376546859741211,-12,9897.0
7540,0.2986624538898468,-4.92521333694458,-76,6266.0,2.0505433082580566,104,9897.0
7550,0.2983684539794922,-0.5184916853904724,-84,6266.0,-0.5560515522956848,191,9897.0
7560,0.298007607460022,0.8994209170341492,-85,6266.0,3.013291597366333,145,9897.0
7570,0.29780295491218567,4.668674945831299,19,6266.0,-2.266763925552368,49,9897.0
7580,0.2973613739013672,1.9341137409210205,50,6266.0,-0.10210549086332321,-32,9897.0
7590,0.3009641468524933,-0.18794891238212585,68,6266.0,0.3683139979839325,-91,9897.0
7600,0.301054447889328,-0.30390357971191406,71,6266.0,-4.666830062866211,-111,9897.0
7610,0.3010554909706116,-1.0582987070083618,80,6266.0,-10.308309555053711,-237,9897.0
7620,0.30087578296661377,-1.682831048965454,58,6266.0,-12.070304870605469,-267,9897.0
7630,0.30447080731391907,-0.5683059096336365,45,6266.0,-14.868814468383789,-184,9897.0
7640,0.3048454523086548,1.2673308849334717,66,6266.0,-16.0137996673584,-310,9897.0
7650,0.3049869239330292,4.119139671325684,115,6266.0,-11.052064895629883,-137,9897.0
7660,0.30506181716918945,2.61027193069458,173,6266.0,-5.524639129638672,-156,9897.0
7670,0.30524706840515137,6.2558698654174805,220,6266.0,-6.232390880584717,-234,9897.0
7680,0.3066738545894623,6.142839431762695,229,6266.0,-5.507635116577148,-234,9897.0
7690,0.30672961473464966,6.5077223777771,228,6266.0,-13.3745698928833,-335,9897.0
7700,0.3067738115787506,7.437463283538818,235,6266.0,-14.026680946350098,-385,9897.0
7710,0.3066767156124115,7.295346260070801,176,6266.0,-16.12150001525879,-362,9897.0
7720,0.30770692229270935,4.672600746154785,72,6266.0,-18.019922256469727,-239,9897.0
7730,0.3077351152896881,4.1289448738098145,49,6266.0,-19.04515838623047,-204,9897.0
7740,0.3077446520328522,0.8253578543663025,3,6266.0,-14.806185722351074,-166,9897.0
7750,0.3076825439929962,0.730492889881134,-16,6266.0,-14.215644836425781,-156,9897.0
7760,0.310567706823349,-1.6705827713012695,-35,6266.0,-11.97918701171875,-151,9897.0
7770,0.31069040298461914,-1.9041666984558105,-77,6266.0,-11.457096099853516,-158,9897.0
7780,0.3107547163963318,-2.732459545135498,-125,6266.0,-9.265687942504883,-85,9897.0
7790,0.31086984276771545,-3.283440351486206,-96,6266.0,-13.706665992736816,-217,9897.0
7800,0.31102606654167175,-2.3031270503997803,-26,6266.0,-13.28375244140625,-251,9897.0
7810,0.3140726089477539,-0.4854988753795624,8,6266.0,-9.345346450805664,-178,9897.0
7820,0.31425178050994873,1.2433850765228271,48,6266.0,-11.65701961517334,-250,9897.0
7830,0.31436026096343994,4.7306952476501465,149,6266.0,-14.314976692199707,-211,9897.0
7840,0.31445321440696716,6.802024841308594,124,6266.0,-12.370893478393555,-129,9897.0
7850,0.3173947036266327,5.693532943725586,69,6266.0,-13.202110290527344,-78,9897.0
7860,0.3176986575126648,3.598705530166626,26,6266.0,-11.022980690002441,-152,9897.0
7870,0.3180544376373291,0.9640967845916748,-4,6266.0,-12.565385818481445,-280,9897.0
7880,0.31847378611564636,-1.6157647371292114,-21,6266.0,-10.622812271118164,-323,9897.0
7890,0.3188892602920532,-3.121990919113159,-60,6266.0,-9.600465774536133,-309,9897.0
7900,0.3190435469150543,-2.3794443607330322,-68,6266.0,-7.457355499267578,-209,9897.0
7910,0.3192777633666992,-2.807643413543701,-71,6266.0,-9.547743797302246,-111,9897.0
7920,0.31948521733283997,-3.9252707958221436,-132,6266.0,-11.33690357208252,-116,9897.0
7930,0.3196127712726593,-3.985804319381714,-89,6266.0,-9.849620819091797,-57,9897.0
7940,0.3190236985683441,-4.477616310119629,-120,6266.0,-8.602256774902344,-134,9897.0
7950,0.3190663158893585,-2.202486991882324,-46,6266.0,-3.975851535797119,-148,9897.0
7960,0.3190752863883972,-2.6008644104003906,-5,6266.0,-5.514175891876221,-244,9897.0
7970,0.31903955340385437,-2.273606777191162,5,6266.0,-4.399686813354492,-110,9897.0
7980,0.3196123540401459,-2.904090404510498,-55,6266.0,-5.527815818786621,45,9897.0
7990,0.3195265531539917,-4.321567535400391,-83,6266.0,-4.298276424407959,118,9897.0
8000,0.31948843598365784,-4.5795135498046875,-107,6266.0,-9.696320533752441,-2,9897.0
8010,0.3193063735961914,-7.1969828605651855,-117,6266.0,-7.372593879699707,-29,9897.0
8020,0.3192577362060547,-4.700543403625488,-7,6266.0,-5.843354225158691,-180,9897.0
8030,0.32141977548599243,-4.318328380584717,24,6266.0,-3.4332973957061768,-162,9897.0
8040,0.3213789761066437,-4.698835849761963,22,6266.0,-5.940357208251953,-199,9897.0
8050,0.32130199670791626,-2.4512386322021484,-2,6266.0,-4.823935508728027,-44,9897.0
8060,0.32113274931907654,-0.6747320890426636,23,6266.0,-5.416850566864014,-25,9897.0
8070,0.32241758704185486,1.0559548139572144,49,6266.0,-3.5442614555358887,45,9897.0
8080,0.3222075402736664,1.6409556865692139,24,6266.0,0.12453289330005646,79,9897.0
8090,0.32201099395751953,1.4708682298660278,18,6266.0,-2.967604637145996,38,9897.0
8100,0.3218262493610382,1.3937203884124756,11,6266.0,-3.311319351196289,15,9897.0
8110,0.3217054307460785,3.2992236614227295,18,6266.0,-2.2492146492004395,-7,9897.0
8120,0.32254621386528015,1.1582257747650146,22,6266.0,-0.04072097688913345,-80,9897.0
8130,0.3225834369659424,0.64039146900177,23,6266.0,1.644007682800293,-72,9897.0
8140,0.3225468099117279,-0.7168946266174316,25,6266.0,-4.197474956512451,-121,9897.0
8150,0.3225483298301697,-1.661717414855957,1,6266.0,-2.506545305252075,-117,9897.0
8160,0.32305908203125,-2.0717945098876953,-18,6266.0,-4.3583598136901855,-71,9897.0
8170,0.3229959011077881,-2.2658627033233643,22,6266.0,-6.6394267082214355,-48,9897.0
8180,0.32291337847709656,-1.0391584634780884,-11,6266.0,-5.726921558380127,-3,9897.0
8190,0.32285863161087036,1.0984492301940918,-7,6266.0,-6.271756649017334,57,9897.0
8200,0.3236468434333801,1.3117567300796509,23,6266.0,-2.599684238433838,-6,9897.0
8210,0.3237107992172241,1.7623403072357178,57,6266.0,1.4246389865875244,36,9897.0
8220,0.3237893283367157,1.2109324932098389,53,6266.0,2.2455315589904785,-45,9897.0
8230,0.3238238990306854,0.366624116897583,21,6266.0,2.972594738006592,-33,9897.0
8240,0.323849618434906,-1.8765698671340942,40,6266.0,4.324489593505859,23,9897.0
8250,0.324262410402298,-1.2842706441879272,10,6266.0,5.091160774230957,123,9897.0
8260,0.32422491908073425,-0.9695858359336853,-17,6266.0,1.0019690990447998,61,9897.0
8270,0.32416650652885437,-2.4903790950775146,-16,6266.0,1.863058090209961,145,9897.0
8280,0.3240882456302643,-2.3722078800201416,-94,6266.0,-4.428281784057617,95,9897.0
8290,0.32477861642837524,-1.6172350645065308,-56,6266.0,-4.054860591888428,133,9897.0
8300,0.32472968101501465,-0.8999213576316833,-2,6266.0,-2.128586530685425,-14,9897.0
8310,0.3246731460094452,-1.5949822664260864,-6,6266.0,-4.448608875274658,-151,9897.0
8320,0.32462626695632935,2.0814366340637207,72,6266.0,-2.872197389602661,-79,9897.0
8330,0.3245438039302826,2.974597692489624,81,6266.0,-3.169942617416382,-90,9897.0
8340,0.3257913291454315,7.134647369384766,126,6266.0,-1.5629311800003052,-10,9897.0
8350,0.32574722170829773,7.447110176086426,156,6266.0,3.182225227355957,20,9897.0
8360,0.325702428817749,5.6829705238342285,94,6266.0,5.144498348236084,77,9897.0
8370,0.32564473152160645,4.055999755859375,56,6266.0,7.041876316070557,156,9897.0
8380,0.3269728422164917,2.926297664642334,38,6266.0,4.779963970184326,154,9897.0
8390,0.32701000571250916,-1.142646074295044,-70,6266.0,1.8477051258087158,114,9897.0
8400,0.32704803347587585,-1.918454647064209,-34,6266.0,0.12789945304393768,-13,9897.0
8410,0.32710838317871094,-4.383925437927246,-72,6266.0,1.276736855506897,9,9897.0
8420,0.326716810464859,-2.5622735023498535,-47,6266.0,-1.6261438131332397,-67,9897.0
8430,0.3267756998538971,-1.3021694421768188,-15,6266.0,0.19605080783367157,-76,9897.0
8440,0.3268287181854248,0.8700904846191406,6,6266.0,-0.07979197055101395,-93,9897.0
8450,0.3268767297267914,2.221522569656372,44,6266.0,-0.5731664299964905,-112,9897.0
8460,0.32690736651420593,3.3629016876220703,37,6266.0,-0.3510700762271881,69,9897.0
8470,0.32737231254577637,5.109928131103516,24,6266.0,2.515970230102539,77,9897.0
8480,0.32749563455581665,5.281371116638184,63,6266.0,-0.9116048216819763,120,9897.0
8490,0.3275817334651947,3.9741601943969727,67,6266.0,1.1702241897583008,85,9897.0
8500,0.32764732837677,3.5351295471191406,70,6266.0,3.941458225250244,-36,9897.0
8510,0.32821372151374817,3.432080030441284,78,6266.0,2.7147276401519775,-18,9897.0
8520,0.3283321261405945,3.2457473278045654,49,6266.0,4.359148025512695,28,9897.0
8530,0.32847505807876587,1.7454078197479248,49,6266.0,1.1884211301803589,59,9897.0
8540,0.3285924196243286,2.2779734134674072,34,6266.0,1.158433437347412,144,9897.0
8550,0.3287034034729004,1.2074905633926392,-45,6266.0,-5.480871677398682,107,9897.0
8560,0.32771000266075134,-0.7800759673118591,-29,6266.0,-0.5172296762466431,105,9897.0
8570,0.3276953101158142,-1.8883402347564697,-47,6266.0,-0.31646209955215454,-54,9897.0
8580,0.32765355706214905,-0.4101983308792114,25,6266.0,0.4222968518733978,-136,9897.0
8590,0.327562540769577,0.8681390881538391,48,6266.0,-0.2819191515445709,-98,9897.0
8600,0.32766130566596985,1.7621763944625854,51,6266.0,-0.08888915926218033,-32,9897.0
8610,0.327560693025589,0.8076648116111755,-7,6266.0,3.1741762161254883,91,9897.0
8620,0.32747289538383484,0.766987144947052,22,6266.0,4.872690677642822,182,9897.0
8630,0.32738766074180603,1.9167671203613281,19,6266.0,2.2329511642456055,152,9897.0
8640,0.32870733737945557,0.8449114561080933,-23,6266.0,2.2957751750946045,100,9897.0
8650,0.32874375581741333,-2.0508503913879395,-67,6266.0,5.12643575668335,64,9897.0
8660,0.328770250082016,-2.0895323753356934,-26,6266.0,3.7486917972564697,-89,9897.0
8670,0.32878413796424866,-2.9700615406036377,-72,6266.0,5.298379421234131,-55,9897.0
8680,0.3287826478481293,-4.463024616241455,-70,6266.0,4.252171516418457,-6,9897.0
8690,0.330051451921463,-3.8332056999206543,-76,6266.0,4.124484539031982,7,9897.0
8700,0.33010604977607727,-0.8950523138046265,-23,6266.0,4.353133678436279,119,9897.0
8710,0.3301689028739929,1.5075324773788452,-14,6266.0,1.8120365142822266,101,9897.0
8720,0.33022210001945496,-0.7041781544685364,-57,6266.0,-0.7183095812797546,77,9897.0
8730,0.33166322112083435,-1.9087862968444824,-76,6266.0,1.0906949043273926,28,9897.0
8740,0.3317986726760864,-1.789347529411316,-37,6266.0,-1.379521369934082,-1,9897.0
8750,0.331947922706604,0.36768078804016113,-40,6266.0,2.5784711837768555,-73,9897.0
8760,0.3321068584918976,0.6347134113311768,16,6266.0,2.220421552658081,-118,9897.0
8770,0.33227676153182983,-1.7291356325149536,6,6266.0,7.600252628326416,-18,9897.0
8780,0.3327123820781708,-2.1478490829467773,-74,6266.0,7.0642781257629395,76,9897.0
8790,0.3328343629837036,-3.573450803756714,-87,6266.0,6.6221699714660645,155,9897.0
8800,0.33295896649360657,-5.706130027770996,-61,6266.0,8.091503143310547,213,9897.0
8810,0.33296313881874084,-7.160964488983154,-165,6266.0,8.118867874145508,228,9897.0
8820,0.334893137216568,-8.367250442504883,-192,6266.0,3.597695827484131,29,9897.0
8830,0.33492493629455566,-8.9569091796875,-165,6266.0,8.062196731567383,124,9897.0
8840,0.33497142791748047,-6.1904730796813965,-140,6266.0,9.330512046813965,129,9897.0
8850,0.33508816361427307,0.7836596369743347,-33,6266.0,1.8504414558410645,-59,9897.0
8860,0.3355330228805542,-0.6851749420166016,-33,6266.0,3.577650785446167,-14,9897.0
8870,0.33572494983673096,-0.17593282461166382,-16,6266.0,-0.6611518859863281,-120,9897.0
8880,0.33590462803840637,0.06402849406003952,-5,6266.0,-5.15918493270874,-166,9897.0
8890,0.33607199788093567,0.6246416568756104,2,6266.0,-3.713318109512329,-145,9897.0
8900,0.336259663105011,1.2641503810882568,42,6266.0,-7.603408336639404,-206,9897.0
8910,0.3358457684516907,2.1752641201019287,69,6266.0,-7.8784942626953125,-330,9897.0
8920,0.3360295295715332,1.844157099723816,116,6266.0,-4.115589141845703,-227,9897.0
8930,0.3361605703830719,2.6239473819732666,63,6266.0,-4.789080619812012,-100,9897.0
8940,0.3362581729888916,1.676314353942871,39,6266.0,-2.225046157836914,-34,9897.0
8950,0.336134135723114,3.170799732208252,28,6266.0,2.950221300125122,55,9897.0
8960,0.33604997396469116,0.982772946357727,56,6266.0,5.213523864746094,127,9897.0
8970,0.33592352271080017,3.349224090576172,67,6266.0,4.850095272064209,209,9897.0
8980,0.33585312962532043,3.3633015155792236,55,6266.0,2.5302038192749023,92,9897.0
8990,0.3357999622821808,3.9944870471954346,59,6266.0,-1.024140477180481,67,9897.0
9000,0.3356240689754486,5.667990207672119,57,6266.0,-1.4813523292541504,53,9897.0
9010,0.3353477120399475,7.136003017425537,47,6266.0,-2.690380573272705,63,9897.0
9020,0.3350640833377838,5.4864301681518555,61,6266.0,-3.447364330291748,15,9897.0
9030,0.3348032832145691,3.682020902633667,30,6266.0,-2.3183815479278564,29,9897.0
9040,0.3375195562839508,3.1373696327209473,98,6266.0,0.7820165157318115,-36,9897.0
9050,0.33738377690315247,5.061187744140625,72,6266.0,0.6538838148117065,52,9897.0
9060,0.33726415038108826,4.432250499725342,84,6266.0,3.8143224716186523,74,9897.0
9070,0.3371427357196808,3.033677577972412,52,6266.0,6.525580406188965,69,9897.0
9080,0.33582958579063416,2.317758321762085,62,6266.0,4.0162577629089355,40,9897.0
9090,0.3356204032897949,-0.02599947340786457,-5,6266.0,5.519240856170654,-37,9897.0
9100,0.33544325828552246,-1.1139988899230957,3,6266.0,2.572993278503418,24,9897.0
9110,0.33527588844299316,-1.659627079963684,-20,6266.0,-0.3658210337162018,-184,9897.0
9120,0.3351125121116638,-3.1542656421661377,-9,6266.0,-0.11140216141939163,-99,9897.0
9130,0.3352433443069458,-1.2623575925827026,40,6266.0,0.17860448360443115,-184,9897.0
9140,0.3350507318973541,-2.2165937423706055,53,6266.0,3.683468818664551,-81,9897.0
9150,0.33486440777778625,0.22035543620586395,49,6266.0,-0.8599267601966858,-18,9897.0
9160,0.3346921503543854,0.48732537031173706,63,6266.0,-0.6001148223876953,29,9897.0
9170,0.33628344535827637,1.7868291139602661,60,6266.0,0.07429149001836777,18,9897.0
9180,0.3361934423446655,4.2178192138671875,55,6266.0,0.30970701575279236,14,9897.0
9190,0.33612534403800964,4.218254089355469,36,6266.0,2.9254167079925537,44,9897.0
9200,0.33602890372276306,5.637495517730713,84,6266.0,0.40402862429618835,114,9897.0
9210,0.336704283952713,4.5377349853515625,56,6266.0,1.731551170349121,107,9897.0
9220,0.33662936091423035,5.446385383605957,64,6266.0,0.742085874080658,91,9897.0
9230,0.33648785948753357,3.7864491939544678,46,6266.0,1.6440751552581787,67,9897.0
9240,0.33645591139793396,3.962394952774048,54,6266.0,0.3607622981071472,70,9897.0
9250,0.336433470249176,3.6233997344970703,32,6266.0,0.18907678127288818,45,9897.0
9260,0.33699312806129456,4.007640838623047,110,6266.0,-3.0867700576782227,26,9897.0
9270,0.33692845702171326,3.7701690196990967,18,6266.0,-1.904118537902832,26,9897.0
9280,0.3369186818599701,2.643784284591675,30,6266.0,2.6106362342834473,140,9897.0
9290,0.3368980586528778,2.2379770278930664,-19,6266.0,-1.5474634170532227,151,9897.0
9300,0.3376327455043793,2.709847927093506,-12,6266.0,-2.175312042236328,168,9897.0
9310,0.33746176958084106,0.9878278374671936,5,6266.0,-1.3656668663024902,83,9897.0
9320,0.3373284935951233,0.42611655592918396,-55,6266.0,2.097928762435913,96,9897.0
9330,0.3371339738368988,1.4452319145202637,-39,6266.0,-3.2042174339294434,83,9897.0
9340,0.3368959426879883,0.5921381711959839,-13,6266.0,-3.0965566635131836,65,9897.0
9350,0.33813461661338806,0.857378363609314,-43,6266.0,-0.4982523024082184,114,9897.0
9360,0.33777207136154175,1.3667323589324951,-36,6266.0,-1.2627366781234741,72,9897.0
9370,0.33739736676216125,0.9713473916053772,-44,6266.0,-2.2636513710021973,77,9897.0
9380,0.337024062871933,1.0515776872634888,-73,6266.0,-1.5472055673599243,57,9897.0
9390,0.33949580788612366,0.8905752301216125,-64,6266.0,-1.3894838094711304,81,9897.0
9400,0.33917713165283203,-0.8622595071792603,-32,6266.0,-2.2761991024017334,-39,9897.0
9410,0.33880212903022766,0.15125171840190887,-63,6266.0,1.8721545934677124,17,9897.0
9420,0.33841171860694885,-0.1630786955356598,-86,6266.0,-0.6381714940071106,78,9897.0
9430,0.34027042984962463,0.9106860756874084,-49,6266.0,0.5938737392425537,29,9897.0
9440,0.3400486707687378,0.8967434167861938,-11,6266.0,-2.8572275638580322,20,9897.0
9450,0.33983469009399414,-0.43880340456962585,1,6266.0,-1.3534601926803589,-24,9897.0
9460,0.33963263034820557,-0.9034916162490845,-54,6266.0,-0.07930614799261093,-59,9897.0
9470,0.33946672081947327,-1.5089079141616821,12,6266.0,-1.9097527265548706,-70,9897.0
9480,0.3422694206237793,-1.1511279344558716,-25,6266.0,-1.9168020486831665,17,9897.0
9490,0.34236812591552734,-2.118722677230835,-17,6266.0,5.227092266082764,57,9897.0
9500,0.3425254821777344,-4.525142192840576,-28,6266.0,0.8374406695365906,-43,9897.0
9510,0.3427925109863281,-3.291802406311035,5,6266.0,3.4471776485443115,-4,9897.0
9520,0.34538060426712036,-0.873143196105957,-13,6266.0,-2.81268572807312,-123,9897.0
9530,0.34570619463920593,-1.2364965677261353,32,6266.0,2.1709768772125244,4,9897.0
9540,0.3461117148399353,-2.079925537109375,10,6266.0,3.0933611392974854,-79,9897.0
9550,0.34663110971450806,-0.671942949295044,16,6266.0,-1.0833203792572021,-153,9897.0
9560,0.34700605273246765,-0.38328054547309875,87,6266.0,-2.5101637840270996,-120,9897.0
9570,0.34977611899375916,-2.4642441272735596,-16,6266.0,-1.907440423965454,-155,9897.0
9580,0.3502415120601654,-1.9650522470474243,-39,6266.0,-2.215798854827881,-88,9897.0
9590,0.3506213426589966,-2.0815300941467285,-75,6266.0,-6.1821675300598145,-23,9897.0
9600,0.3508724868297577,-2.4292449951171875,-109,6266.0,-4.443245887756348,-39,9897.0
9610,0.35279446840286255,-0.8610674738883972,-72,6266.0,-7.22736930847168,-63,9897.0
9620,0.3531166911125183,-0.8102169632911682,-62,6266.0,-5.247744083404541,-64,9897.0
9630,0.3533802032470703,1.220147967338562,13,6266.0,-7.073330402374268,-99,9897.0
9640,0.3537290394306183,1.0090595483779907,-6,6266.0,-9.522695541381836,-132,9897.0
9650,0.35476186871528625,-0.08094210177659988,-30,6266.0,-7.832724571228027,-122,9897.0
9660,0.3549964725971222,-0.3349100351333618,-12,6266.0,-9.269350051879883,-169,9897.0
9670,0.35515454411506653,-1.2805629968643188,-56,6266.0,-6.607480525970459,-174,9897.0
9680,0.35525253415107727,-2.0679526329040527,-5,6266.0,-4.935271263122559,-115,9897.0
9690,0.35526561737060547,-3.140707015991211,-52,6266.0,-3.175581932067871,-11,9897.0
9700,0.3559321165084839,-1.7189571857452393,-32,6266.0,-1.0725352764129639,47,9897.0
9710,0.3558753728866577,-0.8342732787132263,-17,6266.0,4.732242584228516,174,9897.0
9720,0.3557502031326294,-1.9768638610839844,-32,6266.0,4.833556652069092,85,9897.0
9730,0.3555765151977539,-2.5185203552246094,-26,6266.0,7.849684238433838,153,9897.0
9740,0.35602420568466187,-1.823533058166504,-21,6266.0,6.661195755004883,72,9897.0
9750,0.35581642389297485,-0.5076858401298523,12,6266.0,2.4231231212615967,-14,9897.0
9760,0.3555837869644165,0.09936293959617615,17,6266.0,2.2664012908935547,-59,9897.0
9770,0.35533323884010315,-0.003097971435636282,37,6266.0,0.8500044345855713,33,9897.0
9780,0.35505568981170654,0.973145604133606,47,6266.0,-5.140899181365967,43,9897.0
9790,0.3547268807888031,1.3852758407592773,9,6266.0,-0.9758981466293335,73,9897.0
9800,0.35438400506973267,-0.04430335760116577,-28,6266.0,-2.3856236934661865,90,9897.0
9810,0.35408538579940796,-2.1461784839630127,-55,6266.0,0.6930152773857117,100,9897.0
9820,0.35371845960617065,-3.3794946670532227,-76,6266.0,2.817560911178589,-8,9897.0
9830,0.354802668094635,-5.2933197021484375,-74,6266.0,1.786793828010559,-34,9897.0
9840,0.3544655442237854,-5.0619425773620605,-16,6266.0,1.831490397453308,-1,9897.0
9850,0.35411888360977173,-4.735143661499023,-60,6266.0,1.9278243780136108,119,9897.0
9860,0.35376501083374023,-4.569040298461914,-73,6266.0,6.70884370803833,180,9897.0
9870,0.35439059138298035,-4.481236457824707,-56,6266.0,3.0181899070739746,169,9897.0
9880,0.35408470034599304,-3.704859733581543,-108,6266.0,0.7189427018165588,158,9897.0
9890,0.3537178933620453,-1.2181943655014038,-58,6266.0,0.19952835142612457,140,9897.0
9900,0.3533678352832794,0.015866825357079506,-65,6266.0,-0.03143004700541496,103,9897.0
9910,0.35303789377212524,-0.2811037600040436,-38,6266.0,1.1268583536148071,121,9897.0
9920,0.35424327850341797,0.35128894448280334,-40,6266.0,1.7992042303085327,-4,9897.0
9930,0.3539585769176483,1.0858346223831177,6,6266.0,2.5453433990478516,-2,9897.0
9940,0.3535875976085663,1.1205298900604248,-9,6266.0,3.719278335571289,35,9897.0
9950,0.35313937067985535,1.192267656326294,12,6266.0,4.083939075469971,46,9897.0
9960,0.3539901673793793,0.8808040618896484,55,6266.0,1.8633395433425903,75,9897.0
9970,0.353631854057312,1.5608452558517456,35,6266.0,4.918905258178711,70,9897.0
9980,0.3532620966434479,2.431692123413086,34,6266.0,5.196125507354736,19,9897.0
9990,0.35292863845825195,1.1867361068725586,19,6266.0,1.8969696760177612,-27,9897.0
10000,0.35256922245025635,0.0006858915439806879,65,6266.0,2.2512857913970947,-72,9897.0
10010,0.3547743558883667,-0.7294597029685974,47,6266.0,0.3671379089355469,-127,9897.0
10020,0.35454753041267395,-0.1479288786649704,-16,6266.0,0.15782536566257477,-131,9897.0
10030,0.3543108403682709,-2.0784671306610107,10,6266.0,-1.1728453636169434,-140,9897.0
10040,0.35407671332359314,-2.753382444381714,-11,6266.0,0.30778074264526367,-32,9897.0
10050,0.35510990023612976,-0.19892044365406036,6,6266.0,0.6784230470657349,-48,9897.0
10060,0.3549649715423584,-0.8935341238975525,28,6266.0,-2.1673800945281982,52,9897.0
10070,0.35477307438850403,-0.4930821657180786,-24,6266.0,1.309851050376892,81,9897.0
10080,0.3546191453933716,-0.8025683164596558,-11,6266.0,3.3912689685821533,196,9897.0
10090,0.35425180196762085,1.1309231519699097,-5,6266.0,2.2413227558135986,170,9897.0
10100,0.3541026711463928,1.9547227621078491,-24,6266.0,3.7939839363098145,198,9897.0
10110,0.35391965508461,1.4088618755340576,-18,6266.0,-0.807796061038971,118,9897.0
10120,0.3537341356277466,-0.4198800027370453,-11,6266.0,1.0471742153167725,144,9897.0
10130,0.3535371422767639,0.5634208917617798,29,6266.0,-2.6830878257751465,5,9897.0
10140,0.3534817695617676,-0.38866233825683594,5,6266.0,0.12137086689472198,-53,9897.0
10150,0.3532082140445709,0.9695944786071777,58,6266.0,-2.3279545307159424,-91,9897.0
10160,0.35288873314857483,2.0083305835723877,56,6266.0,-2.3676373958587646,-176,9897.0
10170,0.352505087852478,3.8041326999664307,59,6266.0,-1.6782108545303345,-125,9897.0
10180,0.35361793637275696,0.6853559017181396,49,6266.0,2.692485809326172,-12,9897.0
10190,0.353279709815979,2.658891201019287,-1,6266.0,1.24836003780365,-42,9897.0
10200,0.35295185446739197,0.20040027797222137,-5,6266.0,2.261133909225464,-30,9897.0
10210,0.352622389793396,-1.2262669801712036,6,6266.0,2.678158760070801,49,9897.0
10220,0.3522428572177887,-0.3900342583656311,-7,6266.0,1.2240447998046875,70,9897.0
10230,0.3550335764884949,-1.3630568981170654,-53,6266.0,0.9003916382789612,87,9897.0
10240,0.35485413670539856,-0.05263976752758026,-113,6266.0,-0.45333704352378845,119,9897.0
10250,0.35465577244758606,-0.5654373168945312,-50,6266.0,-0.5184251666069031,45,9897.0
10260,0.3544416129589081,2.9340953826904297,-7,6266.0,-0.19719669222831726,69,9897.0
10270,0.3561685085296631,3.6151487827301025,6,6266.0,-3.4871792793273926,-19,9897.0
10280,0.3560876250267029,2.338738441467285,32,6266.0,0.39047959446907043,67,9897.0
10290,0.3560273349285126,1.3329213857650757,-7,6266.0,0.9042806625366211,85,9897.0
10300,0.3559156656265259,1.0821175575256348,-37,6266.0,0.42949235439300537,81,9897.0
10310,0.357061505317688,2.744873523712158,-32,6266.0,-0.47598996758461,11,9897.0
10320,0.3569888770580292,1.2005879878997803,-33,6266.0,-2.7791707515716553,-42,9897.0
10330,0.3568885028362274,-1.0920311212539673,-24,6266.0,-3.648345947265625,-114,9897.0
10340,0.3567386567592621,0.1520409882068634,-5,6266.0,-3.385756015777588,-82,9897.0
10350,0.3565353751182556,-0.863886296749115,-2,6266.0,-2.953960657119751,-186,9897.0
10360,0.35807573795318604,-0.335376501083374,16,6266.0,-0.7910643815994263,-124,9897.0
10370,0.3579213321208954,1.3534035682678223,88,6266.0,3.011012315750122,-88,9897.0
10380,0.3578189015388489,2.168928623199463,51,6266.0,-1.7511566877365112,-58,9897.0
10390,0.35775622725486755,2.0411391258239746,61,6266.0,0.061739977449178696,-54,9897.0
10400,0.3582116365432739,0.1539265364408493,42,6266.0,0.08703136444091797,-40,9897.0
10410,0.35816794633865356,1.5360537767410278,-8,6266.0,-2.2874796390533447,39,9897.0
10420,0.35808685421943665,0.5576873421669006,18,6266.0,-2.450928211212158,38,9897.0
10430,0.3580319285392761,-0.2150672823190689,-27,6266.0,-5.526957988739014,-6,9897.0
10440,0.3579607903957367,-0.6764420866966248,-30,6266.0,-5.736281394958496,62,9897.0
10450,0.3582722842693329,-0.13035622239112854,-49,6266.0,-3.2804956436157227,31,9897.0
10460,0.35817256569862366,0.8920416831970215,-73,6266.0,-2.128214120864868,33,9897.0
10470,0.35802263021469116,1.8491811752319336,15,6266.0,-2.0812268257141113,-25,9897.0
10480,0.35787758231163025,0.27838659286499023,41,6266.0,0.8110905289649963,-45,9897.0
10490,0.35815882682800293,1.965766429901123,73,6266.0,1.6238330602645874,-90,9897.0
10500,0.3578599691390991,2.397531032562256,36,6266.0,5.227313041687012,-28,9897.0
10510,0.3575287461280823,2.1942708492279053,50,6266.0,2.3631186485290527,31,9897.0
10520,0.3571828305721283,-0.5216624736785889,19,6266.0,1.6867448091506958,85,9897.0
10530,0.357685387134552,-0.5164473056793213,-32,6266.0,1.4259506464004517,97,9897.0
10540,0.3574180603027344,-0.232540562748909,-20,6266.0,1.5556831359863281,47,9897.0
10550,0.3571149706840515,-0.09461504966020584,-19,6266.0,-0.9985033869743347,45,9897.0
10560,0.35677677392959595,0.352234810590744,-27,6266.0,-2.3110690116882324,112,9897.0
10570,0.3564189672470093,-1.11922287940979,-39,6266.0,2.0275795459747314,11,9897.0
10580,0.3562649190425873,-1.2291597127914429,-20,6266.0,-0.70048987865448,98,9897.0
10590,0.3559163510799408,-1.0114490985870361,-35,6266.0,1.7149410247802734,75,9897.0
10600,0.35554933547973633,-0.30599838495254517,-20,6266.0,-1.2283285856246948,-26,9897.0
10610,0.355179101228714,0.6119477152824402,22,6266.0,1.5286338329315186,36,9897.0
10620,0.3572375476360321,0.17557783424854279,19,6266.0,5.025862216949463,69,9897.0
10630,0.3570139706134796,-1.151565432548523,1,6266.0,4.609195709228516,68,9897.0
10640,0.35670730471611023,-0.1984962671995163,42,6266.0,4.46699333190918,7,9897.0
10650,0.35636577010154724,-0.3837145268917084,63,6266.0,4.935478210449219,29,9897.0
10660,0.3561021089553833,-2.3167660236358643,25,6266.0,1.2462602853775024,-39,9897.0
10670,0.3573881983757019,-1.1674296855926514,35,6266.0,0.43515369296073914,-29,9897.0
10680,0.35718682408332825,-0.5102401971817017,30,6266.0,-1.6258864402770996,-73,9897.0
10690,0.3569731116294861,-0.6288076639175415,8,6266.0,-2.6387016773223877,-75,9897.0
10700,0.35675516724586487,0.34043988585472107,43,6266.0,2.7060062885284424,37,9897.0
10710,0.35665372014045715,-0.209445521235466,33,6266.0,1.788306713104248,45,9897.0
10720,0.35647857189178467,-0.6695324182510376,62,6266.0,5.594171524047852,86,9897.0
10730,0.35630002617836,2.193345069885254,39,6266.0,3.288012742996216,84,9897.0
10740,0.3561212718486786,1.6659319400787354,21,6266.0,0.7439073920249939,94,9897.0
10750,0.3571471571922302,2.4023385047912598,-16,6266.0,-0.08690577745437622,157,9897.0
10760,0.3570219874382019,0.9557367563247681,-41,6266.0,-0.060808923095464706,177,9897.0
10770,0.35688310861587524,0.9486832022666931,-48,6266.0,0.2514426112174988,158,9897.0
10780,0.3567604124546051,-0.9762216806411743,-37,6266.0,-2.1571755409240723,116,9897.0
10790,0.3566324710845947,-0.7234976291656494,-24,6266.0,-2.24334979057312,21,9897.0
10800,0.3578619956970215,-0.17422272264957428,-7,6266.0,0.42523467540740967,-44,9897.0
10810,0.3578239679336548,0.5424886345863342,1,6266.0,-0.25930845737457275,-128,9897.0
10820,0.35777002573013306,1.1479928493499756,9,6266.0,2.005052328109741,-28,9897.0
10830,0.35769620537757874,1.786590576171875,33,6266.0,0.22746135294437408,-22,9897.0
10840,0.3581423759460449,2.0743393898010254,11,6266.0,5.4799370765686035,-2,9897.0
10850,0.35801124572753906,2.59493088722229,63,6266.0,3.33721661567688,-24,9897.0
10860,0.35784220695495605,0.07493036240339279,28,6266.0,4.641949653625488,9,9897.0
10870,0.35763007402420044,-0.26584652066230774,-31,6266.0,3.1957216262817383,24,9897.0
10880,0.357425719499588,-1.4909396171569824,-78,6266.0,3.455947160720825,60,9897.0
10890,0.3586012125015259,-2.8023455142974854,-122,6266.0,0.7677192091941833,64,9897.0
10900,0.3583567142486572,-3.1964635848999023,-83,6266.0,-2.570439338684082,47,9897.0
10910,0.3580998182296753,-2.9644172191619873,-106,6266.0,-1.9230917692184448,56,9897.0
10920,0.35782307386398315,-2.631276845932007,-79,6266.0,-1.491833209991455,23,9897.0
10930,0.3583788573741913,-0.6909408569335938,-30,6266.0,-1.963797926902771,-14,9897.0
10940,0.3581068515777588,-0.24652059376239777,-53,6266.0,0.0008887011208571494,43,9897.0
10950,0.35783451795578003,0.9747347235679626,14,6266.0,0.6786835193634033,49,9897.0
10960,0.35757461190223694,2.270915985107422,19,6266.0,2.409050464630127,14,9897.0
10970,0.358407199382782,3.4268622398376465,14,6266.0,0.5173615217208862,-11,9897.0
10980,0.3582462668418884,1.0506489276885986,34,6266.0,3.7755513191223145,-52,9897.0
10990,0.3580639064311981,1.4267122745513916,9,6266.0,2.317746639251709,-78,9897.0
11000,0.3578021228313446,0.14263682067394257,16,6266.0,0.9924616813659668,-112,9897.0
11010,0.3575102686882019,0.17111043632030487,-7,6266.0,3.7689244747161865,-111,9897.0
11020,0.3573468029499054,-1.445168137550354,30,6266.0,0.49657920002937317,-106,9897.0
11030,0.3569739758968353,-0.5845543742179871,1,6266.0,0.20819786190986633,-55,9897.0
11040,0.3565990626811981,-1.9634120464324951,6,6266.0,1.8029273748397827,-2,9897.0
11050,0.3562343418598175,-0.8608778715133667,1,6266.0,-2.3236892223358154,-11,9897.0
11060,0.3575402796268463,-3.3779025077819824,-39,6266.0,-0.6531003713607788,60,9897.0
11070,0.35726428031921387,-2.534651041030884,-27,6266.0,-1.706601858139038,106,9897.0
11080,0.35698366165161133,-1.2280651330947876,-81,6266.0,-1.1827516555786133,22,9897.0
11090,0.3567391633987427,-1.2772172689437866,-72,6266.0,-1.8698862791061401,135,9897.0
11100,0.35647815465927124,-1.0376291275024414,-23,6266.0,4.7761406898498535,120,9897.0
11110,0.3572271764278412,-0.12326900660991669,-71,6266.0,-0.10709604620933533,98,9897.0
11120,0.3570377826690674,0.45411255955696106,-66,6266.0,-0.4742164611816406,98,9897.0
11130,0.3567701578140259,1.359304666519165,-4,6266.0,0.23546911776065826,76,9897.0
11140,0.3564845621585846,1.5222225189208984,22,6266.0,-2.8191559314727783,21,9897.0
11150,0.3575955331325531,0.8433297276496887,52,6266.0,-2.298967123031616,-85,9897.0
11160,0.35739028453826904,-0.3011247217655182,30,6266.0,-1.8276296854019165,-60,9897.0
11170,0.3571473956108093,-0.5187837481498718,31,6266.0,-1.0497583150863647,-139,9897.0
11180,0.3568442165851593,-0.9537954330444336,29,6266.0,0.04788913577795029,-150,9897.0
11190,0.35665959119796753,-1.6451927423477173,24,6266.0,-3.063746452331543,-89,9897.0
11200,0.3562164902687073,-0.9573524594306946,-11,6266.0,-4.124809741973877,-45,9897.0
11210,0.3557596206665039,-0.14084599912166595,30,6266.0,0.9594665169715881,35,9897.0
11220,0.35529378056526184,-0.115730881690979,9,6266.0,0.2537020742893219,126,9897.0
11230,0.35481733083724976,0.6804018616676331,-18,6266.0,0.39767172932624817,33,9897.0
11240,0.3556130826473236,0.14131520688533783,-17,6266.0,-1.4816293716430664,41,9897.0
11250,0.3551763594150543,-3.53200101852417,-56,6266.0,-0.012305847369134426,58,9897.0
11260,0.35475412011146545,-0.827195405960083,-16,6266.0,-0.10498309135437012,81,9897.0
11270,0.3543984293937683,1.9329209327697754,-27,6266.0,0.2218775600194931,26,9897.0
11280,0.35567206144332886,0.6509427428245544,-25,6266.0,-2.2416467666625977,40,9897.0
11290,0.35559675097465515,1.426839828491211,3,6266.0,-2.5045034885406494,40,9897.0
11300,0.35560154914855957,0.3917815685272217,-43,6266.0,0.855488657951355,74,9897.0
11310,0.3556109666824341,0.7960072755813599,-30,6266.0,1.3874801397323608,174,9897.0
11320,0.35562050342559814,1.9181110858917236,-29,6266.0,-1.9742376804351807,21,9897.0
11330,0.3570437431335449,1.5845905542373657,22,6266.0,0.5446934103965759,135,9897.0
11340,0.3571997880935669,0.7224338054656982,-25,6266.0,-0.6760852932929993,68,9897.0
11350,0.3573799133300781,-0.8193760514259338,-59,6266.0,-3.048279285430908,12,9897.0
11360,0.3575287461280823,-1.6159873008728027,-25,6266.0,-2.624765157699585,-64,9897.0
11370,0.3593866229057312,0.3711585998535156,-8,6266.0,-4.1271491050720215,-35,9897.0
11380,0.35953202843666077,-1.0272881984710693,-12,6266.0,-6.564327716827393,-135,9897.0
11390,0.3596358597278595,-0.47430360317230225,-18,6266.0,-1.5709325075149536,-57,9897.0
11400,0.35970816016197205,1.2069591283798218,83,6266.0,-2.6919925212860107,-123,9897.0
11410,0.36020830273628235,0.7805261611938477,43,6266.0,-1.1523308753967285,-111,9897.0
11420,0.36025145649909973,2.2931485176086426,83,6266.0,-3.4491770267486572,-121,9897.0
11430,0.3602282702922821,2.671138286590576,64,6266.0,-1.2170603275299072,-72,9897.0
11440,0.3601883053779602,0.882920503616333,57,6266.0,-1.1806682348251343,-7,9897.0
11450,0.3601267337799072,1.6856427192687988,42,6266.0,-1.305933952331543,17,9897.0
11460,0.36078402400016785,1.7875900268554688,4,6266.0,-2.199051856994629,115,9897.0
11470,0.36073029041290283,1.6245136260986328,-5,6266.0,-4.894296646118164,133,9897.0
11480,0.360698401927948,2.3872244358062744,-30,6266.0,-5.881880283355713,80,9897.0
11490,0.3606734573841095,-0.3654373586177826,-29,6266.0,-0.6867406368255615,107,9897.0
11500,0.3607690632343292,0.937507152557373,-4,6266.0,-2.1896920204162598,2,9897.0
11510,0.36067962646484375,-0.26850199699401855,19,6266.0,-0.23495084047317505,-39,9897.0
11520,0.36057549715042114,-0.6049274206161499,-1,6266.0,2.212491750717163,-43,9897.0
11530,0.3604450225830078,0.7401024103164673,67,6266.0,2.576476812362671,-1,9897.0
11540,0.3602897524833679,2.4916110038757324,55,6266.0,1.2757128477096558,-4,9897.0
11550,0.36076903343200684,1.9121791124343872,48,6266.0,2.494427442550659,36,9897.0
11560,0.36054226756095886,0.5239971876144409,53,6266.0,3.333081007003784,-16,9897.0
11570,0.3602895438671112,0.8857566714286804,31,6266.0,5.329198837280273,-37,9897.0
11580,0.3600175678730011,0.5438414812088013,-8,6266.0,2.676062822341919,27,9897.0
11590,0.36046698689460754,-0.66335529088974,-11,6266.0,0.4156026542186737,40,9897.0
11600,0.3601791560649872,-2.404778480529785,15,6266.0,-2.0900635719299316,9,9897.0
11610,0.359912246465683,-0.03617407754063606,-7,6266.0,-2.721325159072876,9,9897.0
11620,0.3596433401107788,0.6508206725120544,-14,6266.0,-1.7436399459838867,89,9897.0
11630,0.36000582575798035,2.706860303878784,26,6266.0,-3.588427782058716,85,9897.0
11640,0.35971835255622864,2.4578802585601807,-15,6266.0,-0.8742855787277222,150,9897.0
11650,0.3594294786453247,1.5964561700820923,-4,6266.0,2.3640575408935547,175,9897.0
11660,0.359106183052063,0.992845356464386,-20,6266.0,5.015275478363037,203,9897.0
11670,0.35877713561058044,0.4335695207118988,-13,6266.0,7.402695178985596,180,9897.0
11680,0.3589514493942261,-2.054865598678589,-49,6266.0,4.736898899078369,120,9897.0
11690,0.35868901014328003,-0.40414029359817505,-11,6266.0,5.401117324829102,66,9897.0
11700,0.3583981692790985,-2.3447253704071045,19,6266.0,6.127686500549316,21,9897.0
11710,0.3580752909183502,-1.3519172668457031,-34,6266.0,4.610901832580566,32,9897.0
11720,0.35946419835090637,-2.4354617595672607,34,6266.0,4.77487325668335,43,9897.0
11730,0.35921236872673035,0.08138827234506607,91,6266.0,3.931485414505005,4,9897.0
11740,0.3589853346347809,-0.9849234819412231,10,6266.0,3.5928497314453125,13,9897.0
11750,0.3586874008178711,1.6586027145385742,37,6266.0,0.3112122714519501,-3,9897.0
11760,0.35836100578308105,0.888759434223175,35,6266.0,-0.8583813905715942,17,9897.0
11770,0.35910606384277344,0.24441002309322357,34,6266.0,-0.6990603804588318,-67,9897.0
11780,0.35883256793022156,0.35516640543937683,25,6266.0,-3.259652853012085,-135,9897.0
11790,0.35852694511413574,-1.64901864528656,10,6266.0,-3.840853214263916,-44,9897.0
11800,0.35818082094192505,-2.705367088317871,-6,6266.0,-1.8316149711608887,-35,9897.0
11810,0.3577547073364258,-1.8297758102416992,-1,6266.0,-1.8641581535339355,-43,9897.0
11820,0.3573874533176422,-2.8203835487365723,5,6266.0,2.9355673789978027,54,9897.0
11830,0.3570082485675812,-3.4207282066345215,-9,6266.0,1.832344889640808,64,9897.0
11840,0.3565658628940582,-0.5169448852539062,-14,6266.0,4.536342144012451,141,9897.0
11850,0.3572455942630768,-1.2729252576828003,-25,6266.0,3.8603639602661133,210,9897.0
11860,0.3568136394023895,1.1896759271621704,-24,6266.0,3.652265787124634,201,9897.0
11870,0.35632893443107605,-0.31266355514526367,-60,6266.0,1.1406285762786865,164,9897.0
11880,0.3558303415775299,-1.2212661504745483,-65,6266.0,-3.67767333984375,95,9897.0
11890,0.3553009033203125,-1.740484356880188,-75,6266.0,1.4736961126327515,156,9897.0
11900,0.3562243580818176,-1.8961193561553955,-124,6266.0,-1.2423206567764282,99,9897.0
11910,0.35566121339797974,-2.649979591369629,-105,6266.0,0.09310455620288849,60,9897.0
11920,0.3550807237625122,-0.48719045519828796,-59,6266.0,-0.8883261680603027,50,9897.0
11930,0.35453569889068604,0.6401068568229675,-4,6266.0,1.486153483390808,38,9897.0
11940,0.35530635714530945,1.9311437606811523,25,6266.0,-1.5912076234817505,49,9897.0
11950,0.3547964096069336,1.4228262901306152,-46,6266.0,-1.1367427110671997,83,9897.0
11960,0.35422927141189575,-0.9105203151702881,-60,6266.0,1.1165046691894531,81,9897.0
11970,0.3536413013935089,-0.35029280185699463,-81,6266.0,-0.6869006752967834,65,9897.0
11980,0.3530755043029785,-1.6668938398361206,-61,6266.0,1.3150007724761963,106,9897.0
11990,0.3553794026374817,-1.250641107559204,-118,6266.0,0.9844998717308044,88,9897.0
12000,0.3549518883228302,-0.9295560121536255,-81,6266.0,-0.40534916520118713,117,9897.0
12010,0.35448548197746277,-2.0367093086242676,-73,6266.0,-1.4760384559631348,85,9897.0
12020,0.35401099920272827,-1.059381365776062,-86,6266.0,0.6056262850761414,96,9897.0
12030,0.35473790764808655,-1.3425718545913696,-63,6266.0,-1.0887198448181152,48,9897.0
12040,0.3543176054954529,-0.3486670255661011,-54,6266.0,0.2842596471309662,97,9897.0
12050,0.35389888286590576,1.333909273147583,-83,6266.0,1.2419707775115967,136,9897.0
12060,0.35339006781578064,3.016301393508911,-74,6266.0,1.9802051782608032,184,9897.0
12070,0.355676531791687,1.3746269941329956,-59,6266.0,5.402902126312256,210,9897.0
12080,0.3553090989589691,2.4568371772766113,-23,6266.0,3.076711654663086,202,9897.0
12090,0.3549521565437317,1.279915690422058,-29,6266.0,1.4632612466812134,141,9897.0
12100,0.35462161898612976,-0.3540119528770447,-58,6266.0,0.16972070932388306,147,9897.0
12110,0.3542867600917816,-0.7967526912689209,-82,6266.0,-2.7683401107788086,21,9897.0
12120,0.35668352246284485,-0.6186637878417969,-53,6266.0,-3.818567991256714,110,9897.0
12130,0.3565850257873535,0.46696147322654724,-76,6266.0,-1.4537239074707031,77,9897.0
12140,0.35648298263549805,2.765989303588867,-28,6266.0,-2.0278122425079346,-2,9897.0
12150,0.35640987753868103,3.6973989009857178,4,6266.0,-0.15346835553646088,45,9897.0
12160,0.3584989607334137,2.5638768672943115,-5,6266.0,2.0001556873321533,75,9897.0
12170,0.3585478961467743,3.73103666305542,14,6266.0,3.2901175022125244,61,9897.0
12180,0.35860002040863037,3.77290415763855,-8,6266.0,1.0557091236114502,117,9897.0
12190,0.3586157560348511,3.684526205062866,12,6266.0,0.6626527309417725,83,9897.0
12200,0.3586142063140869,2.9727814197540283,-53,6266.0,1.2744516134262085,80,9897.0
12210,0.3612978160381317,2.583002805709839,1,6266.0,-1.9243533611297607,-82,9897.0
12220,0.3615211248397827,0.35394176840782166,-32,6266.0,-4.677894592285156,-58,9897.0
12230,0.3617481589317322,-1.2435251474380493,-44,6266.0,-9.616649627685547,-50,9897.0
12240,0.3619931936264038,-0.5061357617378235,-53,6266.0,-7.135483741760254,-31,9897.0
12250,0.36628392338752747,0.6172877550125122,-17,6266.0,-5.8022894859313965,-73,9897.0
12260,0.3667108416557312,-0.8905975222587585,-16,6266.0,-3.141141176223755,-86,9897.0
12270,0.3671402037143707,0.20300738513469696,35,6266.0,-1.245174527168274,-81,9897.0
12280,0.3675997853279114,0.5056076049804688,25,6266.0,3.846130609512329,-54,9897.0
12290,0.36884137988090515,2.308997631072998,13,6266.0,4.632587909698486,-41,9897.0
12300,0.3692954480648041,2.815471649169922,51,6266.0,5.786558151245117,87,9897.0
12310,0.3696751594543457,2.2800965309143066,8,6266.0,3.504944324493408,166,9897.0
12320,0.36997082829475403,1.269548773765564,-25,6266.0,3.078533411026001,158,9897.0
12330,0.37019699811935425,2.7129409313201904,12,6266.0,-3.5391573905944824,87,9897.0
12340,0.3702450096607208,1.1620726585388184,-7,6266.0,-1.956865906715393,-4,9897.0
12350,0.37030139565467834,-1.1563819646835327,38,6266.0,-1.4566855430603027,-94,9897.0
12360,0.3702469766139984,0.45971447229385376,61,6266.0,-8.129355430603027,-207,9897.0
12370,0.3700924813747406,-0.5829556584358215,35,6266.0,-9.487037658691406,-252,9897.0
12380,0.3718360662460327,-0.40377435088157654,69,6266.0,-10.488463401794434,-165,9897.0
12390,0.37167492508888245,-0.562893807888031,48,6266.0,-11.26157283782959,-106,9897.0
12400,0.3715141713619232,-0.20300208032131195,13,6266.0,-6.417562961578369,87,9897.0
12410,0.3712817132472992,0.8895638585090637,-10,6266.0,-1.7450013160705566,79,9897.0
12420,0.3709912896156311,0.45599791407585144,-19,6266.0,3.569528102874756,131,9897.0
12430,0.370638906955719,0.7999899387359619,14,6266.0,3.8869616985321045,-56,9897.0
12440,0.37022489309310913,0.11422030627727509,-5,6266.0,4.067692279815674,-88,9897.0
12450,0.3697662353515625,-2.1567840576171875,-22,6266.0,4.515665054321289,-61,9897.0
12460,0.3692724406719208,-2.7734055519104004,-64,6266.0,4.5970611572265625,199,9897.0
12470,0.36945071816444397,-1.526216745376587,-76,6266.0,2.413351058959961,184,9897.0
12480,0.36893218755722046,-2.2886297702789307,-86,6266.0,-2.3257498741149902,55,9897.0
12490,0.3683663308620453,-2.497612476348877,-38,6266.0,-5.143034934997559,-53,9897.0
12500,0.36776527762413025,-1.341761827468872,-9,6266.0,-1.7430919408798218,-70,9897.0
12510,0.3658602237701416,-2.3858213424682617,-14,6266.0,-2.2568225860595703,-80,9897.0
12520,0.36508604884147644,-2.2613072395324707,-46,6266.0,0.024301882833242416,-108,9897.0
12530,0.3643059730529785,-1.7093682289123535,6,6266.0,-0.3940622806549072,-45,9897.0
12540,0.3635561764240265,-0.5165871381759644,21,6266.0,0.8914593458175659,-37,9897.0
12550,0.36279407143592834,0.8586941361427307,14,6266.0,4.869015216827393,17,9897.0
12560,0.3637232482433319,-1.3711559772491455,9,6266.0,6.03528356552124,15,9897.0
12570,0.3630600869655609,-3.564103603363037,-36,6266.0,4.708185195922852,51,9897.0
12580,0.36240431666374207,-4.228603839874268,-41,6266.0,1.5319335460662842,-3,9897.0
12590,0.361780047416687,-3.370680332183838,-41,6266.0,3.0216917991638184,31,9897.0
12600,0.36127281188964844,-4.390769958496094,-9,6266.0,1.2343398332595825,-13,9897.0
12610,0.3607387840747833,-5.203232288360596,-72,6266.0,4.337752819061279,15,9897.0
12620,0.36021074652671814,-4.428274631500244,-53,6266.0,2.759528398513794,-23,9897.0
12630,0.3596675395965576,-5.183804035186768,-78,6266.0,4.032663345336914,27,9897.0
12640,0.359117716550827,-4.598525524139404,-65,6266.0,1.448130488395691,-11,9897.0
12650,0.35813090205192566,-3.1860299110412598,-58,6266.0,-0.2891615927219391,-5,9897.0
12660,0.35762688517570496,-3.5047104358673096,-89,6266.0,3.362647771835327,-38,9897.0
12670,0.3571392297744751,-3.849836826324463,-55,6266.0,0.3911842107772827,-58,9897.0
12680,0.35666123032569885,-3.1047284603118896,-45,6266.0,1.1477504968643188,13,9897.0
12690,0.3567601144313812,-1.6262364387512207,-8,6266.0,-2.536163330078125,-54,9897.0
12700,0.3563847243785858,0.12865212559700012,37,6266.0,-0.4980767071247101,-60,9897.0
12710,0.3560909926891327,-2.6898725032806396,12,6266.0,0.5011574029922485,-33,9897.0
12720,0.35582423210144043,1.567470669746399,75,6266.0,1.5759963989257812,8,9897.0
12730,0.3569105267524719,0.49124178290367126,77,6266.0,1.8007988929748535,8,9897.0
12740,0.35672101378440857,1.7284425497055054,64,6266.0,1.267998456954956,-45,9897.0
12750,0.35655784606933594,1.0942513942718506,89,6266.0,2.050145149230957,-15,9897.0
12760,0.3564349114894867,1.7482507228851318,70,6266.0,-2.3177731037139893,-66,9897.0
12770,0.356249064207077,0.7277790307998657,71,6266.0,-0.393720805644989,-42,9897.0
12780,0.3555602729320526,1.359795331954956,123,6266.0,0.34048449993133545,-56,9897.0
12790,0.35535040497779846,0.7796415686607361,82,6266.0,1.2074840068817139,-13,9897.0
12800,0.3552272617816925,2.9663805961608887,85,6266.0,-1.1764769554138184,-90,9897.0
12810,0.3551246225833893,3.651571273803711,94,6266.0,1.3576534986495972,79,9897.0
12820,0.35614651441574097,2.7055578231811523,87,6266.0,3.3686068058013916,-20,9897.0
12830,0.3561096787452698,1.5920354127883911,90,6266.0,-0.1459358185529709,49,9897.0
12840,0.3560682535171509,0.8855196237564087,37,6266.0,4.435189723968506,78,9897.0
12850,0.3559948205947876,1.2031800746917725,40,6266.0,0.9479485750198364,82,9897.0
12860,0.3559337854385376,0.6669192910194397,7,6266.0,1.6821352243423462,87,9897.0
12870,0.3545438349246979,0.0836973562836647,-1,6266.0,-0.4486638903617859,89,9897.0
12880,0.3542178273200989,-0.02313063107430935,3,6266.0,1.3171526193618774,60,9897.0
12890,0.35386571288108826,1.4442799091339111,-10,6266.0,-0.3885841965675354,50,9897.0
12900,0.3534844219684601,1.4547667503356934,52,6266.0,-1.4563087224960327,104,9897.0
12910,0.35366860032081604,3.235501289367676,7,6266.0,3.5699245929718018,164,9897.0
12920,0.35326728224754333,4.251903533935547,23,6266.0,-1.3923072814941406,130,9897.0
12930,0.3527320623397827,2.9236268997192383,12,6266.0,-2.155954122543335,151,9897.0
12940,0.35208380222320557,2.6367552280426025,-32,6266.0,2.1572537422180176,201,9897.0
12950,0.3540608584880829,3.393338680267334,-13,6266.0,1.5954335927963257,232,9897.0
12960,0.35351938009262085,2.6476242542266846,-5,6266.0,0.6142467260360718,168,9897.0
12970,0.352961927652359,1.6901265382766724,-30,6266.0,3.884061336517334,165,9897.0
12980,0.35238340497016907,0.26509931683540344,-42,6266.0,-0.2668383717536926,39,9897.0
12990,0.35181185603141785,-1.3470020294189453,-45,6266.0,3.1626343727111816,65,9897.0
13000,0.35179805755615234,-0.5844863057136536,-50,6266.0,1.0680251121520996,51,9897.0
13010,0.35133597254753113,-1.9234051704406738,-53,6266.0,2.62269926071167,120,9897.0
13020,0.35086801648139954,-0.7112147808074951,-95,6266.0,5.705356597900391,60,9897.0
13030,0.3503739833831787,-1.0086464881896973,-69,6266.0,4.40302038192749,147,9897.0
13040,0.3521752953529358,0.21988898515701294,-108,6266.0,3.4846479892730713,101,9897.0
13050,0.3518962264060974,-1.7941534519195557,-107,6266.0,-2.6383373737335205,2,9897.0
13060,0.35163062810897827,-1.670644998550415,-62,6266.0,-0.12156059592962265,77,9897.0
13070,0.35139453411102295,-0.002050210954621434,-79,6266.0,1.4375537633895874,103,9897.0
13080,0.3510667681694031,2.695952892303467,-49,6266.0,1.0141671895980835,59,9897.0
13090,0.3536403477191925,4.020604610443115,-43,6266.0,2.3746607303619385,80,9897.0
13100,0.35350412130355835,2.7888710498809814,-32,6266.0,2.3222033977508545,117,9897.0
13110,0.35337480902671814,3.289686679840088,-49,6266.0,-0.6343991756439209,74,9897.0
13120,0.3532377779483795,3.2280592918395996,7,6266.0,0.9603166580200195,60,9897.0
13130,0.355410635471344,2.6283111572265625,-20,6266.0,0.1678108274936676,128,9897.0
13140,0.3553237318992615,0.7222188115119934,-61,6266.0,1.0029089450836182,121,9897.0
13150,0.355294406414032,-0.019983310252428055,-106,6266.0,4.784943103790283,43,9897.0
13160,0.3552972376346588,-1.242327332496643,-90,6266.0,1.6986700296401978,55,9897.0
13170,0.35528022050857544,-1.8744444847106934,-77,6266.0,-2.934515953063965,-34,9897.0
13180,0.3584549129009247,-1.76718270778656,-90,6266.0,-0.8739540576934814,-72,9897.0
13190,0.3585122525691986,-3.800863265991211,-86,6266.0,-2.7259581089019775,-96,9897.0
13200,0.3586057424545288,-2.8611369132995605,-25,6266.0,-6.838547229766846,-178,9897.0
13210,0.3586905002593994,-2.8547959327697754,-37,6266.0,-1.998382806777954,-138,9897.0
13220,0.3604782223701477,-0.31629109382629395,46,6266.0,-1.20726478099823,-106,9897.0
13230,0.3605749309062958,1.8580284118652344,74,6266.0,0.956195056438446,-112,9897.0
13240,0.36064088344573975,5.459683895111084,96,6266.0,-0.9183050990104675,-43,9897.0
13250,0.3606841266155243,4.239930152893066,113,6266.0,2.532899856567383,-98,9897.0
13260,0.3612109422683716,3.6773605346679688,82,6266.0,2.435708522796631,-83,9897.0
13270,0.3612299859523773,3.5746419429779053,98,6266.0,1.4155126810073853,-105,9897.0
13280,0.3612343966960907,0.09818018972873688,58,6266.0,4.074370384216309,-69,9897.0
13290,0.3612549602985382,2.336543083190918,50,6266.0,-0.9246963262557983,-83,9897.0
13300,0.361186146736145,0.2724577784538269,6,6266.0,-4.732522010803223,-120,9897.0
13310,0.3638954162597656,-0.9555150270462036,-38,6266.0,-6.323112964630127,-57,9897.0
13320,0.36385565996170044,-2.4903345108032227,-49,6266.0,-7.468832015991211,-88,9897.0
13330,0.36374640464782715,-2.002601146697998,-87,6266.0,-5.137137413024902,-8,9897.0
13340,0.3635915517807007,-1.7926092147827148,-47,6266.0,-7.636956214904785,2,9897.0
13350,0.3643340766429901,-0.3716471195220947,-43,6266.0,-5.995523929595947,-42,9897.0
13360,0.3641330897808075,0.12380494177341461,-35,6266.0,-4.264719009399414,-78,9897.0
13370,0.36391061544418335,1.9227591753005981,47,6266.0,0.6350509524345398,-65,9897.0
13380,0.3636529743671417,3.213850975036621,51,6266.0,1.9017765522003174,-58,9897.0
13390,0.363113135099411,2.195247173309326,41,6266.0,5.903263092041016,-39,9897.0
13400,0.36279720067977905,-0.7719820141792297,-35,6266.0,3.4595417976379395,-82,9897.0
13410,0.36245331168174744,-2.2536158561706543,-54,6266.0,2.5836915969848633,-21,9897.0
13420,0.3620796203613281,-3.1758275032043457,-87,6266.0,1.4469938278198242,2,9897.0
13430,0.3616682291030884,-3.581373453140259,-75,6266.0,-2.3087918758392334,-6,9897.0
13440,0.3638492822647095,-3.3180789947509766,-92,6266.0,-4.296905040740967,27,9897.0
13450,0.36349231004714966,-3.631871461868286,-106,6266.0,-7.460366249084473,0,9897.0
13460,0.3630968928337097,-2.8176043033599854,-87,6266.0,-5.970505237579346,-2,9897.0
13470,0.36271047592163086,-0.7164767384529114,-28,6266.0,-7.957921504974365,-63,9897.0
13480,0.36239734292030334,-1.003484845161438,-58,6266.0,-4.409277439117432,-30,9897.0
13490,0.36190977692604065,0.2696041464805603,21,6266.0,-3.6243293285369873,-71,9897.0
13500,0.3613888621330261,1.563849687576294,26,6266.0,3.7957446575164795,57,9897.0
13510,0.36087745428085327,3.253415822982788,44,6266.0,9.065411567687988,51,9897.0
13520,0.3603164553642273,4.942638397216797,51,6266.0,5.207270622253418,108,9897.0
13530,0.3616776764392853,2.4941022396087646,57,6266.0,10.19735050201416,111,9897.0
13540,0.36110424995422363,0.8390721082687378,20,6266.0,6.767569541931152,72,9897.0
13550,0.36055028438568115,-0.7317297458648682,7,6266.0,1.3687938451766968,-34,9897.0
13560,0.3599478006362915,-2.518341302871704,-42,6266.0,1.2288236618041992,-47,9897.0
13570,0.36137688159942627,-4.765634536743164,-32,6266.0,-0.7166947722434998,-120,9897.0
13580,0.3608265519142151,-6.134886264801025,-54,6266.0,-2.0882208347320557,-126,9897.0
13590,0.36029425263404846,-5.785935401916504,-93,6266.0,-3.4894533157348633,-164,9897.0
13600,0.35973793268203735,-4.186367511749268,-28,6266.0,-2.511538028717041,-91,9897.0
13610,0.35926398634910583,0.07284370064735413,32,6266.0,-3.8921451568603516,-129,9897.0
13620,0.3586789667606354,0.44687318801879883,58,6266.0,2.6276662349700928,0,9897.0
13630,0.3586868643760681,2.7472097873687744,96,6266.0,6.366829872131348,-19,9897.0
13640,0.3581438362598419,3.2579171657562256,108,6266.0,6.36383581161499,-26,9897.0
13650,0.35765689611434937,2.4435653686523438,84,6266.0,8.575210571289062,21,9897.0
13660,0.36030781269073486,2.381071090698242,55,6266.0,5.344301223754883,40,9897.0
13670,0.3599846661090851,1.6130343675613403,13,6266.0,5.9855804443359375,-24,9897.0
13680,0.35966750979423523,0.25490307807922363,16,6266.0,0.6038060188293457,-94,9897.0
13690,0.3594191372394562,-2.562741994857788,-56,6266.0,0.9108743071556091,-104,9897.0
13700,0.3606991171836853,-4.072957515716553,-10,6266.0,-3.827648639678955,-137,9897.0
13710,0.3605951964855194,-2.458068370819092,1,6266.0,-4.728862285614014,-162,9897.0
13720,0.3604685664176941,-2.7776970863342285,42,6266.0,-9.109880447387695,-201,9897.0
13730,0.36037254333496094,-0.34239450097084045,26,6266.0,-9.740371704101562,-101,9897.0
13740,0.36131909489631653,0.8270267844200134,40,6266.0,-2.5535824298858643,-52,9897.0
13750,0.3613452911376953,1.6573500633239746,14,6266.0,-5.114551067352295,-15,9897.0
13760,0.36135923862457275,2.74827241897583,38,6266.0,0.3282923698425293,-1,9897.0
13770,0.3613964915275574,2.0356826782226562,61,6266.0,2.6053249835968018,78,9897.0
13780,0.36144953966140747,4.150213718414307,71,6266.0,1.8096812963485718,91,9897.0
13790,0.36292147636413574,2.0528697967529297,20,6266.0,3.379002809524536,90,9897.0
13800,0.363098680973053,1.7716995477676392,19,6266.0,5.394904613494873,94,9897.0
13810,0.36323854327201843,-1.1444220542907715,-61,6266.0,5.758370876312256,146,9897.0
13820,0.36332401633262634,-0.5527672171592712,-57,6266.0,-0.4382740259170532,-49,9897.0
13830,0.3620607852935791,-2.4767730236053467,-66,6266.0,-3.717714786529541,-61,9897.0
13840,0.3619384467601776,0.4307272732257843,-5,6266.0,-2.2882399559020996,-99,9897.0
13850,0.36174169182777405,-0.32718637585639954,38,6266.0,-2.855334997177124,-181,9897.0
13860,0.36150023341178894,-0.24317725002765656,15,6266.0,-4.018907070159912,-153,9897.0
13870,0.36122840642929077,0.8448085188865662,46,6266.0,-1.623494029045105,-38,9897.0
13880,0.36254915595054626,0.6024681329727173,13,6266.0,-1.1345582008361816,-12,9897.0
13890,0.3623073399066925,0.9028917551040649,46,6266.0,-0.6503176093101501,11,9897.0
13900,0.3620191812515259,0.7534478902816772,55,6266.0,1.1952619552612305,127,9897.0
13910,0.36173027753829956,-0.49254709482192993,3,6266.0,2.0148730278015137,144,9897.0
13920,0.36279749870300293,1.081840991973877,-10,6266.0,2.041210412979126,140,9897.0
13930,0.3625948429107666,-1.0918691158294678,-53,6266.0,3.0746238231658936,176,9897.0
13940,0.36240482330322266,-0.7412546873092651,-42,6266.0,1.4405829906463623,109,9897.0
13950,0.3622084856033325,-1.235748529434204,-46,6266.0,2.4475014209747314,138,9897.0
13960,0.3619922399520874,-0.5610889196395874,-20,6266.0,2.2222185134887695,96,9897.0
13970,0.36173689365386963,1.356296181678772,-26,6266.0,0.6150228977203369,61,9897.0
13980,0.36143866181373596,0.5576614737510681,5,6266.0,4.499405384063721,92,9897.0
13990,0.36112716794013977,1.0068925619125366,38,6266.0,0.42317408323287964,76,9897.0
14000,0.36078137159347534,0.7310003638267517,39,6266.0,2.238739490509033,47,9897.0
14010,0.36140769720077515,-2.179713487625122,23,6266.0,5.830283164978027,67,9897.0
14020,0.36100536584854126,-2.170853853225708,14,6266.0,3.6040217876434326,15,9897.0
14030,0.3605344593524933,-3.60166335105896,36,6266.0,2.608138084411621,-33,9897.0
14040,0.35992515087127686,-4.229145526885986,25,6266.0,1.7992660999298096,-85,9897.0
14050,0.3595232367515564,-4.600589275360107,-5,6266.0,1.7563939094543457,-108,9897.0
14060,0.3588330149650574,-2.700939178466797,106,6266.0,-0.958545982837677,-126,9897.0
14070,0.3581407368183136,-1.366033911705017,80,6266.0,1.610115885734558,-19,9897.0
14080,0.35745492577552795,-1.2652918100357056,53,6266.0,0.9441832900047302,-78,9897.0
14090,0.3567555248737335,0.20052289962768555,84,6266.0,3.4227490425109863,-73,9897.0
14100,0.3560284972190857,1.7968932390213013,104,6266.0,2.96039080619812,7,9897.0
14110,0.3552739918231964,3.508258819580078,117,6266.0,3.5152206420898438,-11,9897.0
14120,0.3545224070549011,2.4546058177948,86,6266.0,0.6857545375823975,42,9897.0
14130,0.3538513481616974,0.03318622708320618,57,6266.0,1.7365343570709229,-70,9897.0
14140,0.35538816452026367,-1.5955708026885986,38,6266.0,4.035032749176025,-42,9897.0
14150,0.3548743724822998,-3.660984754562378,-21,6266.0,1.2790195941925049,-1,9897.0
14160,0.3543812930583954,-5.603995323181152,-40,6266.0,-5.08379602432251,-165,9897.0
14170,0.3539389669895172,-4.924782752990723,-22,6266.0,-4.523547649383545,-170,9897.0
14180,0.35374391078948975,-4.49627161026001,0,6266.0,-5.593782424926758,-120,9897.0
14190,0.3534417748451233,-2.1531572341918945,91,6266.0,0.7668682336807251,-118,9897.0
14200,0.35322123765945435,1.4119290113449097,99,6266.0,0.15376143157482147,-163,9897.0
