timestamp,kalman.stateZ,gyro.x,gyro.xRaw,gyro.xVariance,gyro.y,gyro.yRaw,gyro.yVariance
0,0.2964600920677185,-0.9145706295967102,-13,5346.0,1.7981278896331787,32,9844.0
10,0.29657474160194397,-0.5759724378585815,-2,5346.0,2.1226558685302734,36,9844.0
20,0.29670053720474243,-0.2701554298400879,-1,5346.0,2.2087833881378174,29,9844.0
30,0.29682910442352295,0.27472689747810364,8,5346.0,2.3964216709136963,43,9844.0
40,0.2969515323638916,1.2812917232513428,22,5346.0,2.5117697715759277,42,9844.0
50,0.29579219222068787,1.3385634422302246,25,5346.0,2.540562391281128,44,9844.0
60,0.295864075422287,1.1766735315322876,20,5346.0,2.2898240089416504,33,9844.0
70,0.2958983778953552,0.2169574499130249,5,5346.0,1.979417085647583,31,9844.0
80,0.2959582209587097,-0.2904251217842102,-6,5346.0,1.8642151355743408,22,9844.0
90,0.2955125570297241,-0.8871005773544312,-17,5346.0,1.674933671951294,27,9844.0
100,0.29555222392082214,-0.9056040644645691,-12,5346.0,1.365053653717041,21,9844.0
110,0.2956068217754364,-0.68524169921875,-12,5346.0,1.2309393882751465,18,9844.0
120,0.2956734001636505,-0.5999027490615845,-4,5346.0,1.6340053081512451,20,9844.0
130,0.2952994108200073,0.07988859713077545,6,5346.0,1.1267632246017456,19,9844.0
140,0.29534223675727844,0.5439440011978149,13,5346.0,1.189052939414978,16,9844.0
150,0.2953757345676422,0.8781517148017883,19,5346.0,0.9990645051002502,9,9844.0
160,0.2953993082046509,0.8320272564888,14,5346.0,0.6679927706718445,14,9844.0
170,0.29541724920272827,1.0138630867004395,17,5346.0,0.35453173518180847,3,9844.0
180,0.2950858175754547,0.266564279794693,-2,5346.0,-0.06766770035028458,-8,9844.0
190,0.2950834035873413,0.6885947585105896,25,5346.0,-2.963346481323242,-73,9844.0
200,0.2951650619506836,2.792346477508545,41,5346.0,-9.72228717803955,-214,9844.0
210,0.2953716516494751,0.4983944594860077,41,5346.0,-20.09421730041504,-423,9844.0
220,0.2948400676250458,4.2020134925842285,92,5346.0,-40.92540740966797,-814,9844.0
230,0.29523414373397827,4.400167942047119,111,5346.0,-65.14453125,-1211,9844.0
240,0.2955038547515869,9.055700302124023,77,5346.0,-93.5442886352539,-1611,9844.0
250,0.2956223785877228,6.766404628753662,46,5346.0,-119.84598541259766,-2091,9844.0
260,0.29581785202026367,4.2102789878845215,96,5346.0,-138.43898010253906,-2322,9844.0
270,0.2936307489871979,2.2327563762664795,9,5346.0,-143.4863739013672,-2348,9844.0
280,0.292819082736969,2.3756799697875977,55,5346.0,-136.7348175048828,-2027,9844.0
290,0.2915251553058624,2.5197064876556396,-22,5346.0,-114.79620361328125,-1695,9844.0
300,0.29437631368637085,2.2737460136413574,7,5346.0,-83.52851867675781,-1112,9844.0
310,0.2929740250110626,2.0446972846984863,87,5346.0,-46.774993896484375,-681,9844.0
320,0.2925643026828766,4.9029693603515625,44,5346.0,-13.580655097961426,-61,9844.0
330,0.2927902936935425,6.641584873199463,135,5346.0,10.814632415771484,270,9844.0
340,0.2931021451950073,10.716053009033203,122,5346.0,24.173227310180664,616,9844.0
350,0.29558509588241577,13.483667373657227,213,5346.0,24.578815460205078,418,9844.0
360,0.2957971692085266,13.533408164978027,115,5346.0,15.29731559753418,251,9844.0
370,0.2960372567176819,12.458322525024414,224,5346.0,-4.891457557678223,-296,9844.0
380,0.29585814476013184,7.54530143737793,133,5346.0,-19.4481143951416,-394,9844.0
390,0.2956904470920563,4.598580360412598,153,5346.0,-32.4617919921875,-603,9844.0
400,0.29935744404792786,0.6691544055938721,-52,5346.0,-39.42222595214844,-558,9844.0
410,0.29959946870803833,-2.2825398445129395,-151,5346.0,-37.359867095947266,-431,9844.0
420,0.2995489239692688,-6.442183494567871,-128,5346.0,-34.24551773071289,-434,9844.0
430,0.2994594871997833,-4.771482944488525,-109,5346.0,-26.290822982788086,-403,9844.0
440,0.3008517622947693,-5.197640895843506,-141,5346.0,-14.493322372436523,-139,9844.0
450,0.3009822368621826,-1.4392354488372803,-4,5346.0,-1.284655213356018,57,9844.0
460,0.3011781871318817,-1.0099047422409058,52,5346.0,12.893167495727539,184,9844.0
470,0.30116474628448486,-2.3465683460235596,-15,5346.0,22.90674591064453,281,9844.0
480,0.3015095591545105,-3.3882458209991455,-94,5346.0,26.70009422302246,361,9844.0
490,0.3068818747997284,-1.7259786128997803,82,5346.0,31.559450149536133,463,9844.0
500,0.3067745268344879,-5.901939392089844,15,5346.0,34.05326461791992,394,9844.0
510,0.3075958788394928,-10.653342247009277,-148,5346.0,34.41695785522461,511,9844.0
520,0.3085022568702698,-11.144311904907227,-168,5346.0,33.347900390625,595,9844.0
530,0.3127620220184326,-15.280999183654785,-208,5346.0,30.926193237304688,536,9844.0
540,0.31404468417167664,-11.140840530395508,-320,5346.0,23.99925994873047,580,9844.0
550,0.3148330748081207,-11.642539024353027,-184,5346.0,24.452144622802734,427,9844.0
560,0.3166821599006653,-6.028570652008057,-120,5346.0,20.657381057739258,280,9844.0
570,0.31806230545043945,-2.399003028869629,-17,5346.0,20.506860733032227,270,9844.0
580,0.3233286142349243,3.584540367126465,199,5346.0,17.24088478088379,331,9844.0
590,0.32502177357673645,7.839125633239746,115,5346.0,16.579687118530273,257,9844.0
600,0.3267108201980591,10.092744827270508,95,5346.0,12.917981147766113,335,9844.0
610,0.32844221591949463,8.285244941711426,101,5346.0,10.718140602111816,204,9844.0
620,0.3306472897529602,8.203046798706055,-19,5346.0,5.469846725463867,116,9844.0
630,0.33221423625946045,4.832805156707764,35,5346.0,1.9495652914047241,-1,9844.0
640,0.33359986543655396,2.925816297531128,-75,5346.0,-1.7282936573028564,-24,9844.0
650,0.3348139524459839,-2.494335174560547,-95,5346.0,-3.651383876800537,-45,9844.0
660,0.335959255695343,-4.941466331481934,-91,5346.0,-10.03154182434082,-265,9844.0
670,0.3369772434234619,-8.372644424438477,-204,5346.0,-13.627740859985352,-166,9844.0
680,0.3379304111003876,-7.1954545974731445,-35,5346.0,-16.268125534057617,-353,9844.0
690,0.3387638330459595,-6.659556865692139,-126,5346.0,-14.21712875366211,-397,9844.0
700,0.33950623869895935,-3.8287315368652344,-19,5346.0,-15.88566780090332,-274,9844.0
710,0.33943018317222595,-2.873487949371338,72,5346.0,-17.052234649658203,-430,9844.0
720,0.33985835313796997,-2.8126220703125,-39,5346.0,-14.12833309173584,-408,9844.0
730,0.34019044041633606,3.7301440238952637,93,5346.0,-14.095090866088867,-265,9844.0
740,0.3402729034423828,2.931597948074341,117,5346.0,-15.349555969238281,-436,9844.0
750,0.34012842178344727,2.277423620223999,45,5346.0,-16.172380447387695,-378,9844.0
760,0.33981752395629883,3.441692352294922,135,5346.0,-14.055259704589844,-251,9844.0
770,0.33933618664741516,3.735978841781616,146,5346.0,-14.534453392028809,-350,9844.0
780,0.3386693596839905,2.3105828762054443,62,5346.0,-13.194478988647461,-234,9844.0
790,0.33825919032096863,3.42826247215271,48,5346.0,-11.497127532958984,-231,9844.0
800,0.33661240339279175,1.3096883296966553,169,5346.0,-9.768187522888184,-173,9844.0
810,0.3357233703136444,1.7331981658935547,95,5346.0,-6.619626998901367,-226,9844.0
820,0.33476319909095764,2.5405983924865723,-84,5346.0,-5.6746134757995605,-69,9844.0
830,0.3337107002735138,0.8465058207511902,48,5346.0,-8.232536315917969,7,9844.0
840,0.3314620852470398,1.0996336936950684,-6,5346.0,-7.159327983856201,41,9844.0
850,0.3302324414253235,-0.5393092632293701,-156,5346.0,-0.025089533999562263,-79,9844.0
860,0.32893896102905273,0.8610426783561707,-87,5346.0,-10.282182693481445,68,9844.0
870,0.32890552282333374,-3.6753182411193848,-61,5346.0,-11.497909545898438,-213,9844.0
880,0.3270975947380066,-3.329972743988037,11,5346.0,-15.651751518249512,-373,9844.0
890,0.3271551728248596,-4.661301612854004,-21,5346.0,-16.65366554260254,-409,9844.0
900,0.325578898191452,-5.012032508850098,-13,5346.0,-12.734119415283203,-232,9844.0
910,0.32554376125335693,-1.8096647262573242,-6,5346.0,-10.355865478515625,84,9844.0
920,0.3240047097206116,1.580464482307434,-15,5346.0,-13.044440269470215,-89,9844.0
930,0.32523998618125916,1.1729408502578735,-100,5346.0,-5.413425922393799,-85,9844.0
940,0.3240894377231598,2.0313332080841064,31,5346.0,-7.843091011047363,-236,9844.0
950,0.32408109307289124,2.347132921218872,68,5346.0,-3.4876174926757812,-49,9844.0
960,0.3235214352607727,1.470212459564209,4,5346.0,-9.663017272949219,23,9844.0
970,0.3217974901199341,4.122404098510742,-24,5346.0,-12.008392333984375,-101,9844.0
980,0.3212192952632904,0.0020725068170577288,-1,5346.0,-8.557952880859375,-238,9844.0
990,0.3207363486289978,1.7625256776809692,58,5346.0,-13.099762916564941,-321,9844.0
1000,0.3204045593738556,0.8143404722213745,22,5346.0,-6.766641616821289,-84,9844.0
1010,0.3207719922065735,-0.3692818880081177,1,5346.0,-12.915061950683594,-117,9844.0
1020,0.32038772106170654,-0.8032693266868591,15,5346.0,-15.660832405090332,-289,9844.0
1030,0.3197745084762573,1.2348175048828125,83,5346.0,-12.83631706237793,-334,9844.0
1040,0.3198460638523102,0.9047037363052368,90,5346.0,-11.56568431854248,-239,9844.0
1050,0.3196370005607605,4.474327087402344,77,5346.0,-11.569567680358887,-44,9844.0
1060,0.3197239339351654,4.500067234039307,-22,5346.0,-5.027932643890381,268,9844.0
1070,0.31987664103507996,7.082657337188721,83,5346.0,-5.963786602020264,28,9844.0
1080,0.3198812007904053,1.9017707109451294,46,5346.0,0.8194105625152588,35,9844.0
1090,0.3203791081905365,2.9432260990142822,76,5346.0,6.261965751647949,-60,9844.0
1100,0.32020244002342224,3.0886435508728027,82,5346.0,9.031120300292969,35,9844.0
1110,0.3205532431602478,3.631157159805298,51,5346.0,4.154058933258057,163,9844.0
1120,0.3208925127983093,3.0413594245910645,28,5346.0,8.26032829284668,259,9844.0
1130,0.321241170167923,1.1641931533813477,-32,5346.0,10.63525104522705,324,9844.0
1140,0.3217856287956238,-0.5045319199562073,-71,5346.0,12.209510803222656,183,9844.0
1150,0.32373127341270447,-1.4423236846923828,-74,5346.0,9.523781776428223,82,9844.0
1160,0.32416531443595886,-3.5869240760803223,-44,5346.0,13.373286247253418,86,9844.0
1170,0.3246515989303589,-0.8367787003517151,131,5346.0,12.589579582214355,221,9844.0
1180,0.3251572847366333,-3.049192428588867,43,5346.0,14.290846824645996,86,9844.0
1190,0.32660889625549316,-5.520412445068359,-94,5346.0,13.451927185058594,181,9844.0
1200,0.3273378908634186,-3.852720260620117,-160,5346.0,13.530487060546875,396,9844.0
1210,0.32808804512023926,-8.234294891357422,-111,5346.0,14.837478637695312,327,9844.0
1220,0.3289942741394043,-6.469135284423828,-200,5346.0,21.179882049560547,334,9844.0
1230,0.3313939571380615,-4.031686305999756,-118,5346.0,16.15369415283203,238,9844.0
1240,0.3322170078754425,-4.881147861480713,-12,5346.0,12.380729675292969,186,9844.0
1250,0.333126962184906,-1.4514737129211426,57,5346.0,11.45146656036377,23,9844.0
1260,0.3340217173099518,-2.0041675567626953,8,5346.0,8.012922286987305,62,9844.0
1270,0.3348087668418884,-2.719036340713501,79,5346.0,13.230292320251465,185,9844.0
1280,0.3352981507778168,-3.6780052185058594,29,5346.0,3.551666736602783,-56,9844.0
1290,0.33595624566078186,0.8636897802352905,5,5346.0,-1.4024455547332764,21,9844.0
1300,0.33649760484695435,-0.09199246764183044,11,5346.0,-0.5310149788856506,77,9844.0
1310,0.33692115545272827,-0.39766812324523926,-79,5346.0,-2.14275860786438,-23,9844.0
1320,0.3368087708950043,0.3336627781391144,-109,5346.0,-5.991069316864014,2,9844.0
1330,0.33711621165275574,-0.2835995554924011,-1,5346.0,-4.0909247398376465,-99,9844.0
1340,0.33734649419784546,0.8101587295532227,39,5346.0,-8.940875053405762,-310,9844.0
1350,0.3375016152858734,-1.1007615327835083,31,5346.0,-3.1973650455474854,-291,9844.0
1360,0.33783069252967834,-0.8141319751739502,29,5346.0,-4.967912673950195,-80,9844.0
1370,0.3356817066669464,1.8920073509216309,200,5346.0,-5.542784214019775,-10,9844.0
1380,0.33577871322631836,1.8933535814285278,21,5346.0,-1.9243513345718384,29,9844.0
1390,0.33570268750190735,1.737406611442566,-123,5346.0,-0.7495575547218323,104,9844.0
1400,0.3355536460876465,3.7948286533355713,-42,5346.0,-4.038313388824463,90,9844.0
1410,0.33436349034309387,1.9474873542785645,28,5346.0,0.7228359580039978,67,9844.0
1420,0.3338187336921692,4.402429103851318,52,5346.0,-1.875038981437683,-128,9844.0
1430,0.3332735002040863,1.7676904201507568,26,5346.0,4.4056901931762695,-95,9844.0
1440,0.33281955122947693,0.30246758460998535,113,5346.0,-0.35857322812080383,-71,9844.0
1450,0.3333532214164734,2.6261253356933594,171,5346.0,-1.6751140356063843,-109,9844.0
1460,0.3329223394393921,-0.9358184337615967,133,5346.0,-0.645790696144104,-26,9844.0
1470,0.33248382806777954,2.7966103553771973,12,5346.0,-5.97939920425415,1,9844.0
1480,0.33194413781166077,4.337053298950195,-86,5346.0,-0.504313588142395,165,9844.0
1490,0.33128833770751953,2.3048906326293945,-84,5346.0,-3.3358066082000732,114,9844.0
1500,0.3292178213596344,-1.6903400421142578,-34,5346.0,-4.24148416519165,-64,9844.0
1510,0.328643798828125,0.9270134568214417,37,5346.0,-4.274654865264893,-254,9844.0
1520,0.3280562460422516,-3.613079786300659,-26,5346.0,-2.2125773429870605,-284,9844.0
1530,0.3273385763168335,-0.31730222702026367,43,5346.0,-3.432210683822632,-53,9844.0
1540,0.3271360993385315,-0.7106174230575562,0,5346.0,-2.3691694736480713,73,9844.0
1550,0.32646679878234863,-2.9298956394195557,-62,5346.0,-3.5204217433929443,7,9844.0
1560,0.32582491636276245,-5.197197914123535,-148,5346.0,2.339478015899658,57,9844.0
1570,0.3250742554664612,-4.194130897521973,-93,5346.0,1.9587968587875366,-149,9844.0
1580,0.32433831691741943,-4.476726055145264,40,5346.0,-1.4701578617095947,-134,9844.0
1590,0.3254149854183197,-2.5786936283111572,56,5346.0,-0.2594901919364929,83,9844.0
1600,0.32489922642707825,-1.1704459190368652,59,5346.0,-5.120986461639404,-68,9844.0
1610,0.32436603307724,1.2193816900253296,-17,5346.0,-3.376657724380493,-64,9844.0
1620,0.3237917125225067,2.454404354095459,-35,5346.0,0.014883332885801792,-213,9844.0
1630,0.3250986933708191,0.6093268394470215,89,5346.0,-2.02325701713562,-147,9844.0
1640,0.32484006881713867,2.359264373779297,103,5346.0,-10.140658378601074,-65,9844.0
1650,0.3246256411075592,1.2428534030914307,39,5346.0,-5.6135687828063965,47,9844.0
1660,0.3243650794029236,2.0350232124328613,49,5346.0,-4.448495864868164,-56,9844.0
1670,0.32592663168907166,3.4360318183898926,34,5346.0,-2.418818235397339,-196,9844.0
1680,0.32580146193504333,5.028271198272705,130,5346.0,-1.5874568223953247,-135,9844.0
1690,0.3258265554904938,1.4275367259979248,1,5346.0,1.8462696075439453,55,9844.0
1700,0.3259257376194,4.287014484405518,-10,5346.0,0.6861408352851868,80,9844.0
1710,0.32596561312675476,4.757876873016357,53,5346.0,-1.5562938451766968,72,9844.0
1720,0.325599730014801,1.6657558679580688,11,5346.0,6.697758674621582,109,9844.0
1730,0.32559919357299805,-1.6351027488708496,8,5346.0,7.98132848739624,-102,9844.0
1740,0.3257223665714264,-3.3452699184417725,43,5346.0,5.514481544494629,-3,9844.0
1750,0.3258473575115204,-2.4591124057769775,-72,5346.0,9.597212791442871,80,9844.0
1760,0.32669028639793396,-2.518772840499878,-35,5346.0,-0.8997714519500732,42,9844.0
1770,0.3266860246658325,-1.747124195098877,-84,5346.0,6.754584312438965,237,9844.0
1780,0.3267996609210968,-0.7183312177658081,-38,5346.0,7.6158905029296875,128,9844.0
1790,0.32698920369148254,0.7401502728462219,-13,5346.0,3.6216373443603516,-58,9844.0
1800,0.32935789227485657,0.027180343866348267,13,5346.0,5.343894958496094,-58,9844.0
1810,0.3295924663543701,0.04590561240911484,52,5346.0,2.805358648300171,122,9844.0
1820,0.3298567831516266,-0.35696810483932495,46,5346.0,3.751734495162964,43,9844.0
1830,0.33018431067466736,-3.40675950050354,-50,5346.0,2.62066388130188,92,9844.0
1840,0.33048349618911743,-5.500545024871826,-229,5346.0,4.519678115844727,136,9844.0
1850,0.33164942264556885,-6.763097763061523,-137,5346.0,2.1447761058807373,216,9844.0
1860,0.3320351243019104,-5.187016010284424,-99,5346.0,3.2726008892059326,34,9844.0
1870,0.33244094252586365,-2.949091672897339,-74,5346.0,2.4854989051818848,-65,9844.0
1880,0.3327069878578186,-3.765770196914673,-62,5346.0,6.252643585205078,6,9844.0
1890,0.3337119519710541,-4.010885715484619,24,5346.0,6.934697151184082,-16,9844.0
1900,0.3340660035610199,-0.9226469993591309,135,5346.0,4.967506408691406,151,9844.0
1910,0.3342820405960083,-0.42609483003616333,98,5346.0,3.0982909202575684,-18,9844.0
1920,0.33438292145729065,2.786571741104126,-66,5346.0,-4.971271991729736,76,9844.0
1930,0.3343861401081085,1.3067036867141724,84,5346.0,-0.2167424112558365,87,9844.0
1940,0.3342309892177582,3.1173980236053467,-45,5346.0,-1.5122380256652832,45,9844.0
1950,0.3342024087905884,1.806686282157898,-96,5346.0,0.20630386471748352,111,9844.0
1960,0.33413687348365784,-0.29260626435279846,-39,5346.0,-0.9216166734695435,95,9844.0
1970,0.3341882526874542,-0.612535834312439,-8,5346.0,-2.2072572708129883,-198,9844.0
1980,0.33336636424064636,-1.3605586290359497,16,5346.0,-0.6327223181724548,-232,9844.0
1990,0.3332841992378235,2.8680527210235596,109,5346.0,-3.7226498126983643,-137,9844.0
2000,0.333118736743927,2.7754030227661133,239,5346.0,-5.58413028717041,-33,9844.0
2010,0.3329083025455475,2.5864527225494385,128,5346.0,-1.6665496826171875,-104,9844.0
2020,0.33278897404670715,3.824761390686035,-40,5346.0,-3.2522964477539062,51,9844.0
2030,0.3324681222438812,2.52557373046875,-62,5346.0,-4.808595657348633,46,9844.0
2040,0.3321712017059326,0.579188346862793,-9,5346.0,2.0882043838500977,139,9844.0
2050,0.3319263160228729,-2.0615956783294678,-28,5346.0,-0.7668202519416809,-33,9844.0
2060,0.3316625654697418,-1.0339524745941162,-28,5346.0,0.9456204175949097,-177,9844.0
2070,0.3308403789997101,-3.6534640789031982,5,5346.0,-2.9942374229431152,-157,9844.0
2080,0.3306160867214203,-0.3879184126853943,97,5346.0,-5.267600059509277,-71,9844.0
2090,0.3305114507675171,-0.20846107602119446,170,5346.0,-2.29264497756958,-74,9844.0
2100,0.33031344413757324,1.7527120113372803,8,5346.0,-3.531338691711426,-43,9844.0
2110,0.3296017050743103,2.8970916271209717,-55,5346.0,-1.086978793144226,72,9844.0
2120,0.32934510707855225,2.250645160675049,-72,5346.0,-2.68917179107666,167,9844.0
2130,0.32926806807518005,0.17307768762111664,11,5346.0,-0.9623538255691528,-12,9844.0
2140,0.3290945887565613,-2.4444215297698975,-1,5346.0,-1.684585690498352,-131,9844.0
2150,0.32894429564476013,0.9093443751335144,70,5346.0,1.9814683198928833,-220,9844.0
2160,0.327312171459198,-4.912198066711426,70,5346.0,-1.3296185731887817,-82,9844.0
2170,0.32706505060195923,-1.1688454151153564,51,5346.0,-2.6511588096618652,31,9844.0
2180,0.3267955482006073,-0.3939052224159241,125,5346.0,-0.86971116065979,39,9844.0
2190,0.3265599012374878,1.693483591079712,-75,5346.0,2.4831151962280273,124,9844.0
2200,0.3250933289527893,3.837073802947998,-90,5346.0,0.843341052532196,122,9844.0
2210,0.3249167501926422,0.5484582781791687,-32,5346.0,4.942301273345947,171,9844.0
2220,0.3247343599796295,1.8962805271148682,85,5346.0,-3.0362889766693115,-161,9844.0
2230,0.3246767818927765,-0.6543083190917969,93,5346.0,-0.08669630438089371,-253,9844.0
2240,0.32559239864349365,-2.7958731651306152,-12,5346.0,-2.518440008163452,-28,9844.0
2250,0.3257150948047638,-2.4758048057556152,-31,5346.0,-6.2118024826049805,-18,9844.0
2260,0.3258886933326721,-0.40355736017227173,-17,5346.0,-6.694401264190674,89,9844.0
2270,0.3261770009994507,-1.1246039867401123,-103,5346.0,-4.810594081878662,22,9844.0
2280,0.326534241437912,0.8762736916542053,-39,5346.0,-5.9121904373168945,-71,9844.0
2290,0.3257125914096832,-1.025153398513794,-54,5346.0,-1.68393874168396,-80,9844.0
2300,0.3259061872959137,-1.4071067571640015,85,5346.0,2.5193612575531006,-53,9844.0
2310,0.3261677920818329,2.3327558040618896,104,5346.0,3.583645820617676,-195,9844.0
2320,0.3264476954936981,1.8060204982757568,97,5346.0,4.707827091217041,2,9844.0
2330,0.32524293661117554,2.999084234237671,2,5346.0,-1.8092507123947144,163,9844.0
2340,0.3252970278263092,-0.3694045841693878,74,5346.0,3.350559949874878,-29,9844.0
2350,0.3254379630088806,3.3069443702697754,-61,5346.0,4.391242027282715,281,9844.0
2360,0.32562685012817383,-1.2806020975112915,-123,5346.0,6.489490032196045,129,9844.0
2370,0.3243906795978546,-1.7785698175430298,-85,5346.0,5.1154937744140625,190,9844.0
2380,0.32454729080200195,-3.6057491302490234,-44,5346.0,8.307202339172363,46,9844.0
2390,0.3247631788253784,-1.6809700727462769,65,5346.0,1.9652631282806396,-79,9844.0
2400,0.32492783665657043,-2.504741907119751,-48,5346.0,4.485129356384277,-146,9844.0
2410,0.32503625750541687,-1.7157566547393799,66,5346.0,1.1897010803222656,-50,9844.0
2420,0.32511141896247864,0.0708804801106453,83,5346.0,2.718947410583496,98,9844.0
2430,0.32524532079696655,-2.5728759765625,33,5346.0,1.9884573221206665,2,9844.0
2440,0.32529640197753906,1.4892582893371582,-126,5346.0,-6.11709451675415,90,9844.0
2450,0.3253050744533539,-3.1233463287353516,-64,5346.0,2.980855703353882,149,9844.0
2460,0.3240193724632263,-1.0708472728729248,-94,5346.0,1.3733829259872437,195,9844.0
2470,0.3239295780658722,0.04451436176896095,-103,5346.0,2.388658046722412,101,9844.0
2480,0.32388389110565186,-3.0075607299804688,-89,5346.0,5.707397937774658,165,9844.0
2490,0.32394275069236755,-3.842228651046753,-67,5346.0,7.308377742767334,58,9844.0
2500,0.3240288496017456,-1.1754543781280518,12,5346.0,0.5931990146636963,-42,9844.0
2510,0.32572194933891296,-2.386868476867676,-43,5346.0,5.436645030975342,-129,9844.0
2520,0.3259529173374176,-2.4719154834747314,11,5346.0,-2.2649757862091064,49,9844.0
2530,0.32611244916915894,-0.11911067366600037,139,5346.0,1.6941934823989868,-22,9844.0
2540,0.32617413997650146,0.7964473962783813,-1,5346.0,1.1991714239120483,82,9844.0
2550,0.3261401057243347,4.172797203063965,-69,5346.0,-2.7438666820526123,105,9844.0
2560,0.32630249857902527,2.986828327178955,9,5346.0,-0.9953636527061462,137,9844.0
2570,0.3264937400817871,2.914846420288086,-34,5346.0,-0.4622300863265991,-49,9844.0
2580,0.3266597092151642,3.3127455711364746,-35,5346.0,0.7299373149871826,149,9844.0
2590,0.3265441060066223,2.137503147125244,-23,5346.0,0.8186570405960083,159,9844.0
2600,0.3267364799976349,-0.0662786066532135,18,5346.0,3.928860664367676,-17,9844.0
2610,0.3268415927886963,-1.4607365131378174,-92,5346.0,-2.1300594806671143,-60,9844.0
2620,0.32695454359054565,-3.803891897201538,0,5346.0,1.3977410793304443,-92,9844.0
2630,0.3270665109157562,0.5814998745918274,116,5346.0,-4.355942249298096,-193,9844.0
2640,0.3266582190990448,-1.5520164966583252,49,5346.0,-1.3974369764328003,-246,9844.0
2650,0.3265925943851471,-3.1306135654449463,63,5346.0,-1.012756109237671,-48,9844.0
2660,0.3265349864959717,-1.3024128675460815,169,5346.0,-1.0940301418304443,-131,9844.0
2670,0.3264557123184204,1.361716866493225,44,5346.0,-0.4843446612358093,63,9844.0
2680,0.32587480545043945,5.30344295501709,-37,5346.0,-0.5637465119361877,64,9844.0
2690,0.32586997747421265,3.5829250812530518,21,5346.0,2.1238484382629395,250,9844.0
2700,0.3258484899997711,2.357294797897339,2,5346.0,2.191499710083008,184,9844.0
2710,0.32568979263305664,2.0745699405670166,-114,5346.0,1.6611741781234741,86,9844.0
2720,0.3254695236682892,-2.187129497528076,-150,5346.0,-0.21721385419368744,67,9844.0
2730,0.32463735342025757,-2.9889492988586426,-89,5346.0,-1.6538687944412231,18,9844.0
2740,0.32424187660217285,-3.5409934520721436,-28,5346.0,-5.791415691375732,-143,9844.0
2750,0.32385170459747314,-1.6620588302612305,3,5346.0,-1.289427638053894,-285,9844.0
2760,0.3235659897327423,-1.6095181703567505,11,5346.0,-4.963679313659668,-83,9844.0
2770,0.32358023524284363,-1.2141635417938232,113,5346.0,-4.894323348999023,-76,9844.0
2780,0.3233986794948578,1.3076834678649902,106,5346.0,-1.1971728801727295,-12,9844.0
2790,0.32331815361976624,1.9609540700912476,-41,5346.0,-0.9320374727249146,32,9844.0
2800,0.3232330083847046,2.2932584285736084,-51,5346.0,-1.9782886505126953,147,9844.0
2810,0.3237937390804291,1.2692375183105469,-100,5346.0,3.752955675125122,211,9844.0
2820,0.32369548082351685,2.217353582382202,-51,5346.0,3.195474147796631,-16,9844.0
2830,0.32360008358955383,4.431909084320068,-40,5346.0,-1.8805843591690063,-23,9844.0
2840,0.3234902322292328,-0.7112276554107666,11,5346.0,2.136368989944458,-83,9844.0
2850,0.3233276307582855,0.8356519937515259,157,5346.0,1.6086344718933105,-86,9844.0
2860,0.32361605763435364,-0.07581525295972824,54,5346.0,5.423494815826416,-63,9844.0
2870,0.32359981536865234,0.14426197111606598,20,5346.0,-0.8162820935249329,42,9844.0
2880,0.32356154918670654,1.032328486442566,29,5346.0,-5.2928080558776855,-39,9844.0
2890,0.3236473798751831,0.31389275193214417,-47,5346.0,-3.3140511512756348,96,9844.0
2900,0.32428744435310364,2.304130792617798,-78,5346.0,-6.023957252502441,-46,9844.0
2910,0.32436227798461914,-0.022816307842731476,-73,5346.0,0.5552438497543335,75,9844.0
2920,0.3243323266506195,2.3029823303222656,19,5346.0,-1.378513216972351,-60,9844.0
2930,0.3243478834629059,1.5719691514968872,85,5346.0,-1.6031337976455688,-153,9844.0
2940,0.32439976930618286,0.5483823418617249,18,5346.0,1.2311044931411743,-89,9844.0
2950,0.32466408610343933,1.5905932188034058,109,5346.0,-1.6301146745681763,-45,9844.0
2960,0.32473668456077576,1.712669014930725,136,5346.0,0.5786146521568298,9,9844.0
2970,0.3248695433139801,-0.32693222165107727,23,5346.0,3.0163633823394775,-23,9844.0
2980,0.3249964714050293,3.1233298778533936,-23,5346.0,-3.4834933280944824,105,9844.0
2990,0.323880672454834,-0.09594958275556564,-44,5346.0,2.669558048248291,168,9844.0
3000,0.3239970803260803,-0.5018832683563232,-59,5346.0,2.6799521446228027,143,9844.0
3010,0.32408708333969116,-0.6690678000450134,-144,5346.0,3.0256364345550537,119,9844.0
3020,0.324128121137619,-2.0551581382751465,-49,5346.0,1.037917137145996,193,9844.0
3030,0.32408401370048523,-3.450805187225342,-30,5346.0,4.563853740692139,158,9844.0
3040,0.3240033984184265,-2.411212921142578,-17,5346.0,-1.3984124660491943,-230,9844.0
3050,0.3238558769226074,-4.748839855194092,-92,5346.0,5.779916763305664,-65,9844.0
3060,0.32374510169029236,0.11500735580921173,94,5346.0,-0.6009825468063354,-65,9844.0
3070,0.3237115740776062,-2.161569595336914,94,5346.0,2.7983157634735107,1,9844.0
3080,0.32420527935028076,-0.21157866716384888,-33,5346.0,0.4191257953643799,-22,9844.0
3090,0.32424992322921753,-0.4513029158115387,-62,5346.0,-3.789792537689209,70,9844.0
3100,0.32446473836898804,0.15348514914512634,-12,5346.0,-4.834712028503418,36,9844.0
3110,0.3246811330318451,-2.3354225158691406,-124,5346.0,-1.1829679012298584,-6,9844.0
3120,0.3256889283657074,-4.466780185699463,-111,5346.0,-5.389312744140625,-14,9844.0
3130,0.3259698152542114,-0.19036120176315308,-18,5346.0,-2.4345834255218506,97,9844.0
3140,0.3262682557106018,1.1266322135925293,-12,5346.0,0.5901068449020386,0,9844.0
3150,0.3264700770378113,0.9318783283233643,-14,5346.0,2.750685214996338,43,9844.0
3160,0.32659754157066345,-1.4092156887054443,26,5346.0,5.108384132385254,114,9844.0
3170,0.3248630166053772,2.6304383277893066,126,5346.0,-1.69850492477417,-66,9844.0
3180,0.32480573654174805,-0.2568395137786865,-9,5346.0,9.712106704711914,-50,9844.0
3190,0.32479289174079895,4.001165866851807,116,5346.0,1.1101036071777344,32,9844.0
3200,0.32471537590026855,1.2649229764938354,155,5346.0,4.778021812438965,42,9844.0
3210,0.3243798613548279,0.5384564995765686,28,5346.0,3.6693944931030273,-2,9844.0
3220,0.3243080675601959,0.4022480547428131,-74,5346.0,1.4174535274505615,140,9844.0
3230,0.324280321598053,-0.9887070059776306,6,5346.0,-0.35164931416511536,73,9844.0
3240,0.3242485523223877,0.1690477579832077,-80,5346.0,-6.431253910064697,3,9844.0
3250,0.3233746886253357,-0.5955225825309753,-65,5346.0,-4.634407997131348,-140,9844.0
3260,0.3234337568283081,-0.461357444524765,-53,5346.0,-6.615911960601807,99,9844.0
3270,0.3235970735549927,0.12492763996124268,-135,5346.0,-5.892606735229492,-65,9844.0
3280,0.3238736391067505,0.1450948715209961,-36,5346.0,-4.625762939453125,120,9844.0
3290,0.3240170478820801,0.3228360116481781,5,5346.0,-2.5179660320281982,-20,9844.0
3300,0.3240325450897217,1.7022374868392944,55,5346.0,-0.258745402097702,-54,9844.0
3310,0.32403749227523804,1.1198501586914062,-33,5346.0,2.730961561203003,-88,9844.0
3320,0.32398346066474915,0.03127235919237137,132,5346.0,3.18587327003479,21,9844.0
3330,0.323945015668869,1.4162931442260742,113,5346.0,7.100588798522949,-110,9844.0
3340,0.32434147596359253,0.024304224178195,26,5346.0,4.410168170928955,-71,9844.0
3350,0.3244742453098297,0.8807356357574463,42,5346.0,3.891831636428833,50,9844.0
3360,0.32471930980682373,-0.8997167944908142,119,5346.0,1.82545804977417,-27,9844.0
3370,0.3249574899673462,1.5701931715011597,-78,5346.0,-2.059964179992676,17,9844.0
3380,0.32520270347595215,-0.3129436671733856,-13,5346.0,-3.2714736461639404,98,9844.0
3390,0.3234301805496216,0.01606200449168682,-68,5346.0,-7.472437858581543,58,9844.0
3400,0.3236103355884552,-0.029973115772008896,-117,5346.0,-8.724162101745605,-75,9844.0
3410,0.32362186908721924,-2.0843310356140137,-95,5346.0,-3.013446569442749,121,9844.0
3420,0.32364538311958313,-3.606128454208374,-67,5346.0,-0.256717711687088,19,9844.0
3430,0.32263150811195374,-1.4111709594726562,-24,5346.0,0.9772325158119202,-13,9844.0
3440,0.3225865662097931,-0.9892582297325134,-62,5346.0,1.249334692955017,-80,9844.0
3450,0.3225671947002411,-2.5932517051696777,88,5346.0,1.8710036277770996,19,9844.0
3460,0.32251065969467163,0.7105321288108826,87,5346.0,4.93447732925415,-112,9844.0
3470,0.32224875688552856,1.1339019536972046,45,5346.0,2.759098768234253,-67,9844.0
3480,0.3222329914569855,3.918245792388916,99,5346.0,2.659734010696411,29,9844.0
3490,0.32215791940689087,0.3134494721889496,97,5346.0,1.0898619890213013,-104,9844.0
3500,0.32213109731674194,2.6042213439941406,5,5346.0,-3.4577295780181885,-93,9844.0
3510,0.3221445083618164,1.4373239278793335,31,5346.0,-5.468608379364014,109,9844.0
3520,0.3233215808868408,0.6740333437919617,-47,5346.0,-2.7576088905334473,13,9844.0
3530,0.3234263062477112,-0.43197470903396606,-120,5346.0,-3.466221809387207,13,9844.0
3540,0.32350635528564453,-0.5012778043746948,-88,5346.0,-5.638378143310547,63,9844.0
3550,0.3235407769680023,-2.3584272861480713,-33,5346.0,-2.6561059951782227,13,9844.0
3560,0.32330232858657837,-2.67728853225708,-107,5346.0,-0.3448570668697357,34,9844.0
3570,0.32325607538223267,-2.508105516433716,-63,5346.0,2.1934244632720947,20,9844.0
3580,0.3232916593551636,-2.5602378845214844,46,5346.0,1.9823733568191528,-4,9844.0
3590,0.3232748508453369,0.37123343348503113,60,5346.0,2.0997579097747803,-155,9844.0
3600,0.32431191205978394,-0.5447958111763,27,5346.0,2.6123337745666504,-26,9844.0
3610,0.3244917690753937,5.032267093658447,155,5346.0,-0.7012088298797607,-40,9844.0
3620,0.32470840215682983,1.0922046899795532,131,5346.0,3.6602330207824707,-35,9844.0
3630,0.3248949944972992,0.9697673320770264,22,5346.0,4.33489465713501,13,9844.0
3640,0.32510456442832947,2.1938962936401367,25,5346.0,-0.8660092949867249,75,9844.0
3650,0.3256482481956482,1.8246448040008545,-59,5346.0,-1.0176597833633423,66,9844.0
3660,0.3257809281349182,3.0910723209381104,-105,5346.0,-6.120654582977295,51,9844.0
3670,0.32593435049057007,-2.206012725830078,-94,5346.0,0.000651432026643306,241,9844.0
3680,0.32612428069114685,-2.2453887462615967,-93,5346.0,-0.6708694100379944,96,9844.0
3690,0.324257493019104,-2.653109073638916,-154,5346.0,0.18359053134918213,81,9844.0
3700,0.324323445558548,-2.6063029766082764,-104,5346.0,1.082846999168396,134,9844.0
3710,0.32439345121383667,-1.9861536026000977,-22,5346.0,6.358314037322998,7,9844.0
3720,0.32443302869796753,1.814266562461853,-4,5346.0,0.7377718091011047,-51,9844.0
3730,0.3244636654853821,-0.20006559789180756,-21,5346.0,2.82132887840271,38,9844.0
3740,0.32433655858039856,2.15124249458313,140,5346.0,1.6320300102233887,-77,9844.0
3750,0.3244294822216034,0.3691656291484833,74,5346.0,4.324656009674072,-48,9844.0
3760,0.3246013820171356,0.5720165967941284,57,5346.0,3.8043196201324463,12,9844.0
3770,0.32477521896362305,0.4958009123802185,125,5346.0,5.2137980461120605,10,9844.0
3780,0.3245660066604614,-1.4815673828125,54,5346.0,4.933382987976074,-79,9844.0
3790,0.32480376958847046,2.122802495956421,54,5346.0,-2.353400230407715,31,9844.0
3800,0.3251399099826813,-1.3872227668762207,56,5346.0,1.501285433769226,-2,9844.0
3810,0.3254570960998535,0.8514358401298523,-69,5346.0,-2.5586540699005127,90,9844.0
3820,0.3257456123828888,-1.8845784664154053,-72,5346.0,-2.6404175758361816,66,9844.0
3830,0.32571280002593994,-2.608039140701294,-65,5346.0,-1.02556574344635,130,9844.0
3840,0.3258952498435974,-0.6919723153114319,-105,5346.0,-0.898390531539917,-55,9844.0
3850,0.32615846395492554,-1.0590072870254517,-29,5346.0,0.049039654433727264,228,9844.0
3860,0.3264194130897522,-1.2112560272216797,-75,5346.0,1.627192497253418,81,9844.0
3870,0.3256620168685913,2.293649673461914,-37,5346.0,-3.1187381744384766,9,9844.0
3880,0.325862318277359,0.2970254719257355,-12,5346.0,1.0603679418563843,113,9844.0
3890,0.32606732845306396,3.573543071746826,89,5346.0,2.2020907402038574,9,9844.0
3900,0.3262075185775757,2.6105740070343018,6,5346.0,3.644680976867676,-58,9844.0
3910,0.3253959119319916,2.3157410621643066,77,5346.0,2.3282413482666016,108,9844.0
3920,0.3254188001155853,1.2813951969146729,-58,5346.0,3.802016019821167,-78,9844.0
3930,0.32535699009895325,-0.9018806219100952,-73,5346.0,7.8623199462890625,154,9844.0
3940,0.3252469301223755,0.034456439316272736,31,5346.0,0.7949109673500061,-67,9844.0
3950,0.32511308789253235,-3.435603618621826,-58,5346.0,0.6482576131820679,-38,9844.0
3960,0.3245779871940613,-2.5153727531433105,-39,5346.0,-1.0736995935440063,-60,9844.0
3970,0.3245563805103302,-2.657407522201538,27,5346.0,-5.758780479431152,-274,9844.0
3980,0.3245147168636322,-3.3714029788970947,-20,5346.0,-4.823854923248291,-317,9844.0
3990,0.3244427740573883,-1.9499307870864868,76,5346.0,-0.738814115524292,-114,9844.0
4000,0.32346251606941223,-3.0868937969207764,94,5346.0,-2.440077543258667,-253,9844.0
4010,0.3234046995639801,-1.4543910026550293,-5,5346.0,-3.5539841651916504,-63,9844.0
4020,0.32330647110939026,0.46348658204078674,57,5346.0,0.4189404249191284,20,9844.0
4030,0.3232325315475464,0.7671816349029541,114,5346.0,-2.0656492710113525,-50,9844.0
4040,0.3234940469264984,0.3887695074081421,-44,5346.0,-0.49882715940475464,-3,9844.0
4050,0.32342013716697693,0.5494902729988098,-2,5346.0,-1.586199164390564,83,9844.0
4060,0.3232308328151703,0.7833203673362732,-18,5346.0,1.0182756185531616,163,9844.0
4070,0.32294660806655884,3.1420652866363525,-35,5346.0,-1.1931952238082886,38,9844.0
4080,0.3226691484451294,-0.5474188923835754,-87,5346.0,-2.67158579826355,152,9844.0
4090,0.3226296901702881,0.625649094581604,-86,5346.0,-1.784808874130249,32,9844.0
4100,0.32255932688713074,1.1147549152374268,-62,5346.0,1.7306700944900513,50,9844.0
4110,0.32256409525871277,-0.15023519098758698,-56,5346.0,-1.3580721616744995,15,9844.0
4120,0.32264360785484314,-1.6610246896743774,60,5346.0,2.9728758335113525,-59,9844.0
4130,0.32282140851020813,0.1862790882587433,-10,5346.0,-2.6384122371673584,-173,9844.0
4140,0.32287758588790894,-2.4168143272399902,17,5346.0,-0.19658121466636658,-67,9844.0
4150,0.32299312949180603,0.6608282327651978,96,5346.0,-2.4187045097351074,-176,9844.0
4160,0.3231016993522644,-1.591102957725525,72,5346.0,-1.2956255674362183,-223,9844.0
4170,0.3232491910457611,0.801711916923523,48,5346.0,1.3721810579299927,-82,9844.0
4180,0.32301539182662964,-0.12327289581298828,131,5346.0,2.522420883178711,127,9844.0
4190,0.32327133417129517,-2.9766764640808105,35,5346.0,3.9225354194641113,-94,9844.0
4200,0.32343313097953796,-0.9263690114021301,-51,5346.0,3.6501216888427734,117,9844.0
4210,0.32354453206062317,-0.7476629614830017,65,5346.0,2.7085163593292236,1,9844.0
4220,0.32295411825180054,-0.8780078291893005,-32,5346.0,1.8494902849197388,46,9844.0
4230,0.32290494441986084,2.624854326248169,-59,5346.0,-3.2989416122436523,47,9844.0
4240,0.322902649641037,1.5120104551315308,32,5346.0,0.4657689332962036,149,9844.0
4250,0.32282355427742004,2.004695415496826,-81,5346.0,0.0716119185090065,32,9844.0
4260,0.3227720856666565,0.556836724281311,-14,5346.0,-1.4628874063491821,43,9844.0
4270,0.32254573702812195,1.9999020099639893,-29,5346.0,-2.2048020362854004,126,9844.0
4280,0.322282075881958,1.0396333932876587,-45,5346.0,-1.929419994354248,-65,9844.0
4290,0.3220604658126831,-0.6496838331222534,-70,5346.0,-0.5983297824859619,98,9844.0
4300,0.3218996822834015,-1.3362361192703247,22,5346.0,-1.2520579099655151,70,9844.0
4310,0.32099929451942444,0.5426096320152283,7,5346.0,-1.2164082527160645,-92,9844.0
4320,0.32087475061416626,-2.5685501098632812,-41,5346.0,4.560902118682861,-132,9844.0
4330,0.32080674171447754,-0.2356622815132141,98,5346.0,0.597084105014801,-5,9844.0
4340,0.3206652104854584,-1.2873390913009644,53,5346.0,4.6381611824035645,-142,9844.0
4350,0.3226817846298218,-1.4320236444473267,20,5346.0,0.5796582698822021,0,9844.0
4360,0.3226606547832489,-0.9166000485420227,58,5346.0,4.714625835418701,84,9844.0
4370,0.32261016964912415,-2.1417434215545654,85,5346.0,0.1692112535238266,-129,9844.0
4380,0.32257330417633057,4.3177876472473145,-19,5346.0,-4.9522528648376465,13,9844.0
4390,0.32354679703712463,0.2942679524421692,110,5346.0,-0.9410978555679321,-20,9844.0
4400,0.323649138212204,2.5047876834869385,-15,5346.0,-3.043408155441284,42,9844.0
4410,0.3236615061759949,2.463024139404297,-35,5346.0,-3.241943836212158,-18,9844.0
4420,0.3236164152622223,-0.21300707757472992,-39,5346.0,-2.535139799118042,145,9844.0
4430,0.32346081733703613,-0.9779459834098816,-106,5346.0,2.4377684593200684,-28,9844.0
4440,0.3219532370567322,-0.41767898201942444,-123,5346.0,-1.842794418334961,227,9844.0
4450,0.32176584005355835,-3.855550527572632,-108,5346.0,1.966467022895813,126,9844.0
4460,0.3215852975845337,-1.259786605834961,-65,5346.0,1.0045888423919678,50,9844.0
4470,0.32149919867515564,-4.285477161407471,-119,5346.0,0.08993866294622421,52,9844.0
4480,0.3224949836730957,-1.9974706172943115,-4,5346.0,-0.1520773321390152,143,9844.0
4490,0.3225650489330292,0.028535818681120872,44,5346.0,4.523929595947266,-69,9844.0
4500,0.3226354718208313,1.6013933420181274,-19,5346.0,7.583776950836182,-35,9844.0
4510,0.3228124678134918,1.118539810180664,91,5346.0,4.894284725189209,13,9844.0
4520,0.3229737877845764,2.4005863666534424,180,5346.0,4.6413984298706055,-87,9844.0
4530,0.32310986518859863,1.209905982017517,64,5346.0,5.719655990600586,16,9844.0
4540,0.32331883907318115,3.14113712310791,143,5346.0,3.296332597732544,5,9844.0
4550,0.3233947455883026,-1.5793205499649048,45,5346.0,8.02917194366455,-60,9844.0
4560,0.3233822286128998,-0.7944551110267639,-64,5346.0,-0.3926393389701843,-25,9844.0
4570,0.3248244822025299,-0.35622888803482056,76,5346.0,-2.5219128131866455,-40,9844.0
4580,0.3247755765914917,-1.0545846223831177,-8,5346.0,-3.130523443222046,-121,9844.0
4590,0.3246864080429077,-0.05278058350086212,-22,5346.0,-5.275582790374756,-36,9844.0
4600,0.3246300518512726,-2.88962459564209,49,5346.0,-3.1160576343536377,-195,9844.0
4610,0.32450661063194275,-0.1374918520450592,-59,5346.0,-6.209041118621826,-28,9844.0
4620,0.3241555392742157,1.245205044746399,72,5346.0,-7.038879871368408,-13,9844.0
4630,0.3239797055721283,-1.8034734725952148,9,5346.0,-4.528538227081299,-9,9844.0
4640,0.3237437903881073,0.9543442130088806,-86,5346.0,-4.347734451293945,30,9844.0
4650,0.3235979974269867,-0.5071211457252502,28,5346.0,2.384758949279785,169,9844.0
4660,0.3239468038082123,0.11060677468776703,-73,5346.0,1.8733103275299072,66,9844.0
4670,0.3237535357475281,0.9541124105453491,-104,5346.0,-1.6956127882003784,48,9844.0
4680,0.3237316906452179,0.5934792757034302,-22,5346.0,3.6291818618774414,237,9844.0
4690,0.32374486327171326,0.500880777835846,-18,5346.0,1.352233648300171,82,9844.0
4700,0.32505184412002563,2.1551947593688965,-46,5346.0,-3.5071723461151123,-58,9844.0
4710,0.3252045810222626,1.522887945175171,-56,5346.0,0.6972415447235107,107,9844.0
4720,0.32539573311805725,1.706743597984314,9,5346.0,-3.3833558559417725,-109,9844.0
4730,0.32560059428215027,2.119140386581421,-16,5346.0,0.654228687286377,-98,9844.0
4740,0.32583126425743103,1.3924055099487305,79,5346.0,-1.305271863937378,-78,9844.0
4750,0.32448920607566833,0.7065528035163879,109,5346.0,-1.2181698083877563,-187,9844.0
4760,0.32460007071495056,-1.676451563835144,-38,5346.0,1.6479319334030151,-23,9844.0
4770,0.32457518577575684,2.583948850631714,117,5346.0,-1.966571569442749,-62,9844.0
4780,0.324455201625824,-1.1777037382125854,117,5346.0,0.1367092877626419,-182,9844.0
4790,0.3241744339466095,0.23401284217834473,-34,5346.0,-1.1852810382843018,-102,9844.0
4800,0.32403066754341125,-0.8489359617233276,75,5346.0,-2.7001729011535645,-61,9844.0
4810,0.32384634017944336,-1.9346706867218018,43,5346.0,1.1424416303634644,-173,9844.0
4820,0.3235829770565033,-0.7322508096694946,-56,5346.0,0.2839321494102478,47,9844.0
4830,0.3231370151042938,-3.171062469482422,24,5346.0,0.1614452600479126,10,9844.0
4840,0.3227674067020416,-2.930943250656128,-50,5346.0,0.6443195343017578,-74,9844.0
4850,0.32243791222572327,1.7055381536483765,-31,5346.0,-9.357938766479492,-72,9844.0
4860,0.32218238711357117,-3.291255474090576,7,5346.0,0.8348531126976013,82,9844.0
4870,0.3219452202320099,-1.6361491680145264,-114,5346.0,1.9418097734451294,42,9844.0
4880,0.321746289730072,1.2839761972427368,-15,5346.0,2.0529544353485107,139,9844.0
4890,0.3216368556022644,-0.720857560634613,-69,5346.0,0.8209120035171509,217,9844.0
4900,0.32158026099205017,1.7626112699508667,-8,5346.0,2.1779510974884033,-26,9844.0
4910,0.32161009311676025,2.8451409339904785,20,5346.0,1.484690546989441,11,9844.0
4920,0.321432888507843,3.3417506217956543,48,5346.0,0.8799957036972046,-2,9844.0
4930,0.3214815557003021,2.34189510345459,104,5346.0,-1.081801176071167,-141,9844.0
4940,0.3215616047382355,0.008791867643594742,-22,5346.0,0.26437848806381226,-94,9844.0
4950,0.32166048884391785,1.181799054145813,94,5346.0,-2.971190929412842,-51,9844.0
4960,0.3216139078140259,-0.43715059757232666,73,5346.0,-2.6919589042663574,-241,9844.0
4970,0.3228777050971985,-2.6371374130249023,-19,5346.0,3.1266515254974365,-171,9844.0
4980,0.3228430151939392,-1.150978446006775,27,5346.0,0.627495527267456,2,9844.0
4990,0.32273802161216736,-1.5421077013015747,78,5346.0,-0.22482958436012268,-169,9844.0
5000,0.322643905878067,-3.5404951572418213,-7,5346.0,4.509721279144287,23,9844.0
5010,0.3235616981983185,0.1477702409029007,44,5346.0,0.8528825044631958,1,9844.0
5020,0.32352569699287415,-3.0331876277923584,29,5346.0,4.157098293304443,-21,9844.0
5030,0.3234090507030487,0.12961788475513458,-56,5346.0,4.1517133712768555,-14,9844.0
5040,0.32323339581489563,-1.1062208414077759,22,5346.0,4.037387847900391,153,9844.0
5050,0.3214661180973053,-0.19115875661373138,38,5346.0,1.0873472690582275,-17,9844.0
5060,0.3212015926837921,2.160579204559326,-48,5346.0,-6.3077802658081055,86,9844.0
5070,0.32096442580223083,-0.3205311596393585,28,5346.0,-2.0789999961853027,98,9844.0
5080,0.3206879198551178,2.540698289871216,-46,5346.0,-2.691586494445801,-14,9844.0
5090,0.32048794627189636,3.193526268005371,-86,5346.0,-3.1961593627929688,4,9844.0
5100,0.3209557831287384,-0.004026611335575581,-78,5346.0,-4.275515556335449,150,9844.0
5110,0.3208732306957245,1.800316333770752,-20,5346.0,-5.236294269561768,57,9844.0
5120,0.3208315074443817,-0.12575402855873108,-40,5346.0,-4.19582462310791,49,9844.0
5130,0.3207692801952362,-2.0474212169647217,-87,5346.0,1.1362730264663696,150,9844.0
5140,0.3220076858997345,-1.5565322637557983,-58,5346.0,1.942617416381836,5,9844.0
5150,0.3219943046569824,-2.0376791954040527,-104,5346.0,1.845304250717163,13,9844.0
5160,0.32199928164482117,-1.902712106704712,-73,5346.0,5.6674699783325195,36,9844.0
5170,0.32193782925605774,1.0971741676330566,85,5346.0,2.453906297683716,-37,9844.0
5180,0.3219161033630371,-0.03189840912818909,-42,5346.0,4.711605072021484,-76,9844.0
5190,0.32150498032569885,2.3069024085998535,135,5346.0,1.217499017715454,39,9844.0
5200,0.3214890658855438,1.3706241846084595,103,5346.0,1.9732379913330078,-184,9844.0
5210,0.32147130370140076,2.192471981048584,44,5346.0,0.20588816702365875,-78,9844.0
5220,0.3215743899345398,2.6093006134033203,119,5346.0,1.6916779279708862,11,9844.0
5230,0.3233550786972046,-0.6040660738945007,32,5346.0,4.28852653503418,-141,9844.0
5240,0.3233652710914612,1.1232833862304688,72,5346.0,1.3052492141723633,-52,9844.0
5250,0.32335853576660156,1.3864847421646118,131,5346.0,0.4240157902240753,-99,9844.0
5260,0.3233344256877899,-0.16072018444538116,-10,5346.0,3.254154682159424,-80,9844.0
5270,0.32402661442756653,2.9052906036376953,96,5346.0,-4.738797187805176,-69,9844.0
5280,0.32405850291252136,-1.2715891599655151,56,5346.0,2.0442910194396973,-52,9844.0
5290,0.324067622423172,1.2133525609970093,-3,5346.0,-0.21566247940063477,-32,9844.0
5300,0.3241107165813446,0.7570164799690247,-14,5346.0,-3.755157709121704,11,9844.0
5310,0.3241371214389801,-0.23271435499191284,20,5346.0,-0.1194620430469513,-39,9844.0
5320,0.32452455163002014,1.5237435102462769,-39,5346.0,-1.1199606657028198,69,9844.0
5330,0.3246070444583893,0.12286568433046341,93,5346.0,-1.3155500888824463,-56,9844.0
5340,0.324694961309433,-0.5151975750923157,-33,5346.0,2.0970723628997803,64,9844.0
5350,0.324853777885437,1.2984538078308105,-11,5346.0,-1.6066945791244507,56,9844.0
5360,0.3250388503074646,0.2554692029953003,20,5346.0,-1.0703542232513428,209,9844.0
5370,0.32526931166648865,-0.8044149875640869,-95,5346.0,1.6836622953414917,36,9844.0
5380,0.32559213042259216,-1.9870882034301758,-85,5346.0,-0.9046977758407593,123,9844.0
5390,0.32594597339630127,-0.750617504119873,-60,5346.0,0.17987234890460968,74,9844.0
5400,0.32645171880722046,0.5417059063911438,-48,5346.0,1.030763030052185,-49,9844.0
5410,0.3270639479160309,1.1402359008789062,-31,5346.0,2.848992347717285,179,9844.0
5420,0.3274548649787903,2.8657500743865967,35,5346.0,-2.413792848587036,6,9844.0
5430,0.3279353976249695,0.7667641043663025,-58,5346.0,2.004028797149658,73,9844.0
5440,0.32823702692985535,0.19039286673069,61,5346.0,1.8574548959732056,-20,9844.0
5450,0.3278844356536865,0.517607569694519,11,5346.0,-1.4671167135238647,-64,9844.0
5460,0.3279321491718292,-0.4792003035545349,-37,5346.0,4.578185558319092,72,9844.0
5470,0.32805269956588745,-2.9467039108276367,-25,5346.0,2.431774377822876,-10,9844.0
5480,0.3281593322753906,-7.181123733520508,-164,5346.0,2.465365171432495,-88,9844.0
5490,0.32624948024749756,-5.8383097648620605,-47,5346.0,-1.603582501411438,-88,9844.0
5500,0.32633131742477417,-6.099937915802002,-21,5346.0,-3.16090989112854,-225,9844.0
5510,0.32637518644332886,-5.925205707550049,-28,5346.0,-3.775996685028076,-104,9844.0
5520,0.3266412019729614,-2.818960428237915,62,5346.0,-2.760366916656494,-139,9844.0
5530,0.32688620686531067,1.3778324127197266,17,5346.0,-4.445566654205322,-231,9844.0
5540,0.32554638385772705,6.127186298370361,200,5346.0,-9.519957542419434,-210,9844.0
5550,0.32568174600601196,9.297527313232422,268,5346.0,-9.873756408691406,-356,9844.0
5560,0.3257858157157898,17.09682846069336,275,5346.0,-14.579527854919434,-257,9844.0
5570,0.32600340247154236,14.253161430358887,325,5346.0,-13.495407104492188,-294,9844.0
5580,0.3264930248260498,15.992897987365723,191,5346.0,-19.927730560302734,-405,9844.0
5590,0.32652074098587036,11.263400077819824,196,5346.0,-20.783124923706055,-345,9844.0
5600,0.32650086283683777,8.716301918029785,236,5346.0,-22.044023513793945,-563,9844.0
5610,0.32634198665618896,11.014424324035645,185,5346.0,-20.663076400756836,-440,9844.0
5620,0.3260311484336853,11.507893562316895,150,5346.0,-21.286348342895508,-366,9844.0
5630,0.32605892419815063,8.913986206054688,244,5346.0,-18.025754928588867,-269,9844.0
5640,0.32547762989997864,6.4807515144348145,59,5346.0,-12.12867546081543,-315,9844.0
5650,0.3247658312320709,1.1133792400360107,-54,5346.0,-7.089738845825195,-119,9844.0
5660,0.3237937092781067,-1.6593797206878662,-112,5346.0,-7.423931121826172,89,9844.0
5670,0.3229236602783203,-3.6351799964904785,-50,5346.0,-1.626596212387085,104,9844.0
5680,0.3217540681362152,-7.292557239532471,-142,5346.0,-1.0318496227264404,116,9844.0
5690,0.32056620717048645,-8.706830978393555,-191,5346.0,5.929079532623291,93,9844.0
5700,0.31931233406066895,-11.362781524658203,-237,5346.0,7.558423042297363,215,9844.0
5710,0.3170907497406006,-14.744756698608398,-239,5346.0,7.232961654663086,236,9844.0
5720,0.31546202301979065,-16.226444244384766,-160,5346.0,15.302810668945312,195,9844.0
5730,0.3136422336101532,-17.216094970703125,-252,5346.0,15.783321380615234,170,9844.0
5740,0.31203246116638184,-19.01667022705078,-323,5346.0,19.01827621459961,123,9844.0
5750,0.3089207410812378,-15.882719039916992,-296,5346.0,16.70366859436035,268,9844.0
5760,0.3091622591018677,-14.076881408691406,-259,5346.0,15.809855461120605,210,9844.0
5770,0.30762457847595215,-14.324283599853516,-247,5346.0,13.019571304321289,259,9844.0
5780,0.3054616153240204,-22.319608688354492,-206,5346.0,18.479698181152344,82,9844.0
5790,0.3018679618835449,-21.704011917114258,-299,5346.0,19.59548568725586,315,9844.0
5800,0.30187833309173584,-21.628463745117188,-297,5346.0,27.195201873779297,377,9844.0
5810,0.30018576979637146,-26.97941017150879,-447,5346.0,28.557493209838867,565,9844.0
5820,0.2983047664165497,-28.217342376708984,-581,5346.0,36.445438385009766,794,9844.0
5830,0.2947239875793457,-31.205778121948242,-548,5346.0,45.23612976074219,712,9844.0
5840,0.2920054793357849,-25.057313919067383,-540,5346.0,45.866912841796875,877,9844.0
5850,0.2906113564968109,-24.2041015625,-441,5346.0,44.25399398803711,828,9844.0
5860,0.28892746567726135,-24.272329330444336,-296,5346.0,49.47623062133789,732,9844.0
5870,0.2852678894996643,-16.690364837646484,-187,5346.0,50.818302154541016,802,9844.0
5880,0.28409355878829956,-10.787768363952637,-59,5346.0,44.982791900634766,575,9844.0
5890,0.2821792960166931,-10.750677108764648,-58,5346.0,40.480377197265625,563,9844.0
5900,0.2800731658935547,-6.663279056549072,-174,5346.0,39.49138641357422,676,9844.0
5910,0.2763584554195404,-5.576767921447754,-183,5346.0,35.92340850830078,657,9844.0
5920,0.2741166949272156,-3.492478609085083,-87,5346.0,34.309452056884766,572,9844.0
5930,0.2743256688117981,0.02797228842973709,-51,5346.0,35.707611083984375,527,9844.0
5940,0.27190589904785156,2.186490535736084,55,5346.0,32.495418548583984,435,9844.0
5950,0.26772797107696533,1.2689484357833862,170,5346.0,27.565458297729492,379,9844.0
5960,0.2659812271595001,1.8207905292510986,97,5346.0,32.9763069152832,570,9844.0
5970,0.26452988386154175,-2.4483492374420166,83,5346.0,42.85891342163086,657,9844.0
5980,0.2640273869037628,-2.121258020401001,40,5346.0,40.483245849609375,787,9844.0
5990,0.260160893201828,-2.282025098800659,-33,5346.0,39.30691909790039,695,9844.0
6000,0.25890451669692993,-5.8521552085876465,-63,5346.0,42.47114181518555,854,9844.0
6010,0.2568737268447876,-7.067936420440674,-188,5346.0,40.4646110534668,768,9844.0
6020,0.25920116901397705,-8.606342315673828,-319,5346.0,38.68365478515625,743,9844.0
6030,0.25593283772468567,-10.7024507522583,-263,5346.0,31.909475326538086,532,9844.0
6040,0.2551288902759552,-10.56580924987793,-291,5346.0,25.952621459960938,394,9844.0
6050,0.25289586186408997,-12.63660717010498,-224,5346.0,25.21578598022461,296,9844.0
6060,0.25186944007873535,-16.103927612304688,-255,5346.0,30.3917179107666,377,9844.0
6070,0.2515934705734253,-11.268360137939453,-92,5346.0,25.34302520751953,231,9844.0
6080,0.24946868419647217,-4.661284923553467,74,5346.0,27.1270751953125,311,9844.0
6090,0.24926641583442688,-2.337768793106079,165,5346.0,22.512113571166992,299,9844.0
6100,0.2483837753534317,3.1557793617248535,231,5346.0,16.134666442871094,216,9844.0
6110,0.2464636266231537,6.840762138366699,199,5346.0,16.41116714477539,40,9844.0
6120,0.2441537231206894,7.900326728820801,131,5346.0,15.232192039489746,149,9844.0
6130,0.24360701441764832,13.706927299499512,163,5346.0,9.340468406677246,150,9844.0
6140,0.24281048774719238,11.466048240661621,206,5346.0,10.337705612182617,206,9844.0
6150,0.23851679265499115,11.087347984313965,237,5346.0,8.961618423461914,106,9844.0
6160,0.23654939234256744,5.728618144989014,262,5346.0,8.309996604919434,-12,9844.0
6170,0.2354038953781128,7.249824523925781,209,5346.0,6.155211925506592,-53,9844.0
6180,0.23435400426387787,7.84403133392334,158,5346.0,2.3876161575317383,-82,9844.0
6190,0.23327471315860748,10.34178352355957,170,5346.0,-0.197906494140625,-23,9844.0
6200,0.22904695570468903,11.927207946777344,142,5346.0,-0.4212755858898163,2,9844.0
6210,0.22813639044761658,10.588730812072754,155,5346.0,-1.3250398635864258,6,9844.0
6220,0.22670121490955353,9.831950187683105,224,5346.0,0.20965471863746643,-33,9844.0
6230,0.22586970031261444,11.529882431030273,352,5346.0,-1.2772122621536255,-117,9844.0
6240,0.22405651211738586,17.598388671875,406,5346.0,0.3379179537296295,-78,9844.0
6250,0.22339056432247162,19.640422821044922,411,5346.0,-1.0026291608810425,-112,9844.0
6260,0.2225937396287918,23.60324478149414,384,5346.0,-1.4895514249801636,-122,9844.0
6270,0.22129705548286438,22.183685302734375,343,5346.0,-1.3346889019012451,-159,9844.0
6280,0.21944059431552887,19.33767318725586,280,5346.0,-4.659299850463867,-141,9844.0
6290,0.2185070663690567,14.698050498962402,250,5346.0,-4.427109718322754,-233,9844.0
6300,0.21742640435695648,11.659392356872559,175,5346.0,-3.285419464111328,-92,9844.0
6310,0.21712924540042877,5.98701810836792,78,5346.0,-4.85905122756958,-177,9844.0
6320,0.2154284417629242,3.2542150020599365,73,5346.0,-11.69787311553955,-264,9844.0
6330,0.21813133358955383,0.2386859804391861,60,5346.0,-13.74428939819336,-278,9844.0
6340,0.21714961528778076,0.360787034034729,35,5346.0,-13.932042121887207,-193,9844.0
6350,0.21639390289783478,0.35807299613952637,42,5346.0,-11.408194541931152,-237,9844.0
6360,0.21491974592208862,2.5609395503997803,78,5346.0,-6.484963417053223,-172,9844.0
6370,0.21226045489311218,5.259952068328857,174,5346.0,-10.134306907653809,-194,9844.0
6380,0.2113451510667801,5.984421730041504,177,5346.0,-8.567340850830078,-53,9844.0
6390,0.21132031083106995,4.9037556648254395,121,5346.0,-3.139634132385254,-119,9844.0
6400,0.2101956456899643,4.482265949249268,136,5346.0,-3.213113784790039,-146,9844.0
6410,0.209886834025383,3.412086248397827,152,5346.0,-6.6971869468688965,-183,9844.0
6420,0.21059277653694153,2.420215129852295,115,5346.0,-8.023457527160645,-150,9844.0
6430,0.2100294530391693,2.7524986267089844,101,5346.0,-8.325604438781738,-181,9844.0
6440,0.20928530395030975,4.207252502441406,154,5346.0,-10.896590232849121,-295,9844.0
6450,0.20888276398181915,2.773343086242676,148,5346.0,-14.271190643310547,-209,9844.0
6460,0.20810790359973907,1.7553638219833374,80,5346.0,-10.090408325195312,-157,9844.0
6470,0.20730896294116974,0.511505663394928,65,5346.0,-13.047414779663086,-366,9844.0
6480,0.2061237245798111,-1.2218992710113525,155,5346.0,-12.849913597106934,-369,9844.0
6490,0.20611613988876343,-2.8557000160217285,116,5346.0,-12.102251052856445,-320,9844.0
6500,0.2058935910463333,2.753561496734619,149,5346.0,-12.0593843460083,-276,9844.0
6510,0.20540907979011536,5.552018642425537,152,5346.0,-8.410386085510254,-259,9844.0
6520,0.20520302653312683,10.533429145812988,138,5346.0,-10.068536758422852,-196,9844.0
6530,0.20492050051689148,9.491189002990723,154,5346.0,-14.782768249511719,-174,9844.0
6540,0.20446032285690308,9.691158294677734,108,5346.0,-10.809653282165527,-85,9844.0
6550,0.20431336760520935,8.889552116394043,58,5346.0,-9.790594100952148,-104,9844.0
6560,0.20379458367824554,9.11362361907959,79,5346.0,-13.783576011657715,-109,9844.0
6570,0.20373846590518951,5.767534255981445,-17,5346.0,-12.16152572631836,-69,9844.0
6580,0.2035674899816513,3.346827507019043,68,5346.0,-13.681921005249023,-221,9844.0
6590,0.2028156816959381,1.7283929586410522,-9,5346.0,-10.333073616027832,-117,9844.0
6600,0.20261451601982117,-0.008148900233209133,-28,5346.0,-11.633633613586426,-103,9844.0
6610,0.20245018601417542,1.4530138969421387,-50,5346.0,-12.686504364013672,-100,9844.0
6620,0.2019176334142685,1.622616171836853,-70,5346.0,-10.566356658935547,-98,9844.0
6630,0.2020712047815323,4.17456579208374,32,5346.0,-11.04286003112793,-54,9844.0
6640,0.20006655156612396,4.492331027984619,-62,5346.0,-5.640275955200195,71,9844.0
6650,0.19996416568756104,4.832135200500488,-13,5346.0,-9.16777515411377,0,9844.0
6660,0.20001831650733948,5.740971565246582,5,5346.0,-5.108725547790527,37,9844.0
6670,0.19979970157146454,6.90571928024292,16,5346.0,-2.4982643127441406,13,9844.0
6680,0.1990586370229721,7.933980941772461,11,5346.0,-4.015256881713867,75,9844.0
6690,0.19874607026576996,5.117530345916748,32,5346.0,0.7852959632873535,49,9844.0
6700,0.19812768697738647,3.1904733180999756,-1,5346.0,-3.1815545558929443,-67,9844.0
6710,0.1978388875722885,2.8146350383758545,4,5346.0,-2.5172572135925293,-17,9844.0
6720,0.19784988462924957,1.9682084321975708,-32,5346.0,-4.21508264541626,-14,9844.0
6730,0.1975547969341278,5.494870185852051,69,5346.0,-5.315464019775391,-22,9844.0
6740,0.19720031321048737,3.640557050704956,69,5346.0,1.153411626815796,32,9844.0
6750,0.19710470736026764,2.831296682357788,67,5346.0,2.8437230587005615,-34,9844.0
6760,0.19696322083473206,2.8484461307525635,85,5346.0,1.9488407373428345,14,9844.0
6770,0.1975662261247635,-0.9786975383758545,40,5346.0,-0.17519371211528778,-137,9844.0
6780,0.1978340893983841,-1.078453779220581,79,5346.0,0.4279915988445282,-41,9844.0
6790,0.19788706302642822,-0.13254770636558533,85,5346.0,1.326522707939148,-116,9844.0
6800,0.19839313626289368,0.017283102497458458,83,5346.0,-3.1461338996887207,-132,9844.0
6810,0.19907914102077484,-2.4914777278900146,14,5346.0,-1.4572330713272095,4,9844.0
6820,0.19959887862205505,1.3651857376098633,79,5346.0,-1.8091113567352295,-105,9844.0
6830,0.19998176395893097,3.5911800861358643,57,5346.0,-2.8294034004211426,4,9844.0
6840,0.20048613846302032,10.821788787841797,149,5346.0,-5.462276935577393,0,9844.0
6850,0.2009517103433609,10.125105857849121,158,5346.0,-5.671866416931152,-21,9844.0
6860,0.20249494910240173,8.872163772583008,23,5346.0,-1.5620219707489014,51,9844.0
6870,0.2029997706413269,6.754452228546143,49,5346.0,2.320399045944214,124,9844.0
6880,0.20314274728298187,6.7419939041137695,25,5346.0,-0.22853201627731323,110,9844.0
6890,0.20375867187976837,0.3201768100261688,-87,5346.0,0.8733288049697876,86,9844.0
6900,0.20237694680690765,-0.21074780821800232,-87,5346.0,-0.8305314779281616,112,9844.0
6910,0.2026161402463913,-0.6184614300727844,-78,5346.0,-2.278618335723877,12,9844.0
6920,0.20278193056583405,0.09162300825119019,-39,5346.0,-3.432088613510132,-20,9844.0
6930,0.20287445187568665,0.7441138625144958,-49,5346.0,-5.192682266235352,5,9844.0
6940,0.2049318104982376,2.9118733406066895,-8,5346.0,-1.1230279207229614,84,9844.0
6950,0.20500902831554413,5.563746929168701,29,5346.0,-1.752776861190796,55,9844.0
6960,0.2054404765367508,1.770302653312683,-52,5346.0,4.028738498687744,142,9844.0
6970,0.20547443628311157,1.2917317152023315,-40,5346.0,6.285962104797363,170,9844.0
6980,0.2055228054523468,2.155604839324951,-81,5346.0,6.4836745262146,283,9844.0
6990,0.2064734399318695,2.082448959350586,-84,5346.0,5.937466621398926,205,9844.0
7000,0.20650245249271393,-3.949359893798828,-168,5346.0,8.474455833435059,156,9844.0
7010,0.20646972954273224,-4.272040367126465,-108,5346.0,0.9672927856445312,157,9844.0
7020,0.20627519488334656,-7.405849933624268,-168,5346.0,3.5189273357391357,66,9844.0
7030,0.2078540176153183,-6.122971057891846,-160,5346.0,-3.3034350872039795,14,9844.0
7040,0.2075841873884201,-8.076798439025879,-133,5346.0,-3.140507698059082,-121,9844.0
7050,0.20775732398033142,-6.030526161193848,-56,5346.0,-5.009810447692871,-63,9844.0
7060,0.20840179920196533,-5.178096771240234,-38,5346.0,-1.6947076320648193,-40,9844.0
7070,0.20841941237449646,-3.058089017868042,57,5346.0,3.573935031890869,-41,9844.0
7080,0.21119511127471924,-0.7490587830543518,59,5346.0,6.722799301147461,74,9844.0
7090,0.21147826313972473,-0.8282260298728943,90,5346.0,6.512704849243164,-33,9844.0
7100,0.2118290662765503,-2.5200862884521484,90,5346.0,6.980386734008789,-82,9844.0
7110,0.21216872334480286,-0.33438095450401306,110,5346.0,3.0091123580932617,-73,9844.0
7120,0.2136479914188385,-1.2419954538345337,103,5346.0,3.7248594760894775,6,9844.0
7130,0.21404647827148438,1.2318904399871826,48,5346.0,2.1143133640289307,-55,9844.0
7140,0.2144574075937271,-0.4410031735897064,18,5346.0,-4.535120010375977,-68,9844.0
7150,0.2149995118379593,1.0989640951156616,-61,5346.0,-8.936988830566406,-24,9844.0
7160,0.21760351955890656,1.019463062286377,-86,5346.0,-12.775910377502441,-126,9844.0
7170,0.2183430939912796,0.7834075689315796,-102,5346.0,-12.296278953552246,-37,9844.0
7180,0.21903851628303528,0.37629300355911255,-70,5346.0,-11.258068084716797,-108,9844.0
7190,0.2196788191795349,1.0101380348205566,-87,5346.0,-9.002934455871582,-41,9844.0
7200,0.22031252086162567,-1.572699785232544,-85,5346.0,-2.7307188510894775,17,9844.0
7210,0.2199423462152481,-4.955590724945068,-118,5346.0,-1.9132806062698364,5,9844.0
7220,0.220465749502182,-4.7454915046691895,-62,5346.0,0.8990548849105835,5,9844.0
7230,0.2208532840013504,-4.232375621795654,-126,5346.0,0.6534154415130615,69,9844.0
7240,0.22110731899738312,-2.5361900329589844,-72,5346.0,5.461907863616943,30,9844.0
7250,0.21915127336978912,-2.3235106468200684,-14,5346.0,-0.23061366379261017,-1,9844.0
7260,0.21916984021663666,-0.35261890292167664,-80,5346.0,2.3858768939971924,-35,9844.0
7270,0.21907639503479004,-0.8579448461532593,-68,5346.0,-4.470330238342285,-59,9844.0
7280,0.21896563470363617,1.7992736101150513,-29,5346.0,-3.7473881244659424,-46,9844.0
7290,0.2188912183046341,3.4021570682525635,-14,5346.0,-7.213366508483887,-51,9844.0
7300,0.22175899147987366,4.3307037353515625,8,5346.0,-4.493828296661377,-17,9844.0
7310,0.22184646129608154,3.6751296520233154,-32,5346.0,-2.5956664085388184,-2,9844.0
7320,0.22204996645450592,2.506843328475952,-52,5346.0,-2.8958170413970947,127,9844.0
7330,0.22217386960983276,2.365117073059082,-84,5346.0,-2.1359219551086426,96,9844.0
7340,0.22334825992584229,-0.7267868518829346,-67,5346.0,0.9495537281036377,140,9844.0
7350,0.22380615770816803,-1.2094786167144775,-87,5346.0,1.5318080186843872,122,9844.0
7360,0.22396428883075714,-4.431812763214111,-122,5346.0,3.174328327178955,91,9844.0
7370,0.2238025665283203,-7.555582523345947,-183,5346.0,-1.8016513586044312,55,9844.0
7380,0.2281261384487152,-10.067818641662598,-206,5346.0,2.8699562549591064,104,9844.0
7390,0.22871606051921844,-12.699728965759277,-204,5346.0,1.7818083763122559,144,9844.0
7400,0.22921133041381836,-12.59518814086914,-219,5346.0,3.330382823944092,32,9844.0
7410,0.2296959012746811,-11.470552444458008,-103,5346.0,3.377612829208374,61,9844.0
7420,0.23002989590168,-7.094259738922119,-78,5346.0,-1.4060683250427246,48,9844.0
7430,0.23083582520484924,-3.170217275619507,19,5346.0,-2.009913444519043,-162,9844.0
7440,0.23145076632499695,-2.7851309776306152,36,5346.0,-0.43525663018226624,-67,9844.0
7450,0.23209413886070251,2.8227620124816895,160,5346.0,-5.008963108062744,-184,9844.0
7460,0.23277100920677185,5.7797651290893555,189,5346.0,-6.163215160369873,-189,9844.0
7470,0.23398013412952423,5.282688617706299,152,5346.0,-3.41731595993042,-166,9844.0
7480,0.23408612608909607,5.198106288909912,175,5346.0,-1.9587063789367676,-37,9844.0
7490,0.23549865186214447,6.105574131011963,104,5346.0,-1.676494836807251,-104,9844.0
7500,0.23551973700523376,3.6828553676605225,135,5346.0,-0.6659246683120728,-198,9844.0
7510,0.2371298372745514,1.880598783493042,68,5346.0,-1.9281851053237915,-91,9844.0
7520,0.23718592524528503,0.10500217974185944,34,5346.0,-1.1372349262237549,-107,9844.0
7530,0.2383415699005127,-1.7921323776245117,-8,5346.0,-4.882508754730225,-140,9844.0
7540,0.2383759468793869,0.49190613627433777,14,5346.0,0.6499276161193848,-92,9844.0
7550,0.23963771760463715,-1.0694525241851807,106,5346.0,-0.8850833177566528,-84,9844.0
7560,0.2400486171245575,2.24291729927063,39,5346.0,0.841529130935669,-21,9844.0
7570,0.2404499053955078,2.222841501235962,99,5346.0,1.754260540008545,19,9844.0
7580,0.2408216893672943,5.210666656494141,121,5346.0,4.666990280151367,26,9844.0
7590,0.2410804033279419,7.032039642333984,183,5346.0,6.480440139770508,-32,9844.0
7600,0.24241167306900024,7.890421390533447,206,5346.0,4.069757461547852,-11,9844.0
7610,0.24262584745883942,7.275341987609863,108,5346.0,7.734855651855469,39,9844.0
7620,0.2431315779685974,5.88428258895874,130,5346.0,2.3598151206970215,51,9844.0
7630,0.24312345683574677,4.47466516494751,43,5346.0,0.6642734408378601,12,9844.0
7640,0.24422287940979004,0.8515082001686096,25,5346.0,-1.2177085876464844,-76,9844.0
7650,0.24425636231899261,-0.9254018068313599,3,5346.0,-2.6104719638824463,-79,9844.0
7660,0.24422529339790344,-2.5178616046905518,-86,5346.0,1.1779160499572754,75,9844.0
7670,0.24427007138729095,-2.044926881790161,-89,5346.0,-6.524952411651611,-52,9844.0
7680,0.24378517270088196,-3.470454454421997,-57,5346.0,0.6443692445755005,77,9844.0
7690,0.24572110176086426,-2.52251935005188,-92,5346.0,-0.6096420884132385,101,9844.0
7700,0.24547263979911804,-1.3134058713912964,-112,5346.0,-7.824366092681885,-117,9844.0
7710,0.24510908126831055,0.5563207864761353,-78,5346.0,-8.759279251098633,-22,9844.0
7720,0.24535350501537323,2.2150957584381104,-116,5346.0,-11.72763729095459,-59,9844.0
7730,0.24919094145298004,3.673114538192749,-34,5346.0,-11.133455276489258,-25,9844.0
7740,0.24939407408237457,2.531017303466797,1,5346.0,-8.509903907775879,-109,9844.0
7750,0.2496669590473175,6.6874494552612305,64,5346.0,-11.82378101348877,-19,9844.0
7760,0.24999463558197021,6.21859073638916,51,5346.0,-3.8461105823516846,-28,9844.0
7770,0.2528807818889618,3.937967300415039,74,5346.0,0.5966721773147583,-13,9844.0
7780,0.25344836711883545,2.3157591819763184,65,5346.0,2.3251025676727295,8,9844.0
7790,0.25404977798461914,0.31301283836364746,39,5346.0,6.6947340965271,6,9844.0
7800,0.25471237301826477,-0.06664344668388367,-35,5346.0,6.494959831237793,113,9844.0
7810,0.25534743070602417,-6.014810085296631,-33,5346.0,10.124051094055176,202,9844.0
7820,0.25923988223075867,-6.6863532066345215,-133,5346.0,11.776544570922852,150,9844.0
7830,0.26015526056289673,-3.9387917518615723,-64,5346.0,6.469001293182373,-45,9844.0
7840,0.26116302609443665,-5.097159385681152,-4,5346.0,3.9735803604125977,43,9844.0
7850,0.26216402649879456,-3.3165664672851562,-3,5346.0,0.8033814430236816,4,9844.0
7860,0.2661430537700653,-2.411586284637451,8,5346.0,1.8806836605072021,-125,9844.0
7870,0.2672967314720154,-0.4826239049434662,73,5346.0,-5.017104625701904,-35,9844.0
7880,0.26843762397766113,0.5660855174064636,-8,5346.0,-7.157402038574219,11,9844.0
7890,0.2695561647415161,1.2963906526565552,0,5346.0,-5.250247955322266,-89,9844.0
7900,0.2707367241382599,0.44252124428749084,33,5346.0,-7.046367168426514,4,9844.0
7910,0.2719734013080597,0.9888185858726501,1,5346.0,-2.911085844039917,51,9844.0
7920,0.27321717143058777,0.16813822090625763,-48,5346.0,-2.0750598907470703,94,9844.0
7930,0.2744865417480469,-1.4569199085235596,-44,5346.0,2.0382330417633057,93,9844.0
7940,0.27571260929107666,-1.0483955144882202,-43,5346.0,6.2664666175842285,145,9844.0
7950,0.2793836295604706,-0.034671105444431305,-3,5346.0,9.789278030395508,140,9844.0
7960,0.28062430024147034,0.7207951545715332,-36,5346.0,9.536741256713867,171,9844.0
7970,0.28188371658325195,1.6353411674499512,45,5346.0,4.827535152435303,1,9844.0
7980,0.28324589133262634,-0.31002506613731384,40,5346.0,-1.1131634712219238,-131,9844.0
7990,0.2843947112560272,1.4812417030334473,19,5346.0,-8.669669151306152,-179,9844.0
8000,0.2855238914489746,3.0558927059173584,48,5346.0,-15.304815292358398,-316,9844.0
8010,0.28663966059684753,3.5238077640533447,81,5346.0,-15.881245613098145,-391,9844.0
8020,0.2877853810787201,0.10375679284334183,12,5346.0,-14.409136772155762,-298,9844.0
8030,0.288782000541687,-0.9530373811721802,-21,5346.0,-13.34510612487793,-199,9844.0
8040,0.2886064648628235,0.11049000173807144,6,5346.0,-8.989294052124023,-89,9844.0
8050,0.2894517183303833,2.4004671573638916,53,5346.0,-9.670633316040039,-40,9844.0
8060,0.29023680090904236,2.553394317626953,61,5346.0,-0.24098660051822662,1,9844.0
8070,0.2911253869533539,6.424178123474121,65,5346.0,-1.319896936416626,100,9844.0
8080,0.29070308804512024,4.308135986328125,51,5346.0,3.4993724822998047,107,9844.0
8090,0.29136770963668823,2.895162343978882,33,5346.0,4.833904266357422,36,9844.0
8100,0.2918696701526642,-0.05978048965334892,-2,5346.0,3.9659111499786377,-42,9844.0
8110,0.29242798686027527,-0.6773186922073364,-19,5346.0,2.562481641769409,-64,9844.0
8120,0.2933569848537445,-4.0757598876953125,-42,5346.0,0.5681711435317993,-128,9844.0
8130,0.29388296604156494,-5.60955810546875,-89,5346.0,-7.755367755889893,-183,9844.0
8140,0.2944100499153137,-7.815988063812256,-93,5346.0,-2.1647512912750244,-180,9844.0
8150,0.2948774993419647,-6.719595909118652,-59,5346.0,-2.468928098678589,-110,9844.0
8160,0.2953350245952606,-6.960573673248291,-88,5346.0,-1.5542426109313965,-72,9844.0
8170,0.29505792260169983,-2.249147891998291,-28,5346.0,-0.9071335196495056,-96,9844.0
8180,0.29537343978881836,-1.8312385082244873,26,5346.0,0.5572827458381653,-89,9844.0
8190,0.2956264317035675,-0.9845369458198547,-28,5346.0,2.948770046234131,55,9844.0
8200,0.295838862657547,-1.1337050199508667,-37,5346.0,4.672170639038086,121,9844.0
8210,0.29449957609176636,0.08636709302663803,20,5346.0,6.928575038909912,113,9844.0
8220,0.29455509781837463,-2.009640693664551,35,5346.0,9.41741943359375,123,9844.0
8230,0.29461368918418884,0.6430486440658569,14,5346.0,8.648514747619629,87,9844.0
8240,0.2947371006011963,-0.48074617981910706,63,5346.0,7.560798645019531,70,9844.0
8250,0.2948290705680847,0.8999509811401367,15,5346.0,7.680205345153809,157,9844.0
8260,0.2953227758407593,-0.867544949054718,-16,5346.0,10.339545249938965,185,9844.0
8270,0.2953745722770691,-1.1180038452148438,56,5346.0,7.693018436431885,-4,9844.0
8280,0.2954404652118683,0.4066409468650818,63,5346.0,7.321527481079102,-26,9844.0
8290,0.29554396867752075,1.8906407356262207,87,5346.0,5.246963977813721,82,9844.0
8300,0.2961985170841217,2.732679843902588,69,5346.0,-0.09292003512382507,-17,9844.0
8310,0.29631346464157104,2.3301711082458496,73,5346.0,2.9142446517944336,-116,9844.0
8320,0.2963382601737976,-0.9794871211051941,148,5346.0,7.415438652038574,-121,9844.0
8330,0.29624757170677185,-1.3073201179504395,47,5346.0,8.784967422485352,25,9844.0
8340,0.2968457043170929,0.28953906893730164,26,5346.0,-0.4704596996307373,-62,9844.0
8350,0.29685425758361816,-1.4833881855010986,41,5346.0,2.7842605113983154,-72,9844.0
8360,0.29685133695602417,-3.4686665534973145,18,5346.0,9.432609558105469,-33,9844.0
8370,0.29685765504837036,-3.6176795959472656,29,5346.0,3.4946541786193848,39,9844.0
8380,0.29678696393966675,-2.15535831451416,1,5346.0,6.39023494720459,44,9844.0
8390,0.297617107629776,-1.0072932243347168,-21,5346.0,4.152125835418701,18,9844.0
8400,0.297667533159256,-3.343501567840576,29,5346.0,5.525629997253418,22,9844.0
8410,0.2977076768875122,-0.9406521916389465,-37,5346.0,0.6299261450767517,42,9844.0
8420,0.2977990508079529,-0.7041542530059814,-18,5346.0,1.7403144836425781,87,9844.0
8430,0.2983091175556183,0.6661625504493713,-78,5346.0,1.701043963432312,163,9844.0
8440,0.298442006111145,0.529906690120697,-6,5346.0,3.8325304985046387,41,9844.0
8450,0.2987160086631775,3.060443639755249,-11,5346.0,-0.5990055799484253,99,9844.0
8460,0.2990862727165222,2.361342430114746,-46,5346.0,2.002824068069458,168,9844.0
8470,0.2995011508464813,1.4805927276611328,-80,5346.0,-1.5781067609786987,97,9844.0
8480,0.3020399212837219,1.9048378467559814,-73,5346.0,-0.8821448683738708,85,9844.0
8490,0.3027181327342987,4.360629081726074,11,5346.0,-5.876301288604736,86,9844.0
8500,0.3033832013607025,1.8576440811157227,-12,5346.0,-1.2748998403549194,69,9844.0
8510,0.30409663915634155,2.0044362545013428,16,5346.0,-2.5005898475646973,37,9844.0
8520,0.3071497976779938,2.409592390060425,-43,5346.0,-2.3923146724700928,136,9844.0
8530,0.3079829514026642,2.412613868713379,1,5346.0,-0.5320035219192505,25,9844.0
8540,0.30885928869247437,3.74074649810791,22,5346.0,-5.414779186248779,-104,9844.0
8550,0.3098069727420807,2.071707248687744,25,5346.0,-3.4830455780029297,5,9844.0
8560,0.31070318818092346,0.580496072769165,-55,5346.0,-3.579254627227783,44,9844.0
8570,0.31288594007492065,-1.6013888120651245,-48,5346.0,-5.766279697418213,-46,9844.0
8580,0.31385594606399536,-1.4323207139968872,-69,5346.0,-6.1879777908325195,-13,9844.0
8590,0.3148516118526459,-2.400538444519043,-58,5346.0,-6.578505039215088,-103,9844.0
8600,0.31580525636672974,-3.863450527191162,-59,5346.0,-3.6072747707366943,-139,9844.0
8610,0.3165639638900757,-4.523354530334473,-65,5346.0,-1.2933472394943237,-105,9844.0
8620,0.31760239601135254,-5.730693340301514,-73,5346.0,2.626796245574951,-27,9844.0
8630,0.31869345903396606,-3.3514795303344727,-47,5346.0,2.1664953231811523,-52,9844.0
8640,0.3198077082633972,-1.046308994293213,18,5346.0,2.201281785964966,-50,9844.0
8650,0.3201465308666229,-2.4451992511749268,-36,5346.0,4.410913467407227,-25,9844.0
8660,0.3210839331150055,-0.21967941522598267,-24,5346.0,0.48138779401779175,61,9844.0
8670,0.32202619314193726,-1.8026795387268066,-7,5346.0,3.0845558643341064,-26,9844.0
8680,0.322884738445282,-2.0811548233032227,-36,5346.0,3.301730155944824,93,9844.0
8690,0.3236970901489258,-4.763634204864502,-80,5346.0,3.7098228931427,125,9844.0
8700,0.3250730633735657,-3.5611860752105713,-80,5346.0,-3.7440757751464844,23,9844.0
8710,0.3258166015148163,-2.5595383644104004,-65,5346.0,1.1324851512908936,86,9844.0
8720,0.3265170753002167,-2.626314640045166,-87,5346.0,-2.212325096130371,83,9844.0
8730,0.32716456055641174,-3.253277540206909,-78,5346.0,-3.557135581970215,-90,9844.0
8740,0.3282471001148224,-1.682470440864563,2,5346.0,-2.055135726928711,-45,9844.0
8750,0.32883772253990173,-0.1724160760641098,-15,5346.0,1.884824275970459,-16,9844.0
8760,0.32942211627960205,0.08142033219337463,30,5346.0,3.0697667598724365,-11,9844.0
8770,0.32998785376548767,0.8983500003814697,13,5346.0,-0.7451669573783875,-43,9844.0
8780,0.3299825191497803,-1.5390244722366333,24,5346.0,2.1269326210021973,-138,9844.0
8790,0.3306036591529846,-0.932793915271759,61,5346.0,2.0473718643188477,-114,9844.0
8800,0.3312672972679138,-2.1130621433258057,18,5346.0,-1.4923808574676514,11,9844.0
8810,0.3318084478378296,-2.561758041381836,-15,5346.0,1.0370423793792725,-28,9844.0
8820,0.3322622776031494,-2.4333009719848633,-23,5346.0,5.951504707336426,157,9844.0
8830,0.33320552110671997,0.727140486240387,23,5346.0,2.172333240509033,63,9844.0
8840,0.33360567688941956,0.7056042551994324,8,5346.0,-0.4197637140750885,121,9844.0
8850,0.3339151442050934,1.7884718179702759,-18,5346.0,-1.2777979373931885,107,9844.0
8860,0.3342079222202301,-0.686050534248352,-31,5346.0,-0.6144938468933105,14,9844.0
8870,0.3331347107887268,0.8903113007545471,-39,5346.0,-4.843094348907471,14,9844.0
8880,0.33331945538520813,0.3428250253200531,-28,5346.0,-3.1385228633880615,59,9844.0
8890,0.33343011140823364,-1.5328861474990845,-115,5346.0,-4.813491344451904,85,9844.0
8900,0.33351024985313416,-3.710908889770508,-90,5346.0,-2.8645224571228027,-27,9844.0
8910,0.3336048126220703,-2.2817816734313965,-23,5346.0,-0.6754377484321594,-5,9844.0
8920,0.33340510725975037,-0.8885306119918823,-57,5346.0,-0.8522499799728394,138,9844.0
8930,0.3334144949913025,2.2592580318450928,-36,5346.0,-1.2265386581420898,90,9844.0
8940,0.3334527611732483,1.5826793909072876,-64,5346.0,-2.882697820663452,97,9844.0
8950,0.333580881357193,3.0418853759765625,-2,5346.0,-1.8743035793304443,29,9844.0
8960,0.3330575227737427,1.438482642173767,-14,5346.0,-0.6199764013290405,130,9844.0
8970,0.3331437408924103,1.5174245834350586,-19,5346.0,-0.6578704714775085,89,9844.0
8980,0.3332512378692627,1.2485731840133667,-53,5346.0,-6.163206577301025,60,9844.0
8990,0.33338549733161926,2.4345223903656006,1,5346.0,-0.3599012792110443,24,9844.0
9000,0.33295223116874695,1.3646183013916016,-85,5346.0,0.5471475124359131,92,9844.0
9010,0.33308422565460205,0.8434919118881226,-19,5346.0,0.6517956256866455,93,9844.0
9020,0.33319091796875,-0.3650583028793335,-43,5346.0,0.23370736837387085,120,9844.0
9030,0.33351704478263855,2.791416645050049,-27,5346.0,-2.14675235748291,81,9844.0
9040,0.3338986337184906,1.7397223711013794,-28,5346.0,-3.620300054550171,71,9844.0
9050,0.33380213379859924,0.5364140868186951,-59,5346.0,-4.941287040710449,-20,9844.0
9060,0.33420804142951965,1.249168038368225,5,5346.0,-6.985252857208252,-32,9844.0
9070,0.3346123993396759,0.3068836033344269,-5,5346.0,-6.198322772979736,-34,9844.0
9080,0.33506685495376587,0.624426543712616,-27,5346.0,-3.6803181171417236,62,9844.0
9090,0.33715832233428955,3.184793472290039,2,5346.0,-3.9512550830841064,101,9844.0
9100,0.33761411905288696,4.2188239097595215,80,5346.0,-2.2365810871124268,-54,9844.0
9110,0.338047057390213,5.909750461578369,114,5346.0,-1.1758314371109009,-1,9844.0
9120,0.3384486734867096,6.67995023727417,74,5346.0,-3.1693837642669678,72,9844.0
9130,0.3388092517852783,3.246171712875366,7,5346.0,-1.1736582517623901,50,9844.0
9140,0.3415115177631378,-0.5524992346763611,-51,5346.0,-2.0025064945220947,-67,9844.0
9150,0.34189242124557495,-3.05507230758667,-3,5346.0,-2.2271928787231445,-87,9844.0
9160,0.3422919809818268,-1.294981837272644,-38,5346.0,-3.9997546672821045,23,9844.0
9170,0.3427242636680603,-1.632233738899231,11,5346.0,-2.681736469268799,66,9844.0
9180,0.34383541345596313,-2.6309447288513184,-41,5346.0,-4.0428032875061035,21,9844.0
9190,0.34421592950820923,-2.551121711730957,-73,5346.0,0.2541831135749817,-39,9844.0
9200,0.3445609509944916,-2.140397787094116,-68,5346.0,-2.441789150238037,50,9844.0
9210,0.34488198161125183,-0.859096109867096,-44,5346.0,-3.770819664001465,14,9844.0
9220,0.3452662527561188,-1.4498987197875977,-71,5346.0,-3.079667091369629,19,9844.0
9230,0.34708112478256226,1.1906071901321411,-67,5346.0,-7.046731948852539,81,9844.0
9240,0.3474598526954651,-1.3577767610549927,-54,5346.0,-3.2681477069854736,89,9844.0
9250,0.34779465198516846,-1.5047725439071655,-45,5346.0,-2.2104222774505615,20,9844.0
9260,0.34816083312034607,-2.8093295097351074,-90,5346.0,-0.5456340312957764,9,9844.0
9270,0.3502670228481293,-3.239643096923828,-67,5346.0,-3.28385066986084,15,9844.0
9280,0.35070231556892395,-1.7565979957580566,-41,5346.0,-1.271056890487671,19,9844.0
9290,0.3511311113834381,-3.086698532104492,-53,5346.0,0.9870011210441589,9,9844.0
9300,0.35156476497650146,-0.5242138504981995,-24,5346.0,3.4789600372314453,10,9844.0
9310,0.35394296050071716,2.4516944885253906,55,5346.0,0.42837703227996826,-52,9844.0
9320,0.3545509874820709,1.860254168510437,93,5346.0,4.984781265258789,-145,9844.0
9330,0.3552093207836151,2.98543643951416,69,5346.0,2.3105032444000244,-53,9844.0
9340,0.35593220591545105,2.335766077041626,74,5346.0,1.048110842704773,30,9844.0
9350,0.3567129969596863,0.9396822452545166,20,5346.0,0.9697260856628418,-4,9844.0
9360,0.35967227816581726,1.1224212646484375,21,5346.0,1.385543704032898,126,9844.0
9370,0.36055296659469604,1.9505060911178589,-1,5346.0,0.6560471653938293,125,9844.0
9380,0.3614194989204407,2.8860416412353516,-5,5346.0,-1.402597427368164,136,9844.0
9390,0.362227201461792,0.8140591979026794,7,5346.0,1.2547736167907715,61,9844.0
9400,0.36375683546066284,0.4975384473800659,27,5346.0,5.910191059112549,-67,9844.0
9410,0.36456233263015747,0.8717093467712402,74,5346.0,1.1027151346206665,-122,9844.0
9420,0.36533090472221375,1.2183542251586914,48,5346.0,-1.8433488607406616,-47,9844.0
9430,0.3660556972026825,0.7466374039649963,0,5346.0,-2.1285834312438965,43,9844.0
9440,0.3683282434940338,2.0383899211883545,-29,5346.0,-4.183946132659912,87,9844.0
9450,0.36910122632980347,1.1741008758544922,-18,5346.0,0.869996964931488,86,9844.0
9460,0.36988288164138794,1.1728140115737915,13,5346.0,-0.6751827001571655,40,9844.0
9470,0.3706234395503998,4.3412909507751465,85,5346.0,-1.347507357597351,-112,9844.0
9480,0.3713541030883789,2.3330135345458984,82,5346.0,3.540766716003418,-148,9844.0
9490,0.37475094199180603,2.36144757270813,51,5346.0,3.949042558670044,-38,9844.0
9500,0.37554728984832764,3.695871353149414,88,5346.0,-0.2575775682926178,22,9844.0
9510,0.3763250410556793,2.7310280799865723,8,5346.0,2.1664533615112305,194,9844.0
9520,0.3771781027317047,3.03987455368042,34,5346.0,1.156188726425171,57,9844.0
9530,0.37828052043914795,-0.676522433757782,-25,5346.0,3.267024278640747,19,9844.0
9540,0.37889963388442993,-2.3935387134552,-34,5346.0,3.622948169708252,-55,9844.0
9550,0.37945976853370667,-3.615218162536621,-91,5346.0,4.239042282104492,-24,9844.0
9560,0.3800179958343506,-3.1321911811828613,-44,5346.0,-3.7859883308410645,-19,9844.0
9570,0.3804466128349304,-2.7141976356506348,4,5346.0,-4.644007205963135,-15,9844.0
9580,0.38139307498931885,-0.7361407279968262,-3,5346.0,-3.861865282058716,16,9844.0
9590,0.3819282352924347,0.2969791889190674,21,5346.0,-3.6898691654205322,-39,9844.0
9600,0.38232553005218506,-2.479137420654297,-34,5346.0,-3.5922324657440186,-150,9844.0
9610,0.38279011845588684,-5.752279758453369,-112,5346.0,-4.5467529296875,-170,9844.0
9620,0.3823259472846985,-9.502098083496094,-149,5346.0,-6.316585540771484,-128,9844.0
9630,0.38261881470680237,-11.855311393737793,-230,5346.0,-6.3172712326049805,-40,9844.0
9640,0.3828448951244354,-13.293310165405273,-224,5346.0,-9.294598579406738,-135,9844.0
9650,0.3830595314502716,-14.484236717224121,-242,5346.0,-12.81732177734375,-105,9844.0
9660,0.3846634030342102,-11.546820640563965,-147,5346.0,-4.553064346313477,-124,9844.0
9670,0.38486263155937195,-8.87910270690918,-104,5346.0,-2.6988961696624756,-81,9844.0
9680,0.3850574493408203,-5.968412399291992,-85,5346.0,1.8382314443588257,-83,9844.0
9690,0.38522475957870483,-5.226284027099609,-80,5346.0,5.591557502746582,40,9844.0
9700,0.38538551330566406,-4.840924263000488,-58,5346.0,7.651515960693359,180,9844.0
9710,0.3852958083152771,-4.702258110046387,-21,5346.0,11.97886848449707,344,9844.0
9720,0.3854151964187622,-3.080712080001831,-53,5346.0,13.500609397888184,316,9844.0
9730,0.38559412956237793,-1.9972889423370361,-56,5346.0,8.832179069519043,227,9844.0
9740,0.38583099842071533,0.9116674661636353,3,5346.0,5.19185733795166,154,9844.0
9750,0.38593748211860657,-0.29106685519218445,-5,5346.0,6.250820159912109,23,9844.0
9760,0.3859754204750061,0.5137508511543274,8,5346.0,-0.6124504804611206,-137,9844.0
9770,0.3860495984554291,3.79681396484375,79,5346.0,-2.9037604331970215,-185,9844.0
9780,0.38607344031333923,5.4647040367126465,119,5346.0,-6.163585186004639,-233,9844.0
9790,0.3861638009548187,6.5477213859558105,120,5346.0,-6.411458492279053,-120,9844.0
9800,0.38692954182624817,4.34349250793457,76,5346.0,-2.693315029144287,-83,9844.0
9810,0.3870353102684021,4.56870174407959,61,5346.0,-1.4023815393447876,-65,9844.0
9820,0.38710397481918335,1.3265265226364136,45,5346.0,1.5585671663284302,-25,9844.0
9830,0.3871414363384247,2.255256175994873,29,5346.0,2.335026979446411,61,9844.0
9840,0.38867664337158203,1.437106728553772,-19,5346.0,2.9257845878601074,170,9844.0
9850,0.38874074816703796,0.8791132569313049,-55,5346.0,6.022340774536133,203,9844.0
9860,0.3887858986854553,-3.1410911083221436,-62,5346.0,7.00820255279541,222,9844.0
9870,0.38882243633270264,-3.800347089767456,-53,5346.0,10.9111967086792,189,9844.0
9880,0.388889878988266,-5.517950534820557,-102,5346.0,9.678894996643066,142,9844.0
9890,0.39137646555900574,-7.311215400695801,-108,5346.0,6.48475980758667,80,9844.0
9900,0.3915517032146454,-6.970410346984863,-104,5346.0,7.015345573425293,39,9844.0
9910,0.39168474078178406,-4.911395072937012,-10,5346.0,3.459803819656372,-125,9844.0
9920,0.39187780022621155,-8.162039756774902,-37,5346.0,1.6512246131896973,-7,9844.0
9930,0.393146812915802,0.06603458523750305,-1,5346.0,0.08396539092063904,-54,9844.0
9940,0.3932989537715912,11.06653118133545,232,5346.0,-5.750611305236816,-103,9844.0
9950,0.3934577703475952,17.571468353271484,294,5346.0,-0.5439491868019104,15,9844.0
9960,0.3935587704181671,21.0057430267334,382,5346.0,-6.501204490661621,-131,9844.0
9970,0.3937646746635437,22.56309700012207,317,5346.0,-6.689250469207764,-137,9844.0
9980,0.3937521278858185,17.35712432861328,306,5346.0,-5.179966449737549,-171,9844.0
9990,0.393687903881073,9.017762184143066,183,5346.0,-0.038598187267780304,-19,9844.0
10000,0.3936688303947449,6.241045951843262,103,5346.0,0.7917581796646118,-76,9844.0
10010,0.39364686608314514,-1.766771912574768,-22,5346.0,2.2597873210906982,-52,9844.0
10020,0.39489293098449707,-2.873152256011963,-32,5346.0,-0.2038499265909195,11,9844.0
10030,0.394910603761673,-6.496320724487305,-92,5346.0,1.3768866062164307,-53,9844.0
10040,0.39492467045783997,-7.315281867980957,-120,5346.0,2.3081932067871094,2,9844.0
10050,0.39496102929115295,-7.773086071014404,-91,5346.0,5.284857273101807,44,9844.0
10060,0.396566778421402,-4.558847904205322,-18,5346.0,1.6228430271148682,32,9844.0
10070,0.3966673016548157,-1.940950870513916,33,5346.0,2.7760472297668457,-15,9844.0
10080,0.3967708349227905,-0.6938482522964478,45,5346.0,2.981166362762451,31,9844.0
10090,0.39682143926620483,3.6489946842193604,99,5346.0,4.019337177276611,29,9844.0
10100,0.3996010720729828,4.20327091217041,130,5346.0,2.115551710128784,-23,9844.0
10110,0.3998817205429077,5.013714790344238,106,5346.0,-0.9029309153556824,-47,9844.0
10120,0.4001024663448334,2.5937259197235107,69,5346.0,-4.12628173828125,-65,9844.0
10130,0.40024125576019287,3.5562374591827393,60,5346.0,-3.2621009349823,-35,9844.0
10140,0.4003857672214508,3.3823437690734863,51,5346.0,-5.7192158699035645,-95,9844.0
10150,0.402748167514801,1.5355982780456543,117,5346.0,-6.389734745025635,-134,9844.0
10160,0.40308162569999695,3.969111919403076,64,5346.0,-5.663941860198975,-47,9844.0
10170,0.4034687578678131,2.430410146713257,33,5346.0,-1.1064411401748657,62,9844.0
10180,0.4038867652416229,0.13544563949108124,6,5346.0,1.201364278793335,79,9844.0
10190,0.40571603178977966,0.9771298766136169,-48,5346.0,3.04752516746521,154,9844.0
10200,0.40613633394241333,0.9485759139060974,-31,5346.0,3.5734751224517822,199,9844.0
10210,0.40654268860816956,0.29160749912261963,-37,5346.0,5.179570198059082,150,9844.0
10220,0.4069119095802307,-0.211030513048172,5,5346.0,8.084081649780273,109,9844.0
10230,0.407272607088089,-0.20034560561180115,-1,5346.0,4.15750789642334,2,9844.0
10240,0.40792208909988403,-2.6685500144958496,-42,5346.0,6.573339939117432,64,9844.0
10250,0.40833228826522827,-3.8472399711608887,-87,5346.0,3.8922882080078125,8,9844.0
10260,0.40866702795028687,-2.822486400604248,-28,5346.0,0.8188372254371643,-105,9844.0
10270,0.4089675843715668,-4.762887001037598,-45,5346.0,-0.03969765082001686,-46,9844.0
10280,0.4095228910446167,-2.788630962371826,-34,5346.0,-6.825255393981934,-104,9844.0
10290,0.40972158312797546,-1.3016400337219238,10,5346.0,-7.1240129470825195,-134,9844.0
10300,0.4098988175392151,0.20799633860588074,28,5346.0,-6.084388256072998,-82,9844.0
10310,0.41005465388298035,2.9284470081329346,71,5346.0,-10.475483894348145,-60,9844.0
10320,0.41129615902900696,4.480067253112793,85,5346.0,-3.6089189052581787,25,9844.0
10330,0.4115253686904907,2.3308444023132324,38,5346.0,0.8215857148170471,136,9844.0
10340,0.4117032289505005,3.264665126800537,23,5346.0,4.987085819244385,105,9844.0
10350,0.41185635328292847,-1.0203064680099487,-9,5346.0,7.292420387268066,30,9844.0
10360,0.4119913578033447,-1.2279770374298096,-42,5346.0,4.926855564117432,10,9844.0
10370,0.41412705183029175,-3.7069056034088135,-80,5346.0,6.9348297119140625,-47,9844.0
10380,0.4143645763397217,-6.370176315307617,-81,5346.0,2.9617550373077393,-99,9844.0
10390,0.41456338763237,-4.187607288360596,-38,5346.0,-0.8592144250869751,-120,9844.0
10400,0.41474637389183044,-3.9361531734466553,-67,5346.0,-1.758988857269287,64,9844.0
10410,0.4145713746547699,-0.06443410366773605,9,5346.0,-3.975215196609497,30,9844.0
10420,0.41474810242652893,1.2983375787734985,15,5346.0,-3.257009983062744,112,9844.0
10430,0.4149032533168793,2.1314022541046143,5,5346.0,0.4830789268016815,43,9844.0
10440,0.4150305986404419,3.803877830505371,38,5346.0,0.9982790946960449,32,9844.0
10450,0.4150981903076172,1.9816722869873047,15,5346.0,4.082143306732178,29,9844.0
10460,0.4158670902252197,2.0725059509277344,75,5346.0,6.277377128601074,-68,9844.0
10470,0.41583824157714844,1.0461806058883667,41,5346.0,2.472942590713501,-39,9844.0
10480,0.4157676100730896,-1.4231019020080566,-31,5346.0,3.0793182849884033,-11,9844.0
10490,0.4156518280506134,-1.8831138610839844,-52,5346.0,0.5338306427001953,31,9844.0
10500,0.41655489802360535,-3.6202821731567383,-77,5346.0,0.5628620982170105,84,9844.0
10510,0.41658127307891846,-3.858834981918335,-58,5346.0,-1.6337860822677612,25,9844.0
10520,0.4166691303253174,-4.412325859069824,-82,5346.0,-1.703787088394165,-6,9844.0
10530,0.41673314571380615,-0.4555801749229431,-35,5346.0,-4.0006422996521,-2,9844.0
10540,0.41722849011421204,-0.3076986074447632,1,5346.0,-1.7740486860275269,13,9844.0
10550,0.41727495193481445,-0.8867619633674622,30,5346.0,-0.27531924843788147,-39,9844.0
10560,0.41728320717811584,1.3191165924072266,22,5346.0,-4.07921028137207,-17,9844.0
10570,0.4172576665878296,1.8116602897644043,4,5346.0,-0.38359448313713074,-79,9844.0
10580,0.41722938418388367,1.1969020366668701,51,5346.0,-1.3255889415740967,-34,9844.0
10590,0.41746586561203003,1.0671932697296143,31,5346.0,-3.5433743000030518,-50,9844.0
10600,0.41741621494293213,1.460605502128601,12,5346.0,0.41066575050354004,-83,9844.0
10610,0.41734516620635986,-0.05704958736896515,16,5346.0,1.2321410179138184,90,9844.0
10620,0.41725239157676697,-0.1420615017414093,-4,5346.0,2.2680723667144775,90,9844.0
10630,0.4166908860206604,-1.5948153734207153,-36,5346.0,1.8521413803100586,147,9844.0
10640,0.41652658581733704,-1.2638252973556519,-31,5346.0,2.019901752471924,124,9844.0
10650,0.41634783148765564,-0.06950437277555466,-29,5346.0,0.20451945066452026,103,9844.0
10660,0.41618582606315613,-0.044441480189561844,-5,5346.0,-2.191460609436035,30,9844.0
10670,0.4160197377204895,-0.9342853426933289,-19,5346.0,0.7770546078681946,-7,9844.0
10680,0.41583698987960815,-2.816159248352051,-52,5346.0,-1.3089712858200073,-44,9844.0
10690,0.415668785572052,-2.2278361320495605,-32,5346.0,1.595720648765564,-20,9844.0
10700,0.41547584533691406,-2.294626474380493,-4,5346.0,-2.188549518585205,-112,9844.0
10710,0.4152202606201172,-1.0595053434371948,4,5346.0,-1.0265252590179443,-102,9844.0
10720,0.4152987003326416,-1.823324203491211,33,5346.0,-4.260279655456543,-100,9844.0
10730,0.41500124335289,-2.4717206954956055,-6,5346.0,-0.6418779492378235,-141,9844.0
10740,0.41469013690948486,-4.095977306365967,-51,5346.0,2.2381138801574707,28,9844.0
10750,0.4143832325935364,-4.762796401977539,-19,5346.0,-1.3701717853546143,44,9844.0
10760,0.41437599062919617,-2.292707681655884,-22,5346.0,-0.33463236689567566,23,9844.0
10770,0.41414546966552734,-0.5126962661743164,-5,5346.0,-0.953188419342041,-47,9844.0
10780,0.41394105553627014,-0.5430078506469727,17,5346.0,-4.29599142074585,-115,9844.0
10790,0.4137353003025055,-0.5611310601234436,23,5346.0,-6.812828063964844,-105,9844.0
10800,0.4135940372943878,0.6818415522575378,44,5346.0,-6.123258113861084,-103,9844.0
10810,0.4128200113773346,0.6836816072463989,52,5346.0,-5.365693092346191,-120,9844.0
10820,0.4126392602920532,2.472640037536621,50,5346.0,-7.491851806640625,-118,9844.0
10830,0.4125489890575409,1.9001445770263672,39,5346.0,-6.361616134643555,-80,9844.0
10840,0.41243988275527954,0.9888755083084106,0,5346.0,-1.0320600271224976,48,9844.0
10850,0.4141428470611572,2.119577646255493,12,5346.0,-5.793522834777832,22,9844.0
10860,0.41409066319465637,2.372950792312622,54,5346.0,-3.7493817806243896,49,9844.0
10870,0.41407275199890137,0.8557284474372864,-39,5346.0,1.4743074178695679,121,9844.0
10880,0.4140818119049072,3.281069755554199,22,5346.0,-2.3956024646759033,43,9844.0
10890,0.4141124486923218,1.5968583822250366,-33,5346.0,-2.0431630611419678,88,9844.0
10900,0.41412657499313354,0.7557942867279053,-62,5346.0,-0.17977148294448853,63,9844.0
10910,0.4142025113105774,-2.0013279914855957,-73,5346.0,1.4902387857437134,97,9844.0
10920,0.4142764210700989,-0.592796266078949,-28,5346.0,0.9520058631896973,115,9844.0
10930,0.4143541753292084,-1.3760563135147095,-52,5346.0,-0.06996656209230423,-40,9844.0
10940,0.4146578907966614,-0.8708764910697937,1,5346.0,-2.3640429973602295,-132,9844.0
10950,0.4147293269634247,-1.6956955194473267,-10,5346.0,1.3197458982467651,-66,9844.0
10960,0.41476184129714966,-1.892643928527832,-28,5346.0,4.6778388023376465,-31,9844.0
10970,0.41474366188049316,0.44107019901275635,32,5346.0,0.9968674778938293,3,9844.0
10980,0.4155852198600769,-0.9413455128669739,22,5346.0,2.2253482341766357,-85,9844.0
10990,0.4155898690223694,-1.3399404287338257,15,5346.0,4.304689407348633,-39,9844.0
11000,0.41559818387031555,-2.2054736614227295,49,5346.0,4.916349411010742,41,9844.0
11010,0.4155975878238678,-2.26377272605896,11,5346.0,6.375670909881592,49,9844.0
11020,0.41559281945228577,0.5864994525909424,11,5346.0,3.2021677494049072,15,9844.0
11030,0.4169171452522278,-1.1126399040222168,-24,5346.0,0.9853495359420776,22,9844.0
11040,0.4169240891933441,-2.0485153198242188,21,5346.0,0.3104785084724426,18,9844.0
11050,0.4169251620769501,1.3643832206726074,-18,5346.0,-5.734047889709473,79,9844.0
11060,0.4168850779533386,-1.350996971130371,-49,5346.0,-3.702892541885376,20,9844.0
11070,0.4181104302406311,-2.6747512817382812,-59,5346.0,-0.7081636786460876,124,9844.0
11080,0.4181513786315918,-3.2668144702911377,-81,5346.0,2.9759554862976074,120,9844.0
11090,0.4182009994983673,-2.2675886154174805,-31,5346.0,3.325444459915161,28,9844.0
11100,0.4182610809803009,-1.044830083847046,16,5346.0,3.2348716259002686,72,9844.0
11110,0.41832494735717773,0.22482328116893768,20,5346.0,5.816823959350586,58,9844.0
11120,0.4186106026172638,-1.6534229516983032,35,5346.0,8.480090141296387,-70,9844.0
11130,0.4185650646686554,-0.09480750560760498,7,5346.0,4.755521297454834,5,9844.0
11140,0.4185018837451935,-1.5533379316329956,11,5346.0,4.006262302398682,-39,9844.0
11150,0.418437659740448,0.47181472182273865,59,5346.0,4.712744235992432,5,9844.0
11160,0.4202114939689636,-0.0713844820857048,-2,5346.0,2.8993732929229736,17,9844.0
11170,0.4202231168746948,1.2628926038742065,39,5346.0,0.5214229822158813,67,9844.0
11180,0.4202161431312561,2.7283036708831787,-4,5346.0,-0.5201342701911926,29,9844.0
11190,0.4202091097831726,3.976700782775879,2,5346.0,-3.7584095001220703,-50,9844.0
11200,0.4216581881046295,4.260308742523193,72,5346.0,-2.5113213062286377,-97,9844.0
11210,0.42169851064682007,2.2227590084075928,22,5346.0,2.168174982070923,5,9844.0
11220,0.4217197895050049,0.550136923789978,19,5346.0,2.894167900085449,-42,9844.0
11230,0.42170417308807373,-0.6186075210571289,16,5346.0,5.763108253479004,64,9844.0
11240,0.42167457938194275,-1.5067957639694214,-4,5346.0,6.350135326385498,55,9844.0
11250,0.4205775558948517,-2.3914971351623535,-41,5346.0,3.75815749168396,65,9844.0
11260,0.4204634726047516,-1.271872639656067,-16,5346.0,2.9551000595092773,119,9844.0
11270,0.42031925916671753,-1.58102548122406,1,5346.0,3.186288595199585,81,9844.0
11280,0.42017853260040283,-1.4962049722671509,-89,5346.0,3.0723795890808105,104,9844.0
11290,0.4204006791114807,-0.6846081018447876,-75,5346.0,-0.501949667930603,75,9844.0
11300,0.42024779319763184,-1.2401224374771118,-24,5346.0,-1.0431432723999023,-26,9844.0
11310,0.42006611824035645,0.7401736378669739,8,5346.0,0.3143383264541626,-18,9844.0
11320,0.4198368787765503,2.257864475250244,1,5346.0,-4.625152587890625,-55,9844.0
11330,0.4195663630962372,1.195672631263733,45,5346.0,-1.4331356287002563,-66,9844.0
11340,0.42064130306243896,0.29233217239379883,16,5346.0,-0.5334765315055847,-85,9844.0
11350,0.42041444778442383,-0.6037026047706604,-19,5346.0,0.20316942036151886,-65,9844.0
11360,0.42019039392471313,0.29426655173301697,16,5346.0,0.9765591621398926,1,9844.0
11370,0.41997388005256653,0.3224819600582123,11,5346.0,-0.7080516815185547,57,9844.0
11380,0.4189751446247101,-1.8499348163604736,-29,5346.0,1.5525619983673096,111,9844.0
11390,0.4187198281288147,-1.4762780666351318,-13,5346.0,-0.1244903951883316,98,9844.0
11400,0.4184722304344177,-1.2558362483978271,-43,5346.0,2.8570497035980225,158,9844.0
11410,0.4182620346546173,-0.7211647033691406,-54,5346.0,6.258311748504639,178,9844.0
11420,0.41844475269317627,-0.3784758746623993,-33,5346.0,0.7074666023254395,33,9844.0
11430,0.4183391332626343,1.0317927598953247,6,5346.0,0.5788034796714783,50,9844.0
11440,0.41823846101760864,-0.13922689855098724,12,5346.0,4.249687671661377,60,9844.0
11450,0.4180971384048462,2.3068182468414307,58,5346.0,0.36846837401390076,-61,9844.0
11460,0.4179280400276184,3.4878597259521484,85,5346.0,-4.281098365783691,-130,9844.0
11470,0.41894885897636414,-0.2034274786710739,46,5346.0,2.0387542247772217,-34,9844.0
11480,0.41874057054519653,0.7143581509590149,27,5346.0,1.0817899703979492,-124,9844.0
11490,0.41847652196884155,0.2522337734699249,20,5346.0,0.05869226157665253,-36,9844.0
11500,0.4181777238845825,0.1509396880865097,-17,5346.0,0.47321411967277527,22,9844.0
11510,0.4175061583518982,-2.0440080165863037,0,5346.0,-0.4225381016731262,7,9844.0
11520,0.4171364903450012,-2.0374276638031006,-58,5346.0,-2.1501147747039795,51,9844.0
11530,0.4167613089084625,-0.27887627482414246,20,5346.0,-1.567183017730713,66,9844.0
11540,0.4163900911808014,0.3018326163291931,-49,5346.0,-4.340170860290527,66,9844.0
11550,0.416018545627594,0.5834905505180359,-10,5346.0,-3.066126585006714,-25,9844.0
11560,0.41561248898506165,1.7684211730957031,-26,5346.0,-2.410773277282715,29,9844.0
11570,0.4151967167854309,0.6774612665176392,-10,5346.0,-0.9854529500007629,44,9844.0
11580,0.4147852659225464,-0.8260063529014587,-8,5346.0,-2.9665322303771973,-55,9844.0
11590,0.41440320014953613,0.28339526057243347,13,5346.0,-1.413069486618042,-100,9844.0
11600,0.4142528474330902,-1.8496031761169434,16,5346.0,5.722177982330322,-99,9844.0
11610,0.41385480761528015,-0.5124649405479431,20,5346.0,3.2783942222595215,-47,9844.0
11620,0.4135186970233917,-0.9313454627990723,5,5346.0,4.628520488739014,-5,9844.0
11630,0.41316041350364685,1.2000949382781982,112,5346.0,-5.221081256866455,-225,9844.0
11640,0.4144730567932129,1.265662670135498,-1,5346.0,0.16308720409870148,4,9844.0
11650,0.41419005393981934,0.5679304599761963,35,5346.0,-1.7578563690185547,-79,9844.0
11660,0.4139474034309387,1.1786727905273438,-7,5346.0,-1.1330082416534424,100,9844.0
11670,0.41374146938323975,-0.4328932464122772,10,5346.0,-3.444789409637451,69,9844.0
11680,0.41357120871543884,-0.7324565649032593,-34,5346.0,-0.4194185733795166,113,9844.0
11690,0.41481631994247437,-0.2836633324623108,-74,5346.0,0.3259223401546478,67,9844.0
11700,0.4147404730319977,-1.582487940788269,-64,5346.0,5.554424285888672,87,9844.0
11710,0.4146815538406372,-0.058348529040813446,-40,5346.0,-0.18954958021640778,130,9844.0
11720,0.41465339064598083,-0.5255290269851685,-20,5346.0,1.8094964027404785,63,9844.0
11730,0.41437843441963196,1.9263027906417847,4,5346.0,-0.12275967001914978,-85,9844.0
11740,0.4143697917461395,1.4524707794189453,58,5346.0,-2.097212076187134,-68,9844.0
11750,0.4143695533275604,1.0590626001358032,-11,5346.0,3.983715057373047,5,9844.0
11760,0.4143943190574646,1.2140371799468994,8,5346.0,1.5685447454452515,-104,9844.0
11770,0.41445860266685486,0.390891969203949,73,5346.0,-3.3736681938171387,-158,9844.0
11780,0.41434457898139954,0.38613957166671753,55,5346.0,-2.5329184532165527,-75,9844.0
11790,0.4143819808959961,1.2950400114059448,19,5346.0,-0.9787136912345886,-85,9844.0
11800,0.414380818605423,1.819368600845337,38,5346.0,1.8013032674789429,-40,9844.0
11810,0.41434890031814575,-0.48424628376960754,47,5346.0,0.19155380129814148,-22,9844.0
11820,0.41494160890579224,3.7953033447265625,24,5346.0,-2.674349784851074,31,9844.0
11830,0.41488659381866455,2.4639673233032227,31,5346.0,3.4422924518585205,122,9844.0
11840,0.4148140251636505,1.140069842338562,-19,5346.0,1.6066843271255493,93,9844.0
11850,0.4147183299064636,0.6728792190551758,-7,5346.0,0.1600240170955658,31,9844.0
11860,0.41515204310417175,-0.886825442314148,-18,5346.0,-0.7794064283370972,50,9844.0
11870,0.4150451421737671,0.16311605274677277,15,5346.0,-4.689380645751953,-93,9844.0
11880,0.414933443069458,0.3848991394042969,65,5346.0,-0.9669269919395447,-155,9844.0
11890,0.4148274064064026,1.5570980310440063,53,5346.0,1.8921384811401367,-98,9844.0
11900,0.41470447182655334,2.0436275005340576,120,5346.0,-3.309251070022583,-100,9844.0
11910,0.415063738822937,2.1178770065307617,57,5346.0,-0.6118844747543335,-122,9844.0
11920,0.4148893654346466,1.85446035861969,-1,5346.0,2.8925280570983887,44,9844.0
11930,0.41470515727996826,1.0793572664260864,32,5346.0,1.6903785467147827,52,9844.0
11940,0.4144906997680664,2.173712968826294,-19,5346.0,-2.988173484802246,126,9844.0
11950,0.415239155292511,-0.6855809092521667,-57,5346.0,-5.753246784210205,69,9844.0
11960,0.4150630235671997,-0.8173382878303528,-37,5346.0,-3.039377212524414,-45,9844.0
11970,0.41495129466056824,0.7327688336372375,-1,5346.0,-2.8442373275756836,-7,9844.0
11980,0.41485053300857544,0.47807854413986206,-2,5346.0,3.566040515899658,-32,9844.0
11990,0.41566821932792664,-0.6353283524513245,-3,5346.0,4.122951030731201,-58,9844.0
12000,0.4156828224658966,-0.4079506993293762,-8,5346.0,3.311671257019043,-67,9844.0
12010,0.41568300127983093,0.4536953568458557,13,5346.0,1.8645797967910767,-84,9844.0
12020,0.41564124822616577,0.07009247690439224,31,5346.0,2.1046555042266846,-33,9844.0
12030,0.4155949652194977,-0.5393579602241516,34,5346.0,0.5133606195449829,-14,9844.0
12040,0.4156750440597534,0.3395647406578064,-36,5346.0,1.0008975267410278,6,9844.0
12050,0.4155478775501251,0.8636110424995422,2,5346.0,-1.3114744424819946,-68,9844.0
12060,0.4153873324394226,2.3557827472686768,78,5346.0,-0.15159671008586884,74,9844.0
12070,0.41521334648132324,3.315554141998291,47,5346.0,0.9104387760162354,45,9844.0
12080,0.4142035245895386,2.6158297061920166,46,5346.0,1.4195574522018433,83,9844.0
12090,0.41395318508148193,2.5720009803771973,22,5346.0,-1.1454139947891235,159,9844.0
12100,0.4136912226676941,0.5336236357688904,-36,5346.0,1.529362440109253,55,9844.0
12110,0.4134145975112915,-0.22429227828979492,-45,5346.0,0.9221461415290833,85,9844.0
12120,0.41309115290641785,-1.0697200298309326,-52,5346.0,1.3827474117279053,3,9844.0
12130,0.4131070375442505,-0.9394048452377319,-31,5346.0,2.809898853302002,29,9844.0
12140,0.41278529167175293,-2.137686252593994,-29,5346.0,-0.2043600082397461,-40,9844.0
12150,0.41251683235168457,-3.658247470855713,-24,5346.0,5.612895965576172,-20,9844.0
12160,0.412246435880661,-5.016866683959961,-38,5346.0,3.9971797466278076,-105,9844.0
12170,0.4130880832672119,-4.798679351806641,-24,5346.0,0.35122737288475037,-126,9844.0
12180,0.412908136844635,-4.105288982391357,3,5346.0,-0.6968289017677307,-96,9844.0
12190,0.4127073585987091,-1.6570371389389038,-4,5346.0,-2.092360496520996,-85,9844.0
12200,0.41247278451919556,-3.057856321334839,-26,5346.0,-0.450428307056427,-24,9844.0
12210,0.4125199019908905,-0.6337512135505676,-10,5346.0,-6.5540852546691895,7,9844.0
12220,0.41227513551712036,-0.24688245356082916,-45,5346.0,-1.5483342409133911,41,9844.0
12230,0.41203537583351135,-0.01194023247808218,-23,5346.0,1.2945239543914795,83,9844.0
12240,0.41178324818611145,0.5893038511276245,-25,5346.0,3.86382794380188,97,9844.0
12250,0.4115108251571655,-1.2386926412582397,-83,5346.0,5.214965343475342,168,9844.0
12260,0.4114588499069214,-1.3907420635223389,-65,5346.0,3.2954905033111572,30,9844.0
12270,0.41124817728996277,-1.9820857048034668,-49,5346.0,5.925514221191406,78,9844.0
12280,0.4110541045665741,-1.0323957204818726,-5,5346.0,5.805193901062012,75,9844.0
12290,0.4109073579311371,0.06576066464185715,-19,5346.0,2.1561670303344727,-46,9844.0
12300,0.4112868905067444,-0.15014539659023285,32,5346.0,-0.43943557143211365,-77,9844.0
12310,0.411184698343277,1.4735620021820068,26,5346.0,-5.296225070953369,-96,9844.0
12320,0.4110296666622162,-0.2010136991739273,40,5346.0,-7.826949119567871,-235,9844.0
12330,0.4108269214630127,-0.669960081577301,-15,5346.0,-7.774188995361328,-116,9844.0
12340,0.4105480909347534,-1.1428266763687134,12,5346.0,-3.0043752193450928,-88,9844.0
12350,0.40964779257774353,-0.3223365545272827,18,5346.0,0.8085498213768005,-32,9844.0
12360,0.409313827753067,-0.8124555945396423,13,5346.0,1.9357496500015259,31,9844.0
12370,0.4089830219745636,0.49545273184776306,-2,5346.0,4.209763526916504,199,9844.0
12380,0.4086427390575409,1.2474333047866821,-56,5346.0,2.160583972930908,193,9844.0
12390,0.4084269404411316,-1.478987693786621,-26,5346.0,4.159529209136963,166,9844.0
12400,0.4080548584461212,0.02370893396437168,-23,5346.0,-0.04192738980054855,117,9844.0
12410,0.40764617919921875,0.7445109486579895,-67,5346.0,-0.34238186478614807,198,9844.0
12420,0.40720778703689575,-1.323417067527771,-50,5346.0,3.604713201522827,62,9844.0
12430,0.40674278140068054,-1.5118372440338135,-19,5346.0,-0.53492271900177,-24,9844.0
12440,0.4084920287132263,-3.3653953075408936,-92,5346.0,1.3403912782669067,-52,9844.0
12450,0.4081692695617676,-3.0520997047424316,-31,5346.0,2.1336708068847656,20,9844.0
12460,0.40786293148994446,-2.041499614715576,-33,5346.0,-1.0839232206344604,-87,9844.0
12470,0.4075222909450531,-1.5642571449279785,-12,5346.0,0.13344985246658325,-105,9844.0
12480,0.4069584310054779,-0.4991777837276459,-3,5346.0,-0.759611189365387,-23,9844.0
12490,0.406615287065506,0.6456406116485596,57,5346.0,1.3650227785110474,100,9844.0
12500,0.4062819480895996,2.2380363941192627,16,5346.0,1.2490308284759521,59,9844.0
12510,0.4059709310531616,0.03635061904788017,23,5346.0,1.7351279258728027,70,9844.0
12520,0.4049800634384155,1.889542579650879,55,5346.0,2.4455878734588623,77,9844.0
12530,0.40458592772483826,-0.016977965831756592,-59,5346.0,2.454209327697754,168,9844.0
12540,0.404154896736145,0.21732960641384125,-18,5346.0,0.9941463470458984,121,9844.0
12550,0.40363380312919617,0.3101980686187744,-26,5346.0,1.4387511014938354,150,9844.0
12560,0.4030321538448334,0.29912084341049194,-27,5346.0,0.043189432471990585,133,9844.0
12570,0.4032324552536011,2.0201268196105957,21,5346.0,-1.498169183731079,36,9844.0
12580,0.40267109870910645,0.38567185401916504,-27,5346.0,1.0668056011199951,93,9844.0
12590,0.40210404992103577,-1.0024381875991821,-19,5346.0,-1.1272659301757812,92,9844.0
12600,0.4015236496925354,1.2236013412475586,-12,5346.0,-0.45875194668769836,7,9844.0
12610,0.40307435393333435,0.08097110688686371,3,5346.0,1.4973552227020264,-98,9844.0
12620,0.40259769558906555,-0.7564460039138794,-36,5346.0,1.7072161436080933,-42,9844.0
12630,0.4021030366420746,0.9834799766540527,66,5346.0,-0.6201896071434021,-83,9844.0
12640,0.4016176164150238,1.1705766916275024,-33,5346.0,-1.0127079486846924,-164,9844.0
12650,0.4030350148677826,-0.4654236435890198,33,5346.0,-2.766836166381836,-214,9844.0
12660,0.40269938111305237,-1.3583621978759766,38,5346.0,-0.5837662220001221,-141,9844.0
12670,0.4023936092853546,-0.7129396200180054,18,5346.0,-0.4417300224304199,-63,9844.0
12680,0.4020710587501526,-1.1099262237548828,11,5346.0,1.9034984111785889,4,9844.0
12690,0.40175238251686096,-0.09966068714857101,1,5346.0,2.9691402912139893,-6,9844.0
12700,0.4027377665042877,-0.5149136781692505,34,5346.0,1.6170837879180908,-8,9844.0
12710,0.4025730788707733,0.49017736315727234,64,5346.0,6.645547866821289,34,9844.0
12720,0.40234389901161194,2.186967134475708,51,5346.0,6.497312545776367,79,9844.0
12730,0.402141273021698,1.7118209600448608,49,5346.0,3.600766658782959,11,9844.0
12740,0.40340951085090637,1.3101342916488647,65,5346.0,1.0662678480148315,-9,9844.0
12750,0.40323740243911743,0.8326334357261658,0,5346.0,-0.2024933099746704,-38,9844.0
12760,0.40306347608566284,2.0795278549194336,11,5346.0,-3.360147714614868,34,9844.0
12770,0.4028605818748474,0.004133463837206364,-21,5346.0,-2.4799835681915283,49,9844.0
12780,0.4026460349559784,0.6369008421897888,9,5346.0,-2.0554983615875244,49,9844.0
12790,0.403801292181015,1.0333161354064941,1,5346.0,-0.8990048170089722,58,9844.0
12800,0.4035888910293579,3.7777438163757324,4,5346.0,-6.219836711883545,14,9844.0
12810,0.40329697728157043,1.43329656124115,59,5346.0,-2.698957681655884,-51,9844.0
12820,0.40297555923461914,2.539785623550415,5,5346.0,2.8954758644104004,40,9844.0
12830,0.40385106205940247,1.964064121246338,21,5346.0,2.0574581623077393,-33,9844.0
12840,0.4035336375236511,3.5768349170684814,79,5346.0,1.5696097612380981,-59,9844.0
12850,0.40318530797958374,2.1946933269500732,38,5346.0,1.4386624097824097,-6,9844.0
12860,0.4028320908546448,2.5537376403808594,66,5346.0,3.2103383541107178,-25,9844.0
12870,0.4041307270526886,-0.9782096147537231,-26,5346.0,3.521440267562866,16,9844.0
12880,0.40388673543930054,-0.5048916935920715,-17,5346.0,2.3217129707336426,-3,9844.0
12890,0.4036598205566406,-2.9230124950408936,-25,5346.0,0.22742341458797455,45,9844.0
12900,0.4034152328968048,-2.1914100646972656,-39,5346.0,-0.6925240159034729,-16,9844.0
12910,0.4031645655632019,-1.45437490940094,-41,5346.0,-3.8172104358673096,24,9844.0
12920,0.40449053049087524,-0.8321724534034729,-22,5346.0,-5.0033488273620605,-42,9844.0
12930,0.40427350997924805,1.088254690170288,-8,5346.0,-5.157456874847412,-3,9844.0
12940,0.4040505588054657,3.171693801879883,43,5346.0,-4.200316429138184,11,9844.0
12950,0.40381669998168945,3.9744246006011963,52,5346.0,-1.9748725891113281,47,9844.0
12960,0.40483635663986206,4.363842010498047,54,5346.0,1.8062865734100342,59,9844.0
12970,0.40457820892333984,3.1341707706451416,33,5346.0,3.6427223682403564,73,9844.0
12980,0.40430861711502075,2.548447608947754,59,5346.0,0.840476930141449,-18,9844.0
12990,0.40404489636421204,2.026387929916382,16,5346.0,3.0234897136688232,-64,9844.0
13000,0.4038029909133911,-1.8383342027664185,-20,5346.0,2.7900290489196777,-79,9844.0
13010,0.40540775656700134,-2.748690366744995,-43,5346.0,-3.3728997707366943,-78,9844.0
13020,0.40533947944641113,-5.029783248901367,-29,5346.0,-0.8140630125999451,-68,9844.0
13030,0.40525034070014954,-3.483238697052002,-52,5346.0,-3.9735796451568604,44,9844.0
13040,0.405131459236145,-3.7076990604400635,-48,5346.0,0.7019604444503784,107,9844.0
13050,0.40493670105934143,-0.8653344511985779,-22,5346.0,-2.465803384780884,106,9844.0
13060,0.404764324426651,0.008450626395642757,-33,5346.0,-0.9848917722702026,18,9844.0
13070,0.4045568108558655,0.271506667137146,-47,5346.0,0.3946397006511688,146,9844.0
13080,0.4043158292770386,-0.40354710817337036,41,5346.0,2.5633010864257812,6,9844.0
13090,0.40523451566696167,0.42236775159835815,22,5346.0,1.1897574663162231,-55,9844.0
13100,0.4049706757068634,-1.5369112491607666,35,5346.0,1.470473051071167,-92,9844.0
13110,0.4046856760978699,-1.9672846794128418,27,5346.0,-0.2632470726966858,-98,9844.0
13120,0.4043961763381958,-1.491184949874878,-25,5346.0,0.7434729933738708,-79,9844.0
13130,0.4040735960006714,-2.100564479827881,-39,5346.0,-0.8946666121482849,76,9844.0
13140,0.404934287071228,-1.9335156679153442,-58,5346.0,1.388224482536316,73,9844.0
13150,0.4046463370323181,0.5409592986106873,-1,5346.0,-1.0418288707733154,35,9844.0
13160,0.40432384610176086,-0.8151557445526123,3,5346.0,1.4027562141418457,-26,9844.0
13170,0.4039630591869354,-0.05128558725118637,22,5346.0,-0.9599477648735046,28,9844.0
13180,0.40360939502716064,0.9803087115287781,19,5346.0,-0.5299267768859863,6,9844.0
13190,0.40324151515960693,1.9328006505966187,39,5346.0,-3.879173994064331,-48,9844.0
13200,0.40288013219833374,0.191890686750412,-12,5346.0,-0.25005629658699036,-44,9844.0
13210,0.4025196135044098,-0.2573406398296356,-8,5346.0,-1.827079176902771,-66,9844.0
13220,0.40214383602142334,-0.42542803287506104,14,5346.0,-0.6004171371459961,-25,9844.0
13230,0.4029299020767212,-0.9761413931846619,-15,5346.0,4.40254020690918,-7,9844.0
13240,0.40256866812705994,-0.50774747133255,-3,5346.0,0.4137502908706665,-14,9844.0
13250,0.40219566226005554,-1.3844192028045654,-12,5346.0,-4.564358234405518,7,9844.0
13260,0.4018174707889557,-1.49068021774292,-48,5346.0,1.0465097427368164,123,9844.0
13270,0.4035123586654663,-3.2501728534698486,-73,5346.0,1.2437294721603394,159,9844.0
13280,0.4032403528690338,-1.4258842468261719,-41,5346.0,4.52208948135376,102,9844.0
13290,0.4029653072357178,-1.199299693107605,-63,5346.0,-2.5632400512695312,-43,9844.0
13300,0.4026859998703003,-0.004111059010028839,-28,5346.0,0.7459928393363953,4,9844.0
13310,0.4025152921676636,-0.879944384098053,-34,5346.0,1.122562289237976,18,9844.0
13320,0.40219029784202576,-1.2031888961791992,-3,5346.0,2.0952365398406982,-96,9844.0
13330,0.4018406569957733,-0.16853147745132446,35,5346.0,0.6618126630783081,-44,9844.0
13340,0.40150487422943115,-1.3880959749221802,-6,5346.0,3.636409282684326,-23,9844.0
13350,0.4011845886707306,1.8699367046356201,25,5346.0,3.020423173904419,-49,9844.0
13360,0.3995423913002014,1.6326558589935303,14,5346.0,4.759126663208008,48,9844.0
13370,0.39914005994796753,-0.20814363658428192,-8,5346.0,4.479133129119873,-31,9844.0
13380,0.39868849515914917,0.20514023303985596,-6,5346.0,5.114905834197998,26,9844.0
13390,0.3982506990432739,0.21206402778625488,22,5346.0,-1.3089511394500732,12,9844.0
13400,0.3977079689502716,0.12672260403633118,54,5346.0,3.7625935077667236,95,9844.0
13410,0.39727872610092163,0.45864176750183105,43,5346.0,-2.6228504180908203,24,9844.0
13420,0.39689013361930847,1.2578791379928589,7,5346.0,-1.8704088926315308,103,9844.0
13430,0.3965158760547638,0.4072381854057312,-53,5346.0,-1.6473278999328613,124,9844.0
13440,0.3961353302001953,1.796663761138916,-6,5346.0,-5.384863376617432,-22,9844.0
13450,0.39608752727508545,0.8710228204727173,-11,5346.0,-5.125030040740967,53,9844.0
13460,0.3956652879714966,-0.622693657875061,-17,5346.0,1.2887970209121704,87,9844.0
13470,0.39522239565849304,-1.253903865814209,-18,5346.0,2.040180206298828,52,9844.0
13480,0.39474013447761536,-2.940486192703247,-21,5346.0,2.12357759475708,-10,9844.0
13490,0.3951627016067505,-4.023697376251221,-46,5346.0,4.084707260131836,19,9844.0
13500,0.39470174908638,-2.572600841522217,-48,5346.0,5.046998500823975,-3,9844.0
13510,0.39422327280044556,-3.9628689289093018,-50,5346.0,1.3057421445846558,-17,9844.0
13520,0.39375075697898865,-2.874190330505371,-25,5346.0,6.900120735168457,-78,9844.0
13530,0.3933641314506531,-1.249251365661621,15,5346.0,0.18672193586826324,-82,9844.0
13540,0.3928894102573395,-0.40261098742485046,59,5346.0,1.3656072616577148,-79,9844.0
13550,0.3924161195755005,1.349265217781067,29,5346.0,-3.8271751403808594,-139,9844.0
13560,0.3919365406036377,-1.3445476293563843,47,5346.0,-5.2657389640808105,-179,9844.0
13570,0.3914659321308136,0.1499137431383133,33,5346.0,-3.136171340942383,-88,9844.0
13580,0.3908207416534424,0.6528229713439941,16,5346.0,-4.125543594360352,-104,9844.0
13590,0.3903680741786957,0.8291820287704468,11,5346.0,0.6150516867637634,44,9844.0
13600,0.38989657163619995,-0.8442688584327698,25,5346.0,-1.90907883644104,-15,9844.0
13610,0.38942086696624756,1.2003923654556274,-5,5346.0,-0.01847543939948082,123,9844.0
13620,0.38918212056159973,1.7853299379348755,20,5346.0,6.237868785858154,253,9844.0
13630,0.3887484073638916,2.7993881702423096,-2,5346.0,7.122965335845947,179,9844.0
13640,0.3883081078529358,2.7780039310455322,47,5346.0,8.110764503479004,142,9844.0
13650,0.3878437876701355,4.434671401977539,-12,5346.0,6.161235332489014,146,9844.0
13660,0.3873375952243805,2.31634521484375,-13,5346.0,3.8370180130004883,75,9844.0
13670,0.3875516951084137,2.8052313327789307,-18,5346.0,1.4128968715667725,21,9844.0
13680,0.3870243430137634,-1.8142030239105225,-44,5346.0,0.3401567339897156,104,9844.0
13690,0.38646820187568665,-2.3483495712280273,-43,5346.0,-4.179592609405518,-111,9844.0
13700,0.385917991399765,-1.4726173877716064,-32,5346.0,-1.9800969362258911,-83,9844.0
13710,0.38702592253685,1.3169265985488892,-1,5346.0,-2.685364246368408,-90,9844.0
13720,0.386546790599823,-0.8867930173873901,23,5346.0,-0.4163612425327301,-106,9844.0
13730,0.38607057929039,-0.6905815601348877,2,5346.0,0.0487489327788353,-207,9844.0
13740,0.3855855464935303,0.2966853976249695,50,5346.0,0.6794731020927429,-84,9844.0
13750,0.3860204517841339,-0.03597419336438179,72,5346.0,2.1508595943450928,24,9844.0
13760,0.3855101466178894,-0.46036139130592346,27,5346.0,5.075987339019775,-79,9844.0
13770,0.38498082756996155,0.9320911169052124,44,5346.0,0.8218762278556824,-41,9844.0
13780,0.384461373090744,0.36965176463127136,30,5346.0,1.742454171180725,-54,9844.0
13790,0.38396722078323364,0.1919669657945633,-35,5346.0,-2.8290486335754395,20,9844.0
13800,0.3847331404685974,-1.05983567237854,-56,5346.0,2.900292158126831,32,9844.0
13810,0.38428542017936707,1.515749216079712,1,5346.0,-2.426945686340332,23,9844.0
13820,0.38388141989707947,2.215421438217163,15,5346.0,0.03711935505270958,55,9844.0
13830,0.38354921340942383,2.042470693588257,-12,5346.0,0.5496301054954529,62,9844.0
13840,0.3854265809059143,3.238564968109131,14,5346.0,1.0459753274917603,115,9844.0
13850,0.38517892360687256,2.3260083198547363,12,5346.0,3.7385878562927246,194,9844.0
13860,0.38490739464759827,3.8980350494384766,-18,5346.0,-4.690717697143555,67,9844.0
13870,0.3845997750759125,1.1497976779937744,-44,5346.0,-2.661789894104004,51,9844.0
13880,0.3842584192752838,0.12592077255249023,-22,5346.0,-1.5379676818847656,11,9844.0
13890,0.384225994348526,0.8195598125457764,-28,5346.0,-2.8537065982818604,-52,9844.0
13900,0.38390010595321655,2.000239372253418,32,5346.0,-6.079134941101074,-17,9844.0
13910,0.3835926949977875,0.09522611647844315,39,5346.0,-0.4520338177680969,-26,9844.0
13920,0.3833182156085968,-1.8360052108764648,14,5346.0,-4.0990309715271,-72,9844.0
13930,0.3848913908004761,-0.8657805919647217,-8,5346.0,-0.6264182329177856,-74,9844.0
13940,0.38463422656059265,-1.1874375343322754,-13,5346.0,0.5795977115631104,-58,9844.0
13950,0.38435646891593933,0.40484243631362915,15,5346.0,-2.9612298011779785,-94,9844.0
13960,0.3840503990650177,-2.5466997623443604,3,5346.0,-1.4378416538238525,-135,9844.0
13970,0.384475976228714,-2.038465976715088,13,5346.0,-2.418602466583252,-96,9844.0
13980,0.3841691017150879,-0.5081318616867065,16,5346.0,0.8062096238136292,-34,9844.0
13990,0.3838466703891754,0.4578661322593689,53,5346.0,-2.201964855194092,-53,9844.0
14000,0.38352400064468384,-1.1714489459991455,11,5346.0,1.617156744003296,52,9844.0
14010,0.3831968307495117,-0.04554038494825363,41,5346.0,1.7259712219238281,15,9844.0
14020,0.383610337972641,2.252429246902466,-14,5346.0,0.004798132460564375,120,9844.0
14030,0.3833290934562683,-0.09016627818346024,-51,5346.0,0.7112887501716614,107,9844.0
14040,0.3830175995826721,-1.872436285018921,-42,5346.0,0.48107752203941345,39,9844.0
14050,0.3830201327800751,-2.007307529449463,-68,5346.0,-0.5287342667579651,57,9844.0
14060,0.382839560508728,-3.2077553272247314,-71,5346.0,-2.400346040725708,-6,9844.0
14070,0.3828413784503937,-3.114902973175049,-37,5346.0,2.3025853633880615,66,9844.0
14080,0.3820466697216034,-0.6238689422607422,-18,5346.0,-0.15831196308135986,-82,9844.0
14090,0.3820582330226898,0.35388556122779846,8,5346.0,-1.9492243528366089,21,9844.0
14100,0.3828872740268707,4.022024154663086,43,5346.0,-3.84778094291687,-34,9844.0
14110,0.38288548588752747,2.683727502822876,18,5346.0,-3.2872061729431152,-98,9844.0
14120,0.3821752965450287,4.268372058868408,67,5346.0,-1.937775731086731,-111,9844.0
14130,0.38219448924064636,1.5940673351287842,49,5346.0,-3.1802866458892822,-217,9844.0
14140,0.38182172179222107,-0.41150331497192383,46,5346.0,1.6072190999984741,-78,9844.0
14150,0.3840124309062958,-1.5619643926620483,49,5346.0,1.1497529745101929,-31,9844.0
14160,0.383710116147995,-1.6185801029205322,-24,5346.0,2.23152756690979,46,9844.0
14170,0.3834189772605896,-3.392683267593384,-32,5346.0,-0.013290009461343288,-86,9844.0
14180,0.3831334710121155,-4.63857364654541,-48,5346.0,0.0784347727894783,-89,9844.0
14190,0.38335758447647095,-3.1559202671051025,-48,5346.0,1.8115721940994263,-66,9844.0
14200,0.3833600878715515,1.028245210647583,14,5346.0,-3.8547074794769287,-24,9844.0
14210,0.3827574551105499,0.7737517356872559,18,5346.0,-0.8606635928153992,19,9844.0
14220,0.3827580213546753,0.9976745843887329,15,5346.0,0.04709095135331154,116,9844.0
