timestamp,kalman.stateZ,gyro.x,gyro.xRaw,gyro.xVariance,gyro.y,gyro.yRaw,gyro.yVariance
20,0.2856683135032654,0.12181440740823746,-3,5346.0,1.0084398984909058,20,9844.0
30,0.28538867831230164,0.07735883444547653,6,5346.0,0.8863823413848877,18,9844.0
40,0.2854304313659668,0.21411891281604767,9,5346.0,0.7248024940490723,15,9844.0
50,0.28543344140052795,0.7914343476295471,14,5346.0,0.6769537925720215,14,9844.0
60,0.2854611277580261,0.9719138145446777,16,5346.0,0.3097439110279083,11,9844.0
70,0.286031037569046,1.0968859195709229,14,5346.0,-0.20267389714717865,-5,9844.0
80,0.28608575463294983,0.6018946170806885,11,5346.0,-0.45855289697647095,-14,9844.0
90,0.2861369848251343,-0.18443812429904938,-8,5346.0,-0.8492801189422607,-21,9844.0
100,0.2861880958080292,-1.1488806009292603,-21,5346.0,-1.4910402297973633,-26,9844.0
110,0.2862430810928345,-1.5404870510101318,-25,5346.0,-1.8372708559036255,-37,9844.0
120,0.28617167472839355,-1.4532827138900757,-24,5346.0,-2.158503293991089,-36,9844.0
130,0.2862400710582733,-0.934790849685669,-3,5346.0,-2.317310094833374,-31,9844.0
140,0.28631824254989624,-0.08838315308094025,6,5346.0,-2.6584668159484863,-48,9844.0
150,0.2864038348197937,0.6904796361923218,17,5346.0,-2.9096150398254395,-43,9844.0
160,0.28670328855514526,1.058964729309082,17,5346.0,-2.742219924926758,-45,9844.0
170,0.2868198752403259,1.2434271574020386,18,5346.0,-2.790825366973877,-44,9844.0
180,0.28690603375434875,1.3707178831100464,19,5346.0,-2.737783432006836,-43,9844.0
190,0.28699058294296265,1.3862978219985962,15,5346.0,-2.788991928100586,-35,9844.0
200,0.2870791554450989,0.24451759457588196,-3,5346.0,-2.6596992015838623,-47,9844.0
210,0.2863495945930481,-0.8269899487495422,-10,5346.0,-4.1925835609436035,-76,9844.0
220,0.2863803207874298,1.6697661876678467,35,5346.0,-7.3673553466796875,-167,9844.0
230,0.28650662302970886,1.7041875123977661,30,5346.0,-14.3027925491333,-293,9844.0
240,0.2867068946361542,5.362057685852051,101,5346.0,-28.131858825683594,-559,9844.0
250,0.2844988703727722,5.913862228393555,137,5346.0,-43.68247604370117,-829,9844.0
260,0.2845904231071472,8.88637638092041,164,5346.0,-60.84555435180664,-1017,9844.0
270,0.28464362025260925,5.926285266876221,123,5346.0,-79.34664916992188,-1468,9844.0
280,0.2846285402774811,5.880650043487549,97,5346.0,-92.77693176269531,-1486,9844.0
290,0.28401482105255127,5.786288738250732,96,5346.0,-93.41837310791016,-1532,9844.0
300,0.28380995988845825,4.770460605621338,105,5346.0,-85.88207244873047,-1462,9844.0
310,0.284189373254776,5.541014671325684,112,5346.0,-68.71477508544922,-988,9844.0
320,0.28424370288848877,4.336031436920166,159,5346.0,-45.132720947265625,-707,9844.0
330,0.28433677554130554,5.210122585296631,52,5346.0,-18.30274200439453,-248,9844.0
340,0.28458666801452637,4.981498718261719,88,5346.0,3.232924699783325,228,9844.0
350,0.28494706749916077,5.532464504241943,74,5346.0,17.892425537109375,457,9844.0
360,0.2853092551231384,4.377883434295654,30,5346.0,22.052343368530273,427,9844.0
370,0.28596994280815125,4.869017124176025,53,5346.0,19.02723503112793,243,9844.0
380,0.2870321571826935,4.771207809448242,-15,5346.0,7.112616539001465,205,9844.0
390,0.2874472141265869,2.541351318359375,27,5346.0,-4.52254056930542,-54,9844.0
400,0.2879660129547119,0.20771975815296173,38,5346.0,-16.46475601196289,-245,9844.0
410,0.28812912106513977,-2.811628580093384,11,5346.0,-25.81476402282715,-541,9844.0
420,0.28847989439964294,-1.7253412008285522,-18,5346.0,-28.718063354492188,-660,9844.0
430,0.291375070810318,-0.6015996932983398,-11,5346.0,-30.243728637695312,-470,9844.0
440,0.2917143702507019,2.107980489730835,100,5346.0,-26.59831428527832,-605,9844.0
450,0.29220345616340637,0.04377445578575134,160,5346.0,-14.850480079650879,-418,9844.0
460,0.2929873466491699,4.558228969573975,-54,5346.0,-5.260725975036621,-98,9844.0
470,0.2954140305519104,1.3755652904510498,-36,5346.0,7.357043743133545,55,9844.0
480,0.29640188813209534,-2.0664143562316895,-9,5346.0,18.660289764404297,199,9844.0
490,0.29691043496131897,-3.3532967567443848,-67,5346.0,30.896730422973633,538,9844.0
500,0.2986238896846771,-4.843223571777344,-206,5346.0,34.29756164550781,642,9844.0
510,0.2991656959056854,-7.274116039276123,-181,5346.0,38.172935485839844,622,9844.0
520,0.2993924021720886,-6.7741169929504395,-191,5346.0,38.21021270751953,647,9844.0
530,0.30065473914146423,-8.078120231628418,-190,5346.0,36.05995178222656,643,9844.0
540,0.3016737401485443,-9.43955135345459,-166,5346.0,35.8402214050293,674,9844.0
550,0.30251097679138184,-5.377560138702393,-42,5346.0,30.23668098449707,548,9844.0
560,0.3042735159397125,-5.361479759216309,-65,5346.0,30.37701988220215,591,9844.0
570,0.30575963854789734,-1.5439186096191406,124,5346.0,24.24934959411621,149,9844.0
580,0.307025671005249,0.28324753046035767,18,5346.0,20.222869873046875,276,9844.0
590,0.3088148534297943,4.940524101257324,163,5346.0,20.131023406982422,146,9844.0
600,0.3112451136112213,6.063872814178467,86,5346.0,16.8939208984375,229,9844.0
610,0.3127742409706116,8.960143089294434,81,5346.0,13.221487998962402,353,9844.0
620,0.3143337070941925,8.263195991516113,137,5346.0,8.680187225341797,150,9844.0
630,0.3157968819141388,10.420565605163574,139,5346.0,4.22884464263916,238,9844.0
640,0.3172808885574341,8.720635414123535,115,5346.0,3.023674488067627,39,9844.0
650,0.3186767101287842,11.119857788085938,222,5346.0,-6.02069616317749,-168,9844.0
660,0.31989991664886475,9.77149772644043,121,5346.0,-1.826832890510559,107,9844.0
670,0.32100871205329895,8.315332412719727,182,5346.0,-7.862360000610352,-75,9844.0
680,0.3220260739326477,5.537291049957275,195,5346.0,-4.003058910369873,-54,9844.0
690,0.32522618770599365,2.903169631958008,-18,5346.0,-5.845446586608887,94,9844.0
700,0.3259916305541992,-1.233769178390503,27,5346.0,-3.697923183441162,-51,9844.0
710,0.32663753628730774,0.014244357123970985,83,5346.0,-7.568507194519043,-57,9844.0
720,0.32708021998405457,-1.7234101295471191,-70,5346.0,-1.4512625932693481,110,9844.0
730,0.32952824234962463,-3.498201847076416,-13,5346.0,2.8293685913085938,37,9844.0
740,0.32991352677345276,0.375230997800827,93,5346.0,2.0682008266448975,95,9844.0
750,0.33024728298187256,1.098963737487793,27,5346.0,2.684365749359131,46,9844.0
760,0.33041420578956604,1.7711535692214966,79,5346.0,0.4521290957927704,13,9844.0
770,0.3304483890533447,0.7880327701568604,117,5346.0,-3.4988198280334473,-146,9844.0
780,0.3318907618522644,-0.9963163733482361,82,5346.0,-6.727591514587402,-172,9844.0
790,0.3318866193294525,-0.9601465463638306,-3,5346.0,-10.770442008972168,-257,9844.0
800,0.33182957768440247,-4.471192359924316,-23,5346.0,-12.192585945129395,-331,9844.0
810,0.33153197169303894,-7.7548627853393555,-65,5346.0,-10.45444393157959,-313,9844.0
820,0.33144518733024597,-7.519192218780518,-152,5346.0,-13.981681823730469,-279,9844.0
830,0.33108678460121155,-7.220770835876465,-44,5346.0,-12.987065315246582,-387,9844.0
840,0.3306061327457428,-5.534999847412109,-102,5346.0,-10.6348876953125,-329,9844.0
850,0.3301243782043457,-3.8335864543914795,-209,5346.0,-8.344343185424805,-115,9844.0
860,0.32951730489730835,-6.619539260864258,-123,5346.0,-9.467734336853027,-287,9844.0
870,0.32968252897262573,-4.993622303009033,-157,5346.0,-16.33193016052246,-236,9844.0
880,0.3290308117866516,-6.16943359375,-190,5346.0,-18.099563598632812,-161,9844.0
890,0.32858455181121826,-5.830887317657471,-161,5346.0,-21.746234893798828,-206,9844.0
900,0.32797324657440186,-5.938827037811279,-130,5346.0,-17.917768478393555,-295,9844.0
910,0.32726234197616577,-4.429133892059326,-2,5346.0,-18.830284118652344,-340,9844.0
920,0.3268015682697296,-4.621866703033447,1,5346.0,-19.42597198486328,-364,9844.0
930,0.32626351714134216,-0.9132390022277832,171,5346.0,-18.210235595703125,-391,9844.0
940,0.32572123408317566,-0.4388677179813385,-7,5346.0,-13.252742767333984,-325,9844.0
950,0.3240428566932678,2.281212568283081,-9,5346.0,-10.700149536132812,-201,9844.0
960,0.32350534200668335,2.6596145629882812,22,5346.0,-11.934514999389648,-215,9844.0
970,0.3228791356086731,3.326472282409668,23,5346.0,-12.75879192352295,-159,9844.0
980,0.322331041097641,3.147486448287964,11,5346.0,-8.711064338684082,26,9844.0
990,0.32186058163642883,2.8527395725250244,96,5346.0,-7.766272068023682,-3,9844.0
1000,0.3208919167518616,5.266659259796143,161,5346.0,-9.824644088745117,-166,9844.0
1010,0.3206038177013397,5.691549777984619,243,5346.0,-9.16158676147461,-389,9844.0
1020,0.320429265499115,5.655603408813477,121,5346.0,-11.630209922790527,-251,9844.0
1030,0.32032594084739685,7.0196027755737305,9,5346.0,-11.771662712097168,-185,9844.0
1040,0.31825050711631775,3.83046555519104,-33,5346.0,-12.498306274414062,-37,9844.0
1050,0.3181611895561218,-2.202430248260498,-146,5346.0,-10.327276229858398,-25,9844.0
1060,0.3181142807006836,-3.1058733463287354,-3,5346.0,-13.329833030700684,-213,9844.0
1070,0.3181440234184265,-5.64885139465332,-37,5346.0,-8.825133323669434,-218,9844.0
1080,0.31823912262916565,-3.4237544536590576,31,5346.0,-6.951422214508057,-267,9844.0
1090,0.31579455733299255,-3.418372869491577,-92,5346.0,-3.864945650100708,-206,9844.0
1100,0.31567782163619995,-1.9142130613327026,-55,5346.0,-0.4263204336166382,3,9844.0
1110,0.3156581223011017,-0.5430297255516052,-19,5346.0,3.270803689956665,60,9844.0
1120,0.3155570924282074,3.400542736053467,-21,5346.0,6.595727920532227,151,9844.0
1130,0.3148246705532074,8.860336303710938,107,5346.0,5.987549781799316,100,9844.0
1140,0.31491148471832275,6.768562316894531,87,5346.0,5.262123107910156,356,9844.0
1150,0.31505244970321655,3.229296922683716,138,5346.0,6.254095077514648,145,9844.0
1160,0.31517454981803894,-2.4642035961151123,67,5346.0,14.382661819458008,119,9844.0
1170,0.31371623277664185,-6.1464152336120605,62,5346.0,10.53559684753418,-92,9844.0
1180,0.3139320909976959,-8.32408618927002,-195,5346.0,7.368013381958008,173,9844.0
1190,0.3140850365161896,-8.394643783569336,-267,5346.0,5.210621356964111,137,9844.0
1200,0.3141607940196991,-9.402138710021973,-213,5346.0,2.7389304637908936,17,9844.0
1210,0.31425225734710693,-5.541383266448975,-52,5346.0,-0.7797698974609375,-34,9844.0
1220,0.31588876247406006,-5.276424884796143,67,5346.0,-0.4712183475494385,-2,9844.0
1230,0.3162755072116852,-6.0665602684021,-57,5346.0,2.162222146987915,-18,9844.0
1240,0.3166781961917877,-1.813808560371399,-86,5346.0,3.066120147705078,92,9844.0
1250,0.31705212593078613,2.82952618598938,-25,5346.0,2.736621141433716,216,9844.0
1260,0.3180207908153534,3.9512131214141846,31,5346.0,5.768363952636719,215,9844.0
1270,0.31856122612953186,4.021270275115967,133,5346.0,12.288711547851562,66,9844.0
1280,0.31911996006965637,3.946880578994751,163,5346.0,10.588679313659668,2,9844.0
1290,0.31952857971191406,2.5908992290496826,12,5346.0,6.650518417358398,83,9844.0
1300,0.31993696093559265,0.4540044665336609,-38,5346.0,6.818296432495117,162,9844.0
1310,0.31995490193367004,-1.6559476852416992,-82,5346.0,8.18375015258789,152,9844.0
1320,0.3202550709247589,-2.9355170726776123,-53,5346.0,2.4975321292877197,95,9844.0
1330,0.32043612003326416,0.016465751454234123,-79,5346.0,1.6501491069793701,122,9844.0
1340,0.3206181824207306,-0.09093693643808365,3,5346.0,5.110096454620361,163,9844.0
1350,0.32134971022605896,0.8207113742828369,51,5346.0,6.818171977996826,120,9844.0
1360,0.3218381702899933,3.163447618484497,131,5346.0,10.835967063903809,57,9844.0
1370,0.32219499349594116,2.8081517219543457,141,5346.0,10.41126537322998,46,9844.0
1380,0.32261496782302856,2.7709734439849854,133,5346.0,10.780240058898926,101,9844.0
1390,0.3229888379573822,6.83951473236084,-4,5346.0,10.736893653869629,255,9844.0
1400,0.32333290576934814,7.176438331604004,-11,5346.0,9.039676666259766,390,9844.0
1410,0.3236285448074341,3.465310573577881,-4,5346.0,13.982714653015137,271,9844.0
1420,0.32396429777145386,2.1208901405334473,70,5346.0,7.070240497589111,159,9844.0
1430,0.3242965638637543,0.20754104852676392,15,5346.0,4.81820011138916,78,9844.0
1440,0.32520899176597595,-6.118738174438477,-24,5346.0,9.9951753616333,85,9844.0
1450,0.3254694938659668,-3.758073568344116,-27,5346.0,-1.1845647096633911,-66,9844.0
1460,0.32565996050834656,-2.8698630332946777,111,5346.0,2.409254312515259,-100,9844.0
1470,0.32579505443573,-4.2124152183532715,9,5346.0,2.022810459136963,-105,9844.0
1480,0.3266969919204712,0.8269813060760498,-101,5346.0,3.962087631225586,120,9844.0
1490,0.32677048444747925,0.10151965171098709,-92,5346.0,0.7644205093383789,85,9844.0
1500,0.32726314663887024,0.2712302803993225,-136,5346.0,-0.5273475646972656,128,9844.0
1510,0.32729190587997437,2.8007023334503174,-88,5346.0,1.9873114824295044,82,9844.0
1520,0.32733991742134094,0.7990216612815857,-25,5346.0,-0.81910240650177,140,9844.0
1530,0.3280559480190277,4.018183708190918,78,5346.0,-0.18491481244564056,41,9844.0
1540,0.32809826731681824,2.2746822834014893,164,5346.0,0.781798779964447,-138,9844.0
1550,0.3280649781227112,-0.09329485148191452,-3,5346.0,2.3700826168060303,71,9844.0
1560,0.3280163109302521,1.1984399557113647,104,5346.0,4.236422538757324,32,9844.0
1570,0.3287135064601898,-1.6940807104110718,152,5346.0,1.669403314590454,-149,9844.0
1580,0.32848280668258667,-0.10208792239427567,28,5346.0,-3.5452539920806885,-109,9844.0
1590,0.3281500041484833,0.47865644097328186,-123,5346.0,-5.627429485321045,-67,9844.0
1600,0.3278333842754364,-0.9262151718139648,-109,5346.0,-6.167578220367432,-27,9844.0
1610,0.32767453789711,-3.768078327178955,-75,5346.0,-7.0940961837768555,-55,9844.0
1620,0.32725274562835693,-3.4348793029785156,-77,5346.0,-9.446311950683594,-147,9844.0
1630,0.3268887996673584,-1.0048311948776245,-46,5346.0,-15.257631301879883,-87,9844.0
1640,0.32656192779541016,-1.2531975507736206,56,5346.0,-15.86320686340332,-263,9844.0
1650,0.3261790871620178,0.9648527503013611,142,5346.0,-9.068259239196777,-267,9844.0
1660,0.3254222273826599,0.4155711233615875,102,5346.0,-4.567446231842041,-217,9844.0
1670,0.3249038755893707,1.2967032194137573,-51,5346.0,-4.248615741729736,89,9844.0
1680,0.3244498372077942,2.4395296573638916,-113,5346.0,-2.592045307159424,154,9844.0
1690,0.32424694299697876,2.982219934463501,-12,5346.0,-2.483638286590576,149,9844.0
1700,0.3246355354785919,0.7932819724082947,112,5346.0,-0.6567121744155884,48,9844.0
1710,0.32430148124694824,0.586986780166626,133,5346.0,-1.2613849639892578,-100,9844.0
1720,0.3240140378475189,0.03647956624627113,161,5346.0,-0.1668330430984497,-162,9844.0
1730,0.323671817779541,-2.7786059379577637,-58,5346.0,0.9058022499084473,-33,9844.0
1740,0.3232153356075287,-1.5532259941101074,-124,5346.0,3.3104517459869385,106,9844.0
1750,0.3230668008327484,-3.469586133956909,-193,5346.0,-1.5503190755844116,68,9844.0
1760,0.32274171710014343,-3.865961790084839,-73,5346.0,-3.7640254497528076,-22,9844.0
1770,0.32245633006095886,-0.932717502117157,32,5346.0,-3.6349217891693115,-169,9844.0
1780,0.3220674991607666,2.3488340377807617,114,5346.0,-6.184976100921631,-258,9844.0
1790,0.32180309295654297,2.7830281257629395,56,5346.0,-7.574273109436035,-190,9844.0
1800,0.3214929401874542,4.205600261688232,1,5346.0,-6.018444061279297,-26,9844.0
1810,0.32127445936203003,5.136892795562744,3,5346.0,-3.6236114501953125,51,9844.0
1820,0.32107052206993103,0.85151606798172,42,5346.0,-0.1231616735458374,18,9844.0
1830,0.3220386505126953,0.32733577489852905,113,5346.0,4.955809593200684,-11,9844.0
1840,0.3218826949596405,1.1395994424819946,61,5346.0,0.7007168531417847,-99,9844.0
1850,0.3219282329082489,-0.4350999593734741,21,5346.0,5.78770637512207,112,9844.0
1860,0.3220062255859375,-0.8250446319580078,-34,5346.0,4.303900718688965,62,9844.0
1870,0.32202696800231934,-2.927772045135498,-46,5346.0,6.06876802444458,202,9844.0
1880,0.3235625624656677,-2.0526928901672363,-34,5346.0,3.980919361114502,24,9844.0
1890,0.3236350119113922,-3.1879327297210693,-2,5346.0,4.381054878234863,108,9844.0
1900,0.3237929940223694,-2.2877750396728516,-110,5346.0,1.9331326484680176,-124,9844.0
1910,0.32399800419807434,-0.4683982729911804,-31,5346.0,-4.612565994262695,-20,9844.0
1920,0.32448267936706543,0.814460277557373,-69,5346.0,-1.4557543992996216,1,9844.0
1930,0.32471218705177307,2.370469808578491,31,5346.0,-4.525416374206543,12,9844.0
1940,0.3250375986099243,2.9696521759033203,15,5346.0,-2.7866337299346924,44,9844.0
1950,0.32541072368621826,0.7258505821228027,93,5346.0,1.9384959936141968,-14,9844.0
1960,0.3257240653038025,1.467167854309082,94,5346.0,3.327383041381836,-64,9844.0
1970,0.3256642520427704,1.9075584411621094,105,5346.0,3.557478189468384,-97,9844.0
1980,0.32583269476890564,-1.231268286705017,-70,5346.0,3.739981174468994,30,9844.0
1990,0.3260309100151062,-2.7337520122528076,-124,5346.0,10.096185684204102,236,9844.0
2000,0.32622063159942627,-1.5610932111740112,-157,5346.0,2.580735206604004,183,9844.0
2010,0.3258224427700043,-4.557624340057373,-149,5346.0,4.10609245300293,169,9844.0
2020,0.3259596824645996,-3.9997634887695312,14,5346.0,2.854445219039917,74,9844.0
2030,0.3260389268398285,-2.3220858573913574,-2,5346.0,2.5502305030822754,-17,9844.0
2040,0.3260563313961029,-6.015329360961914,-30,5346.0,3.088047504425049,-30,9844.0
2050,0.3253854513168335,-4.2894287109375,-27,5346.0,3.9451711177825928,-54,9844.0
2060,0.32541871070861816,-3.7240030765533447,104,5346.0,1.0804448127746582,-138,9844.0
2070,0.3254247307777405,-2.7554755210876465,-21,5346.0,0.16991682350635529,-71,9844.0
2080,0.3254454433917999,-0.5761868357658386,-97,5346.0,3.5996105670928955,144,9844.0
2090,0.3255297541618347,5.202586650848389,-78,5346.0,-7.910285949707031,79,9844.0
2100,0.32494962215423584,2.439347505569458,-29,5346.0,-0.6486496329307556,96,9844.0
2110,0.3248176872730255,-1.6192210912704468,29,5346.0,2.19449782371521,-9,9844.0
2120,0.3246493339538574,-2.1373131275177,36,5346.0,0.8966344594955444,-9,9844.0
2130,0.32445505261421204,-2.0423481464385986,-51,5346.0,-0.4590560793876648,-70,9844.0
2140,0.3260340392589569,-0.8736980557441711,52,5346.0,2.6625442504882812,5,9844.0
2150,0.32580265402793884,-0.776165246963501,89,5346.0,6.938159942626953,-127,9844.0
2160,0.32562512159347534,1.7140629291534424,7,5346.0,2.1860198974609375,-20,9844.0
2170,0.3254564702510834,1.9297842979431152,-105,5346.0,0.855717658996582,72,9844.0
2180,0.32520779967308044,2.0855491161346436,-94,5346.0,-1.116520881652832,226,9844.0
2190,0.32373252511024475,-0.24028818309307098,-103,5346.0,-1.1373292207717896,81,9844.0
2200,0.32364559173583984,0.49732762575149536,-69,5346.0,-0.8039254546165466,-48,9844.0
2210,0.32343441247940063,1.6590907573699951,-95,5346.0,-2.4115583896636963,-67,9844.0
2220,0.3232051134109497,0.09848596155643463,72,5346.0,-4.234493732452393,-90,9844.0
2230,0.32180434465408325,1.2855631113052368,131,5346.0,-1.6490960121154785,-155,9844.0
2240,0.3214764893054962,-0.9047756791114807,134,5346.0,-3.080963373184204,-213,9844.0
2250,0.32108891010284424,-0.9163526296615601,-33,5346.0,-3.3948311805725098,-98,9844.0
2260,0.32066452503204346,3.7663047313690186,-65,5346.0,-4.4610748291015625,41,9844.0
2270,0.320956289768219,3.049468517303467,-5,5346.0,-4.963013172149658,-37,9844.0
2280,0.3207404315471649,-2.1050593852996826,6,5346.0,3.780529022216797,148,9844.0
2290,0.32045599818229675,3.1963813304901123,70,5346.0,-5.192028522491455,-14,9844.0
2300,0.3201741576194763,2.629727840423584,99,5346.0,-0.36577412486076355,-92,9844.0
2310,0.31990623474121094,2.999117851257324,102,5346.0,-1.7735732793807983,-45,9844.0
2320,0.3200782537460327,5.36182975769043,50,5346.0,-5.3569440841674805,-238,9844.0
2330,0.3198682367801666,1.1518232822418213,80,5346.0,-4.593904972076416,-151,9844.0
2340,0.3197086453437805,-0.2803817391395569,-50,5346.0,2.217456340789795,90,9844.0
2350,0.31964409351348877,0.22920772433280945,-102,5346.0,-2.911503314971924,144,9844.0
2360,0.3217252790927887,-3.6327340602874756,-134,5346.0,-1.3637109994888306,196,9844.0
2370,0.32179614901542664,-4.4022979736328125,-44,5346.0,-0.35911795496940613,22,9844.0
2380,0.32189685106277466,-3.6798336505889893,57,5346.0,5.684196472167969,10,9844.0
2390,0.32201477885246277,-1.4835777282714844,107,5346.0,-3.8540995121002197,-296,9844.0
2400,0.32208049297332764,-2.6772055625915527,-11,5346.0,-3.621105194091797,-88,9844.0
2410,0.32165324687957764,-1.0183308124542236,-140,5346.0,-2.266228675842285,4,9844.0
2420,0.3217204809188843,2.146963119506836,-33,5346.0,-0.8277578353881836,92,9844.0
2430,0.32185864448547363,3.3842170238494873,-16,5346.0,-4.387925624847412,8,9844.0
2440,0.3219476044178009,3.1370291709899902,31,5346.0,-0.8498513102531433,106,9844.0
2450,0.32319754362106323,1.5331306457519531,78,5346.0,3.8952183723449707,65,9844.0
2460,0.32338112592697144,-1.1106609106063843,46,5346.0,7.183191776275635,118,9844.0
2470,0.3236342668533325,-1.0889242887496948,24,5346.0,7.852121353149414,181,9844.0
2480,0.3238593637943268,-0.9792866706848145,103,5346.0,8.483197212219238,-19,9844.0
2490,0.32253944873809814,-1.4034556150436401,-10,5346.0,2.975571632385254,-85,9844.0
2500,0.3228518068790436,-2.5419232845306396,-144,5346.0,1.6618248224258423,118,9844.0
2510,0.32306063175201416,-1.4668489694595337,-195,5346.0,2.8209543228149414,176,9844.0
2520,0.3231092691421509,-3.423146963119507,-77,5346.0,1.6278260946273804,132,9844.0
2530,0.32325080037117004,0.0757911205291748,20,5346.0,1.4507722854614258,-16,9844.0
2540,0.3236832320690155,-0.2918088436126709,99,5346.0,2.26766300201416,71,9844.0
2550,0.3236505389213562,-1.2840588092803955,14,5346.0,0.6648380756378174,-26,9844.0
2560,0.3235858976840973,-3.293604850769043,8,5346.0,0.47607457637786865,14,9844.0
2570,0.32357892394065857,-0.6567288041114807,39,5346.0,2.1338253021240234,-143,9844.0
2580,0.3241351544857025,1.5416162014007568,12,5346.0,-0.7167935371398926,-10,9844.0
2590,0.3240976929664612,0.8488962650299072,-98,5346.0,-2.2395706176757812,-21,9844.0
2600,0.3240988254547119,5.4261040687561035,-59,5346.0,-0.1674768030643463,129,9844.0
2610,0.3241683840751648,2.4570770263671875,-5,5346.0,0.4652908146381378,107,9844.0
2620,0.3242601454257965,1.4707533121109009,94,5346.0,1.8063241243362427,45,9844.0
2630,0.323760986328125,0.511096179485321,129,5346.0,2.4425928592681885,-54,9844.0
2640,0.32366177439689636,0.313713937997818,84,5346.0,5.561676979064941,27,9844.0
2650,0.3234919607639313,-0.3429833948612213,23,5346.0,3.2621538639068604,-13,9844.0
2660,0.3232155740261078,1.2583268880844116,8,5346.0,2.1166014671325684,-4,9844.0
2670,0.32415419816970825,-1.0013796091079712,-3,5346.0,3.471435308456421,-124,9844.0
2680,0.32400384545326233,-2.441998243331909,-142,5346.0,-0.5210607647895813,51,9844.0
2690,0.32393041253089905,-1.7086237668991089,-229,5346.0,-3.4762351512908936,137,9844.0
2700,0.3238384425640106,-1.581175684928894,-75,5346.0,0.6811943054199219,167,9844.0
2710,0.32342633605003357,-0.40163788199424744,26,5346.0,2.61175537109375,-3,9844.0
2720,0.3232918083667755,0.38954654335975647,131,5346.0,0.8928499221801758,29,9844.0
2730,0.323125958442688,-2.824040412902832,113,5346.0,4.62413215637207,-1,9844.0
2740,0.322954922914505,0.37749069929122925,72,5346.0,1.1935380697250366,-42,9844.0
2750,0.3229018747806549,1.9950634241104126,74,5346.0,0.13398946821689606,-116,9844.0
2760,0.32334399223327637,2.615957021713257,43,5346.0,-3.4565846920013428,-137,9844.0
2770,0.3233115077018738,0.14951036870479584,-106,5346.0,-2.4815673828125,77,9844.0
2780,0.32317808270454407,0.7630459070205688,-111,5346.0,-0.780135452747345,94,9844.0
2790,0.3230125904083252,-0.3206033408641815,-78,5346.0,1.1040515899658203,184,9844.0
2800,0.32204610109329224,0.550220251083374,24,5346.0,-2.9352197647094727,-110,9844.0
2810,0.3217105269432068,-1.0464380979537964,15,5346.0,-2.7743921279907227,-18,9844.0
2820,0.3217383921146393,-5.180643558502197,-81,5346.0,-0.2709231674671173,-65,9844.0
2830,0.3215535581111908,-2.551574468612671,37,5346.0,-0.4548379182815552,-89,9844.0
2840,0.3213441073894501,-2.236025810241699,82,5346.0,-3.004345178604126,-267,9844.0
2850,0.32106471061706543,-0.9533122181892395,-7,5346.0,-4.226773262023926,-119,9844.0
2860,0.32100948691368103,-0.38741010427474976,-51,5346.0,-6.932657718658447,-16,9844.0
2870,0.320881724357605,-1.355592131614685,12,5346.0,-4.035675048828125,153,9844.0
2880,0.3207535445690155,0.7690395712852478,-65,5346.0,2.8213765621185303,-9,9844.0
2890,0.3208143711090088,2.997760057449341,-25,5346.0,1.4560202360153198,184,9844.0
2900,0.3207569718360901,3.528752326965332,-9,5346.0,3.474069118499756,177,9844.0
2910,0.3205934762954712,3.6282331943511963,55,5346.0,6.784392833709717,187,9844.0
2920,0.32037222385406494,5.565688133239746,179,5346.0,1.3127490282058716,-20,9844.0
2930,0.3201490342617035,4.262337684631348,185,5346.0,1.538312315940857,-105,9844.0
2940,0.32005614042282104,1.9418808221817017,49,5346.0,-5.892861843109131,-133,9844.0
2950,0.3199811577796936,-0.25454917550086975,-86,5346.0,-1.4526795148849487,3,9844.0
2960,0.3199646472930908,-2.798490285873413,-103,5346.0,-1.6781823635101318,9,9844.0
2970,0.31998974084854126,-6.5699381828308105,-169,5346.0,-6.165581703186035,-48,9844.0
2980,0.32073429226875305,-3.777076244354248,-122,5346.0,-3.755962371826172,-6,9844.0
2990,0.32064205408096313,-4.306675434112549,-147,5346.0,0.4321298897266388,117,9844.0
3000,0.32053142786026,-1.6468786001205444,-13,5346.0,-1.3143196105957031,54,9844.0
3010,0.3204360902309418,-0.766406238079071,50,5346.0,2.7278172969818115,-92,9844.0
3020,0.3201843500137329,-1.0067564249038696,157,5346.0,4.934360027313232,-132,9844.0
3030,0.31998854875564575,1.336850643157959,66,5346.0,2.4858081340789795,-6,9844.0
3040,0.3198394179344177,1.0450018644332886,-51,5346.0,7.442389488220215,94,9844.0
3050,0.3196619153022766,2.827575922012329,-8,5346.0,4.181200981140137,121,9844.0
3060,0.3193872272968292,2.2353675365448,28,5346.0,2.9334917068481445,146,9844.0
3070,0.32096824049949646,3.734938144683838,10,5346.0,1.1243104934692383,95,9844.0
3080,0.32092759013175964,3.805380344390869,34,5346.0,2.093959331512451,153,9844.0
3090,0.32089051604270935,-0.08158982545137405,-19,5346.0,4.686622142791748,94,9844.0
3100,0.320866197347641,1.9570631980895996,161,5346.0,-1.3908113241195679,-162,9844.0
3110,0.3213443160057068,1.0558702945709229,103,5346.0,2.4748263359069824,-213,9844.0
3120,0.32148611545562744,-1.6183749437332153,-20,5346.0,-1.4572428464889526,-23,9844.0
3130,0.32152119278907776,-0.4404342472553253,-159,5346.0,-4.565069675445557,-17,9844.0
3140,0.3214292824268341,-1.4988120794296265,-97,5346.0,-2.1048431396484375,164,9844.0
3150,0.3210422694683075,-3.2550289630889893,-77,5346.0,-1.788536787033081,25,9844.0
3160,0.32099035382270813,-2.81077241897583,-22,5346.0,-4.726931095123291,9,9844.0
3170,0.3209438920021057,-2.246242046356201,26,5346.0,1.6834043264389038,36,9844.0
3180,0.3210361897945404,-2.6236305236816406,-25,5346.0,3.3292248249053955,49,9844.0
3190,0.3211992084980011,0.1641518771648407,69,5346.0,2.1749134063720703,-81,9844.0
3200,0.3226546347141266,0.9439966082572937,127,5346.0,4.55934476852417,-140,9844.0
3210,0.3226550221443176,0.8107509016990662,34,5346.0,1.9161978960037231,-33,9844.0
3220,0.3228190839290619,0.4021144509315491,-108,5346.0,-1.831165075302124,31,9844.0
3230,0.3230206370353699,-0.6361771821975708,-49,5346.0,0.7781201004981995,-40,9844.0
3240,0.323503702878952,-2.578806161880493,-101,5346.0,1.8970937728881836,156,9844.0
3250,0.3237287104129791,-4.194769859313965,-94,5346.0,1.7044527530670166,161,9844.0
3260,0.32398557662963867,-0.6577568054199219,-57,5346.0,5.450618743896484,198,9844.0
3270,0.3241330683231354,-2.396789789199829,-44,5346.0,4.6006011962890625,196,9844.0
3280,0.3241584300994873,-1.7322410345077515,85,5346.0,5.072115421295166,-6,9844.0
3290,0.32342371344566345,1.7330864667892456,197,5346.0,1.424631953239441,-144,9844.0
3300,0.32340559363365173,2.501906156539917,102,5346.0,-0.4533275365829468,-146,9844.0
3310,0.32336270809173584,5.715962886810303,91,5346.0,-4.1646575927734375,-50,9844.0
3320,0.32339465618133545,5.621189594268799,133,5346.0,-2.8211076259613037,-138,9844.0
3330,0.32247236371040344,4.490124225616455,41,5346.0,-1.221933364868164,-38,9844.0
3340,0.32249975204467773,3.9912326335906982,-46,5346.0,-6.419691562652588,-55,9844.0
3350,0.3225334882736206,0.38580891489982605,-46,5346.0,-3.095106601715088,110,9844.0
3360,0.3225348889827728,-3.2675044536590576,-89,5346.0,0.17388758063316345,55,9844.0
3370,0.3214876651763916,-1.4784778356552124,6,5346.0,1.945920467376709,67,9844.0
3380,0.32129180431365967,-4.300752639770508,-63,5346.0,4.625117301940918,75,9844.0
3390,0.3211592137813568,-4.11830997467041,-25,5346.0,1.8067903518676758,130,9844.0
3400,0.3210783004760742,-3.486287832260132,45,5346.0,3.815889835357666,-78,9844.0
3410,0.3209930658340454,-3.5461623668670654,172,5346.0,4.162063121795654,-116,9844.0
3420,0.32015812397003174,0.026567116379737854,26,5346.0,1.5900980234146118,-50,9844.0
3430,0.32019948959350586,1.8623874187469482,-59,5346.0,0.17120125889778137,50,9844.0
3440,0.320238322019577,0.4562501609325409,-60,5346.0,1.0579031705856323,-72,9844.0
3450,0.32014864683151245,-0.6030475497245789,-35,5346.0,-4.898515701293945,-41,9844.0
3460,0.31970539689064026,0.8825841546058655,-46,5346.0,-4.628796100616455,-73,9844.0
3470,0.3197060823440552,1.791990041732788,-21,5346.0,-4.004432678222656,120,9844.0
3480,0.31951087713241577,-0.33104759454727173,68,5346.0,-5.697510719299316,-111,9844.0
3490,0.31932753324508667,2.026123523712158,207,5346.0,-9.44040584564209,-224,9844.0
3500,0.31914833188056946,-0.1761585921049118,100,5346.0,-4.888607978820801,-220,9844.0
3510,0.31852322816848755,-0.3833990693092346,49,5346.0,-3.992619514465332,-65,9844.0
3520,0.318433940410614,-2.9478559494018555,54,5346.0,0.6737833619117737,-100,9844.0
3530,0.318467378616333,-5.7732744216918945,46,5346.0,5.156829833984375,-131,9844.0
3540,0.31841856241226196,-6.123885631561279,-99,5346.0,4.508136749267578,29,9844.0
3550,0.3197519779205322,-0.9055427312850952,-70,5346.0,3.651787281036377,151,9844.0
3560,0.31974396109580994,0.47500374913215637,16,5346.0,6.159687519073486,-22,9844.0
3570,0.3197295665740967,0.8448121547698975,-63,5346.0,2.3565940856933594,156,9844.0
3580,0.3196690082550049,3.1589813232421875,-60,5346.0,1.657421588897705,225,9844.0
3590,0.3198879063129425,3.5801262855529785,-12,5346.0,-0.9083918333053589,161,9844.0
3600,0.320061594247818,1.6214182376861572,107,5346.0,-0.4842817187309265,-108,9844.0
3610,0.3201875686645508,3.5585389137268066,206,5346.0,-3.849325180053711,-157,9844.0
3620,0.32030096650123596,1.7209378480911255,53,5346.0,-6.128702163696289,-197,9844.0
3630,0.32049480080604553,1.0860843658447266,54,5346.0,3.0761635303497314,-51,9844.0
3640,0.32135865092277527,2.2929015159606934,113,5346.0,-1.3922613859176636,-221,9844.0
3650,0.321707546710968,-0.9402223229408264,27,5346.0,-2.2583224773406982,-138,9844.0
3660,0.3220768868923187,-0.15807776153087616,-118,5346.0,1.23600435256958,-3,9844.0
3670,0.3224877119064331,-0.03962916135787964,-95,5346.0,-2.9269251823425293,137,9844.0
3680,0.3213270604610443,-2.43186354637146,-149,5346.0,-2.039987325668335,24,9844.0
3690,0.32154786586761475,-4.857999324798584,-97,5346.0,-1.676242470741272,98,9844.0
3700,0.32178637385368347,-2.826718807220459,-132,5346.0,1.5839818716049194,165,9844.0
3710,0.3220072388648987,-1.7337759733200073,-51,5346.0,5.247138977050781,180,9844.0
3720,0.3222028315067291,1.0741546154022217,128,5346.0,1.2007540464401245,-31,9844.0
3730,0.3200399875640869,1.5137732028961182,148,5346.0,-0.47654858231544495,-28,9844.0
3740,0.32023555040359497,2.753526210784912,67,5346.0,-0.34801292419433594,-47,9844.0
3750,0.32032355666160583,5.0004401206970215,35,5346.0,-1.820196509361267,-73,9844.0
3760,0.32039201259613037,3.7495899200439453,145,5346.0,2.2351667881011963,-197,9844.0
3770,0.31833311915397644,2.159036874771118,52,5346.0,-1.7702027559280396,-93,9844.0
3780,0.3182275593280792,0.4030427932739258,-135,5346.0,4.191239356994629,141,9844.0
3790,0.3181290328502655,0.4307098686695099,-14,5346.0,1.973459005355835,105,9844.0
3800,0.3180370032787323,-1.4018198251724243,-83,5346.0,3.539982318878174,194,9844.0
3810,0.31838634610176086,1.2433147430419922,-32,5346.0,-1.6397335529327393,126,9844.0
3820,0.3184450566768646,-0.15284426510334015,-52,5346.0,2.7730636596679688,238,9844.0
3830,0.31850528717041016,-0.21286654472351074,0,5346.0,1.2742184400558472,43,9844.0
3840,0.3185666799545288,-1.0279264450073242,83,5346.0,3.079009771347046,-55,9844.0
3850,0.3185754716396332,-3.0023577213287354,62,5346.0,4.107591152191162,-53,9844.0
3860,0.3191398084163666,-0.2794235050678253,-1,5346.0,-1.3013092279434204,-124,9844.0
3870,0.31915634870529175,-2.605349540710449,4,5346.0,-0.06537604331970215,-63,9844.0
3880,0.31913822889328003,-3.798992395401001,53,5346.0,-0.2538561522960663,-223,9844.0
3890,0.3191361129283905,-3.0537281036376953,-112,5346.0,-2.347832679748535,-45,9844.0
3900,0.3183143734931946,-0.5988097786903381,-95,5346.0,-2.5974364280700684,46,9844.0
3910,0.31821951270103455,0.07008642703294754,-70,5346.0,-3.051104784011841,-4,9844.0
3920,0.3180166780948639,-2.2811779975891113,-22,5346.0,-5.116304874420166,-15,9844.0
3930,0.3178260624408722,2.6096224784851074,12,5346.0,-0.4754808843135834,67,9844.0
3940,0.3176581561565399,-1.54985511302948,-40,5346.0,4.7066264152526855,219,9844.0
3950,0.31804707646369934,1.5187404155731201,119,5346.0,2.254838466644287,44,9844.0
3960,0.318043977022171,0.876857578754425,126,5346.0,2.811316728591919,-4,9844.0
3970,0.31813257932662964,-2.7742629051208496,96,5346.0,6.43247127532959,-5,9844.0
3980,0.3182075321674347,2.498522996902466,64,5346.0,4.174288272857666,42,9844.0
3990,0.3186385929584503,2.760396718978882,75,5346.0,5.320939064025879,-127,9844.0
4000,0.3187562823295593,0.08889439702033997,-54,5346.0,4.148124694824219,19,9844.0
4010,0.31881439685821533,-0.22252410650253296,-97,5346.0,0.6730443835258484,31,9844.0
4020,0.3187965750694275,-2.1279091835021973,-85,5346.0,-0.32053932547569275,87,9844.0
4030,0.31927236914634705,-1.1992323398590088,-76,5346.0,-0.19623823463916779,94,9844.0
4040,0.31926748156547546,1.7109839916229248,57,5346.0,-3.755341053009033,44,9844.0
4050,0.3192387819290161,-0.5749714970588684,-29,5346.0,-3.425792932510376,69,9844.0
4060,0.31929680705070496,-2.8602700233459473,60,5346.0,-4.612545013427734,-52,9844.0
4070,0.3194385766983032,1.5184308290481567,147,5346.0,-1.5402741432189941,-151,9844.0
4080,0.31904488801956177,-0.5475202202796936,126,5346.0,-1.6816596984863281,-206,9844.0
4090,0.3192060589790344,0.0767471194267273,-33,5346.0,-5.221614837646484,-46,9844.0
4100,0.3194487690925598,-0.4241604208946228,-27,5346.0,-1.2628061771392822,-49,9844.0
4110,0.3196895122528076,-2.1484413146972656,24,5346.0,-0.2774103283882141,-91,9844.0
4120,0.31951266527175903,0.5610687136650085,-70,5346.0,2.8216943740844727,57,9844.0
4130,0.3196151852607727,0.014387747272849083,-96,5346.0,6.09336519241333,207,9844.0
4140,0.31964555382728577,0.22544316947460175,-82,5346.0,5.895636558532715,105,9844.0
4150,0.31967493891716003,3.546455144882202,3,5346.0,3.214139699935913,155,9844.0
4160,0.3197614848613739,1.9359958171844482,-60,5346.0,2.9662675857543945,134,9844.0
4170,0.31797128915786743,-1.058122158050537,-97,5346.0,3.961399555206299,211,9844.0
4180,0.31807249784469604,-1.3093088865280151,-17,5346.0,4.867116928100586,68,9844.0
4190,0.31840240955352783,-0.6220681071281433,-77,5346.0,3.6519672870635986,-21,9844.0
4200,0.31882232427597046,0.008551246486604214,-12,5346.0,-1.1696412563323975,134,9844.0
4210,0.31937286257743835,-0.9374045133590698,52,5346.0,0.26916784048080444,-88,9844.0
4220,0.3196066617965698,-1.4836784601211548,54,5346.0,-5.4260573387146,-132,9844.0
4230,0.3196958601474762,-3.445620059967041,-30,5346.0,-1.9829277992248535,-155,9844.0
4240,0.31965938210487366,2.3276379108428955,65,5346.0,-7.922059059143066,-230,9844.0
4250,0.31973743438720703,-0.01965230330824852,97,5346.0,-3.38310170173645,-303,9844.0
4260,0.31966885924339294,0.022395353764295578,39,5346.0,-2.104247808456421,-91,9844.0
4270,0.3194887936115265,0.7959073185920715,-116,5346.0,-4.178909778594971,-54,9844.0
4280,0.31934067606925964,0.4500102996826172,-49,5346.0,0.7414611577987671,45,9844.0
4290,0.31911468505859375,1.22300386428833,-67,5346.0,1.392118215560913,-6,9844.0
4300,0.3187359571456909,1.0607061386108398,-88,5346.0,4.308502197265625,176,9844.0
4310,0.31832554936408997,1.3687704801559448,-86,5346.0,2.0777485370635986,60,9844.0
4320,0.3179921805858612,0.05999620258808136,-67,5346.0,4.416491508483887,237,9844.0
4330,0.3177085816860199,0.07489585131406784,79,5346.0,3.8680694103240967,102,9844.0
4340,0.3181224763393402,0.28344014286994934,80,5346.0,-1.0604826211929321,24,9844.0
4350,0.31811901926994324,-2.3130311965942383,39,5346.0,0.1433384120464325,-3,9844.0
4360,0.31811729073524475,-0.3960537314414978,68,5346.0,-3.3484718799591064,-115,9844.0
4370,0.3181430399417877,0.1902117133140564,61,5346.0,-4.105147361755371,-381,9844.0
4380,0.31822657585144043,-0.18674443662166595,-25,5346.0,-0.6743001937866211,-112,9844.0
4390,0.31900495290756226,-0.57976895570755,-122,5346.0,-0.22703872621059418,3,9844.0
4400,0.31905290484428406,1.193507194519043,-39,5346.0,-4.209575653076172,8,9844.0
4410,0.3191017508506775,0.36313119530677795,-32,5346.0,-3.2796573638916016,87,9844.0
4420,0.31922852993011475,0.07800380140542984,-34,5346.0,-1.783309817314148,118,9844.0
4430,0.3172396719455719,0.6756876707077026,-32,5346.0,4.400747299194336,203,9844.0
4440,0.31714481115341187,-0.29667332768440247,-50,5346.0,0.29382964968681335,192,9844.0
4450,0.31709587574005127,-0.9410413503646851,100,5346.0,1.579269289970398,21,9844.0
4460,0.3170728385448456,0.6874006986618042,63,5346.0,5.541889190673828,69,9844.0
4470,0.31741535663604736,-0.26738089323043823,27,5346.0,6.997415065765381,37,9844.0
4480,0.3174481689929962,2.90813946723938,87,5346.0,6.848309516906738,-27,9844.0
4490,0.31740719079971313,1.0312044620513916,94,5346.0,5.491673469543457,-86,9844.0
4500,0.3172696530818939,-2.4143009185791016,53,5346.0,4.444028854370117,-115,9844.0
4510,0.3170708119869232,-0.4409497082233429,-132,5346.0,-4.652896404266357,-9,9844.0
4520,0.3168649971485138,-2.9793410301208496,-123,5346.0,1.799855351448059,22,9844.0
4530,0.3166063725948334,-1.576017141342163,-60,5346.0,-5.374134540557861,5,9844.0
4540,0.31635192036628723,-1.456246256828308,-80,5346.0,-3.698164463043213,-43,9844.0
4550,0.31619346141815186,-1.0656720399856567,-85,5346.0,-6.496570110321045,96,9844.0
4560,0.31602394580841064,-0.5753141045570374,-67,5346.0,-5.538179397583008,-47,9844.0
4570,0.3157860040664673,0.555572509765625,88,5346.0,-0.20242652297019958,-93,9844.0
4580,0.3155363202095032,0.7546430230140686,125,5346.0,1.6841589212417603,-127,9844.0
4590,0.31517380475997925,1.548067331314087,93,5346.0,1.045365810394287,81,9844.0
4600,0.3163454830646515,3.519913911819458,78,5346.0,3.2768983840942383,-43,9844.0
4610,0.31590044498443604,2.9419784545898438,169,5346.0,4.134427547454834,-148,9844.0
4620,0.3155730068683624,3.144233226776123,14,5346.0,2.2278616428375244,-17,9844.0
4630,0.3152325749397278,3.4003617763519287,-74,5346.0,2.6165928840637207,133,9844.0
4640,0.3149639666080475,1.8706350326538086,-74,5346.0,2.5559611320495605,163,9844.0
4650,0.31683629751205444,-2.9727959632873535,-88,5346.0,-1.8090336322784424,12,9844.0
4660,0.31680214405059814,1.5673627853393555,61,5346.0,-7.702551364898682,-116,9844.0
4670,0.3167484402656555,-4.412959098815918,-39,5346.0,-0.34673872590065,-69,9844.0
4680,0.31658315658569336,-5.493394374847412,-35,5346.0,-4.60660457611084,9,9844.0
4690,0.31790968775749207,-3.4923481941223145,-11,5346.0,-1.975775122642517,-195,9844.0
4700,0.3177696764469147,-2.9812026023864746,183,5346.0,-3.0295310020446777,-246,9844.0
4710,0.3175639510154724,1.0110949277877808,0,5346.0,-1.6681838035583496,-61,9844.0
4720,0.3174264430999756,3.544753313064575,-21,5346.0,0.8443067669868469,118,9844.0
4730,0.31739285588264465,2.5711066722869873,-12,5346.0,-0.5732107162475586,97,9844.0
4740,0.31924378871917725,1.6965299844741821,-7,5346.0,2.7427024841308594,168,9844.0
4750,0.3193175494670868,6.506455898284912,90,5346.0,3.1444051265716553,68,9844.0
4760,0.31947439908981323,2.435182809829712,73,5346.0,7.8498759269714355,136,9844.0
4770,0.319588840007782,3.522684097290039,23,5346.0,4.877652645111084,80,9844.0
4780,0.3197609782218933,3.4552574157714844,105,5346.0,1.3375352621078491,-14,9844.0
4790,0.31976383924484253,-0.3086937963962555,137,5346.0,3.874116897583008,-132,9844.0
4800,0.3198953866958618,-1.9331166744232178,40,5346.0,-0.5297209620475769,-170,9844.0
4810,0.3197441101074219,-3.5854856967926025,53,5346.0,1.3405907154083252,32,9844.0
4820,0.31963014602661133,-3.271373748779297,71,5346.0,-1.3216792345046997,-200,9844.0
4830,0.31980109214782715,-4.9787678718566895,-16,5346.0,3.3500561714172363,-125,9844.0
4840,0.31993281841278076,-0.26959267258644104,-90,5346.0,2.951470375061035,38,9844.0
4850,0.31998664140701294,-2.4393794536590576,-55,5346.0,2.553598165512085,-10,9844.0
4860,0.32006824016571045,-2.360567092895508,-26,5346.0,3.6186139583587646,11,9844.0
4870,0.32045748829841614,1.8772450685501099,-76,5346.0,4.695985794067383,167,9844.0
4880,0.320456326007843,1.7094100713729858,-76,5346.0,7.39371395111084,269,9844.0
4890,0.3205203115940094,1.9577851295471191,-40,5346.0,3.8150670528411865,197,9844.0
4900,0.3206380307674408,3.8948049545288086,103,5346.0,1.8144251108169556,15,9844.0
4910,0.321183443069458,4.3009138107299805,127,5346.0,-3.4944140911102295,14,9844.0
4920,0.32121071219444275,4.959954738616943,52,5346.0,-2.9679744243621826,-115,9844.0
4930,0.32123494148254395,1.5220268964767456,88,5346.0,0.39107364416122437,-128,9844.0
4940,0.3211982548236847,0.2676338851451874,73,5346.0,-3.0601282119750977,-258,9844.0
4950,0.3211061656475067,-1.8648332357406616,-134,5346.0,-5.964592456817627,-110,9844.0
4960,0.32135945558547974,0.6892598271369934,-124,5346.0,-0.16382455825805664,13,9844.0
4970,0.321228563785553,-4.123812198638916,-82,5346.0,-1.539136290550232,-5,9844.0
4980,0.32107487320899963,-1.808088779449463,-105,5346.0,0.6450042724609375,22,9844.0
4990,0.32096752524375916,-0.7211825847625732,-55,5346.0,1.6212095022201538,168,9844.0
5000,0.3200705051422119,-1.6429259777069092,-137,5346.0,-1.0589700937271118,147,9844.0
5010,0.3199407756328583,-0.04676201194524765,-41,5346.0,-0.876150369644165,77,9844.0
5020,0.3199198842048645,-0.20737050473690033,17,5346.0,0.8242369890213013,2,9844.0
5030,0.3199450373649597,0.2486741542816162,93,5346.0,1.9128175973892212,52,9844.0
5040,0.3211253583431244,1.5432738065719604,54,5346.0,0.3203214406967163,-28,9844.0
5050,0.3210867643356323,6.915485382080078,174,5346.0,3.4281556606292725,9,9844.0
5060,0.32119783759117126,2.9061062335968018,160,5346.0,2.6690897941589355,-210,9844.0
5070,0.32103365659713745,-0.13942767679691315,34,5346.0,-2.228456974029541,-206,9844.0
5080,0.32082703709602356,1.5537161827087402,-113,5346.0,-5.6031494140625,-44,9844.0
5090,0.3210814893245697,-2.3335084915161133,-81,5346.0,-2.06593918800354,-87,9844.0
5100,0.3208044171333313,-2.809889316558838,-114,5346.0,-2.086143970489502,-65,9844.0
5110,0.320504367351532,-2.429915189743042,-134,5346.0,-5.646478176116943,-33,9844.0
5120,0.32032763957977295,-6.156205177307129,-184,5346.0,-2.8813576698303223,90,9844.0
5130,0.3195100724697113,-5.161008834838867,-191,5346.0,-5.026193618774414,87,9844.0
5140,0.31905847787857056,-4.319220066070557,26,5346.0,1.4682925939559937,94,9844.0
5150,0.31861263513565063,-1.0006769895553589,71,5346.0,0.13312287628650665,25,9844.0
5160,0.31816262006759644,-3.2624857425689697,45,5346.0,1.6675738096237183,101,9844.0
5170,0.31758806109428406,-0.1872558891773224,66,5346.0,0.33236798644065857,-79,9844.0
5180,0.317304790019989,-1.072845697402954,155,5346.0,-1.3179787397384644,-258,9844.0
5190,0.3169599771499634,1.7370505332946777,21,5346.0,-1.2933909893035889,-111,9844.0
5200,0.3166283071041107,3.4894275665283203,-59,5346.0,0.07960298657417297,61,9844.0
5210,0.3164230287075043,2.3956105709075928,-86,5346.0,-4.465602874755859,-6,9844.0
5220,0.31610697507858276,1.4076569080352783,-33,5346.0,-2.755316972732544,46,9844.0
5230,0.3158816397190094,1.182030439376831,6,5346.0,-5.048953533172607,16,9844.0
5240,0.3156210482120514,-1.258283019065857,-3,5346.0,2.9704430103302,143,9844.0
5250,0.3154825270175934,-1.4199562072753906,50,5346.0,1.9702904224395752,46,9844.0
5260,0.31681904196739197,2.394286632537842,101,5346.0,-2.520876407623291,-184,9844.0
5270,0.3166212737560272,1.5925722122192383,172,5346.0,-2.69441294670105,-145,9844.0
5280,0.3164110779762268,-1.4911246299743652,-9,5346.0,2.1540746688842773,-88,9844.0
5290,0.3162207007408142,1.9917007684707642,-120,5346.0,0.8830104470252991,69,9844.0
5300,0.31601637601852417,2.678820848464966,-73,5346.0,-0.08282765001058578,125,9844.0
5310,0.3178831934928894,1.698922872543335,-35,5346.0,-2.316265821456909,49,9844.0
5320,0.31795534491539,1.4232966899871826,13,5346.0,3.0112743377685547,114,9844.0
5330,0.3181706368923187,2.1955466270446777,4,5346.0,-1.2957631349563599,73,9844.0
5340,0.31833234429359436,-1.4340767860412598,-38,5346.0,0.4155704379081726,62,9844.0
5350,0.3207448720932007,1.071759581565857,56,5346.0,1.460984706878662,-57,9844.0
5360,0.3210314214229584,-1.0755106210708618,178,5346.0,-2.8590152263641357,-151,9844.0
5370,0.32126230001449585,-0.8374888896942139,64,5346.0,1.1806830167770386,-154,9844.0
5380,0.32137736678123474,-0.4122103750705719,-74,5346.0,-0.24246104061603546,-2,9844.0
5390,0.3214561343193054,0.26788032054901123,-68,5346.0,-0.2863858640193939,-73,9844.0
5400,0.32048630714416504,-2.733189344406128,-50,5346.0,6.265307903289795,105,9844.0
5410,0.3205014765262604,1.5149011611938477,-137,5346.0,0.81960129737854,129,9844.0
5420,0.32054874300956726,2.162721633911133,-40,5346.0,-1.2466402053833008,229,9844.0
5430,0.3206401765346527,-0.9583821296691895,-77,5346.0,3.54725980758667,162,9844.0
5440,0.3220658600330353,1.0300649404525757,83,5346.0,0.6903079152107239,63,9844.0
5450,0.3221839666366577,1.7052690982818604,47,5346.0,3.2540910243988037,-53,9844.0
5460,0.3223293125629425,-0.5764487385749817,-33,5346.0,5.3743109703063965,212,9844.0
5470,0.32232171297073364,-0.9687382578849792,54,5346.0,2.913843870162964,-29,9844.0
5480,0.3215962052345276,-0.7125859260559082,126,5346.0,2.9333767890930176,-96,9844.0
5490,0.3215682804584503,-3.2816011905670166,-47,5346.0,6.62019157409668,-13,9844.0
5500,0.32158681750297546,1.3327853679656982,74,5346.0,2.511246919631958,48,9844.0
5510,0.3215729892253876,0.015720125287771225,96,5346.0,0.5785354375839233,-18,9844.0
5520,0.3218463659286499,-3.596229076385498,37,5346.0,6.841468334197998,-42,9844.0
5530,0.3220510482788086,-2.246929407119751,-89,5346.0,0.6640706658363342,-64,9844.0
5540,0.32213345170021057,-1.4051423072814941,-6,5346.0,-5.6051411628723145,-181,9844.0
5550,0.32225000858306885,-2.7750797271728516,-98,5346.0,-3.417476177215576,-68,9844.0
5560,0.3223622441291809,-0.4671439230442047,-125,5346.0,-5.778747081756592,45,9844.0
5570,0.32298898696899414,-1.4124125242233276,-131,5346.0,-6.79022216796875,25,9844.0
5580,0.32295069098472595,-0.19945688545703888,-57,5346.0,-1.6589337587356567,119,9844.0
5590,0.32294943928718567,-1.8244547843933105,0,5346.0,3.034405469894409,130,9844.0
5600,0.32293030619621277,-0.891497015953064,-54,5346.0,4.999880313873291,226,9844.0
5610,0.3227992355823517,-0.9417751431465149,-72,5346.0,3.030212640762329,-1,9844.0
5620,0.32223448157310486,2.743176221847534,123,5346.0,1.9889552593231201,81,9844.0
5630,0.32193490862846375,2.7122204303741455,198,5346.0,1.0695396661758423,-180,9844.0
5640,0.321542352437973,2.6741790771484375,172,5346.0,8.65669059753418,40,9844.0
5650,0.321119487285614,1.2043561935424805,40,5346.0,2.521397590637207,59,9844.0
5660,0.32226037979125977,3.5985238552093506,21,5346.0,-1.4759738445281982,-73,9844.0
5670,0.3221159279346466,-0.01844550110399723,27,5346.0,-5.666245937347412,-180,9844.0
5680,0.32190796732902527,-0.6224676370620728,-141,5346.0,-1.6232738494873047,-111,9844.0
5690,0.3217417895793915,1.6140912771224976,-144,5346.0,-6.320876121520996,112,9844.0
5700,0.3217093050479889,-2.276564359664917,-122,5346.0,-9.739177703857422,-38,9844.0
5710,0.3214530348777771,-2.498110771179199,-35,5346.0,-1.2538342475891113,-115,9844.0
5720,0.32122427225112915,-3.0143795013427734,20,5346.0,-2.7796008586883545,-69,9844.0
5730,0.3209293484687805,-2.9348204135894775,12,5346.0,-2.8307580947875977,57,9844.0
5740,0.3207111656665802,-5.552661895751953,76,5346.0,0.5444750785827637,53,9844.0
5750,0.32070937752723694,2.8310036659240723,147,5346.0,0.2289925217628479,-45,9844.0
5760,0.320634663105011,1.2714520692825317,219,5346.0,2.6310219764709473,-170,9844.0
5770,0.3206000328063965,4.474858283996582,82,5346.0,2.1330180168151855,-77,9844.0
5780,0.32069966197013855,6.322418689727783,-20,5346.0,-2.7020816802978516,87,9844.0
5790,0.3201531767845154,4.615023136138916,-47,5346.0,1.7364068031311035,71,9844.0
5800,0.3201989233493805,2.537689447402954,-36,5346.0,4.413032054901123,232,9844.0
5810,0.3202182650566101,2.1052405834198,-22,5346.0,1.7792904376983643,88,9844.0
5820,0.32026830315589905,1.494988203048706,-33,5346.0,-0.07077933102846146,142,9844.0
5830,0.3202574849128723,-2.6199817657470703,9,5346.0,4.3421406745910645,-17,9844.0
5840,0.3204619288444519,0.60052490234375,112,5346.0,-3.444167137145996,-177,9844.0
5850,0.3203774094581604,-2.7397658824920654,75,5346.0,-1.942915916442871,-172,9844.0
5860,0.3202676475048065,-0.21984724700450897,-12,5346.0,-6.246510028839111,-134,9844.0
5870,0.3200923800468445,-2.3694639205932617,-26,5346.0,-1.9859074354171753,-1,9844.0
5880,0.3199084997177124,-1.5174784660339355,22,5346.0,-3.456998348236084,-111,9844.0
5890,0.3198651671409607,-0.327782541513443,-87,5346.0,-3.976402521133423,55,9844.0
5900,0.3197316825389862,1.7610678672790527,-100,5346.0,-5.2166666984558105,76,9844.0
5910,0.3194929361343384,1.9074918031692505,-31,5346.0,-0.9959421753883362,190,9844.0
5920,0.3195423185825348,-0.07031166553497314,106,5346.0,-0.27622082829475403,-60,9844.0
5930,0.319290429353714,2.702014446258545,75,5346.0,1.160027265548706,9,9844.0
5940,0.31900903582572937,0.7775249481201172,-8,5346.0,6.225507736206055,43,9844.0
5950,0.3187243640422821,0.16225983202457428,87,5346.0,5.209127426147461,65,9844.0
5960,0.31849750876426697,3.535377264022827,142,5346.0,3.292161226272583,-55,9844.0
5970,0.31887850165367126,-0.15759365260601044,104,5346.0,6.8922553062438965,-80,9844.0
5980,0.31871071457862854,-1.233109712600708,-80,5346.0,5.20503568649292,81,9844.0
5990,0.3186361491680145,2.0608227252960205,-64,5346.0,2.9918453693389893,52,9844.0
6000,0.31862974166870117,0.6281983256340027,11,5346.0,0.9511540532112122,78,9844.0
6010,0.3215623199939728,-0.5924187898635864,-32,5346.0,-0.9186176061630249,-4,9844.0
6020,0.3217509090900421,-0.0042566400952637196,-38,5346.0,-5.869882106781006,37,9844.0
6030,0.3220130503177643,-4.984496593475342,-67,5346.0,-5.085890769958496,-82,9844.0
6040,0.32219475507736206,-1.3158365488052368,19,5346.0,-9.128989219665527,-160,9844.0
6050,0.3222826421260834,0.10971929132938385,76,5346.0,-5.403369903564453,-335,9844.0
6060,0.32275477051734924,-2.925459623336792,96,5346.0,2.447089195251465,-171,9844.0
6070,0.32294341921806335,0.2147495299577713,-76,5346.0,4.7913618087768555,-5,9844.0
6080,0.3230877220630646,-0.32519790530204773,-28,5346.0,1.0539201498031616,74,9844.0
6090,0.3232775628566742,-0.15429839491844177,42,5346.0,6.269663333892822,-12,9844.0
6100,0.32213470339775085,0.7771116495132446,-40,5346.0,4.085090637207031,133,9844.0
6110,0.32213476300239563,2.8352115154266357,-120,5346.0,5.016554832458496,227,9844.0
6120,0.3220647871494293,-1.4171429872512817,-111,5346.0,5.790670871734619,244,9844.0
6130,0.3219362795352936,-0.3857700824737549,12,5346.0,2.181593179702759,90,9844.0
6140,0.32171571254730225,-2.8131089210510254,-22,5346.0,5.146191596984863,15,9844.0
6150,0.3211750388145447,-2.2420120239257812,-125,5346.0,-1.015602946281433,63,9844.0
6160,0.3209814429283142,-1.476213812828064,77,5346.0,-5.920796871185303,-111,9844.0
6170,0.32085302472114563,-1.4632385969161987,27,5346.0,-2.0831680297851562,-209,9844.0
6180,0.3206932544708252,-1.2592986822128296,-3,5346.0,-0.6683300137519836,26,9844.0
6190,0.32111474871635437,-0.9980080127716064,99,5346.0,-5.214141368865967,-43,9844.0
6200,0.3210296332836151,0.4044729173183441,155,5346.0,0.6028003096580505,-78,9844.0
6210,0.3208862245082855,-0.0472429022192955,68,5346.0,-0.2045062780380249,-100,9844.0
6220,0.3207864463329315,0.170372873544693,-81,5346.0,3.3440544605255127,10,9844.0
6230,0.3207992911338806,0.2061130404472351,-72,5346.0,0.38491570949554443,163,9844.0
6240,0.3206401765346527,-2.2401278018951416,-12,5346.0,1.672502875328064,-79,9844.0
6250,0.3203924298286438,-1.0563992261886597,-89,5346.0,4.29008150100708,121,9844.0
6260,0.3201309144496918,1.7775816917419434,-141,5346.0,2.6808385848999023,268,9844.0
6270,0.3198317885398865,0.5115620493888855,11,5346.0,1.7674894332885742,100,9844.0
6280,0.3208273947238922,0.6660475730895996,67,5346.0,0.03718704730272293,3,9844.0
6290,0.3206377625465393,1.3251898288726807,93,5346.0,-4.952235221862793,-133,9844.0
6300,0.32046085596084595,-2.2763724327087402,101,5346.0,-3.5957634449005127,-238,9844.0
6310,0.3201979398727417,-2.6383047103881836,44,5346.0,-1.8873366117477417,-64,9844.0
6320,0.31985992193222046,-0.5790160298347473,45,5346.0,-2.730365753173828,-151,9844.0
6330,0.3196665048599243,-2.008138656616211,28,5346.0,0.34963518381118774,-140,9844.0
6340,0.31947678327560425,-0.4719966650009155,-88,5346.0,-0.20532281696796417,91,9844.0
6350,0.3193257749080658,2.8868706226348877,-126,5346.0,-1.4026405811309814,54,9844.0
6360,0.3206884264945984,1.9298641681671143,24,5346.0,0.39772137999534607,89,9844.0
6370,0.3206510841846466,0.9055299758911133,-51,5346.0,2.734046697616577,109,9844.0
6380,0.3204934298992157,3.648249626159668,51,5346.0,-0.20635926723480225,123,9844.0
6390,0.320375919342041,0.38759657740592957,23,5346.0,0.7584106922149658,155,9844.0
6400,0.32019585371017456,1.5313737392425537,66,5346.0,-0.9150717854499817,-20,9844.0
6410,0.3213249444961548,5.609594345092773,201,5346.0,-4.576581954956055,-150,9844.0
6420,0.32122594118118286,2.211880922317505,161,5346.0,-2.652085542678833,-231,9844.0
6430,0.32124626636505127,1.3721717596054077,18,5346.0,-3.784982442855835,-167,9844.0
6440,0.3212279677391052,2.003530502319336,-99,5346.0,-2.350314140319824,-60,9844.0
6450,0.3219136595726013,0.46775585412979126,-75,5346.0,-1.1962707042694092,33,9844.0
6460,0.3220680356025696,-1.2338895797729492,-55,5346.0,2.6160166263580322,242,9844.0
6470,0.32207170128822327,1.2883238792419434,-101,5346.0,-1.7538203001022339,62,9844.0
6480,0.3221508860588074,-1.2510217428207397,-113,5346.0,1.488927960395813,223,9844.0
6490,0.32217976450920105,-3.341783285140991,66,5346.0,5.582436561584473,81,9844.0
6500,0.3225128948688507,-0.41429057717323303,93,5346.0,0.6940022706985474,47,9844.0
6510,0.32249757647514343,-1.4846978187561035,58,5346.0,1.7686610221862793,-91,9844.0
6520,0.3223700225353241,-3.051738739013672,43,5346.0,6.35209846496582,91,9844.0
6530,0.3221343159675598,1.7973250150680542,43,5346.0,-2.0354528427124023,-80,9844.0
6540,0.3223479390144348,0.47731778025627136,157,5346.0,0.791596531867981,-211,9844.0
6550,0.3221674859523773,-1.0975745916366577,68,5346.0,0.1502707153558731,-156,9844.0
6560,0.32223212718963623,-0.3658585250377655,-81,5346.0,4.025923728942871,-8,9844.0
6570,0.3225845694541931,2.512399196624756,-100,5346.0,-7.360686779022217,76,9844.0
6580,0.3223704695701599,3.363445281982422,-55,5346.0,-4.1397881507873535,55,9844.0
6590,0.3224630057811737,0.15371501445770264,-1,5346.0,-3.08493709564209,34,9844.0
6600,0.322464257478714,1.056861162185669,-30,5346.0,-3.0269088745117188,17,9844.0
6610,0.322557657957077,-2.120011806488037,-76,5346.0,0.8140392303466797,171,9844.0
6620,0.3225635588169098,-2.692840099334717,-29,5346.0,3.252511978149414,4,9844.0
6630,0.32352203130722046,-1.6524946689605713,61,5346.0,0.12992402911186218,-55,9844.0
6640,0.32361459732055664,-3.1928200721740723,97,5346.0,0.5865236520767212,-102,9844.0
6650,0.32369527220726013,-3.8400521278381348,-26,5346.0,1.5268415212631226,-14,9844.0
6660,0.32378000020980835,-1.584972620010376,-45,5346.0,7.036672592163086,73,9844.0
6670,0.3231784999370575,-1.9840376377105713,56,5346.0,1.016548991203308,-161,9844.0
6680,0.3232744336128235,0.4587205946445465,-34,5346.0,1.9180361032485962,92,9844.0
6690,0.32329878211021423,4.696107387542725,-71,5346.0,-0.3787241280078888,99,9844.0
6700,0.32332268357276917,3.167504072189331,-7,5346.0,2.141629934310913,170,9844.0
6710,0.32341268658638,3.453016996383667,34,5346.0,1.8682854175567627,74,9844.0
6720,0.3235933482646942,4.545093536376953,119,5346.0,-0.27458927035331726,18,9844.0
6730,0.323519229888916,3.4234097003936768,38,5346.0,2.766145944595337,127,9844.0
6740,0.32355207204818726,3.553626775741577,42,5346.0,2.078859567642212,151,9844.0
6750,0.3236134946346283,3.1872942447662354,71,5346.0,-1.0841798782348633,-15,9844.0
6760,0.3231123089790344,-0.5444976687431335,162,5346.0,-0.794879674911499,-140,9844.0
6770,0.32330167293548584,-2.8715038299560547,46,5346.0,0.029582636430859566,-23,9844.0
6780,0.3234829604625702,-2.6568050384521484,-73,5346.0,0.24474050104618073,-13,9844.0
6790,0.3236284852027893,-1.530856728553772,-9,5346.0,4.6495184898376465,-114,9844.0
6800,0.3230915665626526,-0.10964047908782959,20,5346.0,-3.2569870948791504,-187,9844.0
6810,0.3232026696205139,1.0133953094482422,-12,5346.0,0.466808944940567,40,9844.0
6820,0.3231290280818939,1.0816035270690918,62,5346.0,-3.059192419052124,-137,9844.0
6830,0.3231225609779358,-1.2720633745193481,-11,5346.0,-3.0842862129211426,4,9844.0
6840,0.3231087028980255,0.6764071583747864,-123,5346.0,-5.450748443603516,38,9844.0
6850,0.32221242785453796,-1.0063973665237427,-122,5346.0,-4.7520880699157715,90,9844.0
6860,0.3219163417816162,-2.9806954860687256,-140,5346.0,-5.2505412101745605,92,9844.0
6870,0.3215876519680023,1.1006895303726196,57,5346.0,-7.190437316894531,36,9844.0
6880,0.3212116062641144,0.3101435899734497,-15,5346.0,1.685863971710205,85,9844.0
6890,0.32164284586906433,1.413767695426941,-24,5346.0,8.558984756469727,223,9844.0
6900,0.321372389793396,3.385953903198242,94,5346.0,-0.681538462638855,-129,9844.0
6910,0.32113584876060486,2.2872731685638428,158,5346.0,-0.04294208809733391,-206,9844.0
6920,0.320875346660614,2.0756192207336426,110,5346.0,-1.2666456699371338,-115,9844.0
6930,0.3211682140827179,-0.10555598139762878,-76,5346.0,-1.4463609457015991,-76,9844.0
6940,0.3211122453212738,-0.3760537803173065,-85,5346.0,-0.9169134497642517,72,9844.0
6950,0.32108399271965027,-1.6824367046356201,-67,5346.0,-3.8145787715911865,-54,9844.0
6960,0.32105669379234314,-1.6018612384796143,-43,5346.0,-4.629472255706787,-13,9844.0
6970,0.3210594654083252,0.23074808716773987,-41,5346.0,-1.3423792123794556,107,9844.0
6980,0.3198164701461792,6.232105731964111,84,5346.0,-3.492975950241089,218,9844.0
6990,0.31953227519989014,6.853616237640381,123,5346.0,-2.82430100440979,78,9844.0
7000,0.31915828585624695,8.012848854064941,180,5346.0,-6.231911659240723,-70,9844.0
7010,0.31879404187202454,-0.7595071792602539,33,5346.0,-5.709649085998535,-58,9844.0
7020,0.3186173141002655,-15.037259101867676,-106,5346.0,3.6367669105529785,-79,9844.0
7030,0.3182521462440491,-5.02205228805542,-2,5346.0,-0.8561756014823914,-9,9844.0
7040,0.31762900948524475,-0.7539947628974915,5,5346.0,-2.212594747543335,-73,9844.0
7050,0.3169107735157013,2.919713020324707,132,5346.0,1.243566870689392,-44,9844.0
7060,0.3158300220966339,0.861870288848877,179,5346.0,5.853010654449463,58,9844.0
7070,0.31660041213035583,-3.7783761024475098,33,5346.0,11.191606521606445,36,9844.0
7080,0.3155067265033722,-3.0680272579193115,-123,5346.0,7.659360408782959,191,9844.0
7090,0.31417080760002136,-3.8391764163970947,-206,5346.0,10.217741012573242,198,9844.0
7100,0.3127634525299072,-6.914532661437988,-231,5346.0,20.827543258666992,429,9844.0
7110,0.3118428885936737,-7.722811698913574,-184,5346.0,14.780741691589355,366,9844.0
7120,0.31029224395751953,-10.128719329833984,-177,5346.0,18.787639617919922,318,9844.0
7130,0.3087140917778015,-11.143926620483398,-199,5346.0,20.3834228515625,449,9844.0
7140,0.30731096863746643,-11.952157020568848,-172,5346.0,27.7803955078125,471,9844.0
7150,0.3053690195083618,-9.616568565368652,-104,5346.0,23.019840240478516,400,9844.0
7160,0.303593248128891,-7.338405609130859,-36,5346.0,25.819793701171875,353,9844.0
7170,0.30196619033813477,-4.251795768737793,-17,5346.0,26.565032958984375,271,9844.0
7180,0.3001309633255005,-3.4096474647521973,-10,5346.0,28.64862823486328,340,9844.0
7190,0.297630250453949,-4.639145851135254,-177,5346.0,23.35923194885254,497,9844.0
7200,0.29878857731819153,-5.949893951416016,-227,5346.0,33.088897705078125,663,9844.0
7210,0.2970128357410431,-6.964887619018555,-181,5346.0,32.90877914428711,589,9844.0
7220,0.29562699794769287,-7.68300724029541,-19,5346.0,32.02488327026367,456,9844.0
7230,0.2930096387863159,-4.396291732788086,-23,5346.0,31.408306121826172,403,9844.0
7240,0.2925659716129303,-9.152303695678711,-157,5346.0,36.27876281738281,583,9844.0
7250,0.29128196835517883,-6.507449626922607,-193,5346.0,37.69408416748047,724,9844.0
7260,0.28994572162628174,-7.895724296569824,-176,5346.0,39.92982864379883,713,9844.0
7270,0.2876031994819641,-9.867950439453125,-114,5346.0,37.424339294433594,422,9844.0
7280,0.286967396736145,-10.476795196533203,-97,5346.0,40.26860046386719,666,9844.0
7290,0.2884199917316437,-3.2002079486846924,-81,5346.0,37.65327072143555,660,9844.0
7300,0.28816550970077515,5.117795944213867,36,5346.0,36.249061584472656,644,9844.0
7310,0.2878562808036804,8.745695114135742,173,5346.0,34.416141510009766,534,9844.0
7320,0.28759822249412537,7.839400768280029,156,5346.0,24.252859115600586,167,9844.0
7330,0.2881131172180176,2.0752696990966797,40,5346.0,19.86690902709961,184,9844.0
7340,0.2880283296108246,0.030359536409378052,-163,5346.0,4.10276985168457,78,9844.0
7350,0.2889705300331116,-8.439615249633789,-234,5346.0,-1.7506518363952637,-35,9844.0
7360,0.2895633578300476,-11.209708213806152,-243,5346.0,-18.280479431152344,-115,9844.0
7370,0.2923215329647064,-10.43192195892334,-159,5346.0,-24.037710189819336,-436,9844.0
7380,0.29294469952583313,-12.0230712890625,-120,5346.0,-20.761920928955078,-302,9844.0
7390,0.29359474778175354,-12.283158302307129,-107,5346.0,-17.049211502075195,-286,9844.0
7400,0.2943449020385742,-10.36031436920166,-96,5346.0,-14.196137428283691,-348,9844.0
7410,0.294956237077713,-8.394499778747559,5,5346.0,-9.134790420532227,-145,9844.0
7420,0.29646721482276917,-3.3758373260498047,90,5346.0,-2.6447019577026367,-209,9844.0
7430,0.29688945412635803,0.5828587412834167,102,5346.0,-5.374164581298828,-239,9844.0
7440,0.2969435155391693,4.082196235656738,204,5346.0,-1.565879464149475,-276,9844.0
7450,0.2970072031021118,6.988190174102783,45,5346.0,2.7061095237731934,-85,9844.0
7460,0.296096533536911,4.068104267120361,119,5346.0,2.413184881210327,39,9844.0
7470,0.2959556579589844,3.9137675762176514,52,5346.0,3.491208553314209,14,9844.0
7480,0.29562604427337646,-1.2815836668014526,49,5346.0,-2.947352886199951,-120,9844.0
7490,0.29511556029319763,-5.415921688079834,-31,5346.0,-4.012876033782959,-195,9844.0
7500,0.2948201596736908,-7.5301923751831055,-95,5346.0,-12.373026847839355,-211,9844.0
7510,0.2959243655204773,-6.601064205169678,-88,5346.0,-13.217697143554688,-173,9844.0
7520,0.29533064365386963,-7.257640361785889,-113,5346.0,-15.548981666564941,-174,9844.0
7530,0.2947757840156555,-3.3389852046966553,-32,5346.0,-21.77667808532715,-199,9844.0
7540,0.29389438033103943,-2.637714147567749,-23,5346.0,-15.788858413696289,-163,9844.0
7550,0.2948128283023834,-3.8364923000335693,38,5346.0,-8.155461311340332,-26,9844.0
7560,0.2941927909851074,-2.238191604614258,-10,5346.0,-7.88346529006958,37,9844.0
7570,0.29308339953422546,-6.351230621337891,-78,5346.0,7.945610046386719,89,9844.0
7580,0.29265350103378296,-6.346867561340332,-136,5346.0,7.390974521636963,166,9844.0
7590,0.29265016317367554,-4.804108142852783,-157,5346.0,6.424959182739258,176,9844.0
7600,0.2914453148841858,-11.070165634155273,-317,5346.0,11.290699005126953,256,9844.0
7610,0.29085469245910645,-26.6806583404541,-472,5346.0,22.208614349365234,270,9844.0
7620,0.29023200273513794,-28.85862922668457,-493,5346.0,21.235563278198242,246,9844.0
7630,0.29011866450309753,-25.717721939086914,-266,5346.0,14.522912979125977,47,9844.0
7640,0.28829696774482727,-19.655412673950195,-214,5346.0,3.688032627105713,-30,9844.0
7650,0.28760695457458496,-13.803767204284668,-278,5346.0,-6.859745025634766,-50,9844.0
7660,0.2871505320072174,-9.502985000610352,-102,5346.0,-14.497679710388184,-236,9844.0
7670,0.28647634387016296,-3.969874382019043,-26,5346.0,-14.2013578414917,-223,9844.0
7680,0.28520894050598145,-2.936061143875122,-58,5346.0,-15.331476211547852,-215,9844.0
7690,0.28465282917022705,-3.5440759658813477,-162,5346.0,-15.381589889526367,-131,9844.0
7700,0.2847209572792053,-5.259526252746582,-126,5346.0,-11.267556190490723,-76,9844.0
7710,0.28397294878959656,-8.29287338256836,-121,5346.0,-13.371794700622559,-198,9844.0
7720,0.2820378541946411,-12.469559669494629,-220,5346.0,-13.40945816040039,-79,9844.0
7730,0.2818295359611511,-19.936145782470703,-367,5346.0,-10.177009582519531,-122,9844.0
7740,0.28128090500831604,-23.783374786376953,-399,5346.0,-7.801821708679199,-162,9844.0
7750,0.2810235917568207,-25.480966567993164,-375,5346.0,-1.500928282737732,-119,9844.0
7760,0.27988824248313904,-22.692951202392578,-390,5346.0,2.6696088314056396,129,9844.0
7770,0.27967268228530884,-24.298290252685547,-401,5346.0,6.194999694824219,206,9844.0
7780,0.2794484496116638,-24.224653244018555,-392,5346.0,5.56255578994751,134,9844.0
7790,0.27875691652297974,-24.469629287719727,-406,5346.0,4.918136119842529,175,9844.0
7800,0.2780687212944031,-21.802814483642578,-416,5346.0,2.271190643310547,126,9844.0
7810,0.27844953536987305,-19.203632354736328,-358,5346.0,-1.7339171171188354,52,9844.0
7820,0.27766361832618713,-15.713319778442383,-295,5346.0,-1.154740810394287,26,9844.0
7830,0.2772478461265564,-11.401268005371094,-126,5346.0,-0.2565670609474182,80,9844.0
7840,0.2766817510128021,-4.324155807495117,-62,5346.0,5.481757164001465,252,9844.0
7850,0.27599403262138367,0.6088440418243408,-1,5346.0,3.4364054203033447,148,9844.0
7860,0.2781979739665985,2.5669007301330566,59,5346.0,6.53184700012207,186,9844.0
7870,0.27759310603141785,5.9375386238098145,153,5346.0,7.870972156524658,261,9844.0
7880,0.2772800624370575,7.712722301483154,118,5346.0,8.556471824645996,169,9844.0
7890,0.2764890789985657,5.012948513031006,67,5346.0,10.819182395935059,199,9844.0
7900,0.28055524826049805,6.789602756500244,163,5346.0,8.46452522277832,220,9844.0
7910,0.2801891267299652,10.746918678283691,207,5346.0,14.051037788391113,315,9844.0
7920,0.2798417806625366,8.297868728637695,197,5346.0,9.812602043151855,242,9844.0
7930,0.279300332069397,7.846314907073975,131,5346.0,11.251626014709473,247,9844.0
7940,0.27933385968208313,6.766880035400391,183,5346.0,12.908343315124512,307,9844.0
7950,0.281493604183197,11.704245567321777,179,5346.0,12.030860900878906,340,9844.0
7960,0.2815030515193939,14.508241653442383,277,5346.0,10.972606658935547,235,9844.0
7970,0.2810688316822052,18.666257858276367,319,5346.0,6.368363857269287,261,9844.0
7980,0.28078600764274597,20.14147186279297,347,5346.0,7.906599998474121,298,9844.0
7990,0.2790524959564209,19.53771209716797,326,5346.0,7.846252918243408,235,9844.0
8000,0.2785918116569519,21.711639404296875,344,5346.0,6.020215034484863,163,9844.0
8010,0.277669221162796,23.1258602142334,372,5346.0,2.4387450218200684,241,9844.0
8020,0.27770674228668213,25.228755950927734,336,5346.0,7.789525508880615,230,9844.0
8030,0.2737468481063843,23.00749397277832,380,5346.0,7.6134419441223145,94,9844.0
8040,0.27277231216430664,26.365571975708008,401,5346.0,9.747051239013672,193,9844.0
8050,0.27170664072036743,26.048709869384766,472,5346.0,14.30888557434082,159,9844.0
8060,0.27055853605270386,26.95681381225586,426,5346.0,15.764944076538086,185,9844.0
8070,0.26995062828063965,27.452077865600586,437,5346.0,20.88416862487793,251,9844.0
8080,0.2653622031211853,25.57636260986328,403,5346.0,19.513187408447266,330,9844.0
8090,0.2633621394634247,20.82414436340332,321,5346.0,17.64227294921875,274,9844.0
8100,0.26268643140792847,17.86883544921875,317,5346.0,16.593936920166016,235,9844.0
8110,0.2613154351711273,11.285750389099121,251,5346.0,16.335920333862305,311,9844.0
8120,0.25830695033073425,11.953251838684082,206,5346.0,10.98605728149414,320,9844.0
8130,0.2563619315624237,10.628314018249512,142,5346.0,12.586738586425781,296,9844.0
8140,0.25502005219459534,11.797799110412598,156,5346.0,9.546751022338867,237,9844.0
8150,0.25442901253700256,15.722723960876465,223,5346.0,11.12922191619873,222,9844.0
8160,0.2530075013637543,18.69309425354004,224,5346.0,10.695860862731934,370,9844.0
8170,0.24898813664913177,15.244657516479492,218,5346.0,13.788207054138184,321,9844.0
8180,0.24814198911190033,18.07442283630371,184,5346.0,12.811257362365723,278,9844.0
8190,0.24653716385364532,16.615747451782227,191,5346.0,9.494096755981445,255,9844.0
8200,0.24593302607536316,13.0993013381958,152,5346.0,9.038314819335938,186,9844.0
8210,0.2460176646709442,10.256293296813965,130,5346.0,9.536603927612305,256,9844.0
8220,0.2450810968875885,9.431992530822754,97,5346.0,0.9211907982826233,217,9844.0
8230,0.24370774626731873,7.3148274421691895,112,5346.0,2.1547701358795166,156,9844.0
8240,0.24337238073349,8.384462356567383,176,5346.0,1.3550856113433838,182,9844.0
8250,0.2437320351600647,9.964518547058105,169,5346.0,0.42525434494018555,38,9844.0
8260,0.24206607043743134,11.48509407043457,208,5346.0,0.15211760997772217,32,9844.0
8270,0.24191026389598846,12.330401420593262,334,5346.0,-1.5593351125717163,-51,9844.0
8280,0.2412112057209015,14.714741706848145,400,5346.0,-5.4469709396362305,-110,9844.0
8290,0.24045969545841217,16.463403701782227,352,5346.0,-0.33564236760139465,-137,9844.0
8300,0.24343645572662354,14.57125186920166,314,5346.0,-7.064227104187012,-164,9844.0
8310,0.2434074878692627,16.968563079833984,258,5346.0,-0.21735353767871857,-140,9844.0
8320,0.24311737716197968,11.978894233703613,275,5346.0,-3.6944265365600586,-182,9844.0
8330,0.24282652139663696,9.652761459350586,216,5346.0,-2.2025840282440186,-175,9844.0
8340,0.24305108189582825,3.8017663955688477,148,5346.0,0.4605707824230194,-219,9844.0
8350,0.24278970062732697,3.4673619270324707,100,5346.0,0.8657771348953247,-215,9844.0
8360,0.24300990998744965,2.491811513900757,61,5346.0,-4.698796272277832,-245,9844.0
8370,0.24312007427215576,0.9482765197753906,-4,5346.0,-5.090231895446777,-233,9844.0
8380,0.24294137954711914,-5.509475231170654,-26,5346.0,-3.1574933528900146,-258,9844.0
8390,0.24574100971221924,-3.219858169555664,-10,5346.0,-7.833345413208008,-221,9844.0
8400,0.24644877016544342,1.1728273630142212,-38,5346.0,-11.470109939575195,-237,9844.0
8410,0.24714769423007965,4.737175464630127,4,5346.0,-7.614840507507324,-216,9844.0
8420,0.2473510503768921,6.306628227233887,51,5346.0,-15.763060569763184,-312,9844.0
8430,0.25073686242103577,6.495965957641602,79,5346.0,-5.3473052978515625,-206,9844.0
8440,0.2512633800506592,9.492572784423828,130,5346.0,-9.285223007202148,-259,9844.0
8450,0.252244770526886,11.172078132629395,134,5346.0,-7.962784290313721,-184,9844.0
8460,0.2528858482837677,11.068390846252441,122,5346.0,-6.446466445922852,-210,9844.0
8470,0.25579044222831726,8.472673416137695,65,5346.0,-7.38689661026001,-236,9844.0
8480,0.25653842091560364,7.686176300048828,121,5346.0,-9.553991317749023,-290,9844.0
8490,0.257161945104599,6.351857662200928,124,5346.0,-5.429054260253906,-144,9844.0
8500,0.25785842537879944,5.0723371505737305,81,5346.0,-3.4286727905273438,-158,9844.0
8510,0.25853249430656433,1.9926857948303223,9,5346.0,-8.039884567260742,19,9844.0
8520,0.26098349690437317,-4.4983744621276855,-75,5346.0,-4.014893054962158,13,9844.0
8530,0.26171767711639404,-5.265824794769287,-139,5346.0,-3.4075615406036377,-8,9844.0
8540,0.2624131143093109,-4.276187419891357,-98,5346.0,-7.184963226318359,-45,9844.0
8550,0.2630736827850342,-3.5666658878326416,-85,5346.0,-1.5127122402191162,22,9844.0
8560,0.2645037770271301,-2.110415458679199,-90,5346.0,-1.5682868957519531,-100,9844.0
8570,0.26505371928215027,2.4822654724121094,40,5346.0,-0.3951670229434967,-153,9844.0
8580,0.265632301568985,0.4909815192222595,-4,5346.0,4.829839706420898,64,9844.0
8590,0.2662525475025177,2.7733256816864014,34,5346.0,3.431140661239624,85,9844.0
8600,0.26785239577293396,2.446981430053711,39,5346.0,-1.6727867126464844,6,9844.0
8610,0.2683306336402893,-1.5467385053634644,16,5346.0,-2.020886182785034,-19,9844.0
8620,0.26902973651885986,-0.5704739093780518,-2,5346.0,-10.21186351776123,-287,9844.0
8630,0.2695864140987396,-2.9000909328460693,9,5346.0,-10.208237648010254,-295,9844.0
8640,0.26999253034591675,-1.7691034078598022,-48,5346.0,-6.672501087188721,-63,9844.0
8650,0.2725045680999756,-3.932014226913452,-62,5346.0,-7.751566410064697,-54,9844.0
8660,0.2730180323123932,-5.057142734527588,-59,5346.0,-6.776618480682373,-150,9844.0
8670,0.273363322019577,-3.5785577297210693,-55,5346.0,-1.8657290935516357,-77,9844.0
8680,0.2736999988555908,-4.253137588500977,-75,5346.0,-0.9625343680381775,-102,9844.0
8690,0.273103266954422,-3.4449448585510254,-104,5346.0,-1.5726194381713867,85,9844.0
8700,0.2732529640197754,-2.9433834552764893,-105,5346.0,-4.356089115142822,138,9844.0
8710,0.2732524275779724,-5.533834457397461,-137,5346.0,5.808059215545654,121,9844.0
8720,0.27342522144317627,-8.751776695251465,-161,5346.0,6.92832612991333,-8,9844.0
8730,0.27355292439460754,-7.005067825317383,-128,5346.0,1.4283367395401,28,9844.0
8740,0.27370214462280273,-7.04000997543335,-111,5346.0,2.6279516220092773,152,9844.0
8750,0.2737840414047241,-7.050501823425293,-104,5346.0,0.3461969196796417,79,9844.0
8760,0.2738046646118164,-4.660533905029297,-124,5346.0,0.4729655086994171,-46,9844.0
8770,0.2737652063369751,-7.636648178100586,-97,5346.0,3.7006688117980957,-116,9844.0
8780,0.27299395203590393,-7.373587131500244,-128,5346.0,-3.2028117179870605,-140,9844.0
8790,0.27311229705810547,-9.691140174865723,-141,5346.0,-2.5389811992645264,-83,9844.0
8800,0.2730230689048767,-7.072566032409668,-117,5346.0,-1.8891385793685913,-27,9844.0
8810,0.2728952169418335,-6.205483913421631,-72,5346.0,-3.48146653175354,-153,9844.0
8820,0.272751122713089,-5.842683792114258,-108,5346.0,-0.8192115426063538,-136,9844.0
8830,0.2733188271522522,-7.511698246002197,-108,5346.0,4.69837760925293,-142,9844.0
8840,0.27316680550575256,-7.988770484924316,-114,5346.0,3.904257297515869,102,9844.0
8850,0.27296775579452515,-7.247946262359619,-125,5346.0,3.614125967025757,27,9844.0
8860,0.2727743089199066,-7.254926681518555,-125,5346.0,4.071322917938232,72,9844.0
8870,0.2734946608543396,-10.036680221557617,-113,5346.0,6.655263900756836,-4,9844.0
8880,0.27328816056251526,-5.733514308929443,-65,5346.0,2.0197858810424805,-11,9844.0
8890,0.27306073904037476,-6.429318428039551,-155,5346.0,3.6898903846740723,45,9844.0
8900,0.27290773391723633,-4.9946489334106445,-75,5346.0,0.1210351511836052,142,9844.0
8910,0.2724115550518036,-2.7108824253082275,-30,5346.0,0.16729670763015747,91,9844.0
8920,0.27220380306243896,-1.1328096389770508,-7,5346.0,1.5764731168746948,27,9844.0
8930,0.27196574211120605,-1.4747387170791626,-32,5346.0,1.6385327577590942,-54,9844.0
8940,0.27178773283958435,-0.7378179430961609,-18,5346.0,1.166474461555481,-105,9844.0
8950,0.27163487672805786,-1.258023738861084,-44,5346.0,3.743403196334839,-51,9844.0
8960,0.2724023461341858,-2.949889659881592,-38,5346.0,0.08795948326587677,117,9844.0
8970,0.2723378837108612,-3.3778810501098633,-36,5346.0,0.9228110313415527,50,9844.0
8980,0.27231934666633606,-5.331110954284668,-88,5346.0,4.333041667938232,103,9844.0
8990,0.27233120799064636,-2.629282236099243,-41,5346.0,-7.481328010559082,-207,9844.0
9000,0.27259883284568787,-2.154531240463257,-7,5346.0,0.0334373340010643,-153,9844.0
9010,0.272674560546875,-2.9650278091430664,8,5346.0,2.7100746631622314,-15,9844.0
9020,0.2727774977684021,0.04368915408849716,10,5346.0,-2.619853973388672,27,9844.0
9030,0.2729077935218811,0.9143129587173462,-7,5346.0,0.8951316475868225,16,9844.0
9040,0.273399293422699,3.8712477684020996,56,5346.0,-4.88433313369751,-46,9844.0
9050,0.27361711859703064,1.1789979934692383,34,5346.0,-0.7354972958564758,-162,9844.0
9060,0.2738301455974579,1.828391671180725,91,5346.0,-3.5056605339050293,-123,9844.0
9070,0.2740800380706787,2.127933979034424,-2,5346.0,-2.477116584777832,-3,9844.0
9080,0.27432867884635925,-0.18699291348457336,-4,5346.0,-4.174020767211914,-18,9844.0
9090,0.2763502895832062,0.5080342888832092,2,5346.0,-0.7957566380500793,5,9844.0
9100,0.2767556309700012,0.5915077924728394,-10,5346.0,-2.234208583831787,-132,9844.0
9110,0.27713653445243835,-2.8525381088256836,-27,5346.0,2.0174503326416016,-49,9844.0
9120,0.2775064706802368,-2.526627540588379,-78,5346.0,1.2760543823242188,70,9844.0
9130,0.2790789008140564,-2.8483808040618896,-110,5346.0,-0.30014505982398987,115,9844.0
9140,0.27954500913619995,-1.8420751094818115,-71,5346.0,-1.2321491241455078,-18,9844.0
9150,0.28002604842185974,-2.8945422172546387,-31,5346.0,-2.887298583984375,-140,9844.0
9160,0.2804964780807495,-1.5008939504623413,-13,5346.0,-6.831855297088623,-21,9844.0
9170,0.28094780445098877,-0.49512168765068054,-7,5346.0,-7.657172679901123,-98,9844.0
9180,0.2833946943283081,1.5092837810516357,9,5346.0,-8.304610252380371,-59,9844.0
9190,0.2839614450931549,2.163437604904175,13,5346.0,-3.332233428955078,-85,9844.0
9200,0.2846274673938751,0.3770500719547272,-24,5346.0,-3.647566080093384,-98,9844.0
9210,0.28524693846702576,-1.8386842012405396,6,5346.0,2.7833304405212402,84,9844.0
9220,0.2851605713367462,-1.9387502670288086,-26,5346.0,-5.732920169830322,49,9844.0
9230,0.28566431999206543,-1.2332141399383545,-21,5346.0,-3.6489646434783936,-65,9844.0
9240,0.2863408029079437,-0.3259637951850891,-43,5346.0,-1.2448362112045288,-23,9844.0
9250,0.2869429886341095,-1.1224079132080078,-2,5346.0,-2.6566951274871826,6,9844.0
9260,0.2877109944820404,-0.17005664110183716,11,5346.0,-3.346426486968994,-28,9844.0
9270,0.28826916217803955,-0.9088312983512878,2,5346.0,-1.8633804321289062,-90,9844.0
9280,0.28878462314605713,1.0108668804168701,-26,5346.0,-5.598696708679199,-74,9844.0
9290,0.28941527009010315,-1.3149709701538086,-37,5346.0,-5.174713134765625,22,9844.0
9300,0.28992271423339844,-1.5915240049362183,-39,5346.0,-3.7619526386260986,-85,9844.0
9310,0.2902311682701111,-3.7645211219787598,0,5346.0,-6.935904502868652,-216,9844.0
9320,0.2906409800052643,-2.322543144226074,-54,5346.0,-1.2985879182815552,30,9844.0
9330,0.29102224111557007,-2.2560606002807617,-34,5346.0,-2.4741578102111816,-6,9844.0
9340,0.29143980145454407,-0.24781779944896698,-2,5346.0,-3.606806516647339,-98,9844.0
9350,0.29342082142829895,-0.5146698355674744,-3,5346.0,0.1317957639694214,-2,9844.0
9360,0.2938181161880493,-1.234734296798706,39,5346.0,4.372356414794922,132,9844.0
9370,0.29418545961380005,0.06769891083240509,-25,5346.0,2.344212532043457,31,9844.0
9380,0.2945064604282379,0.1617632508277893,20,5346.0,3.9053454399108887,-35,9844.0
9390,0.29477351903915405,-1.3155311346054077,-4,5346.0,1.858372449874878,-24,9844.0
9400,0.2951754927635193,-2.276271104812622,-51,5346.0,-0.003831929061561823,107,9844.0
9410,0.2955425977706909,-2.3360278606414795,-54,5346.0,-3.3590831756591797,28,9844.0
9420,0.29590851068496704,-0.17634102702140808,10,5346.0,-0.6341499090194702,-193,9844.0
9430,0.2962116599082947,-0.9598998427391052,-23,5346.0,-4.973384380340576,-103,9844.0
9440,0.29627618193626404,-1.5575844049453735,27,5346.0,-6.150095462799072,-150,9844.0
9450,0.29652541875839233,-1.3020755052566528,-21,5346.0,-6.131850242614746,-44,9844.0
9460,0.29675599932670593,0.5581915974617004,13,5346.0,-3.888975143432617,-102,9844.0
9470,0.29700663685798645,-0.6760420799255371,4,5346.0,-3.047140121459961,-5,9844.0
9480,0.29732662439346313,0.09693719446659088,66,5346.0,0.3286353349685669,46,9844.0
9490,0.2967017889022827,-0.30245524644851685,24,5346.0,1.4038833379745483,63,9844.0
9500,0.2969929277896881,1.6914000511169434,66,5346.0,4.226721286773682,-48,9844.0
9510,0.2972507178783417,0.19543670117855072,27,5346.0,5.654645919799805,76,9844.0
9520,0.29747694730758667,2.162226915359497,42,5346.0,4.043355941772461,95,9844.0
9530,0.29826638102531433,1.100837230682373,27,5346.0,1.1077842712402344,29,9844.0
9540,0.2986438572406769,3.0466349124908447,52,5346.0,0.8951629996299744,-62,9844.0
9550,0.2989872992038727,0.643596887588501,75,5346.0,-2.2534079551696777,-174,9844.0
9560,0.29941460490226746,3.6414687633514404,72,5346.0,-9.252127647399902,33,9844.0
9570,0.300245076417923,1.8347620964050293,53,5346.0,-1.7569191455841064,39,9844.0
9580,0.30073386430740356,1.5741931200027466,-4,5346.0,-4.214591026306152,4,9844.0
9590,0.30115392804145813,0.6148577928543091,-2,5346.0,-3.3905889987945557,-110,9844.0
9600,0.3016265034675598,-0.6134899854660034,-26,5346.0,-0.9625282883644104,-110,9844.0
9610,0.3020722270011902,-0.1703089028596878,-28,5346.0,-0.6260098218917847,-87,9844.0
9620,0.3009342849254608,1.4807085990905762,49,5346.0,-4.391019344329834,80,9844.0
9630,0.3013753890991211,2.6874852180480957,-12,5346.0,3.7802438735961914,119,9844.0
9640,0.30181434750556946,1.7553597688674927,-16,5346.0,3.983520746231079,-23,9844.0
9650,0.3022487461566925,2.655749797821045,14,5346.0,0.2686190605163574,-45,9844.0
9660,0.3024275302886963,1.8067545890808105,49,5346.0,4.120855331420898,83,9844.0
9670,0.30292806029319763,3.016813039779663,26,5346.0,1.5341625213623047,122,9844.0
9680,0.30338847637176514,2.147195339202881,18,5346.0,2.1390020847320557,-7,9844.0
9690,0.30381736159324646,1.9335498809814453,21,5346.0,0.6808239817619324,4,9844.0
9700,0.304523766040802,0.5235047936439514,11,5346.0,3.5495922565460205,-49,9844.0
9710,0.3049297034740448,-1.7511380910873413,-51,5346.0,2.138188123703003,119,9844.0
9720,0.3053518235683441,1.2540113925933838,17,5346.0,-1.2428736686706543,44,9844.0
9730,0.3058079183101654,1.2239104509353638,7,5346.0,-1.5074158906936646,25,9844.0
9740,0.30626338720321655,1.9635488986968994,50,5346.0,0.5631086826324463,-3,9844.0
9750,0.3054208755493164,0.5819944739341736,4,5346.0,4.98375129699707,110,9844.0
9760,0.3057742416858673,1.6528915166854858,35,5346.0,6.46555233001709,118,9844.0
9770,0.3061225414276123,2.260434627532959,12,5346.0,2.8686275482177734,10,9844.0
9780,0.30649033188819885,1.4878870248794556,57,5346.0,4.863182544708252,-69,9844.0
9790,0.3076816499233246,-0.1547405868768692,42,5346.0,7.484166145324707,-29,9844.0
9800,0.30808576941490173,-0.11042898893356323,60,5346.0,2.739828109741211,57,9844.0
9810,0.3085087835788727,-1.058815360069275,11,5346.0,-4.702425003051758,-54,9844.0
9820,0.3089649975299835,0.7990400195121765,23,5346.0,-3.720412015914917,-159,9844.0
9830,0.30939242243766785,1.4003485441207886,50,5346.0,-4.450876712799072,-104,9844.0
9840,0.3108266592025757,1.05866539478302,71,5346.0,-2.554018974304199,-99,9844.0
9850,0.31120580434799194,1.5469456911087036,23,5346.0,2.0700204372406006,124,9844.0
9860,0.31167927384376526,1.8494458198547363,59,5346.0,-0.7345035076141357,135,9844.0
9870,0.312089741230011,3.3913016319274902,37,5346.0,-0.9408683180809021,-61,9844.0
9880,0.31228798627853394,2.5279324054718018,49,5346.0,2.9038970470428467,-15,9844.0
9890,0.3126586675643921,0.6479809880256653,-35,5346.0,3.857449531555176,6,9844.0
9900,0.31299692392349243,0.4721120595932007,-22,5346.0,1.200289249420166,102,9844.0
9910,0.31333810091018677,-0.5281193256378174,-20,5346.0,-1.4431928396224976,83,9844.0
9920,0.31357938051223755,-3.040508508682251,-27,5346.0,2.008068561553955,-19,9844.0
9930,0.3129330277442932,-3.442838430404663,-82,5346.0,-1.2110822200775146,57,9844.0
9940,0.3131963312625885,-1.6919292211532593,-72,5346.0,-4.262341499328613,14,9844.0
9950,0.3136356770992279,-1.7000527381896973,-73,5346.0,-7.200222969055176,-8,9844.0
9960,0.31413573026657104,-1.2542551755905151,-114,5346.0,-10.380292892456055,-147,9844.0
9970,0.31571003794670105,-1.9954956769943237,-43,5346.0,-7.472912311553955,-197,9844.0
9980,0.31613707542419434,-1.0330311059951782,-12,5346.0,-4.862431049346924,-113,9844.0
9990,0.3166293799877167,-0.12531200051307678,-4,5346.0,-2.642055034637451,26,9844.0
10000,0.3170945644378662,0.45375439524650574,56,5346.0,-2.1299140453338623,0,9844.0
10010,0.31773751974105835,-0.41163739562034607,-2,5346.0,1.4149450063705444,68,9844.0
10020,0.3182084262371063,-1.0722578763961792,22,5346.0,1.233904242515564,-48,9844.0
10030,0.3186910152435303,-1.4877487421035767,4,5346.0,4.332247734069824,4,9844.0
10040,0.31917890906333923,1.850771188735962,-13,5346.0,3.3065075874328613,199,9844.0
10050,0.3196637034416199,1.7537208795547485,33,5346.0,6.249114513397217,92,9844.0
10060,0.32068145275115967,-0.6561769247055054,29,5346.0,4.1993207931518555,-52,9844.0
10070,0.3211859464645386,0.0712907537817955,40,5346.0,1.2466496229171753,-28,9844.0
10080,0.3216765820980072,-0.7936445474624634,17,5346.0,3.057615280151367,98,9844.0
10090,0.3221357762813568,2.439815044403076,7,5346.0,-4.6022419929504395,69,9844.0
10100,0.32396382093429565,0.5709817409515381,29,5346.0,1.7559261322021484,-62,9844.0
10110,0.32447487115859985,-0.1602686643600464,21,5346.0,0.8545913100242615,-63,9844.0
10120,0.3249812126159668,0.9938976764678955,22,5346.0,-3.9687163829803467,-73,9844.0
10130,0.3254735469818115,-0.5251384973526001,15,5346.0,-0.7702382802963257,62,9844.0
10140,0.325872004032135,-1.6456724405288696,-12,5346.0,2.6221749782562256,12,9844.0
10150,0.3255541920661926,-3.3964319229125977,-29,5346.0,6.556839466094971,0,9844.0
10160,0.3260091245174408,-2.8303773403167725,-55,5346.0,1.2094767093658447,81,9844.0
10170,0.3264777958393097,-5.455968856811523,-97,5346.0,4.11488676071167,46,9844.0
10180,0.3270277976989746,-4.502761363983154,-65,5346.0,1.2805290222167969,-133,9844.0
10190,0.328993558883667,-4.338467121124268,-77,5346.0,-3.0454487800598145,-77,9844.0
10200,0.32946404814720154,-6.109229564666748,-102,5346.0,3.939927339553833,137,9844.0
10210,0.3298990726470947,-3.7053864002227783,-38,5346.0,4.008113861083984,150,9844.0
10220,0.33030956983566284,0.3562244176864624,15,5346.0,2.870978355407715,30,9844.0
10230,0.3300413489341736,1.0486290454864502,44,5346.0,-0.2546338737010956,-99,9844.0
10240,0.3304138779640198,4.789944648742676,75,5346.0,4.1060285568237305,105,9844.0
10250,0.3307608366012573,2.4102377891540527,55,5346.0,2.1775693893432617,43,9844.0
10260,0.3311176002025604,3.1919353008270264,34,5346.0,-0.4070018231868744,18,9844.0
10270,0.33153465390205383,0.8118942975997925,2,5346.0,1.2832180261611938,-153,9844.0
10280,0.3337166905403137,0.884261429309845,48,5346.0,0.7193060517311096,28,9844.0
10290,0.33419087529182434,1.0030877590179443,13,5346.0,-2.04939341545105,88,9844.0
10300,0.33465567231178284,2.4379959106445312,-22,5346.0,-3.9262428283691406,14,9844.0
10310,0.3351292014122009,-0.9001663327217102,2,5346.0,-0.14056497812271118,-24,9844.0
10320,0.33497118949890137,-0.1188737154006958,-3,5346.0,-0.1783403754234314,-5,9844.0
10330,0.33539244532585144,-1.3469126224517822,-40,5346.0,1.0919674634933472,57,9844.0
10340,0.3358007073402405,0.031082727015018463,43,5346.0,4.219220161437988,0,9844.0
10350,0.3362245559692383,0.09558398276567459,-31,5346.0,3.0239453315734863,4,9844.0
10360,0.33713483810424805,0.6035047173500061,40,5346.0,-0.2923516035079956,17,9844.0
10370,0.33752357959747314,0.43893569707870483,16,5346.0,2.053128957748413,123,9844.0
10380,0.3378918170928955,0.11848829686641693,-1,5346.0,3.7088005542755127,192,9844.0
10390,0.33823162317276,1.7033957242965698,24,5346.0,1.429322361946106,-104,9844.0
10400,0.3385574221611023,1.0212628841400146,-19,5346.0,2.051619052886963,22,9844.0
10410,0.3390396237373352,1.7010663747787476,9,5346.0,-0.30386167764663696,70,9844.0
10420,0.33934909105300903,0.8333300352096558,20,5346.0,0.5782842636108398,-52,9844.0
10430,0.3397080600261688,0.1251816302537918,2,5346.0,1.0634876489639282,-93,9844.0
10440,0.3399166762828827,1.4576371908187866,39,5346.0,-3.0097367763519287,-134,9844.0
10450,0.34115153551101685,-0.47965875267982483,54,5346.0,-6.240289211273193,-118,9844.0
10460,0.3415343165397644,-1.1922338008880615,30,5346.0,-7.652336597442627,-20,9844.0
10470,0.34197989106178284,-0.25359630584716797,2,5346.0,-2.8258681297302246,-120,9844.0
10480,0.3424781560897827,-3.962456226348877,-54,5346.0,0.24384182691574097,-5,9844.0
10490,0.3430011570453644,-4.256628513336182,-84,5346.0,-3.3642690181732178,14,9844.0
10500,0.3426656126976013,-8.198271751403809,-160,5346.0,4.271963119506836,111,9844.0
10510,0.3429822027683258,-11.225120544433594,-213,5346.0,10.661437034606934,98,9844.0
10520,0.34332844614982605,-12.486928939819336,-217,5346.0,10.379670143127441,192,9844.0
10530,0.343791127204895,-12.546002388000488,-210,5346.0,10.64709186553955,235,9844.0
10540,0.34504181146621704,-13.62578010559082,-218,5346.0,13.558451652526855,151,9844.0
10550,0.3454250693321228,-8.379857063293457,-150,5346.0,5.872259616851807,26,9844.0
10560,0.34580692648887634,-7.780737400054932,-131,5346.0,9.702727317810059,191,9844.0
10570,0.3461359739303589,-4.211025714874268,-62,5346.0,1.022602915763855,101,9844.0
10580,0.34633272886276245,-0.4504106640815735,15,5346.0,2.3235814571380615,37,9844.0
10590,0.346682608127594,2.4696197509765625,82,5346.0,-4.593305587768555,-152,9844.0
10600,0.3470933437347412,4.066716194152832,69,5346.0,-5.685784339904785,-65,9844.0
10610,0.3474960923194885,5.237030029296875,131,5346.0,-10.119656562805176,-77,9844.0
10620,0.3478763699531555,7.153881072998047,99,5346.0,-7.422318458557129,-140,9844.0
10630,0.3474721312522888,8.480021476745605,148,5346.0,-5.038122177124023,-151,9844.0
10640,0.34782764315605164,6.959107875823975,96,5346.0,-3.346099853515625,-84,9844.0
10650,0.348162978887558,4.24696683883667,62,5346.0,-1.1364480257034302,-1,9844.0
10660,0.3485177159309387,1.1576266288757324,12,5346.0,-1.2368083000183105,-82,9844.0
10670,0.3485303223133087,-3.125793218612671,-21,5346.0,-1.8240063190460205,-93,9844.0
10680,0.3488471508026123,-2.4029593467712402,-49,5346.0,-0.6808459162712097,59,9844.0
10690,0.349138468503952,-2.896674871444702,-54,5346.0,-1.9947236776351929,61,9844.0
10700,0.34941649436950684,-1.728071689605713,-27,5346.0,2.38370680809021,41,9844.0
10710,0.34970712661743164,-1.8285810947418213,20,5346.0,5.51802396774292,87,9844.0
10720,0.3509034812450409,-0.38339418172836304,-1,5346.0,3.754190683364868,167,9844.0
10730,0.35120657086372375,1.3992143869400024,-26,5346.0,3.1790361404418945,56,9844.0
10740,0.351515531539917,-0.7789381742477417,2,5346.0,4.833992958068848,3,9844.0
10750,0.35178807377815247,4.737133502960205,78,5346.0,-5.318240165710449,-121,9844.0
10760,0.3526099622249603,3.630107879638672,34,5346.0,-4.926393032073975,-21,9844.0
10770,0.3529629707336426,3.5598506927490234,38,5346.0,-5.469997406005859,-63,9844.0
10780,0.3532387912273407,3.3636679649353027,59,5346.0,-5.478854179382324,-122,9844.0
10790,0.3536132276058197,5.96038818359375,88,5346.0,-3.7110579013824463,-143,9844.0
10800,0.35549262166023254,3.932090997695923,51,5346.0,-2.0173778533935547,69,9844.0
10810,0.3559187650680542,4.544848918914795,29,5346.0,-3.993190288543701,10,9844.0
10820,0.35621365904808044,2.9074769020080566,-7,5346.0,-7.177237033843994,-87,9844.0
10830,0.356710284948349,-0.21837250888347626,16,5346.0,-4.849732875823975,-86,9844.0
10840,0.3570493757724762,0.4891728460788727,4,5346.0,-10.989745140075684,-67,9844.0
10850,0.3586697280406952,-1.432347059249878,-13,5346.0,-7.306947231292725,-90,9844.0
10860,0.3591146767139435,-1.6356221437454224,-30,5346.0,-6.655876636505127,-241,9844.0
10870,0.3595620095729828,0.2859603464603424,-15,5346.0,-0.17937815189361572,5,9844.0
10880,0.35996556282043457,1.0515224933624268,12,5346.0,1.5242760181427002,126,9844.0
10890,0.36060065031051636,3.8028435707092285,61,5346.0,4.273248672485352,-12,9844.0
10900,0.36096063256263733,4.5026421546936035,100,5346.0,6.484499931335449,12,9844.0
10910,0.36132580041885376,4.786890506744385,127,5346.0,6.502902507781982,-9,9844.0
10920,0.3617018759250641,4.445018768310547,64,5346.0,0.4552554786205292,-61,9844.0
10930,0.3620176911354065,3.9748106002807617,40,5346.0,-2.9285085201263428,-80,9844.0
10940,0.361954003572464,2.0854036808013916,26,5346.0,-3.847853422164917,-160,9844.0
10950,0.36224353313446045,-1.2072890996932983,-8,5346.0,-2.872270107269287,-64,9844.0
10960,0.36257460713386536,-3.207657814025879,5,5346.0,-3.5128793716430664,-105,9844.0
10970,0.3628387749195099,-1.4230324029922485,7,5346.0,-6.362796783447266,-64,9844.0
10980,0.3636072874069214,-1.714776635169983,-40,5346.0,-0.8238085508346558,42,9844.0
10990,0.3639834225177765,-1.3711767196655273,-10,5346.0,-0.4062410295009613,-9,9844.0
11000,0.3643045723438263,-0.7481560111045837,7,5346.0,0.9714022278785706,17,9844.0
11010,0.3646310567855835,-3.2539238929748535,-43,5346.0,5.264064788818359,189,9844.0
11020,0.3657500743865967,-0.8147112727165222,-51,5346.0,4.508814334869385,109,9844.0
11030,0.3660975694656372,-2.150468349456787,-95,5346.0,4.5514631271362305,32,9844.0
11040,0.3664565980434418,-0.02320925146341324,10,5346.0,2.871732234954834,73,9844.0
11050,0.3668099641799927,3.852372646331787,46,5346.0,0.09920688718557358,-66,9844.0
11060,0.3671300709247589,7.354135990142822,102,5346.0,-0.09955303370952606,4,9844.0
11070,0.36861681938171387,6.858435153961182,118,5346.0,0.23763062059879303,70,9844.0
11080,0.36900079250335693,8.940404891967773,156,5346.0,-3.399477481842041,-88,9844.0
11090,0.3693520724773407,7.700717449188232,129,5346.0,-2.073347330093384,-117,9844.0
11100,0.3697330355644226,5.922101020812988,99,5346.0,-3.3267910480499268,-1,9844.0
11110,0.3704167902469635,3.568669319152832,54,5346.0,-5.193873882293701,-44,9844.0
11120,0.3707509934902191,-0.821093738079071,-34,5346.0,4.238353729248047,13,9844.0
11130,0.37105223536491394,-3.048236131668091,-69,5346.0,5.794044017791748,103,9844.0
11140,0.3713350296020508,-4.2175092697143555,-61,5346.0,5.145270347595215,-20,9844.0
11150,0.37162503600120544,-6.6954569816589355,-138,5346.0,2.808656692504883,87,9844.0
11160,0.37124380469322205,-8.903594017028809,-114,5346.0,4.693498134613037,168,9844.0
11170,0.37146836519241333,-8.896780967712402,-138,5346.0,3.770871877670288,63,9844.0
11180,0.3717224597930908,-5.5381340980529785,-105,5346.0,6.203819274902344,74,9844.0
11190,0.37194889783859253,-4.068681716918945,-30,5346.0,12.071239471435547,131,9844.0
11200,0.37259432673454285,3.3732428550720215,62,5346.0,6.227601528167725,92,9844.0
11210,0.3729308545589447,2.0295183658599854,19,5346.0,6.84187650680542,50,9844.0
11220,0.37317487597465515,1.5277619361877441,24,5346.0,6.343325138092041,222,9844.0
11230,0.37338829040527344,3.5271174907684326,69,5346.0,0.21457743644714355,135,9844.0
11240,0.37615713477134705,6.664304256439209,67,5346.0,4.009059906005859,66,9844.0
11250,0.3764932155609131,9.078529357910156,149,5346.0,6.682644844055176,2,9844.0
11260,0.3768039047718048,10.912230491638184,120,5346.0,-0.6384307742118835,30,9844.0
11270,0.37711355090141296,9.8779296875,149,5346.0,0.6608922481536865,-66,9844.0
11280,0.3773970603942871,5.881670951843262,101,5346.0,-4.653964042663574,-79,9844.0
11290,0.37837278842926025,1.903374195098877,-6,5346.0,-4.121346950531006,-41,9844.0
11300,0.3787582814693451,-3.2700188159942627,-39,5346.0,-4.244937896728516,-41,9844.0
11310,0.3790445327758789,-7.11460542678833,-163,5346.0,-2.9532580375671387,80,9844.0
11320,0.3793090283870697,-11.094207763671875,-163,5346.0,5.229040622711182,-88,9844.0
11330,0.3797524869441986,-11.763251304626465,-180,5346.0,2.7880468368530273,12,9844.0
11340,0.38001465797424316,-11.439209938049316,-168,5346.0,3.3909032344818115,105,9844.0
11350,0.38026106357574463,-8.521050453186035,-112,5346.0,3.183413505554199,116,9844.0
11360,0.3804546892642975,-4.824693202972412,-45,5346.0,5.752958297729492,199,9844.0
11370,0.3806382119655609,-1.4459302425384521,-49,5346.0,7.102124214172363,379,9844.0
11380,0.3805711269378662,3.2515909671783447,36,5346.0,6.791335582733154,92,9844.0
11390,0.38075533509254456,5.244340896606445,58,5346.0,3.2568514347076416,57,9844.0
11400,0.3810119032859802,3.93565034866333,57,5346.0,4.596131324768066,14,9844.0
11410,0.38122493028640747,4.647651195526123,9,5346.0,-3.185558795928955,-92,9844.0
11420,0.38091763854026794,2.2269093990325928,6,5346.0,-7.55136775970459,-114,9844.0
11430,0.38105276226997375,0.47408145666122437,35,5346.0,-8.642860412597656,-98,9844.0
11440,0.3811303377151489,0.7054073214530945,-9,5346.0,-10.001245498657227,-70,9844.0
11450,0.38114967942237854,1.8073915243148804,71,5346.0,-7.13719367980957,-36,9844.0
11460,0.3814821243286133,2.5181844234466553,45,5346.0,-3.4969332218170166,-38,9844.0
11470,0.3814636170864105,2.0643563270568848,1,5346.0,1.7419711351394653,-85,9844.0
11480,0.3814448118209839,2.2177722454071045,35,5346.0,5.566667079925537,-14,9844.0
11490,0.38141706585884094,-2.0912911891937256,-3,5346.0,11.874269485473633,145,9844.0
11500,0.38141679763793945,0.12163200974464417,0,5346.0,7.53387451171875,152,9844.0
11510,0.38282644748687744,0.18608318269252777,-17,5346.0,7.771238803863525,201,9844.0
11520,0.38286253809928894,1.7270427942276,7,5346.0,5.166159152984619,205,9844.0
11530,0.38289302587509155,2.0992321968078613,53,5346.0,3.541489601135254,50,9844.0
11540,0.38289105892181396,3.9615111351013184,72,5346.0,3.3902454376220703,-28,9844.0
11550,0.3845037519931793,1.9814529418945312,-6,5346.0,7.169224262237549,60,9844.0
11560,0.3846469223499298,4.5438432693481445,88,5346.0,0.4478384852409363,-101,9844.0
11570,0.3847416937351227,3.1435670852661133,91,5346.0,3.5576388835906982,-30,9844.0
11580,0.38483941555023193,2.675346851348877,107,5346.0,2.6454246044158936,95,9844.0
11590,0.3849136233329773,1.7825274467468262,36,5346.0,0.6608678698539734,183,9844.0
11600,0.38583242893218994,1.6864376068115234,71,5346.0,2.7506775856018066,93,9844.0
11610,0.3858863115310669,0.8587082028388977,45,5346.0,1.1456594467163086,-96,9844.0
11620,0.3859243392944336,0.8408575057983398,-44,5346.0,3.792630434036255,84,9844.0
11630,0.38593655824661255,-0.5174039602279663,-27,5346.0,-1.2851216793060303,-45,9844.0
11640,0.3867333233356476,0.04219062998890877,-23,5346.0,-3.026691436767578,-143,9844.0
11650,0.3867427408695221,-2.7738513946533203,-43,5346.0,-1.913852572441101,-119,9844.0
11660,0.38676074147224426,-4.368466854095459,-41,5346.0,2.3658342361450195,-19,9844.0
11670,0.38681095838546753,-1.1200352907180786,22,5346.0,-7.877737522125244,-155,9844.0
11680,0.38733038306236267,-1.2560056447982788,-13,5346.0,-1.592732310295105,65,9844.0
11690,0.38743850588798523,-1.82692551612854,-25,5346.0,-1.9778112173080444,26,9844.0
11700,0.3875288963317871,0.2956896126270294,16,5346.0,1.2869877815246582,40,9844.0
11710,0.3875860571861267,0.8812441825866699,24,5346.0,2.238717555999756,-12,9844.0
11720,0.3876153528690338,4.073770046234131,33,5346.0,-0.08333971351385117,-11,9844.0
11730,0.38819199800491333,4.779383659362793,118,5346.0,1.8794686794281006,-102,9844.0
11740,0.3882341682910919,3.910567283630371,50,5346.0,1.501376748085022,-13,9844.0
11750,0.38824015855789185,-2.825606346130371,4,5346.0,2.561077356338501,83,9844.0
11760,0.3883095681667328,-0.8024429678916931,-32,5346.0,-1.9997692108154297,20,9844.0
11770,0.3901490271091461,-2.1518054008483887,-21,5346.0,-0.241083025932312,42,9844.0
11780,0.3902159333229065,-1.6033250093460083,10,5346.0,-4.785843849182129,-79,9844.0
11790,0.39034539461135864,-1.0902107954025269,-21,5346.0,-3.579310655593872,-164,9844.0
11800,0.39048030972480774,-2.172057628631592,-26,5346.0,-5.830861568450928,-143,9844.0
11810,0.39063793420791626,-1.9213263988494873,-44,5346.0,-3.847900152206421,-107,9844.0
11820,0.3917818069458008,-3.822629928588867,-68,5346.0,0.8688338994979858,65,9844.0
11830,0.39200538396835327,-3.4976959228515625,-68,5346.0,-2.789443254470825,100,9844.0
11840,0.3922262191772461,-3.738781690597534,-50,5346.0,-3.8373444080352783,1,9844.0
11850,0.39244544506073,-0.5300176739692688,-29,5346.0,-1.7285361289978027,-73,9844.0
11860,0.39368754625320435,1.1297564506530762,-13,5346.0,1.2345757484436035,-63,9844.0
11870,0.39395204186439514,1.0828932523727417,46,5346.0,3.2547898292541504,-8,9844.0
11880,0.3942158818244934,2.0674431324005127,54,5346.0,4.039674758911133,46,9844.0
11890,0.39446553587913513,2.4911742210388184,36,5346.0,3.253572940826416,127,9844.0
11900,0.3956122100353241,1.2558871507644653,-21,5346.0,4.875295639038086,217,9844.0
11910,0.39590099453926086,2.202808141708374,-22,5346.0,-0.7974749207496643,43,9844.0
11920,0.3961902856826782,-4.31026029586792,-25,5346.0,-4.114336967468262,-137,9844.0
11930,0.39644503593444824,-5.087435722351074,-50,5346.0,-3.9226503372192383,-142,9844.0
11940,0.3966464698314667,-5.40964937210083,-98,5346.0,-3.8395047187805176,-39,9844.0
11950,0.3965778052806854,-3.892291307449341,-46,5346.0,-5.261940956115723,-114,9844.0
11960,0.3967023491859436,-1.3083311319351196,-64,5346.0,-6.392460823059082,-25,9844.0
11970,0.3967704176902771,-2.0245635509490967,-61,5346.0,-5.838898658752441,-35,9844.0
11980,0.3967801332473755,-3.1995699405670166,-93,5346.0,-3.412900924682617,-53,9844.0
11990,0.3968757688999176,-4.171264171600342,-67,5346.0,2.361804723739624,-50,9844.0
12000,0.3968581557273865,-4.050771236419678,-66,5346.0,-0.11268609762191772,1,9844.0
12010,0.39683809876441956,-3.61725115776062,-41,5346.0,0.30951088666915894,122,9844.0
12020,0.3967839479446411,0.6556026935577393,37,5346.0,-3.8972818851470947,78,9844.0
12030,0.3967202305793762,0.6384361386299133,24,5346.0,1.1362075805664062,48,9844.0
12040,0.3979930281639099,2.7035510540008545,6,5346.0,3.415133476257324,29,9844.0
12050,0.39792922139167786,1.5374786853790283,59,5346.0,-0.5348758697509766,-111,9844.0
12060,0.39783257246017456,0.8928454518318176,31,5346.0,2.1234307289123535,-96,9844.0
12070,0.3977603018283844,1.9074217081069946,36,5346.0,-0.9443421959877014,29,9844.0
12080,0.39861202239990234,1.136116623878479,36,5346.0,-2.702946424484253,21,9844.0
12090,0.39863190054893494,-1.1528668403625488,-53,5346.0,-3.157766103744507,41,9844.0
12100,0.39867153763771057,-1.2626227140426636,-24,5346.0,-3.6661882400512695,-72,9844.0
12110,0.3987097442150116,-2.420656442642212,-20,5346.0,-2.506714344024658,-42,9844.0
12120,0.3992409408092499,-1.7226183414459229,11,5346.0,0.6572170257568359,-25,9844.0
12130,0.39930960536003113,-2.2740559577941895,-20,5346.0,6.5853352546691895,59,9844.0
12140,0.3993767499923706,-3.8077354431152344,-31,5346.0,5.519524097442627,118,9844.0
12150,0.3994584381580353,0.9155932068824768,14,5346.0,-1.117850661277771,38,9844.0
12160,0.3995599150657654,0.5828225016593933,30,5346.0,2.4730591773986816,114,9844.0
12170,0.4002079367637634,1.1879955530166626,32,5346.0,-1.4858311414718628,-52,9844.0
12180,0.40028515458106995,-0.8953505158424377,-4,5346.0,1.0361897945404053,-65,9844.0
12190,0.4003596007823944,0.8531544804573059,-23,5346.0,-4.797525405883789,-112,9844.0
12200,0.400523841381073,-2.533294439315796,2,5346.0,-1.6793382167816162,-83,9844.0
12210,0.4008190333843231,-1.5012274980545044,-20,5346.0,-2.802485466003418,-41,9844.0
12220,0.4009459912776947,-1.8704955577850342,-31,5346.0,-2.226608991622925,19,9844.0
12230,0.40106603503227234,-0.017386147752404213,15,5346.0,-0.5598466396331787,23,9844.0
12240,0.40116262435913086,-1.2208356857299805,8,5346.0,0.059683699160814285,-36,9844.0
12250,0.4012526571750641,-1.0449726581573486,-28,5346.0,3.1134908199310303,15,9844.0
12260,0.4003726541996002,-0.1535121500492096,-9,5346.0,3.4374804496765137,-3,9844.0
12270,0.4003584086894989,1.0695257186889648,46,5346.0,4.567224025726318,20,9844.0
12280,0.4003497064113617,0.9343327879905701,50,5346.0,5.722033977508545,118,9844.0
12290,0.4003465473651886,-0.5147786140441895,-18,5346.0,2.6072936058044434,209,9844.0
12300,0.39980217814445496,1.9890366792678833,22,5346.0,-2.059565305709839,54,9844.0
12310,0.39978116750717163,-0.08902941644191742,-11,5346.0,-0.4870632588863373,6,9844.0
12320,0.3997190296649933,1.7735618352890015,46,5346.0,-2.6415152549743652,-199,9844.0
12330,0.3996373414993286,-0.33106037974357605,13,5346.0,0.16073249280452728,-41,9844.0
12340,0.4000861346721649,0.6721831560134888,15,5346.0,2.871656894683838,-22,9844.0
12350,0.4000225365161896,-0.646998405456543,2,5346.0,-4.127005100250244,-81,9844.0
12360,0.39995360374450684,-2.9099223613739014,-92,5346.0,-1.4257076978683472,38,9844.0
12370,0.39988479018211365,-2.057774066925049,-29,5346.0,0.24069389700889587,50,9844.0
12380,0.39982205629348755,-2.1918182373046875,-84,5346.0,5.728822708129883,136,9844.0
12390,0.4014945328235626,0.008546597324311733,-38,5346.0,-0.28640636801719666,-3,9844.0
12400,0.4015355110168457,-2.048222780227661,-27,5346.0,2.353452682495117,-74,9844.0
12410,0.4015708267688751,-2.41852068901062,-31,5346.0,2.11442232131958,-54,9844.0
12420,0.40160104632377625,-1.623060941696167,37,5346.0,-4.607817649841309,-119,9844.0
12430,0.40140822529792786,-1.1831735372543335,-15,5346.0,-1.4425100088119507,24,9844.0
12440,0.40144994854927063,-1.0371506214141846,-10,5346.0,3.937791109085083,115,9844.0
12450,0.4014763832092285,1.3420475721359253,-39,5346.0,-2.1694576740264893,149,9844.0
12460,0.4014981985092163,1.4683300256729126,46,5346.0,1.8666503429412842,63,9844.0
12470,0.4014880359172821,1.424772024154663,15,5346.0,-0.8712479472160339,-53,9844.0
12480,0.40081241726875305,1.99640953540802,40,5346.0,-1.220941185951233,-181,9844.0
12490,0.40070781111717224,1.7693071365356445,47,5346.0,0.06209526211023331,-85,9844.0
12500,0.40058884024620056,0.48908156156539917,48,5346.0,0.4455404579639435,15,9844.0
12510,0.40045833587646484,1.9085428714752197,-13,5346.0,3.5242984294891357,96,9844.0
12520,0.40136095881462097,0.7954035401344299,30,5346.0,2.999769687652588,104,9844.0
12530,0.4012698829174042,1.9500077962875366,21,5346.0,4.561234474182129,28,9844.0
12540,0.40119245648384094,1.1857376098632812,20,5346.0,2.9680800437927246,35,9844.0
12550,0.40110036730766296,0.4366757571697235,-12,5346.0,1.6214762926101685,-18,9844.0
12560,0.4005846679210663,0.5595653057098389,-16,5346.0,0.9124721884727478,-113,9844.0
12570,0.4004333019256592,0.1826644092798233,2,5346.0,1.4525326490402222,-74,9844.0
12580,0.40028148889541626,-2.2712714672088623,7,5346.0,-4.120458126068115,36,9844.0
12590,0.40013056993484497,-2.87080454826355,-17,5346.0,0.016183530911803246,92,9844.0
12600,0.39995598793029785,-0.8696697950363159,-25,5346.0,-0.5870888829231262,89,9844.0
12610,0.4010078012943268,-0.5460801124572754,-18,5346.0,0.5164533853530884,144,9844.0
12620,0.40083807706832886,0.14272411167621613,6,5346.0,4.536492347717285,12,9844.0
12630,0.40057939291000366,1.845009207725525,30,5346.0,4.852606773376465,46,9844.0
12640,0.40027835965156555,2.1734023094177246,9,5346.0,3.6993205547332764,-64,9844.0
12650,0.40107691287994385,1.7632967233657837,40,5346.0,2.3203177452087402,9,9844.0
12660,0.4008612632751465,0.5060333609580994,26,5346.0,1.8574336767196655,-10,9844.0
12670,0.4006650447845459,1.5773205757141113,6,5346.0,3.3834927082061768,144,9844.0
12680,0.4005456566810608,2.3200976848602295,46,5346.0,-0.8648185729980469,71,9844.0
12690,0.40046101808547974,1.3673166036605835,45,5346.0,0.2703740894794464,82,9844.0
12700,0.39974865317344666,6.902841567993164,29,5346.0,-2.8461546897888184,93,9844.0
12710,0.3996276259422302,3.652855157852173,44,5346.0,-4.073788166046143,-11,9844.0
12720,0.3995104730129242,0.7408043742179871,-28,5346.0,-0.3158073127269745,-24,9844.0
12730,0.3993836045265198,1.1928930282592773,40,5346.0,-7.63559627532959,-159,9844.0
12740,0.4007287621498108,-0.15105928480625153,9,5346.0,-3.1950104236602783,-70,9844.0
12750,0.4006679654121399,-1.5564466714859009,11,5346.0,-2.469071388244629,25,9844.0
12760,0.4005749523639679,-0.8980860114097595,-32,5346.0,1.6642985343933105,111,9844.0
12770,0.4004567563533783,-0.7385052442550659,-21,5346.0,6.460168361663818,176,9844.0
12780,0.400317907333374,-1.3849217891693115,-60,5346.0,7.437140464782715,245,9844.0
12790,0.4008925259113312,1.3111577033996582,-2,5346.0,3.5792410373687744,13,9844.0
12800,0.4008055031299591,2.729688882827759,30,5346.0,6.683864593505859,-21,9844.0
12810,0.40072014927864075,4.194311618804932,32,5346.0,0.6516561508178711,-98,9844.0
12820,0.40064701437950134,5.5990986824035645,89,5346.0,-0.4448756277561188,-71,9844.0
12830,0.4023057222366333,3.3549418449401855,29,5346.0,-2.6080946922302246,-66,9844.0
12840,0.402294784784317,0.002383436542004347,34,5346.0,-4.6361985206604,-70,9844.0
12850,0.4022892415523529,0.49228018522262573,19,5346.0,-2.712064266204834,21,9844.0
12860,0.4022495150566101,-0.2888141870498657,38,5346.0,-10.30699634552002,-28,9844.0
12870,0.40247148275375366,0.9522771239280701,-5,5346.0,-6.236886978149414,-10,9844.0
12880,0.4024072587490082,2.6649134159088135,-6,5346.0,-7.556636810302734,-81,9844.0
12890,0.4023043215274811,0.7438892722129822,60,5346.0,2.6256229877471924,-65,9844.0
12900,0.4022047519683838,0.09723541885614395,-4,5346.0,2.906956195831299,-34,9844.0
12910,0.40210628509521484,-0.8158991932868958,8,5346.0,2.1140754222869873,30,9844.0
12920,0.4023587107658386,-1.339034080505371,25,5346.0,3.0674333572387695,77,9844.0
12930,0.40223610401153564,-2.0528383255004883,-47,5346.0,0.7689549326896667,175,9844.0
12940,0.4021102786064148,0.40551501512527466,-18,5346.0,-0.8492984175682068,-40,9844.0
12950,0.40199729800224304,0.7695083618164062,-27,5346.0,-2.2900800704956055,-54,9844.0
12960,0.40347471833229065,0.2705548107624054,21,5346.0,-3.1877944469451904,-157,9844.0
12970,0.40342065691947937,-0.6559853553771973,19,5346.0,-0.15775497257709503,-122,9844.0
12980,0.4033314883708954,-1.6189706325531006,-22,5346.0,-0.7206266522407532,-123,9844.0
12990,0.40319547057151794,-3.3909409046173096,-35,5346.0,0.1447744518518448,8,9844.0
13000,0.40461117029190063,-2.4798686504364014,-13,5346.0,1.579636573791504,94,9844.0
13010,0.40445676445961,0.4176184833049774,1,5346.0,1.5785645246505737,101,9844.0
13020,0.4044573903083801,-0.800777792930603,20,5346.0,-0.7989994287490845,13,9844.0
13030,0.404244989156723,2.5796115398406982,39,5346.0,-2.9174885749816895,7,9844.0
13040,0.4042460322380066,-0.826026976108551,-29,5346.0,4.61558723449707,49,9844.0
13050,0.4029063582420349,-0.5970207452774048,10,5346.0,1.4434808492660522,-103,9844.0
13060,0.4027009606361389,-2.2226383686065674,-29,5346.0,0.46659427881240845,-63,9844.0
13070,0.4024820327758789,-3.6735565662384033,-53,5346.0,8.604589462280273,149,9844.0
13080,0.4022364318370819,-0.18626680970191956,-5,5346.0,3.652562141418457,159,9844.0
13090,0.4027706980705261,-4.167287826538086,-33,5346.0,4.450839996337891,195,9844.0
13100,0.4026069939136505,-1.2567052841186523,-70,5346.0,-1.0453896522521973,127,9844.0
13110,0.40247419476509094,-0.42555248737335205,-69,5346.0,-1.2193535566329956,-43,9844.0
13120,0.4023452401161194,-0.8224011063575745,-15,5346.0,-0.09335125237703323,-125,9844.0
13130,0.4022064507007599,0.4776637852191925,9,5346.0,-1.426591396331787,-102,9844.0
13140,0.40311020612716675,2.2594964504241943,45,5346.0,-2.560096263885498,-210,9844.0
13150,0.40312036871910095,1.507764220237732,77,5346.0,-6.926362991333008,-218,9844.0
13160,0.402776300907135,2.243468761444092,66,5346.0,-4.978547096252441,-96,9844.0
13170,0.40277594327926636,1.9818689823150635,74,5346.0,-4.72174596786499,-27,9844.0
13180,0.40419045090675354,1.1707209348678589,51,5346.0,-1.1860026121139526,117,9844.0
13190,0.4041881561279297,0.7226194143295288,23,5346.0,0.23352670669555664,162,9844.0
13200,0.4041096568107605,0.24998188018798828,-40,5346.0,2.9269492626190186,76,9844.0
13210,0.4041091203689575,-0.7878682613372803,-31,5346.0,2.9204394817352295,45,9844.0
13220,0.40518319606781006,0.2934240698814392,-18,5346.0,1.148922085762024,-4,9844.0
13230,0.4052075147628784,-1.3170909881591797,-3,5346.0,3.715634822845459,-41,9844.0
13240,0.4051806628704071,-2.6494481563568115,-36,5346.0,0.014333118684589863,-31,9844.0
13250,0.4051167666912079,-2.7127389907836914,1,5346.0,0.937716543674469,13,9844.0
13260,0.4050159752368927,-1.4499001502990723,9,5346.0,-0.3131718933582306,23,9844.0
13270,0.4049217104911804,0.9652751684188843,17,5346.0,-2.127760887145996,56,9844.0
13280,0.4047676920890808,1.2665737867355347,-3,5346.0,-0.9178032875061035,-29,9844.0
13290,0.40461090207099915,0.1819327473640442,-26,5346.0,-2.1303985118865967,-66,9844.0
13300,0.4044305682182312,-0.19839486479759216,-3,5346.0,-4.395395278930664,-178,9844.0
13310,0.40529125928878784,-1.1218918561935425,-21,5346.0,-0.7444808483123779,-118,9844.0
13320,0.405091792345047,-1.5556023120880127,-27,5346.0,-0.7558574080467224,-123,9844.0
13330,0.4048568904399872,-0.3391708433628082,69,5346.0,2.3631386756896973,-7,9844.0
13340,0.40461254119873047,3.360944986343384,66,5346.0,-3.5091559886932373,43,9844.0
13350,0.4043758809566498,-0.20896680653095245,45,5346.0,1.8658827543258667,89,9844.0
13360,0.40488454699516296,-0.7601155638694763,-10,5346.0,8.061258316040039,203,9844.0
13370,0.40468475222587585,-1.1207900047302246,-45,5346.0,5.317560195922852,230,9844.0
13380,0.404461532831192,-1.6390377283096313,23,5346.0,1.3846287727355957,33,9844.0
13390,0.40421968698501587,-2.2946696281433105,-9,5346.0,2.4922258853912354,-11,9844.0
13400,0.405521959066391,-2.691394567489624,-13,5346.0,0.5210810899734497,-97,9844.0
13410,0.4052620828151703,-1.947410225868225,7,5346.0,2.2272655963897705,-58,9844.0
13420,0.4049801528453827,-1.7444987297058105,8,5346.0,3.932410717010498,43,9844.0
13430,0.404705286026001,-0.29534009099006653,-36,5346.0,-0.1502595841884613,-2,9844.0
13440,0.4054014980792999,0.28551772236824036,-2,5346.0,1.231245994567871,135,9844.0
13450,0.40520089864730835,4.89351224899292,114,5346.0,-0.8395066857337952,-70,9844.0
13460,0.4050505459308624,3.465184211730957,60,5346.0,-2.8679161071777344,-39,9844.0
13470,0.40493670105934143,2.5530972480773926,21,5346.0,-0.4431246817111969,-1,9844.0
13480,0.40483593940734863,0.4637264609336853,17,5346.0,0.17019023001194,-109,9844.0
13490,0.4044581949710846,0.39671599864959717,8,5346.0,3.1103508472442627,-33,9844.0
13500,0.4043853282928467,0.458325058221817,37,5346.0,2.2438604831695557,-47,9844.0
13510,0.4043261706829071,-0.4039379954338074,-23,5346.0,4.108788013458252,131,9844.0
13520,0.40420711040496826,-0.2853972911834717,-14,5346.0,2.3512465953826904,126,9844.0
13530,0.40554994344711304,-1.5774906873703003,-39,5346.0,1.767465353012085,38,9844.0
13540,0.4054657220840454,-4.594297409057617,-47,5346.0,1.064638376235962,47,9844.0
13550,0.4053798317909241,-1.9769995212554932,-51,5346.0,1.8854937553405762,37,9844.0
13560,0.40527909994125366,1.2940397262573242,-6,5346.0,-4.23645544052124,-113,9844.0
13570,0.4051920175552368,1.6602245569229126,1,5346.0,-2.1878793239593506,-11,9844.0
13580,0.4062384068965912,-0.8361144065856934,16,5346.0,2.2031002044677734,-106,9844.0
13590,0.4061707854270935,-1.614713191986084,34,5346.0,4.290931701660156,-10,9844.0
13600,0.40608733892440796,0.9355334639549255,14,5346.0,-1.9553086757659912,97,9844.0
13610,0.40600091218948364,0.054290276020765305,26,5346.0,1.1588433980941772,87,9844.0
13620,0.40666669607162476,1.9861438274383545,4,5346.0,1.9022376537322998,144,9844.0
13630,0.4065403342247009,2.326768398284912,-1,5346.0,1.6631118059158325,120,9844.0
13640,0.4063800275325775,-1.0786274671554565,-54,5346.0,3.2040348052978516,17,9844.0
13650,0.4062139689922333,0.20285481214523315,-42,5346.0,0.045029837638139725,-19,9844.0
13660,0.40492790937423706,0.5936233997344971,-16,5346.0,-4.583658695220947,-183,9844.0
13670,0.4046892821788788,-2.4301652908325195,-20,5346.0,0.9299482107162476,-84,9844.0
13680,0.4044250547885895,-3.8763699531555176,-3,5346.0,0.1970384567975998,-8,9844.0
13690,0.40415579080581665,-3.9151782989501953,-48,5346.0,-1.7018468379974365,126,9844.0
13700,0.40386608242988586,-3.5079739093780518,-23,5346.0,0.51059889793396,65,9844.0
13710,0.4029523432254791,-2.0189082622528076,2,5346.0,2.117619514465332,75,9844.0
13720,0.4026333689689636,-1.6310745477676392,-28,5346.0,2.716041088104248,117,9844.0
13730,0.4023089110851288,0.135577991604805,4,5346.0,2.798539638519287,61,9844.0
13740,0.40198686718940735,3.0951406955718994,30,5346.0,0.32743412256240845,6,9844.0
13750,0.402556449174881,1.9477335214614868,15,5346.0,2.911525249481201,-67,9844.0
13760,0.4022899270057678,2.26621675491333,66,5346.0,2.8408005237579346,-6,9844.0
13770,0.40200576186180115,2.0729684829711914,34,5346.0,0.4476747214794159,7,9844.0
13780,0.40169471502304077,2.185410499572754,69,5346.0,-0.4472990036010742,64,9844.0
13790,0.40144702792167664,0.7064094543457031,10,5346.0,0.1752692013978958,77,9844.0
13800,0.4019029140472412,-0.10651181638240814,-27,5346.0,-0.6438684463500977,25,9844.0
13810,0.4016672670841217,-1.6946903467178345,-71,5346.0,1.0711324214935303,14,9844.0
13820,0.40142878890037537,-0.552278459072113,-40,5346.0,-4.326451301574707,-105,9844.0
13830,0.4012010097503662,-0.8106784224510193,-18,5346.0,-0.836011528968811,-163,9844.0
13840,0.40056750178337097,-1.3003289699554443,-23,5346.0,-0.3272315561771393,-120,9844.0
13850,0.4002426266670227,-1.5428273677825928,0,5346.0,-0.3584536910057068,-106,9844.0
13860,0.39987149834632874,-0.5728138089179993,43,5346.0,0.9878913164138794,-62,9844.0
13870,0.3994457721710205,-0.9641808867454529,27,5346.0,-0.7259291410446167,86,9844.0
13880,0.40089353919029236,-0.20501121878623962,-10,5346.0,4.105829238891602,239,9844.0
13890,0.40056556463241577,0.6635286808013916,18,5346.0,3.154155969619751,119,9844.0
13900,0.4002506136894226,1.3166486024856567,4,5346.0,3.5546979904174805,173,9844.0
13910,0.39994511008262634,1.7190955877304077,-39,5346.0,-0.70351243019104,111,9844.0
13920,0.399671733379364,-2.718613624572754,-64,5346.0,2.6376922130584717,57,9844.0
13930,0.4000244736671448,0.4580062925815582,-13,5346.0,-0.6440933346748352,-60,9844.0
13940,0.39975786209106445,-0.6943575739860535,-39,5346.0,-2.7570126056671143,-183,9844.0
13950,0.3995020091533661,0.38062676787376404,-38,5346.0,-0.8475145697593689,-118,9844.0
13960,0.3992479741573334,-1.6981083154678345,28,5346.0,-1.6512773036956787,-115,9844.0
13970,0.40014708042144775,0.5429297089576721,27,5346.0,-4.452480316162109,-35,9844.0
13980,0.39991495013237,1.2957468032836914,22,5346.0,1.1628615856170654,43,9844.0
13990,0.39965811371803284,1.092902421951294,64,5346.0,1.2096731662750244,147,9844.0
14000,0.39935287833213806,0.6770775318145752,85,5346.0,0.6621649265289307,80,9844.0
14010,0.3989940881729126,1.9851409196853638,12,5346.0,0.08426052331924438,89,9844.0
14020,0.398779958486557,1.9856667518615723,9,5346.0,-0.12082096189260483,140,9844.0
14030,0.39844271540641785,1.687774658203125,36,5346.0,2.3901233673095703,-27,9844.0
14040,0.39807865023612976,1.9188498258590698,28,5346.0,1.006675124168396,-88,9844.0
14050,0.3976776599884033,-0.177362322807312,-38,5346.0,1.0099865198135376,-84,9844.0
14060,0.39794033765792847,-1.525802493095398,-39,5346.0,5.437399864196777,13,9844.0
14070,0.3975190222263336,-2.587937831878662,-11,5346.0,1.614916205406189,42,9844.0
14080,0.39704403281211853,-1.028364896774292,4,5346.0,1.5251599550247192,51,9844.0
14090,0.396578848361969,0.32308003306388855,-12,5346.0,-3.8618011474609375,10,9844.0
14100,0.39795175194740295,-3.245856761932373,-30,5346.0,-1.1495697498321533,111,9844.0
14110,0.39759552478790283,-1.0052820444107056,-72,5346.0,-8.098730087280273,-123,9844.0
14120,0.3972443640232086,-1.547730803489685,-47,5346.0,-4.276955604553223,-90,9844.0
14130,0.3969177007675171,-1.9909701347351074,-21,5346.0,-1.8229881525039673,-169,9844.0
14140,0.39661481976509094,1.354358434677124,-5,5346.0,-0.08380676060914993,-3,9844.0
14150,0.39816755056381226,0.9714891314506531,11,5346.0,5.595130443572998,-2,9844.0
14160,0.3980034589767456,2.523026943206787,87,5346.0,2.4892539978027344,-36,9844.0
14170,0.39784136414527893,1.0994247198104858,49,5346.0,2.0497841835021973,85,9844.0
14180,0.397657185792923,2.0733253955841064,48,5346.0,0.9870007038116455,66,9844.0
14190,0.3984193205833435,2.3456764221191406,83,5346.0,2.0196502208709717,76,9844.0
14200,0.39822155237197876,5.2049455642700195,55,5346.0,-0.036567322909832,-15,9844.0
14210,0.3980182707309723,3.150031089782715,17,5346.0,1.8738903999328613,104,9844.0
14220,0.39780113101005554,2.0406434535980225,-16,5346.0,-0.32307007908821106,14,9844.0
14230,0.3975750207901001,-0.44957268238067627,-39,5346.0,4.084370136260986,-17,9844.0
