timestamp,kalman.stateZ,gyro.x,gyro.xRaw,gyro.xVariance,gyro.y,gyro.yRaw,gyro.yVariance
0,0.2756057679653168,-0.474811315536499,-10,5346.0,0.03129839524626732,4,9844.0
10,0.2756100594997406,-0.6914694905281067,-4,5346.0,-0.24635015428066254,-2,9844.0
20,0.27649950981140137,-0.7090181112289429,-13,5346.0,0.04474843665957451,-2,9844.0
30,0.27656131982803345,-0.9203006029129028,-9,5346.0,-0.35582271218299866,-7,9844.0
40,0.27667316794395447,-0.34926849603652954,-11,5346.0,0.06616666913032532,0,9844.0
50,0.2768153250217438,-0.677432656288147,-7,5346.0,-0.20152294635772705,-3,9844.0
60,0.27723798155784607,-0.0805155336856842,-2,5346.0,-0.04793072119355202,-4,9844.0
70,0.27734753489494324,0.09796123951673508,4,5346.0,-0.1837397962808609,-4,9844.0
80,0.2774454653263092,0.4901989698410034,5,5346.0,-0.46993935108184814,-13,9844.0
90,0.27754291892051697,0.429487019777298,3,5346.0,-0.462175190448761,-12,9844.0
100,0.27618876099586487,-0.08574117720127106,1,5346.0,-0.2971246838569641,-3,9844.0
110,0.2762432396411896,-0.41971367597579956,-3,5346.0,-0.14738337695598602,-6,9844.0
120,0.2762686610221863,0.0977010726928711,-1,5346.0,-0.23779059946537018,-4,9844.0
130,0.2763006389141083,0.2950288951396942,4,5346.0,-0.3200314939022064,-6,9844.0
140,0.27632319927215576,0.6388607025146484,9,5346.0,-0.37651363015174866,-5,9844.0
150,0.27655529975891113,0.594747006893158,10,5346.0,-0.582122266292572,-9,9844.0
160,0.2766014337539673,0.5000473260879517,10,5346.0,-0.6321340799331665,-16,9844.0
170,0.2766440808773041,0.6861944198608398,8,5346.0,-0.7173519730567932,-7,9844.0
180,0.27668386697769165,0.30477359890937805,5,5346.0,-0.6594926714897156,-9,9844.0
190,0.27600300312042236,-0.23876269161701202,-3,5346.0,-1.36813485622406,-31,9844.0
200,0.2760026752948761,-0.4371589124202728,2,5346.0,-5.109551906585693,-103,9844.0
210,0.27620524168014526,0.1970786154270172,19,5346.0,-12.124353408813477,-215,9844.0
220,0.2763875424861908,3.2191741466522217,76,5346.0,-25.903078079223633,-523,9844.0
230,0.27650535106658936,2.9332499504089355,97,5346.0,-41.321693420410156,-809,9844.0
240,0.2750001549720764,6.020709037780762,101,5346.0,-61.090633392333984,-1033,9844.0
250,0.2750290632247925,7.459890365600586,90,5346.0,-80.85075378417969,-1429,9844.0
260,0.275011271238327,2.5455613136291504,54,5346.0,-96.4275894165039,-1682,9844.0
270,0.2745094895362854,3.909449815750122,54,5346.0,-100.81743621826172,-1638,9844.0
280,0.2730717658996582,2.1958367824554443,-5,5346.0,-95.82122802734375,-1559,9844.0
290,0.2735307514667511,1.7766015529632568,-54,5346.0,-81.99917602539062,-1125,9844.0
300,0.2729491591453552,0.46561282873153687,-57,5346.0,-56.410274505615234,-886,9844.0
310,0.2726454734802246,0.08966317772865295,40,5346.0,-28.665996551513672,-347,9844.0
320,0.27257922291755676,1.496864914894104,8,5346.0,-4.171827793121338,119,9844.0
330,0.2731151878833771,1.9982978105545044,75,5346.0,16.201642990112305,280,9844.0
340,0.27342429757118225,3.378243923187256,64,5346.0,25.722402572631836,397,9844.0
350,0.27428576350212097,3.7195897102355957,162,5346.0,24.61043357849121,214,9844.0
360,0.27482569217681885,5.2401323318481445,85,5346.0,13.530557632446289,183,9844.0
370,0.27691003680229187,3.3716275691986084,102,5346.0,-2.3498222827911377,12,9844.0
380,0.2776031494140625,4.23676872253418,-114,5346.0,-19.125764846801758,-257,9844.0
390,0.2781369984149933,0.10635821521282196,-7,5346.0,-31.100128173828125,-513,9844.0
400,0.2780693769454956,-1.1362309455871582,-27,5346.0,-38.484886169433594,-737,9844.0
410,0.2816017270088196,-2.8589820861816406,-67,5346.0,-39.79348373413086,-754,9844.0
420,0.28211286664009094,0.7952461242675781,109,5346.0,-34.66353225708008,-610,9844.0
430,0.28274935483932495,-0.05231034383177757,150,5346.0,-26.040752410888672,-650,9844.0
440,0.2838306128978729,3.3564372062683105,78,5346.0,-10.861221313476562,-260,9844.0
450,0.2843516767024994,4.672616481781006,114,5346.0,0.7048202157020569,113,9844.0
460,0.28726789355278015,-1.0773810148239136,133,5346.0,20.768497467041016,297,9844.0
470,0.2883884608745575,-4.699314594268799,25,5346.0,32.743961334228516,389,9844.0
480,0.28953248262405396,-1.6458483934402466,-53,5346.0,39.861846923828125,699,9844.0
490,0.2896553575992584,-5.435967445373535,-72,5346.0,48.006019592285156,689,9844.0
500,0.29050785303115845,-4.9899091720581055,-8,5346.0,47.31061553955078,689,9844.0
510,0.29206299781799316,-2.6492316722869873,-150,5346.0,45.52912521362305,814,9844.0
520,0.293439120054245,-6.078438758850098,-43,5346.0,46.26762771606445,745,9844.0
530,0.2943824231624603,-5.429234504699707,-171,5346.0,38.40822982788086,659,9844.0
540,0.2971961498260498,-2.196817636489868,-171,5346.0,31.265506744384766,631,9844.0
550,0.2994650900363922,-2.878554105758667,-99,5346.0,28.32707405090332,535,9844.0
560,0.3017753064632416,-0.34957560896873474,-90,5346.0,22.71407127380371,306,9844.0
570,0.30413851141929626,2.4486610889434814,83,5346.0,19.44780921936035,219,9844.0
580,0.3063064217567444,4.834724426269531,183,5346.0,14.701861381530762,62,9844.0
590,0.306772381067276,7.480663299560547,166,5346.0,13.989423751831055,145,9844.0
600,0.30929216742515564,9.137126922607422,321,5346.0,12.675097465515137,-52,9844.0
610,0.31164029240608215,11.192466735839844,227,5346.0,5.620874404907227,34,9844.0
620,0.31397753953933716,11.180909156799316,311,5346.0,6.332269191741943,-32,9844.0
630,0.31373533606529236,10.560168266296387,183,5346.0,4.99381160736084,-29,9844.0
640,0.3159552812576294,11.314725875854492,278,5346.0,2.322610378265381,-20,9844.0
650,0.31795915961265564,9.847569465637207,176,5346.0,1.3401116132736206,-150,9844.0
660,0.320026695728302,7.908072471618652,97,5346.0,-0.3658062219619751,0,9844.0
670,0.321950227022171,5.0760602951049805,131,5346.0,-0.4076118767261505,-65,9844.0
680,0.32072046399116516,2.680854558944702,-23,5346.0,1.0178033113479614,16,9844.0
690,0.3220733106136322,2.78300404548645,70,5346.0,3.404587507247925,83,9844.0
700,0.3231154978275299,0.972824215888977,3,5346.0,2.3808200359344482,120,9844.0
710,0.32394662499427795,1.7138229608535767,-45,5346.0,2.997073173522949,203,9844.0
720,0.3222195506095886,2.9903366565704346,34,5346.0,1.9620884656906128,6,9844.0
730,0.32260018587112427,2.3374550342559814,16,5346.0,0.8303297162055969,186,9844.0
740,0.32275837659835815,3.7428336143493652,23,5346.0,-1.1412333250045776,57,9844.0
750,0.32281988859176636,4.138974189758301,4,5346.0,-5.702770233154297,-39,9844.0
760,0.3215337097644806,4.989747524261475,89,5346.0,-8.041362762451172,-84,9844.0
770,0.3212505877017975,5.834330081939697,33,5346.0,-12.525652885437012,-253,9844.0
780,0.3207666277885437,2.223133087158203,-14,5346.0,-14.49687385559082,-199,9844.0
790,0.3202679455280304,-1.3064824342727661,-18,5346.0,-18.222332000732422,-374,9844.0
800,0.31967616081237793,-1.8115168809890747,-161,5346.0,-25.4783992767334,-288,9844.0
810,0.32020267844200134,-9.506003379821777,-60,5346.0,-18.47246742248535,-267,9844.0
820,0.3194255530834198,-12.004305839538574,-197,5346.0,-20.5033016204834,-324,9844.0
830,0.31857213377952576,-10.870386123657227,-271,5346.0,-18.62334632873535,-191,9844.0
840,0.31768518686294556,-12.030027389526367,-178,5346.0,-20.426782608032227,-252,9844.0
850,0.31640350818634033,-10.065503120422363,-256,5346.0,-23.972820281982422,-343,9844.0
860,0.3155750334262848,-10.245187759399414,-276,5346.0,-22.663265228271484,-372,9844.0
870,0.31466302275657654,-8.967971801757812,-156,5346.0,-19.241924285888672,-185,9844.0
880,0.3140040338039398,-4.9141364097595215,-61,5346.0,-19.62166976928711,-318,9844.0
890,0.31324502825737,-8.938889503479004,-129,5346.0,-17.220529556274414,-452,9844.0
900,0.31316542625427246,-10.002734184265137,-57,5346.0,-20.84459686279297,-359,9844.0
910,0.3124006986618042,-5.751258373260498,72,5346.0,-17.44617462158203,-391,9844.0
920,0.311553418636322,-6.350505352020264,-79,5346.0,-17.836572647094727,-265,9844.0
930,0.3106915056705475,-2.264468193054199,-148,5346.0,-18.14612579345703,-244,9844.0
940,0.3098350763320923,2.045923948287964,-89,5346.0,-21.463760375976562,-241,9844.0
950,0.30925601720809937,2.8808765411376953,93,5346.0,-21.47613525390625,-396,9844.0
960,0.30859261751174927,6.705007553100586,176,5346.0,-17.23960304260254,-374,9844.0
970,0.3080078065395355,9.238875389099121,186,5346.0,-17.389339447021484,-282,9844.0
980,0.3072808086872101,7.148420333862305,99,5346.0,-15.742667198181152,-191,9844.0
990,0.30689576268196106,7.9596476554870605,47,5346.0,-15.320006370544434,-4,9844.0
1000,0.30662646889686584,4.465880393981934,33,5346.0,-14.507580757141113,-66,9844.0
1010,0.3063708245754242,1.2614471912384033,9,5346.0,-10.812453269958496,-179,9844.0
1020,0.3061000108718872,0.85364830493927,28,5346.0,-10.17829704284668,-388,9844.0
1030,0.30504345893859863,-1.412718415260315,-18,5346.0,-8.308113098144531,-149,9844.0
1040,0.30513322353363037,-2.7781646251678467,-32,5346.0,-6.634458065032959,-70,9844.0
1050,0.3049764931201935,-1.9714080095291138,74,5346.0,-5.591768741607666,147,9844.0
1060,0.30497485399246216,-0.2586464285850525,-34,5346.0,-5.681519985198975,7,9844.0
1070,0.30507463216781616,1.23093843460083,-38,5346.0,-1.772242784500122,47,9844.0
1080,0.3051883578300476,7.95603084564209,6,5346.0,-1.385221242904663,135,9844.0
1090,0.3054302930831909,5.116228103637695,73,5346.0,5.998160362243652,8,9844.0
1100,0.30571234226226807,3.047154426574707,123,5346.0,12.1513032913208,257,9844.0
1110,0.30583348870277405,4.075592041015625,204,5346.0,13.587709426879883,40,9844.0
1120,0.30588796734809875,2.950345754623413,1,5346.0,10.152061462402344,276,9844.0
1130,0.3060682415962219,2.4198246002197266,-89,5346.0,8.095487594604492,234,9844.0
1140,0.30629873275756836,0.1629781275987625,-125,5346.0,11.447125434875488,321,9844.0
1150,0.30684974789619446,-2.8415489196777344,-97,5346.0,10.500191688537598,202,9844.0
1160,0.30841273069381714,-4.9058146476745605,-92,5346.0,11.576168060302734,114,9844.0
1170,0.30891501903533936,-7.822906017303467,-30,5346.0,11.767900466918945,24,9844.0
1180,0.30939826369285583,-7.4876580238342285,-13,5346.0,9.473201751708984,129,9844.0
1190,0.30995431542396545,-3.911550998687744,-143,5346.0,10.878876686096191,132,9844.0
1200,0.3103710412979126,-4.803442478179932,-112,5346.0,9.642480850219727,397,9844.0
1210,0.311079204082489,-3.412994861602783,-93,5346.0,9.774477005004883,210,9844.0
1220,0.31182828545570374,-5.137472629547119,-39,5346.0,9.265974044799805,83,9844.0
1230,0.3126178979873657,-4.692743301391602,-19,5346.0,7.448908805847168,-39,9844.0
1240,0.31349653005599976,-2.441087007522583,-116,5346.0,12.074749946594238,217,9844.0
1250,0.31582754850387573,3.143644094467163,41,5346.0,8.599772453308105,253,9844.0
1260,0.31682783365249634,4.4461774826049805,112,5346.0,11.105637550354004,275,9844.0
1270,0.317874938249588,7.157607555389404,116,5346.0,11.435076713562012,218,9844.0
1280,0.3189874589443207,7.121011257171631,76,5346.0,14.173824310302734,1,9844.0
1290,0.3200177550315857,6.857681751251221,87,5346.0,13.014381408691406,74,9844.0
1300,0.32097283005714417,7.465035915374756,122,5346.0,9.937386512756348,219,9844.0
1310,0.32190215587615967,4.210923671722412,149,5346.0,10.223663330078125,106,9844.0
1320,0.322784960269928,-0.4182211756706238,49,5346.0,10.742670059204102,73,9844.0
1330,0.3221941888332367,-3.7462198734283447,-123,5346.0,9.075288772583008,130,9844.0
1340,0.3227747082710266,-0.6334291696548462,-55,5346.0,4.391804218292236,204,9844.0
1350,0.3233945369720459,1.1052268743515015,-46,5346.0,3.134265661239624,174,9844.0
1360,0.32405272126197815,2.5700204372406006,-27,5346.0,-0.10472917556762695,76,9844.0
1370,0.3246343433856964,3.5131726264953613,-51,5346.0,-1.9894492626190186,-60,9844.0
1380,0.3249627649784088,2.790945529937744,-31,5346.0,0.7597411870956421,205,9844.0
1390,0.3255171477794647,2.5149943828582764,105,5346.0,3.154635190963745,-27,9844.0
1400,0.32603490352630615,3.083726406097412,94,5346.0,1.9626213312149048,-20,9844.0
1410,0.32647275924682617,0.6333336234092712,-55,5346.0,4.812147617340088,50,9844.0
1420,0.32571128010749817,2.7232449054718018,110,5346.0,3.526176691055298,0,9844.0
1430,0.3260139524936676,2.890674114227295,111,5346.0,-0.5494732856750488,-141,9844.0
1440,0.3262641727924347,-2.5464088916778564,-32,5346.0,5.303220272064209,-45,9844.0
1450,0.32651281356811523,-0.9146212339401245,92,5346.0,3.6235575675964355,21,9844.0
1460,0.3266884684562683,-3.7522366046905518,-3,5346.0,1.323522686958313,-149,9844.0
1470,0.3245300054550171,-6.072788238525391,-146,5346.0,0.9342609643936157,-108,9844.0
1480,0.3245304524898529,-7.839524745941162,-58,5346.0,-3.4315297603607178,-179,9844.0
1490,0.3244713842868805,-11.089273452758789,-27,5346.0,-1.4140172004699707,-273,9844.0
1500,0.32432907819747925,-7.514401912689209,-82,5346.0,-6.423067092895508,-139,9844.0
1510,0.32330095767974854,-5.996638774871826,27,5346.0,-0.9608128666877747,-53,9844.0
1520,0.32311052083969116,-2.5529420375823975,36,5346.0,-2.211408853530884,-35,9844.0
1530,0.3230094015598297,0.5383247137069702,-148,5346.0,-6.816280841827393,-102,9844.0
1540,0.32293441891670227,-0.6123635768890381,-13,5346.0,-7.785434722900391,117,9844.0
1550,0.32176023721694946,1.8526166677474976,-64,5346.0,-10.148055076599121,-33,9844.0
1560,0.3216210901737213,4.182281494140625,-39,5346.0,-10.457140922546387,-50,9844.0
1570,0.3214474022388458,3.4484901428222656,-31,5346.0,-8.353330612182617,-92,9844.0
1580,0.3211866319179535,1.438478708267212,133,5346.0,-7.853049278259277,-239,9844.0
1590,0.3208135664463043,-1.0256351232528687,43,5346.0,-6.853940486907959,-372,9844.0
1600,0.3192998468875885,0.6385900378227234,72,5346.0,-11.494876861572266,-326,9844.0
1610,0.3188125789165497,2.9992401599884033,47,5346.0,-15.160245895385742,-223,9844.0
1620,0.31827303767204285,0.370925635099411,100,5346.0,-8.657224655151367,-57,9844.0
1630,0.31784406304359436,-0.6463220119476318,-62,5346.0,-6.765623569488525,24,9844.0
1640,0.3169573247432709,0.810827910900116,-143,5346.0,-5.400845527648926,-69,9844.0
1650,0.31659361720085144,1.1294219493865967,-16,5346.0,-0.6393190622329712,25,9844.0
1660,0.31626296043395996,1.7925782203674316,-8,5346.0,-1.8949720859527588,-174,9844.0
1670,0.3159773647785187,4.073977470397949,180,5346.0,-7.433614730834961,-168,9844.0
1680,0.3157045543193817,3.7159295082092285,157,5346.0,-6.6730170249938965,-303,9844.0
1690,0.313548743724823,2.102022409439087,55,5346.0,-3.848066806793213,-110,9844.0
1700,0.3132455050945282,-0.4044273793697357,-48,5346.0,-6.474930763244629,-110,9844.0
1710,0.31308403611183167,0.7248802781105042,-51,5346.0,-6.816842555999756,68,9844.0
1720,0.31285473704338074,1.914795994758606,-16,5346.0,-9.48183822631836,31,9844.0
1730,0.31146904826164246,0.04162230342626572,-1,5346.0,-9.166790962219238,-189,9844.0
1740,0.3111417889595032,-1.48493492603302,11,5346.0,-2.9218382835388184,-182,9844.0
1750,0.3109130859375,-4.524848937988281,2,5346.0,-3.326679229736328,-125,9844.0
1760,0.31076115369796753,-4.742257118225098,-46,5346.0,-1.6622576713562012,100,9844.0
1770,0.31117600202560425,-3.057443618774414,-101,5346.0,3.6318821907043457,186,9844.0
1780,0.3111878037452698,-3.201343536376953,-61,5346.0,3.1705665588378906,292,9844.0
1790,0.31133797764778137,-2.8327815532684326,-75,5346.0,3.65132212638855,104,9844.0
1800,0.31159356236457825,-2.263607978820801,15,5346.0,3.549578905105591,-65,9844.0
1810,0.31181517243385315,-5.1553144454956055,23,5346.0,2.2226243019104004,-147,9844.0
1820,0.31291183829307556,-1.4173649549484253,-55,5346.0,3.504913806915283,90,9844.0
1830,0.31333041191101074,0.9406625032424927,-55,5346.0,3.4666385650634766,222,9844.0
1840,0.3139134645462036,-0.9096661806106567,-74,5346.0,6.769850730895996,189,9844.0
1850,0.31450456380844116,1.2416515350341797,14,5346.0,5.252645015716553,37,9844.0
1860,0.3138054311275482,1.351534366607666,100,5346.0,8.112689971923828,-130,9844.0
1870,0.314340740442276,1.2850173711776733,98,5346.0,4.676803112030029,-42,9844.0
1880,0.3148874044418335,0.8915531039237976,20,5346.0,7.163744926452637,188,9844.0
1890,0.31550297141075134,3.2196173667907715,-15,5346.0,6.303805828094482,227,9844.0
1900,0.3156387209892273,1.7684621810913086,-13,5346.0,5.961019992828369,310,9844.0
1910,0.3161546587944031,0.9606037139892578,-79,5346.0,10.155163764953613,218,9844.0
1920,0.3167228698730469,0.9426959753036499,-56,5346.0,8.800644874572754,146,9844.0
1930,0.31726551055908203,-0.18865063786506653,-7,5346.0,7.138526439666748,-3,9844.0
1940,0.3176742196083069,-1.4942947626113892,64,5346.0,8.587821006774902,54,9844.0
1950,0.3177006244659424,-2.14237642288208,104,5346.0,3.2267534732818604,-65,9844.0
1960,0.31801462173461914,-1.9093515872955322,59,5346.0,1.8441942930221558,42,9844.0
1970,0.3183898627758026,-0.07097117602825165,-4,5346.0,3.4236974716186523,139,9844.0
1980,0.318818062543869,1.658036708831787,19,5346.0,4.070265293121338,228,9844.0
1990,0.3191223442554474,4.959336757659912,-25,5346.0,3.7539584636688232,123,9844.0
2000,0.31942757964134216,6.689448833465576,10,5346.0,0.2597409188747406,29,9844.0
2010,0.3196699321269989,4.830053806304932,30,5346.0,5.248666286468506,138,9844.0
2020,0.31987401843070984,7.2317795753479,80,5346.0,6.359431743621826,132,9844.0
2030,0.32011178135871887,3.7802085876464844,165,5346.0,4.306294918060303,42,9844.0
2040,0.3198540210723877,1.2407742738723755,7,5346.0,7.486895561218262,-49,9844.0
2050,0.3200075626373291,0.9540244340896606,94,5346.0,7.366917133331299,47,9844.0
2060,0.3201054632663727,-1.5398343801498413,93,5346.0,4.714143753051758,90,9844.0
2070,0.3201763927936554,-2.398193120956421,104,5346.0,10.25341796875,-123,9844.0
2080,0.3192773163318634,-2.276984214782715,-138,5346.0,6.965649127960205,122,9844.0
2090,0.31924140453338623,-4.198659420013428,-89,5346.0,2.21372127532959,110,9844.0
2100,0.31913676857948303,-3.8687214851379395,7,5346.0,6.2574076652526855,-57,9844.0
2110,0.3189249336719513,-4.9744873046875,-116,5346.0,0.6851177215576172,57,9844.0
2120,0.31868961453437805,-3.477973461151123,-3,5346.0,-0.4199504256248474,21,9844.0
2130,0.31900444626808167,-3.738640785217285,-145,5346.0,-3.158205986022949,110,9844.0
2140,0.3187721371650696,-0.20339038968086243,-201,5346.0,-2.910675525665283,92,9844.0
2150,0.31844961643218994,0.6092913746833801,-42,5346.0,-5.175900936126709,51,9844.0
2160,0.31808462738990784,1.2890900373458862,51,5346.0,-4.5528154373168945,-46,9844.0
2170,0.3176480531692505,2.2888576984405518,42,5346.0,-3.5847198963165283,-227,9844.0
2180,0.3172091841697693,-0.9803007245063782,-33,5346.0,-1.6032958030700684,-169,9844.0
2190,0.31687983870506287,-0.5928131341934204,70,5346.0,-0.9016391634941101,-144,9844.0
2200,0.3166159987449646,0.967688798904419,147,5346.0,-1.7425605058670044,-126,9844.0
2210,0.315392404794693,2.5265798568725586,39,5346.0,-3.6481716632843018,-99,9844.0
2220,0.31503376364707947,4.887012481689453,19,5346.0,-9.013072967529297,-14,9844.0
2230,0.3146640360355377,3.620032787322998,-3,5346.0,-8.491960525512695,-5,9844.0
2240,0.3142463266849518,-0.9525501132011414,-88,5346.0,-3.7844467163085938,38,9844.0
2250,0.3137764036655426,-0.7437314391136169,-79,5346.0,4.4857707023620605,-40,9844.0
2260,0.3158450424671173,-4.743383884429932,-103,5346.0,-2.4657320976257324,-247,9844.0
2270,0.3156457543373108,-3.237748384475708,48,5346.0,-7.293326377868652,-192,9844.0
2280,0.3154229521751404,-3.108046770095825,103,5346.0,-9.136946678161621,-250,9844.0
2290,0.31523773074150085,-4.345056056976318,93,5346.0,-8.160560607910156,-118,9844.0
2300,0.3151070773601532,0.8908131122589111,-60,5346.0,-10.406415939331055,-25,9844.0
2310,0.3150748312473297,1.639052152633667,-66,5346.0,-10.891082763671875,15,9844.0
2320,0.3149660527706146,3.097836971282959,-54,5346.0,-6.213065147399902,17,9844.0
2330,0.31484463810920715,1.5533653497695923,81,5346.0,-4.295438289642334,-63,9844.0
2340,0.31496497988700867,-0.5644846558570862,25,5346.0,1.1804500818252563,-92,9844.0
2350,0.31501519680023193,0.3989766836166382,128,5346.0,3.098604202270508,-161,9844.0
2360,0.3149679899215698,0.142645001411438,-34,5346.0,2.3357670307159424,13,9844.0
2370,0.31489297747612,1.7533234357833862,21,5346.0,2.822131633758545,117,9844.0
2380,0.3148786723613739,-1.5267235040664673,-67,5346.0,0.06207989156246185,236,9844.0
2390,0.314116507768631,-1.477522611618042,-73,5346.0,6.718517303466797,180,9844.0
2400,0.31400272250175476,-2.067803382873535,-153,5346.0,1.1059212684631348,117,9844.0
2410,0.3138825595378876,-4.01369571685791,-108,5346.0,7.669084548950195,42,9844.0
2420,0.3137948513031006,-3.8652184009552,-18,5346.0,0.9410690665245056,-51,9844.0
2430,0.313392698764801,-1.630176305770874,75,5346.0,-2.641859292984009,-129,9844.0
2440,0.3132743835449219,-2.042336940765381,161,5346.0,-3.9891650676727295,-73,9844.0
2450,0.3132942318916321,-1.8628053665161133,-25,5346.0,0.058264076709747314,-58,9844.0
2460,0.31338512897491455,0.17909972369670868,-91,5346.0,-5.025107383728027,38,9844.0
2470,0.31344908475875854,2.668076276779175,-4,5346.0,-5.796911239624023,28,9844.0
2480,0.31410953402519226,2.86985445022583,82,5346.0,-0.05982699990272522,73,9844.0
2490,0.3142174482345581,5.642409324645996,151,5346.0,-1.7207298278808594,-114,9844.0
2500,0.31441423296928406,3.575507164001465,137,5346.0,6.441837310791016,-86,9844.0
2510,0.31456807255744934,2.244527578353882,68,5346.0,6.1799468994140625,-20,9844.0
2520,0.31556472182273865,2.790257453918457,42,5346.0,3.3954050540924072,180,9844.0
2530,0.31568050384521484,0.08872014284133911,23,5346.0,5.910783290863037,191,9844.0
2540,0.315902978181839,-1.4849497079849243,-37,5346.0,5.45978307723999,202,9844.0
2550,0.31589275598526,-3.5486350059509277,-154,5346.0,8.446083068847656,136,9844.0
2560,0.31594088673591614,0.37402552366256714,-112,5346.0,5.3135504722595215,135,9844.0
2570,0.3159615099430084,-1.0163310766220093,-26,5346.0,0.9077790975570679,-61,9844.0
2580,0.3159407377243042,1.1553635597229004,119,5346.0,3.6112608909606934,15,9844.0
2590,0.3158860504627228,1.308248519897461,107,5346.0,2.0213682651519775,-129,9844.0
2600,0.31590384244918823,0.10661351680755615,72,5346.0,1.709549069404602,-21,9844.0
2610,0.3177105486392975,3.8135058879852295,8,5346.0,-1.112123966217041,59,9844.0
2620,0.3179160952568054,-0.4107944667339325,9,5346.0,-1.8090744018554688,171,9844.0
2630,0.318084180355072,1.6369600296020508,-85,5346.0,0.8319565057754517,142,9844.0
2640,0.3182245194911957,-1.0109635591506958,-86,5346.0,-0.45204803347587585,27,9844.0
2650,0.31905701756477356,-2.548614025115967,-161,5346.0,1.8862388134002686,3,9844.0
2660,0.31907185912132263,-2.0016613006591797,-56,5346.0,0.40430110692977905,14,9844.0
2670,0.3190370202064514,-1.3402308225631714,84,5346.0,-2.6050198078155518,-129,9844.0
2680,0.3190392553806305,-0.8936121463775635,87,5346.0,-1.8202793598175049,-125,9844.0
2690,0.3190332353115082,-2.9094884395599365,-12,5346.0,4.417044162750244,-39,9844.0
2700,0.3189903199672699,-0.6384015083312988,-9,5346.0,7.726486682891846,144,9844.0
2710,0.31900328397750854,-3.4728329181671143,99,5346.0,6.481307029724121,125,9844.0
2720,0.31897783279418945,-2.1279819011688232,-51,5346.0,2.2989871501922607,123,9844.0
2730,0.31888487935066223,1.1136384010314941,-130,5346.0,3.436469316482544,118,9844.0
2740,0.3184412717819214,-2.240039587020874,-118,5346.0,3.2483432292938232,223,9844.0
2750,0.31825631856918335,0.5615161657333374,-59,5346.0,-0.30078747868537903,137,9844.0
2760,0.3179152011871338,2.796415328979492,-91,5346.0,-2.8330135345458984,32,9844.0
2770,0.3175523281097412,1.5225598812103271,-72,5346.0,3.684990882873535,164,9844.0
2780,0.31722167134284973,0.4955458641052246,84,5346.0,3.8533437252044678,44,9844.0
2790,0.31604528427124023,0.7360841035842896,24,5346.0,1.0020586252212524,-174,9844.0
2800,0.31579315662384033,0.09694459289312363,40,5346.0,-2.0388567447662354,-143,9844.0
2810,0.3156690001487732,2.3594119548797607,52,5346.0,-1.6107804775238037,-69,9844.0
2820,0.31549355387687683,-0.5959310531616211,137,5346.0,-6.700504779815674,-94,9844.0
2830,0.3166094124317169,1.496802806854248,3,5346.0,-4.5148444175720215,15,9844.0
2840,0.3163129985332489,1.8716866970062256,-103,5346.0,-5.684187412261963,-21,9844.0
2850,0.3160359561443329,0.45355042815208435,-7,5346.0,-3.0733375549316406,87,9844.0
2860,0.3157707154750824,0.7419413328170776,-18,5346.0,-2.8245129585266113,57,9844.0
2870,0.3163502514362335,2.3042798042297363,5,5346.0,-1.2747423648834229,-53,9844.0
2880,0.316154420375824,0.9202887415885925,-53,5346.0,1.723741054534912,-113,9844.0
2890,0.3160286843776703,-0.19663524627685547,11,5346.0,0.6583850979804993,-127,9844.0
2900,0.31590187549591064,2.2717981338500977,92,5346.0,-2.2393853664398193,-42,9844.0
2910,0.3157977759838104,-0.16293881833553314,111,5346.0,1.6300318241119385,-1,9844.0
2920,0.31659820675849915,-3.2807209491729736,43,5346.0,-1.0814961194992065,-45,9844.0
2930,0.3164691627025604,-0.6684287190437317,-102,5346.0,0.23321470618247986,-35,9844.0
2940,0.3162776827812195,-2.2140085697174072,-65,5346.0,-3.1869099140167236,140,9844.0
2950,0.3161565959453583,-2.411693572998047,-37,5346.0,-1.195473551750183,66,9844.0
2960,0.3168199956417084,0.2381380945444107,-33,5346.0,-7.712613105773926,-40,9844.0
2970,0.316734254360199,-0.9705155491828918,-48,5346.0,-4.065598487854004,-233,9844.0
2980,0.31662189960479736,-3.3811984062194824,-55,5346.0,3.651369571685791,-138,9844.0
2990,0.316579133272171,-0.9334332942962646,38,5346.0,-3.6678247451782227,11,9844.0
3000,0.31630778312683105,0.15131129324436188,182,5346.0,-1.0438259840011597,-99,9844.0
3010,0.31619900465011597,-1.3117804527282715,67,5346.0,1.9119951725006104,-112,9844.0
3020,0.31615039706230164,2.020085334777832,-25,5346.0,3.1441829204559326,-9,9844.0
3030,0.31618550419807434,2.7657341957092285,-84,5346.0,2.8639702796936035,269,9844.0
3040,0.31616804003715515,3.1332600116729736,33,5346.0,2.219852924346924,63,9844.0
3050,0.3153045177459717,1.4063282012939453,-41,5346.0,2.4209818840026855,103,9844.0
3060,0.31543776392936707,-0.013914470560848713,-36,5346.0,-0.1381695717573166,-181,9844.0
3070,0.3155860900878906,-1.7411996126174927,-48,5346.0,4.053958892822266,-75,9844.0
3080,0.3156556487083435,-0.8897179365158081,53,5346.0,-3.2430450916290283,-156,9844.0
3090,0.3171141445636749,0.4779430031776428,136,5346.0,-5.648105144500732,-150,9844.0
3100,0.31736883521080017,-1.2969473600387573,85,5346.0,-2.2391693592071533,-255,9844.0
3110,0.3175652325153351,0.06354084610939026,-20,5346.0,-4.028806209564209,13,9844.0
3120,0.3177327811717987,0.8851079344749451,-75,5346.0,1.8674501180648804,196,9844.0
3130,0.318013995885849,0.15623752772808075,4,5346.0,0.16193339228630066,215,9844.0
3140,0.31830909848213196,-0.4387224614620209,-134,5346.0,3.996220588684082,181,9844.0
3150,0.31859108805656433,-3.364023208618164,-127,5346.0,4.555028915405273,64,9844.0
3160,0.31893953680992126,-2.5978844165802,-145,5346.0,5.0565643310546875,163,9844.0
3170,0.3193434476852417,-1.2049627304077148,-25,5346.0,5.723782062530518,8,9844.0
3180,0.3192126452922821,-0.21393463015556335,89,5346.0,5.016336441040039,-89,9844.0
3190,0.31949689984321594,-0.8580437302589417,91,5346.0,4.156172275543213,-142,9844.0
3200,0.31969255208969116,-0.1932157725095749,57,5346.0,1.0366747379302979,-110,9844.0
3210,0.31983205676078796,2.532417058944702,106,5346.0,4.9696149826049805,57,9844.0
3220,0.31799760460853577,1.186322569847107,148,5346.0,0.7636480927467346,-45,9844.0
3230,0.31783369183540344,1.1929343938827515,32,5346.0,0.10365830361843109,57,9844.0
3240,0.31769582629203796,1.955585241317749,-129,5346.0,-1.7172884941101074,80,9844.0
3250,0.317521333694458,-0.8603500127792358,-1,5346.0,-6.218930721282959,158,9844.0
3260,0.3172991871833801,1.5019985437393188,-92,5346.0,-2.9276227951049805,80,9844.0
3270,0.31708604097366333,1.18659508228302,-82,5346.0,-0.879397451877594,-83,9844.0
3280,0.31689396500587463,-2.1366827487945557,-137,5346.0,2.5166895389556885,90,9844.0
3290,0.3166739046573639,-0.836125910282135,-13,5346.0,-1.6107332706451416,-59,9844.0
3300,0.31655818223953247,0.9976403713226318,51,5346.0,3.428178071975708,-51,9844.0
3310,0.3163164556026459,0.03963587433099747,65,5346.0,0.11951261013746262,-137,9844.0
3320,0.31630975008010864,-3.693636894226074,49,5346.0,1.6548675298690796,-51,9844.0
3330,0.3163955807685852,-0.09368284046649933,48,5346.0,0.7191733717918396,86,9844.0
3340,0.3165369927883148,-0.4487695097923279,61,5346.0,1.366921067237854,80,9844.0
3350,0.3166094422340393,0.33296287059783936,-44,5346.0,1.4362633228302002,15,9844.0
3360,0.31596046686172485,1.0768697261810303,-90,5346.0,-4.155666828155518,66,9844.0
3370,0.31588873267173767,-1.8172032833099365,-60,5346.0,-1.3754990100860596,59,9844.0
3380,0.3157212436199188,-0.9319761395454407,-78,5346.0,1.1633856296539307,104,9844.0
3390,0.31552863121032715,1.0380985736846924,-103,5346.0,-1.0461145639419556,-95,9844.0
3400,0.31562313437461853,-1.3998140096664429,-101,5346.0,-4.92030143737793,-110,9844.0
3410,0.3155573606491089,-0.9693747162818909,-1,5346.0,-4.011229038238525,-210,9844.0
3420,0.3155583143234253,3.209440231323242,184,5346.0,-4.1805219650268555,-102,9844.0
3430,0.31568998098373413,1.4814659357070923,-18,5346.0,-1.9803780317306519,-171,9844.0
3440,0.31556880474090576,0.9897822141647339,55,5346.0,-2.5198304653167725,30,9844.0
3450,0.3157323896884918,1.3053359985351562,136,5346.0,3.7302095890045166,3,9844.0
3460,0.3159179091453552,-3.3991763591766357,84,5346.0,3.21138072013855,-66,9844.0
3470,0.316118061542511,-1.8477838039398193,-99,5346.0,4.301652908325195,106,9844.0
3480,0.3162406384944916,-0.9936266541481018,-8,5346.0,3.1704416275024414,141,9844.0
3490,0.31503549218177795,-0.4449974298477173,26,5346.0,0.6952601075172424,49,9844.0
3500,0.31512320041656494,0.18337394297122955,-83,5346.0,0.9859195351600647,44,9844.0
3510,0.3152410387992859,1.542536973953247,-105,5346.0,-5.673337936401367,14,9844.0
3520,0.31533282995224,1.6754151582717896,-25,5346.0,-3.6511805057525635,109,9844.0
3530,0.31418317556381226,1.8314933776855469,31,5346.0,0.5023044943809509,-32,9844.0
3540,0.3143397569656372,1.911137580871582,44,5346.0,-3.5871098041534424,-210,9844.0
3550,0.3144807815551758,-0.5333758592605591,-60,5346.0,-1.3192973136901855,-76,9844.0
3560,0.3146396279335022,0.4196451008319855,115,5346.0,-2.255558967590332,-77,9844.0
3570,0.314781129360199,1.9132879972457886,83,5346.0,-2.104266881942749,-154,9844.0
3580,0.3153190612792969,-0.6912475228309631,34,5346.0,-2.7727272510528564,-116,9844.0
3590,0.315440833568573,1.000312328338623,-42,5346.0,-1.9440028667449951,52,9844.0
3600,0.31562209129333496,-0.029012981802225113,78,5346.0,1.2158745527267456,41,9844.0
3610,0.31578540802001953,0.9627392292022705,12,5346.0,-2.9359755516052246,13,9844.0
3620,0.31442952156066895,0.025801852345466614,-154,5346.0,5.418757438659668,97,9844.0
3630,0.31461432576179504,-1.9306379556655884,-120,5346.0,6.8961663246154785,340,9844.0
3640,0.3147561848163605,-0.27340883016586304,-52,5346.0,4.009011745452881,158,9844.0
3650,0.31487855315208435,1.339440107345581,-28,5346.0,-3.3459396362304688,20,9844.0
3660,0.31468310952186584,0.37472057342529297,-66,5346.0,0.8734327554702759,-108,9844.0
3670,0.31495940685272217,-1.7524584531784058,-74,5346.0,3.3424336910247803,11,9844.0
3680,0.31517723202705383,-1.725525140762329,50,5346.0,1.4573655128479004,-94,9844.0
3690,0.3153473138809204,-1.943434715270996,99,5346.0,-0.3075736463069916,-147,9844.0
3700,0.31547558307647705,-0.949040949344635,28,5346.0,0.6360777616500854,-36,9844.0
3710,0.3152993619441986,1.7625735998153687,30,5346.0,3.027388572692871,102,9844.0
3720,0.31525206565856934,1.0054069757461548,133,5346.0,2.941014051437378,62,9844.0
3730,0.31521424651145935,0.7453688979148865,-8,5346.0,2.0669960975646973,155,9844.0
3740,0.31510254740715027,1.4053407907485962,-105,5346.0,2.6573503017425537,77,9844.0
3750,0.3138877749443054,0.7700468897819519,-110,5346.0,-6.047934532165527,130,9844.0
3760,0.31380724906921387,-0.6463763117790222,-59,5346.0,0.9748047590255737,102,9844.0
3770,0.31374627351760864,1.8583102226257324,-12,5346.0,2.0393176078796387,21,9844.0
3780,0.3137575387954712,0.4307320713996887,-61,5346.0,2.322838306427002,-95,9844.0
3790,0.3138422667980194,-2.093391180038452,33,5346.0,0.5473211407661438,-95,9844.0
3800,0.31194213032722473,1.6911647319793701,127,5346.0,-2.108724594116211,-147,9844.0
3810,0.3117968738079071,-0.8702787160873413,127,5346.0,-0.5591912269592285,-82,9844.0
3820,0.3116471469402313,-0.9872092008590698,30,5346.0,-2.3323447704315186,-92,9844.0
3830,0.3114290237426758,-0.7093473672866821,-41,5346.0,-2.830965518951416,70,9844.0
3840,0.31227025389671326,0.703964114189148,78,5346.0,-1.2234495878219604,39,9844.0
3850,0.3119923770427704,1.3352832794189453,-52,5346.0,0.22376875579357147,194,9844.0
3860,0.3117451071739197,3.716015100479126,-129,5346.0,2.7662580013275146,119,9844.0
3870,0.3114921748638153,0.8278478980064392,-35,5346.0,4.388385772705078,256,9844.0
3880,0.31232500076293945,0.3568304181098938,-35,5346.0,0.41314220428466797,170,9844.0
3890,0.31235837936401367,-2.169750928878784,6,5346.0,5.982316017150879,15,9844.0
3900,0.3123396933078766,-0.5468233823776245,-24,5346.0,4.397471904754639,-169,9844.0
3910,0.3123064935207367,-1.7714430093765259,20,5346.0,2.494750499725342,-153,9844.0
3920,0.31231945753097534,-1.321582555770874,100,5346.0,-3.8380300998687744,-47,9844.0
3930,0.31259527802467346,-2.652557849884033,76,5346.0,-0.528924822807312,-114,9844.0
3940,0.31249821186065674,-3.9915876388549805,-16,5346.0,-1.7258050441741943,22,9844.0
3950,0.31240594387054443,0.7471453547477722,-105,5346.0,-4.189565181732178,18,9844.0
3960,0.3123885691165924,-1.0519182682037354,-78,5346.0,-1.583516240119934,199,9844.0
3970,0.31339919567108154,3.1709396839141846,-46,5346.0,-4.607825756072998,37,9844.0
3980,0.31346169114112854,4.077942848205566,-24,5346.0,-3.7590856552124023,83,9844.0
3990,0.3136123716831207,1.4734910726547241,-65,5346.0,-2.6273434162139893,67,9844.0
4000,0.3137476146221161,1.8475921154022217,61,5346.0,1.8098093271255493,-52,9844.0
4010,0.31378641724586487,1.0603008270263672,165,5346.0,4.064166069030762,-14,9844.0
4020,0.3151277005672455,1.063355803489685,117,5346.0,9.52485179901123,-81,9844.0
4030,0.31526365876197815,1.420912265777588,-19,5346.0,5.043583393096924,4,9844.0
4040,0.31532126665115356,2.209878444671631,-3,5346.0,1.8891230821609497,78,9844.0
4050,0.31538838148117065,-0.6581334471702576,118,5346.0,6.983309268951416,201,9844.0
4060,0.3156939446926117,-1.3981451988220215,-76,5346.0,4.973721981048584,-5,9844.0
4070,0.31577759981155396,-1.357515573501587,-102,5346.0,4.190413951873779,137,9844.0
4080,0.31588658690452576,-1.0970454216003418,132,5346.0,1.65457022190094,25,9844.0
4090,0.31605714559555054,0.6584530472755432,-58,5346.0,0.4115971624851227,97,9844.0
4100,0.3161180317401886,0.16947370767593384,-110,5346.0,-1.6235287189483643,48,9844.0
4110,0.31627407670021057,-0.3661334216594696,-108,5346.0,-2.133166551589966,159,9844.0
4120,0.3164534866809845,-3.654585838317871,-129,5346.0,-0.656267523765564,17,9844.0
4130,0.31655585765838623,2.152008533477783,-4,5346.0,-7.139798641204834,-129,9844.0
4140,0.3165976107120514,1.3019161224365234,-21,5346.0,-2.5835182666778564,-77,9844.0
4150,0.31640011072158813,0.6849137544631958,17,5346.0,0.8918589353561401,-29,9844.0
4160,0.3163614571094513,1.6044892072677612,87,5346.0,0.49198561906814575,-98,9844.0
4170,0.31617146730422974,-1.005344271659851,115,5346.0,2.2986018657684326,-132,9844.0
4180,0.3158908784389496,-1.8278800249099731,24,5346.0,4.211394309997559,-127,9844.0
4190,0.3161320090293884,1.6626384258270264,97,5346.0,3.472010612487793,113,9844.0
4200,0.31578418612480164,-1.265533447265625,153,5346.0,7.969067096710205,64,9844.0
4210,0.3154214322566986,-2.528005361557007,-8,5346.0,4.799523830413818,111,9844.0
4220,0.3151012659072876,4.245928764343262,-81,5346.0,-1.8841924667358398,121,9844.0
4230,0.31634756922721863,1.426024317741394,-59,5346.0,2.258816719055176,173,9844.0
4240,0.3160499930381775,-0.8236159086227417,-60,5346.0,-2.5402650833129883,65,9844.0
4250,0.3158515393733978,1.9000258445739746,-53,5346.0,-3.0727858543395996,-109,9844.0
4260,0.3156539797782898,3.0509862899780273,-14,5346.0,-3.946106195449829,-175,9844.0
4270,0.31543999910354614,1.807698130607605,43,5346.0,-4.170225143432617,-178,9844.0
4280,0.3155362010002136,2.4653074741363525,150,5346.0,-2.792206048965454,-45,9844.0
4290,0.31529951095581055,0.8033719062805176,123,5346.0,-2.121995210647583,-172,9844.0
4300,0.3150049149990082,-1.4333425760269165,66,5346.0,0.566163957118988,-32,9844.0
4310,0.3147483766078949,1.0408108234405518,-60,5346.0,0.07159507274627686,17,9844.0
4320,0.3147290050983429,0.17321424186229706,-69,5346.0,-3.7171430587768555,211,9844.0
4330,0.31459692120552063,-0.7968196272850037,-83,5346.0,-1.4626353979110718,92,9844.0
4340,0.3145272135734558,-2.3817150592803955,-72,5346.0,0.014979072846472263,-7,9844.0
4350,0.3145694136619568,-2.691101312637329,-66,5346.0,0.9523599743843079,-16,9844.0
4360,0.3146580755710602,0.591640293598175,-10,5346.0,0.06554744392633438,-117,9844.0
4370,0.3171509802341461,-0.12063395977020264,132,5346.0,0.4527244567871094,6,9844.0
4380,0.31724825501441956,0.6582579016685486,159,5346.0,0.529502272605896,-203,9844.0
4390,0.3173390328884125,-2.082881212234497,101,5346.0,0.2443065494298935,-179,9844.0
4400,0.31733396649360657,1.8615835905075073,-60,5346.0,-4.370167255401611,3,9844.0
4410,0.31559041142463684,-1.3665980100631714,-10,5346.0,-1.6219161748886108,139,9844.0
4420,0.31546857953071594,0.24620825052261353,-3,5346.0,-6.334931373596191,81,9844.0
4430,0.3153744041919708,-1.8217493295669556,-147,5346.0,-1.3519775867462158,34,9844.0
4440,0.3152811527252197,-0.41187816858291626,-140,5346.0,0.7587773203849792,150,9844.0
4450,0.31668639183044434,-2.693373918533325,-89,5346.0,0.6609885692596436,80,9844.0
4460,0.3167850077152252,-3.631169557571411,-62,5346.0,3.4529850482940674,64,9844.0
4470,0.3168008029460907,-1.4736545085906982,-2,5346.0,2.2817978858947754,-112,9844.0
4480,0.31681254506111145,-1.4732623100280762,25,5346.0,3.7929229736328125,-149,9844.0
4490,0.31683865189552307,-0.36297789216041565,16,5346.0,1.4063680171966553,-116,9844.0
4500,0.316876083612442,2.531897783279419,174,5346.0,-1.8575587272644043,-35,9844.0
4510,0.3168703615665436,0.13659489154815674,149,5346.0,1.4536185264587402,-68,9844.0
4520,0.3169519007205963,-0.22184811532497406,26,5346.0,2.707493782043457,54,9844.0
4530,0.31698915362358093,3.4443061351776123,-76,5346.0,-1.9664063453674316,88,9844.0
4540,0.31660786271095276,-0.8398404121398926,-12,5346.0,2.3071892261505127,184,9844.0
4550,0.31665709614753723,1.151154637336731,-96,5346.0,-3.0278782844543457,209,9844.0
4560,0.3167116343975067,-2.008718490600586,-135,5346.0,1.667959451675415,-13,9844.0
4570,0.3167779743671417,-1.6471495628356934,-74,5346.0,-2.9883508682250977,61,9844.0
4580,0.31681057810783386,-0.5192886590957642,-20,5346.0,-2.9459848403930664,-26,9844.0
4590,0.31767451763153076,0.17952415347099304,73,5346.0,-1.813187599182129,-111,9844.0
4600,0.3176127076148987,3.1955456733703613,80,5346.0,-1.065111756324768,-179,9844.0
4610,0.3175923824310303,0.580045759677887,67,5346.0,-0.7129939794540405,-18,9844.0
4620,0.3176463842391968,2.840949296951294,51,5346.0,2.4843804836273193,61,9844.0
4630,0.3178405165672302,-0.20735208690166473,122,5346.0,2.908642053604126,14,9844.0
4640,0.31794995069503784,-2.4203040599823,38,5346.0,8.490788459777832,37,9844.0
4650,0.3182172477245331,-3.985992670059204,-84,5346.0,5.391790866851807,-9,9844.0
4660,0.3184891641139984,-0.6830971837043762,-55,5346.0,1.8001996278762817,235,9844.0
4670,0.3169489800930023,-1.4916012287139893,-19,5346.0,-0.45990756154060364,121,9844.0
4680,0.3172101676464081,4.219903469085693,-79,5346.0,-5.855276584625244,86,9844.0
4690,0.31747278571128845,0.5290225148200989,-86,5346.0,-2.6778671741485596,-8,9844.0
4700,0.3176810145378113,1.2424479722976685,-58,5346.0,-2.938293933868408,146,9844.0
4710,0.3178795576095581,-1.2586675882339478,44,5346.0,-0.5846156477928162,-42,9844.0
4720,0.31641170382499695,1.2635825872421265,27,5346.0,0.5610995292663574,-136,9844.0
4730,0.3164139688014984,-0.49787113070487976,-22,5346.0,-0.8418809771537781,-197,9844.0
4740,0.31635814905166626,-0.9127136468887329,45,5346.0,0.15888294577598572,-36,9844.0
4750,0.31622830033302307,1.2784796953201294,100,5346.0,0.15595370531082153,-180,9844.0
4760,0.31564807891845703,-4.628647327423096,-26,5346.0,5.278467655181885,-20,9844.0
4770,0.3154919445514679,0.18984660506248474,68,5346.0,1.0183358192443848,4,9844.0
4780,0.31537437438964844,-1.1442617177963257,86,5346.0,0.31925341486930847,-91,9844.0
4790,0.31527969241142273,-2.3428587913513184,75,5346.0,3.481405735015869,-184,9844.0
4800,0.3152373433113098,1.6208564043045044,-14,5346.0,0.4048537611961365,54,9844.0
4810,0.3155231475830078,2.852957010269165,38,5346.0,-3.5284030437469482,57,9844.0
4820,0.31545859575271606,1.3033266067504883,63,5346.0,-2.0779199600219727,67,9844.0
4830,0.31539469957351685,-0.002916326280683279,-108,5346.0,0.4191149175167084,36,9844.0
4840,0.31535762548446655,2.320009231567383,-40,5346.0,-5.632101058959961,-70,9844.0
4850,0.3155701458454132,-0.5534645318984985,-93,5346.0,-0.10477461665868759,101,9844.0
4860,0.31548166275024414,-1.2503300905227661,21,5346.0,-0.8685951828956604,-223,9844.0
4870,0.3154521584510803,-1.079616665840149,41,5346.0,-1.9311034679412842,-216,9844.0
4880,0.31540313363075256,-0.20936860144138336,-15,5346.0,-0.9286264181137085,-205,9844.0
4890,0.3152272701263428,3.3097174167633057,141,5346.0,-6.887054443359375,-114,9844.0
4900,0.31528010964393616,-1.2869592905044556,171,5346.0,-3.012551784515381,-233,9844.0
4910,0.3154308497905731,-2.198051929473877,69,5346.0,-0.9061800241470337,-94,9844.0
4920,0.3155726492404938,1.1327784061431885,-38,5346.0,-4.91094446182251,-52,9844.0
4930,0.31574928760528564,1.1832351684570312,-66,5346.0,-0.4441976845264435,79,9844.0
4940,0.31526437401771545,-1.230715036392212,-103,5346.0,-2.4788734912872314,160,9844.0
4950,0.3153201937675476,-0.06444234400987625,-140,5346.0,-0.9272239804267883,52,9844.0
4960,0.31527698040008545,-0.8411602973937988,-135,5346.0,-3.375312089920044,107,9844.0
4970,0.31524473428726196,-1.6494206190109253,-80,5346.0,0.08691546320915222,28,9844.0
4980,0.31512731313705444,-1.0811799764633179,22,5346.0,1.6832139492034912,-113,9844.0
4990,0.3150533437728882,-1.4668083190917969,4,5346.0,5.216712474822998,-38,9844.0
5000,0.31502559781074524,-2.1596336364746094,47,5346.0,3.8950369358062744,-147,9844.0
5010,0.3150193393230438,1.9255261421203613,58,5346.0,0.7656500935554504,-43,9844.0
5020,0.3149925172328949,3.083343744277954,140,5346.0,1.008347749710083,84,9844.0
5030,0.3142555058002472,-1.1852881908416748,110,5346.0,0.13153579831123352,-66,9844.0
5040,0.314360111951828,2.545478582382202,-78,5346.0,-2.543703317642212,40,9844.0
5050,0.31445008516311646,2.303696393966675,-94,5346.0,-5.502782821655273,51,9844.0
5060,0.31457284092903137,-0.8314457535743713,-59,5346.0,0.12058284133672714,256,9844.0
5070,0.3136860430240631,0.6298069357872009,-115,5346.0,-1.3757187128067017,196,9844.0
5080,0.3138217628002167,-0.11169066280126572,-44,5346.0,5.963810443878174,28,9844.0
5090,0.31386199593544006,-1.39412522315979,-61,5346.0,7.697708606719971,173,9844.0
5100,0.3138357698917389,-3.90411639213562,-110,5346.0,9.653535842895508,153,9844.0
5110,0.31230759620666504,2.3902575969696045,86,5346.0,3.6103360652923584,-2,9844.0
5120,0.31206437945365906,-0.38712233304977417,42,5346.0,4.200244426727295,-145,9844.0
5130,0.31176090240478516,-0.37235409021377563,12,5346.0,4.190971374511719,-19,9844.0
5140,0.31144511699676514,2.435081720352173,33,5346.0,2.5736818313598633,42,9844.0
5150,0.3112223446369171,-1.5773032903671265,113,5346.0,3.5844931602478027,54,9844.0
5160,0.3130095303058624,0.9829882383346558,10,5346.0,0.3410983681678772,72,9844.0
5170,0.3131347894668579,3.892568349838257,-68,5346.0,-1.9223761558532715,33,9844.0
5180,0.313164621591568,1.8654913902282715,4,5346.0,-2.5200188159942627,135,9844.0
5190,0.3131556212902069,0.4070458710193634,-31,5346.0,1.167535424232483,75,9844.0
5200,0.3151209056377411,1.8410096168518066,34,5346.0,3.3073599338531494,42,9844.0
5210,0.3152569532394409,0.9957472681999207,-27,5346.0,3.326035499572754,-61,9844.0
5220,0.3153994381427765,-0.41463401913642883,67,5346.0,4.443769454956055,-21,9844.0
5230,0.3156331479549408,-0.040882136672735214,102,5346.0,-2.57916259765625,-80,9844.0
5240,0.31630823016166687,-1.0925321578979492,131,5346.0,0.9286550283432007,-152,9844.0
5250,0.31653159856796265,-2.089243173599243,49,5346.0,2.553866386413574,-4,9844.0
5260,0.31679537892341614,-2.9682655334472656,-56,5346.0,4.594764709472656,125,9844.0
5270,0.31706300377845764,-2.213097333908081,-47,5346.0,3.215137481689453,109,9844.0
5280,0.31729793548583984,-1.8279794454574585,-61,5346.0,1.7006371021270752,81,9844.0
5290,0.3176933228969574,2.914841651916504,-82,5346.0,-1.1182993650436401,140,9844.0
5300,0.31786882877349854,-0.21945960819721222,-68,5346.0,1.3115284442901611,90,9844.0
5310,0.31790339946746826,0.5615697503089905,-30,5346.0,1.080243468284607,164,9844.0
5320,0.3178568184375763,0.36659273505210876,-9,5346.0,0.5402330160140991,-50,9844.0
5330,0.31751054525375366,-0.9140622615814209,19,5346.0,-2.9473047256469727,-205,9844.0
5340,0.3174479305744171,-0.46038830280303955,-89,5346.0,-3.927683115005493,-67,9844.0
5350,0.31732526421546936,1.1434717178344727,125,5346.0,3.4016411304473877,-87,9844.0
5360,0.31722402572631836,1.2997432947158813,149,5346.0,-3.4025347232818604,-121,9844.0
5370,0.31705933809280396,2.143031358718872,81,5346.0,-1.5652304887771606,-229,9844.0
5380,0.3171682357788086,2.4555118083953857,116,5346.0,-7.7992682456970215,-142,9844.0
5390,0.3169645667076111,2.980624198913574,106,5346.0,-2.675076961517334,-39,9844.0
5400,0.3168579638004303,-0.2799868583679199,63,5346.0,1.575669765472412,-193,9844.0
5410,0.3168262541294098,-2.934566020965576,-41,5346.0,6.230589389801025,-7,9844.0
5420,0.31655827164649963,-2.3651201725006104,-1,5346.0,5.461958408355713,136,9844.0
5430,0.31673404574394226,-3.48634934425354,29,5346.0,4.279927730560303,47,9844.0
5440,0.31689339876174927,-4.547580718994141,-153,5346.0,6.338897228240967,147,9844.0
5450,0.3171325922012329,-2.1476314067840576,-159,5346.0,1.8404695987701416,155,9844.0
5460,0.3176176846027374,-2.1945624351501465,-80,5346.0,6.243116855621338,305,9844.0
5470,0.3179023265838623,0.5417154431343079,-38,5346.0,3.484893560409546,117,9844.0
5480,0.3182578980922699,1.5952868461608887,62,5346.0,-1.8407061100006104,-157,9844.0
5490,0.3186902701854706,2.4312784671783447,14,5346.0,1.4695286750793457,-60,9844.0
5500,0.3190639317035675,2.9960126876831055,78,5346.0,-2.5773870944976807,-182,9844.0
5510,0.3188508152961731,3.0438029766082764,214,5346.0,-5.027446746826172,-129,9844.0
5520,0.31919920444488525,-0.6516629457473755,71,5346.0,-5.479154586791992,-337,9844.0
5530,0.3194977045059204,-0.22408145666122437,34,5346.0,-7.800985336303711,-182,9844.0
5540,0.31964364647865295,0.43479472398757935,-13,5346.0,-6.712253093719482,-24,9844.0
5550,0.3194693922996521,-1.6756840944290161,121,5346.0,-8.314011573791504,-170,9844.0
5560,0.31947213411331177,-1.172279953956604,-48,5346.0,-1.374993920326233,8,9844.0
5570,0.3193209767341614,-0.24396046996116638,-134,5346.0,-0.5002489686012268,42,9844.0
5580,0.3191400170326233,-0.7170448303222656,-79,5346.0,1.409484624862671,192,9844.0
5590,0.31891393661499023,0.47796666622161865,-70,5346.0,3.332345962524414,109,9844.0
5600,0.31789371371269226,-0.36273977160453796,-106,5346.0,8.670732498168945,122,9844.0
5610,0.3176221549510956,1.159071445465088,-79,5346.0,5.368436813354492,137,9844.0
5620,0.3172299563884735,2.1178836822509766,-73,5346.0,3.501647710800171,110,9844.0
5630,0.31672465801239014,2.18517804145813,108,5346.0,-2.6042816638946533,-121,9844.0
5640,0.31650277972221375,0.31192725896835327,99,5346.0,-3.5032403469085693,-292,9844.0
5650,0.31604230403900146,-0.566737711429596,5,5346.0,-4.637190818786621,-203,9844.0
5660,0.31562909483909607,-0.2656196653842926,114,5346.0,-3.170731782913208,-127,9844.0
5670,0.3153395354747772,0.37901341915130615,175,5346.0,-5.223005771636963,-148,9844.0
5680,0.31622034311294556,-0.0607861652970314,77,5346.0,-2.379149913787842,-39,9844.0
5690,0.31608957052230835,0.6695737838745117,-112,5346.0,-2.762213706970215,75,9844.0
5700,0.31594353914260864,1.2333545684814453,-141,5346.0,-2.8133962154388428,72,9844.0
5710,0.31578177213668823,0.5973295569419861,-19,5346.0,-3.484707832336426,134,9844.0
5720,0.3155493438243866,-1.3740148544311523,-57,5346.0,0.5225498676300049,93,9844.0
5730,0.3157742917537689,-0.5339701175689697,-53,5346.0,0.8871616125106812,-116,9844.0
5740,0.3154515027999878,-3.277336359024048,-4,5346.0,-3.5529379844665527,-122,9844.0
5750,0.3151450753211975,-5.333940029144287,-42,5346.0,2.64695405960083,-123,9844.0
5760,0.3148827850818634,-1.1517423391342163,41,5346.0,-2.405212879180908,-77,9844.0
5770,0.3148529827594757,-2.555832624435425,29,5346.0,-0.5101919174194336,135,9844.0
5780,0.3147636651992798,-1.4384349584579468,-25,5346.0,-1.8585892915725708,44,9844.0
5790,0.31460249423980713,1.8655779361724854,-129,5346.0,-1.315990686416626,121,9844.0
5800,0.3143512010574341,-0.07479925453662872,-107,5346.0,-4.73613977432251,18,9844.0
5810,0.3140947222709656,0.04678723216056824,-48,5346.0,0.12221992760896683,18,9844.0
5820,0.3146727383136749,2.4510865211486816,23,5346.0,-2.7203080654144287,85,9844.0
5830,0.3145202696323395,-3.063777446746826,-29,5346.0,2.4641480445861816,-157,9844.0
5840,0.31440192461013794,-6.820424556732178,-83,5346.0,4.1726155281066895,-150,9844.0
5850,0.3144156038761139,-8.07259464263916,-108,5346.0,6.322739124298096,16,9844.0
5860,0.31582579016685486,-4.779127597808838,-4,5346.0,0.814814031124115,143,9844.0
5870,0.3156852126121521,-2.451749086380005,-53,5346.0,-1.945115327835083,88,9844.0
5880,0.31546735763549805,1.3538182973861694,-29,5346.0,-3.4232735633850098,-57,9844.0
5890,0.315121054649353,10.693365097045898,41,5346.0,-3.182232141494751,103,9844.0
5900,0.3146921396255493,13.136749267578125,169,5346.0,-9.115331649780273,-69,9844.0
5910,0.31502512097358704,14.861605644226074,329,5346.0,-3.577566385269165,-55,9844.0
5920,0.31466981768608093,19.46950340270996,408,5346.0,-4.196871280670166,-130,9844.0
5930,0.3139389157295227,14.864265441894531,394,5346.0,4.047801494598389,-286,9844.0
5940,0.313446581363678,12.341344833374023,268,5346.0,-1.2481660842895508,-147,9844.0
5950,0.31453245878219604,10.350268363952637,117,5346.0,2.655193328857422,62,9844.0
5960,0.3135990500450134,5.9725518226623535,60,5346.0,9.326860427856445,341,9844.0
5970,0.3121987581253052,5.63595724105835,96,5346.0,13.989703178405762,258,9844.0
5980,0.31028226017951965,6.908422470092773,20,5346.0,17.73347282409668,589,9844.0
5990,0.3106977641582489,0.8379203677177429,-5,5346.0,20.724624633789062,432,9844.0
6000,0.30935361981391907,1.2418445348739624,-10,5346.0,23.820491790771484,524,9844.0
6010,0.3079086244106293,3.187950849533081,26,5346.0,28.59844207763672,444,9844.0
6020,0.30546408891677856,3.3072943687438965,50,5346.0,26.460407257080078,315,9844.0
6030,0.3041767179965973,2.089911460876465,129,5346.0,31.618562698364258,328,9844.0
6040,0.30581802129745483,6.132032871246338,200,5346.0,28.213083267211914,387,9844.0
6050,0.30415916442871094,5.588685035705566,13,5346.0,33.12088394165039,657,9844.0
6060,0.30208319425582886,7.807289123535156,183,5346.0,24.78097152709961,390,9844.0
6070,0.3003501296043396,7.132043838500977,109,5346.0,25.2807559967041,483,9844.0
6080,0.3016406297683716,5.989477157592773,50,5346.0,27.731218338012695,527,9844.0
6090,0.3000481426715851,5.007822513580322,127,5346.0,25.96819305419922,359,9844.0
6100,0.29763197898864746,6.131094455718994,165,5346.0,22.153234481811523,249,9844.0
6110,0.29630184173583984,0.9344849586486816,144,5346.0,25.46484375,443,9844.0
6120,0.29685840010643005,-1.1556915044784546,9,5346.0,23.86886215209961,417,9844.0
6130,0.2953905165195465,-6.809490203857422,-186,5346.0,25.88843536376953,497,9844.0
6140,0.2925819158554077,-9.154666900634766,-250,5346.0,24.761802673339844,529,9844.0
6150,0.2908830940723419,-11.335979461669922,-249,5346.0,31.363113403320312,487,9844.0
6160,0.28954336047172546,-11.81766128540039,-109,5346.0,32.95589828491211,277,9844.0
6170,0.29068735241889954,-7.5384135246276855,-37,5346.0,34.52240753173828,509,9844.0
6180,0.2894343435764313,-3.386340856552124,-78,5346.0,36.552005767822266,709,9844.0
6190,0.2863563895225525,4.019285678863525,-9,5346.0,31.080121994018555,466,9844.0
6200,0.2843092978000641,4.036926746368408,70,5346.0,31.13641929626465,347,9844.0
6210,0.29018956422805786,3.8687469959259033,166,5346.0,30.67987823486328,429,9844.0
6220,0.2887956500053406,6.569173812866211,100,5346.0,31.47990608215332,605,9844.0
6230,0.286128968000412,2.199655771255493,-8,5346.0,38.635520935058594,600,9844.0
6240,0.2857828438282013,1.5285625457763672,-25,5346.0,34.12386703491211,570,9844.0
6250,0.2841445207595825,-2.2793400287628174,-12,5346.0,30.373775482177734,380,9844.0
6260,0.28845345973968506,-6.744319438934326,-9,5346.0,29.55007553100586,406,9844.0
6270,0.28674423694610596,-8.92501163482666,-151,5346.0,25.915897369384766,467,9844.0
6280,0.28535139560699463,-11.734641075134277,-282,5346.0,23.487546920776367,440,9844.0
6290,0.285053551197052,-15.233015060424805,-352,5346.0,25.174076080322266,420,9844.0
6300,0.2839888334274292,-16.862947463989258,-274,5346.0,25.656538009643555,295,9844.0
6310,0.28225892782211304,-18.889066696166992,-205,5346.0,21.053762435913086,262,9844.0
6320,0.28213945031166077,-21.395763397216797,-312,5346.0,24.313583374023438,361,9844.0
6330,0.2809845805168152,-18.090042114257812,-344,5346.0,17.516815185546875,334,9844.0
6340,0.2793726623058319,-16.37302017211914,-376,5346.0,14.291036605834961,266,9844.0
6350,0.2776695191860199,-13.223447799682617,-220,5346.0,13.367765426635742,162,9844.0
6360,0.2769407629966736,-11.001628875732422,-113,5346.0,12.278658866882324,24,9844.0
6370,0.2763979434967041,-8.512176513671875,-57,5346.0,11.08614444732666,145,9844.0
6380,0.27559375762939453,-6.888858318328857,-148,5346.0,11.0669584274292,228,9844.0
6390,0.2734749913215637,-6.364704132080078,-110,5346.0,12.93925666809082,288,9844.0
6400,0.2730131149291992,-4.25227165222168,-166,5346.0,15.210426330566406,363,9844.0
6410,0.2721090614795685,-5.285492420196533,-117,5346.0,12.402220726013184,182,9844.0
6420,0.27147701382637024,-3.573303461074829,-37,5346.0,11.815731048583984,117,9844.0
6430,0.27050265669822693,-5.875101566314697,35,5346.0,10.340093612670898,137,9844.0
6440,0.27028945088386536,-5.351425647735596,18,5346.0,11.806514739990234,73,9844.0
6450,0.2694613039493561,-2.0608668327331543,56,5346.0,7.94743013381958,244,9844.0
6460,0.2685089409351349,-2.5153636932373047,-122,5346.0,10.064104080200195,260,9844.0
6470,0.26742109656333923,-0.6316849589347839,-46,5346.0,-1.1043237447738647,44,9844.0
6480,0.26716893911361694,1.6871122121810913,0,5346.0,-0.5584291815757751,162,9844.0
6490,0.2668168544769287,0.8602811098098755,-60,5346.0,3.138397455215454,117,9844.0
6500,0.2658710479736328,1.8873425722122192,-46,5346.0,-1.2818374633789062,30,9844.0
6510,0.26460230350494385,0.02242354489862919,28,5346.0,-3.170980930328369,-107,9844.0
6520,0.2649393379688263,-0.1913619339466095,8,5346.0,-6.268895149230957,-127,9844.0
6530,0.2640163004398346,-2.4533581733703613,-6,5346.0,-15.081302642822266,-206,9844.0
6540,0.26397186517715454,-3.2472903728485107,22,5346.0,-9.578232765197754,-155,9844.0
6550,0.2625388503074646,-2.3070175647735596,-22,5346.0,-7.650314807891846,-69,9844.0
6560,0.260762482881546,-5.357513427734375,-54,5346.0,-4.008713245391846,-25,9844.0
6570,0.25984859466552734,-2.901705503463745,-23,5346.0,-1.6614831686019897,-18,9844.0
6580,0.2589993476867676,-4.965463161468506,22,5346.0,-0.13782434165477753,-24,9844.0
6590,0.25795188546180725,-2.774005651473999,-23,5346.0,3.6579549312591553,82,9844.0
6600,0.25723370909690857,-0.23612695932388306,43,5346.0,5.191816329956055,0,9844.0
6610,0.2572759687900543,3.3494961261749268,135,5346.0,2.923750400543213,-122,9844.0
6620,0.2562198340892792,4.712717056274414,155,5346.0,3.7192938327789307,-12,9844.0
6630,0.25538620352745056,6.092980861663818,166,5346.0,-2.3360466957092285,-173,9844.0
6640,0.2547714412212372,10.303967475891113,186,5346.0,-11.288511276245117,-290,9844.0
6650,0.254683256149292,5.534067630767822,209,5346.0,-12.034378051757812,-228,9844.0
6660,0.2540206015110016,3.511146068572998,159,5346.0,-7.938648700714111,-289,9844.0
6670,0.25327980518341064,5.084444999694824,157,5346.0,-14.822281837463379,-326,9844.0
6680,0.2524019181728363,5.097644329071045,122,5346.0,-16.589876174926758,-322,9844.0
6690,0.2514759600162506,5.4374918937683105,214,5346.0,-17.977941513061523,-346,9844.0
6700,0.25039586424827576,4.00571346282959,111,5346.0,-11.93008041381836,-232,9844.0
6710,0.24954460561275482,6.021943092346191,181,5346.0,-13.354618072509766,-279,9844.0
6720,0.24863196909427643,1.032525658607483,82,5346.0,-9.113971710205078,-255,9844.0
6730,0.2476644068956375,-1.2461092472076416,50,5346.0,-7.957641124725342,-301,9844.0
6740,0.24687767028808594,0.6509019136428833,98,5346.0,-6.682803153991699,-167,9844.0
6750,0.2459256649017334,0.17821194231510162,139,5346.0,-8.025982856750488,-384,9844.0
6760,0.24495188891887665,-0.23624731600284576,98,5346.0,-10.616642951965332,-287,9844.0
6770,0.24404950439929962,-0.5644598007202148,97,5346.0,-8.737360954284668,-206,9844.0
6780,0.24516822397708893,0.30063000321388245,101,5346.0,-8.655828475952148,-200,9844.0
6790,0.2441355437040329,3.4876251220703125,110,5346.0,-17.93587875366211,-219,9844.0
6800,0.24365976452827454,5.341174602508545,32,5346.0,-19.46586036682129,-163,9844.0
6810,0.2428610771894455,6.44695520401001,58,5346.0,-13.833410263061523,-208,9844.0
6820,0.24207229912281036,7.231757164001465,39,5346.0,-13.359918594360352,-162,9844.0
6830,0.2426770180463791,8.838028907775879,56,5346.0,-13.0974702835083,-96,9844.0
6840,0.24207398295402527,7.094460964202881,29,5346.0,-9.27366828918457,-15,9844.0
6850,0.24156931042671204,3.657064914703369,-32,5346.0,-4.9385881423950195,-59,9844.0
6860,0.24085082113742828,1.5542142391204834,-15,5346.0,-5.772702693939209,-11,9844.0
6870,0.2439580112695694,-0.42846590280532837,-71,5346.0,-4.129083633422852,14,9844.0
6880,0.24345354735851288,-0.6328868269920349,-6,5346.0,-7.051273345947266,-401,9844.0
6890,0.24292831122875214,0.44294273853302,42,5346.0,-2.8563807010650635,-220,9844.0
6900,0.24248594045639038,-0.21047180891036987,95,5346.0,-5.924315929412842,-207,9844.0
6910,0.24205583333969116,0.8572614789009094,110,5346.0,-5.792694568634033,-168,9844.0
6920,0.24556702375411987,1.0249931812286377,165,5346.0,-5.280974388122559,-227,9844.0
6930,0.24543467164039612,1.3039945363998413,93,5346.0,-5.799785137176514,-119,9844.0
6940,0.24522414803504944,3.800737142562866,76,5346.0,-9.871526718139648,-72,9844.0
6950,0.2449517697095871,3.2021191120147705,42,5346.0,-9.340986251831055,-98,9844.0
6960,0.2478247731924057,1.5841352939605713,-79,5346.0,-11.421433448791504,-47,9844.0
6970,0.2478228509426117,0.31588324904441833,-70,5346.0,-7.83897066116333,-20,9844.0
6980,0.24793992936611176,-1.9462162256240845,-79,5346.0,-6.551484107971191,27,9844.0
6990,0.24827590584754944,-1.599379301071167,-94,5346.0,-8.588820457458496,-27,9844.0
7000,0.25265365839004517,0.05660136789083481,-62,5346.0,-5.965877532958984,7,9844.0
7010,0.2533482313156128,1.6284387111663818,-68,5346.0,-8.457754135131836,-49,9844.0
7020,0.2542482614517212,1.79203200340271,-43,5346.0,-0.40564844012260437,116,9844.0
7030,0.25514712929725647,2.416886806488037,-82,5346.0,0.8958292603492737,134,9844.0
7040,0.256060928106308,3.8531994819641113,-63,5346.0,-3.6450350284576416,37,9844.0
7050,0.26042842864990234,3.8509135246276855,-31,5346.0,-5.822676181793213,59,9844.0
7060,0.26138532161712646,1.6893467903137207,-23,5346.0,-10.675114631652832,4,9844.0
7070,0.2623158097267151,2.6036593914031982,0,5346.0,-6.994913101196289,-67,9844.0
7080,0.26328858733177185,1.7814979553222656,8,5346.0,-3.9023191928863525,-107,9844.0
7090,0.2652563154697418,0.936712384223938,7,5346.0,-7.98566198348999,-112,9844.0
7100,0.26615408062934875,2.0523080825805664,28,5346.0,-8.248442649841309,-71,9844.0
7110,0.2669826149940491,1.5446919202804565,25,5346.0,-4.591076850891113,-181,9844.0
7120,0.26787692308425903,-0.4076659381389618,6,5346.0,-1.4341297149658203,-137,9844.0
7130,0.26864850521087646,-1.8936094045639038,-6,5346.0,0.783991813659668,-103,9844.0
7140,0.27128317952156067,-0.008425191976130009,-6,5346.0,-3.0900871753692627,-69,9844.0
7150,0.272124320268631,-1.1156539916992188,-10,5346.0,-2.00972580909729,46,9844.0
7160,0.2728966176509857,-2.7586119174957275,-52,5346.0,-2.1325016021728516,61,9844.0
7170,0.2735936641693115,-2.272523880004883,-44,5346.0,-0.024623865261673927,164,9844.0
7180,0.2743334472179413,-1.3034486770629883,-31,5346.0,0.8283165097236633,13,9844.0
7190,0.27487075328826904,1.5356172323226929,54,5346.0,-0.8197423815727234,-93,9844.0
7200,0.27529165148735046,3.0464022159576416,43,5346.0,0.493247926235199,-60,9844.0
7210,0.275634765625,0.6488651037216187,47,5346.0,5.038569450378418,-39,9844.0
7220,0.27512896060943604,1.218824028968811,27,5346.0,2.9878504276275635,61,9844.0
7230,0.2752799689769745,1.6205618381500244,37,5346.0,1.3959885835647583,-6,9844.0
7240,0.27540746331214905,2.3771302700042725,11,5346.0,-3.130110502243042,139,9844.0
7250,0.2754524350166321,-0.7775654792785645,-34,5346.0,0.7392134070396423,112,9844.0
7260,0.27547070384025574,-1.5170884132385254,-41,5346.0,1.1034029722213745,-15,9844.0
7270,0.27479642629623413,-3.844728946685791,-59,5346.0,0.11815615743398666,57,9844.0
7280,0.2745317816734314,-6.419037342071533,-87,5346.0,4.525806903839111,-84,9844.0
7290,0.2748745381832123,-7.79967737197876,-141,5346.0,-1.135182499885559,-65,9844.0
7300,0.27486762404441833,-7.782844543457031,-164,5346.0,0.8263337016105652,114,9844.0
7310,0.2743070721626282,-7.800839900970459,-165,5346.0,2.9456403255462646,101,9844.0
7320,0.27421560883522034,-9.636035919189453,-191,5346.0,0.05669698491692543,164,9844.0
7330,0.2741806209087372,-10.847044944763184,-196,5346.0,-0.8282400369644165,37,9844.0
7340,0.2740626037120819,-10.852804183959961,-181,5346.0,0.8077918291091919,-57,9844.0
7350,0.2738882005214691,-9.990717887878418,-126,5346.0,1.6273720264434814,-50,9844.0
7360,0.27454373240470886,-6.858754634857178,-76,5346.0,4.750744342803955,-123,9844.0
7370,0.2744709253311157,-2.870203971862793,-37,5346.0,2.826622724533081,-59,9844.0
7380,0.27425622940063477,0.00429832236841321,9,5346.0,3.9433958530426025,37,9844.0
7390,0.27414774894714355,1.3541159629821777,2,5346.0,3.897921562194824,63,9844.0
7400,0.27477169036865234,-0.9594331383705139,31,5346.0,6.35380744934082,187,9844.0
7410,0.27466192841529846,-0.3380146026611328,-27,5346.0,5.361253261566162,223,9844.0
7420,0.2746080160140991,0.3359698951244354,-29,5346.0,1.777607798576355,95,9844.0
7430,0.274463415145874,-1.542304277420044,-43,5346.0,1.7985544204711914,94,9844.0
7440,0.27419376373291016,-3.529383420944214,-75,5346.0,0.5102295875549316,80,9844.0
7450,0.2739622890949249,-3.2061123847961426,-112,5346.0,3.005591869354248,114,9844.0
7460,0.2738935649394989,-4.157177925109863,-52,5346.0,0.5496184229850769,-48,9844.0
7470,0.2737542986869812,-3.9306743144989014,-40,5346.0,-0.5614079236984253,-94,9844.0
7480,0.2735830247402191,-2.372438430786133,-38,5346.0,-2.55527925491333,-92,9844.0
7490,0.2743622064590454,-1.8525595664978027,-9,5346.0,-1.6440032720565796,-188,9844.0
7500,0.2742978036403656,0.24671818315982819,46,5346.0,-1.8511494398117065,-92,9844.0
7510,0.2742660939693451,1.9557180404663086,86,5346.0,1.6278630495071411,0,9844.0
7520,0.2742806375026703,3.36195707321167,58,5346.0,-0.2481066733598709,-38,9844.0
7530,0.273830771446228,5.194022178649902,114,5346.0,3.312316656112671,-36,9844.0
7540,0.2738715708255768,4.834372520446777,95,5346.0,2.3859589099884033,36,9844.0
7550,0.2739066779613495,6.015140056610107,81,5346.0,-0.6892244815826416,172,9844.0
7560,0.2739943563938141,3.2953810691833496,25,5346.0,1.839467167854309,163,9844.0
7570,0.2740936279296875,0.3356473743915558,-70,5346.0,3.841648817062378,180,9844.0
7580,0.2749567925930023,0.09194300323724747,-10,5346.0,4.118639945983887,133,9844.0
7590,0.2751428782939911,-0.7074499726295471,-48,5346.0,0.4592027962207794,162,9844.0
7600,0.27531665563583374,-1.054840087890625,-41,5346.0,4.3335676193237305,60,9844.0
7610,0.27548545598983765,-3.0652451515197754,-8,5346.0,4.037744998931885,-2,9844.0
7620,0.2762564420700073,-3.0994017124176025,-21,5346.0,7.169556140899658,27,9844.0
7630,0.27656200528144836,-2.551851272583008,-45,5346.0,4.127504348754883,-86,9844.0
7640,0.27697890996932983,-2.033080816268921,-9,5346.0,-1.569157361984253,-238,9844.0
7650,0.27746492624282837,-0.5111340880393982,42,5346.0,-3.3545114994049072,-156,9844.0
7660,0.28077444434165955,-0.7916645407676697,42,5346.0,-5.218564987182617,-76,9844.0
7670,0.2815242111682892,1.6661062240600586,41,5346.0,-6.395663738250732,-123,9844.0
7680,0.2822657823562622,4.363980770111084,89,5346.0,-7.476140022277832,-52,9844.0
7690,0.28297626972198486,5.2219085693359375,104,5346.0,-8.61612319946289,-12,9844.0
7700,0.28371500968933105,6.064853191375732,86,5346.0,-6.984024524688721,-21,9844.0
7710,0.2833457887172699,5.549252986907959,81,5346.0,2.9307243824005127,52,9844.0
7720,0.28395721316337585,4.408705234527588,72,5346.0,4.749290466308594,65,9844.0
7730,0.28458601236343384,2.683182954788208,31,5346.0,9.064302444458008,151,9844.0
7740,0.2851831614971161,-0.7075628042221069,6,5346.0,9.426485061645508,-4,9844.0
7750,0.2853250503540039,-1.9431700706481934,-30,5346.0,6.051331043243408,65,9844.0
7760,0.2858828008174896,-4.644251346588135,-77,5346.0,4.029707431793213,209,9844.0
7770,0.2863771617412567,-5.465118885040283,-92,5346.0,0.8253323435783386,89,9844.0
7780,0.286869615316391,-5.335583209991455,-102,5346.0,-3.707578420639038,-63,9844.0
7790,0.2872844934463501,-4.705141067504883,-10,5346.0,-2.1404290199279785,-114,9844.0
7800,0.2870720624923706,-1.4511744976043701,-21,5346.0,-6.202773571014404,-176,9844.0
7810,0.28745731711387634,0.09949933737516403,-17,5346.0,-8.628674507141113,-290,9844.0
7820,0.28773972392082214,1.4534283876419067,64,5346.0,-4.91352653503418,-187,9844.0
7830,0.28802627325057983,1.829828143119812,38,5346.0,-4.183389186859131,19,9844.0
7840,0.2883031368255615,3.900841474533081,78,5346.0,-5.054690837860107,0,9844.0
7850,0.28856953978538513,1.9530837535858154,43,5346.0,-2.8656160831451416,65,9844.0
7860,0.28876352310180664,2.2260935306549072,19,5346.0,-1.5181407928466797,62,9844.0
7870,0.28896594047546387,-0.23158442974090576,3,5346.0,-1.1980676651000977,-69,9844.0
7880,0.2895011305809021,0.8622766137123108,24,5346.0,2.852440357208252,-63,9844.0
7890,0.28971266746520996,0.19279585778713226,15,5346.0,2.264864683151245,-17,9844.0
7900,0.2899550199508667,-2.548860788345337,-41,5346.0,5.689692497253418,68,9844.0
7910,0.2901923358440399,-1.7665863037109375,-9,5346.0,-0.9347836971282959,3,9844.0
7920,0.29044413566589355,-2.414957046508789,-39,5346.0,4.283578395843506,110,9844.0
7930,0.2917688488960266,-1.8665958642959595,-40,5346.0,4.586249828338623,172,9844.0
7940,0.292100727558136,1.3524571657180786,17,5346.0,3.9867048263549805,106,9844.0
7950,0.29279354214668274,2.309553623199463,23,5346.0,-0.9788101315498352,54,9844.0
7960,0.29349541664123535,2.5750532150268555,28,5346.0,-2.8046367168426514,32,9844.0
7970,0.2928066551685333,0.9569705724716187,18,5346.0,-3.4643096923828125,-20,9844.0
7980,0.2931361496448517,1.6282765865325928,-12,5346.0,-3.2122786045074463,-78,9844.0
7990,0.29355400800704956,1.7195117473602295,62,5346.0,-6.275683879852295,-180,9844.0
8000,0.2940533459186554,1.3783652782440186,37,5346.0,-3.9175467491149902,-212,9844.0
8010,0.2944847047328949,-0.525223970413208,27,5346.0,-2.512993097305298,-136,9844.0
8020,0.2947547733783722,1.1666264533996582,31,5346.0,-2.915172576904297,-115,9844.0
8030,0.29509496688842773,1.8581254482269287,70,5346.0,-1.1527818441390991,128,9844.0
8040,0.295544296503067,3.9126200675964355,-3,5346.0,-2.842589855194092,82,9844.0
8050,0.2958833575248718,3.835855007171631,28,5346.0,-0.7228797674179077,39,9844.0
8060,0.2962777614593506,3.8498589992523193,55,5346.0,-0.13464078307151794,57,9844.0
8070,0.29661232233047485,5.476598739624023,63,5346.0,-2.619554281234741,48,9844.0
8080,0.29694971442222595,3.879176616668701,71,5346.0,-1.5126465559005737,-75,9844.0
8090,0.29723891615867615,1.0184574127197266,26,5346.0,-1.1608304977416992,-85,9844.0
8100,0.2961234152317047,2.6934902667999268,23,5346.0,-1.8133203983306885,-93,9844.0
8110,0.2963242828845978,0.5969512462615967,15,5346.0,0.5402656197547913,-38,9844.0
8120,0.2965519428253174,0.582740843296051,36,5346.0,0.5225509405136108,-77,9844.0
8130,0.2967740297317505,-0.48217469453811646,26,5346.0,-0.2897595465183258,-71,9844.0
8140,0.2969738841056824,0.15964990854263306,18,5346.0,1.6352651119232178,87,9844.0
8150,0.2967853248119354,1.0602420568466187,14,5346.0,1.2489885091781616,88,9844.0
8160,0.2969246208667755,0.6699979305267334,3,5346.0,-1.6748030185699463,-24,9844.0
8170,0.29710209369659424,1.9588950872421265,42,5346.0,0.2554590404033661,71,9844.0
8180,0.29723304510116577,1.1189414262771606,12,5346.0,0.45805180072784424,130,9844.0
8190,0.2976311147212982,-0.5712279677391052,-54,5346.0,3.5105485916137695,62,9844.0
8200,0.2976423501968384,0.8967703580856323,-8,5346.0,-1.0102235078811646,6,9844.0
8210,0.297626256942749,1.198974609375,16,5346.0,0.40493887662887573,5,9844.0
8220,0.2976055443286896,-0.29465818405151367,-42,5346.0,0.299498587846756,63,9844.0
8230,0.2974552810192108,-1.01712167263031,-65,5346.0,-0.01540652196854353,38,9844.0
8240,0.29927343130111694,-0.9008351564407349,-28,5346.0,-0.4836166501045227,-57,9844.0
8250,0.29923301935195923,-1.8466931581497192,10,5346.0,1.8751620054244995,-25,9844.0
8260,0.2992136776447296,-0.5627793669700623,14,5346.0,0.6835809350013733,-66,9844.0
8270,0.29917389154434204,-0.14941857755184174,32,5346.0,0.35202664136886597,-84,9844.0
8280,0.2998848855495453,0.9480818510055542,92,5346.0,-2.268158197402954,-102,9844.0
8290,0.29981809854507446,0.163607656955719,64,5346.0,0.9026632308959961,-112,9844.0
8300,0.2998015582561493,0.42357754707336426,70,5346.0,3.3300514221191406,-48,9844.0
8310,0.2998146116733551,-2.250112771987915,21,5346.0,1.1427844762802124,-42,9844.0
8320,0.30147144198417664,-1.813157558441162,10,5346.0,1.055687427520752,-66,9844.0
8330,0.30165979266166687,-2.8574163913726807,-24,5346.0,1.5606822967529297,-154,9844.0
8340,0.30187055468559265,-3.4383318424224854,-15,5346.0,0.301314115524292,-105,9844.0
8350,0.30206653475761414,-2.1753013134002686,34,5346.0,3.2959702014923096,-81,9844.0
8360,0.302284836769104,-1.840819239616394,-8,5346.0,0.9506864547729492,1,9844.0
8370,0.3036903142929077,-1.9348857402801514,30,5346.0,3.332817554473877,40,9844.0
8380,0.30410075187683105,1.4188904762268066,42,5346.0,-1.1516759395599365,-44,9844.0
8390,0.30445146560668945,1.522369146347046,75,5346.0,0.5488713383674622,-77,9844.0
8400,0.3048795163631439,2.599719762802124,89,5346.0,2.5489509105682373,-11,9844.0
8410,0.30776742100715637,4.900671005249023,61,5346.0,-6.230549335479736,69,9844.0
8420,0.3084034025669098,3.009070634841919,32,5346.0,-3.1856753826141357,-24,9844.0
8430,0.3090192675590515,-0.10932373255491257,31,5346.0,-3.133981943130493,-46,9844.0
8440,0.3096330463886261,-0.1919972151517868,2,5346.0,-6.078402042388916,-5,9844.0
8450,0.31021854281425476,-0.9512901306152344,4,5346.0,-1.0088411569595337,43,9844.0
8460,0.31271106004714966,-3.07704496383667,-103,5346.0,1.767806887626648,112,9844.0
8470,0.31325340270996094,-0.9118234515190125,-34,5346.0,3.369842529296875,123,9844.0
8480,0.3137480914592743,-0.6497154831886292,17,5346.0,4.126067161560059,26,9844.0
8490,0.3142165541648865,1.4724124670028687,2,5346.0,5.435307025909424,45,9844.0
8500,0.31703177094459534,1.9452890157699585,-13,5346.0,0.23312558233737946,-82,9844.0
8510,0.3176196217536926,0.006980006117373705,29,5346.0,5.563368320465088,-42,9844.0
8520,0.318210244178772,0.43741339445114136,22,5346.0,-0.3586903214454651,-106,9844.0
8530,0.3186979591846466,0.1152946874499321,-13,5346.0,-0.38749584555625916,-26,9844.0
8540,0.31918367743492126,0.3812536597251892,12,5346.0,-1.1037653684616089,2,9844.0
8550,0.3230363428592682,-1.1886045932769775,-52,5346.0,2.8298444747924805,127,9844.0
8560,0.3236464560031891,-3.3421244621276855,-76,5346.0,0.84260094165802,91,9844.0
8570,0.3242685794830322,-2.8409011363983154,-48,5346.0,1.399818778038025,82,9844.0
8580,0.3248550593852997,-2.3856348991394043,-51,5346.0,1.071514368057251,77,9844.0
8590,0.32754212617874146,-0.40617066621780396,-41,5346.0,0.715248167514801,59,9844.0
8600,0.3281981945037842,-1.9545994997024536,-32,5346.0,4.165938377380371,-48,9844.0
8610,0.3288481533527374,-0.3555282950401306,39,5346.0,3.0059735774993896,-23,9844.0
8620,0.32944974303245544,1.3421688079833984,13,5346.0,2.1681573390960693,50,9844.0
8630,0.33141353726387024,0.9012464880943298,-6,5346.0,5.211750030517578,42,9844.0
8640,0.33208590745925903,-0.1625501662492752,-3,5346.0,0.8983274698257446,68,9844.0
8650,0.3326626718044281,-1.101054072380066,-3,5346.0,0.7536554932594299,43,9844.0
8660,0.33317679166793823,-0.5659904479980469,-11,5346.0,-4.0388922691345215,32,9844.0
8670,0.33385172486305237,-1.9580239057540894,-40,5346.0,0.6399171352386475,66,9844.0
8680,0.33649811148643494,-3.9090635776519775,-66,5346.0,-1.4164707660675049,-119,9844.0
8690,0.33704444766044617,-5.575443744659424,-79,5346.0,-2.8303959369659424,-162,9844.0
8700,0.3375735878944397,-4.32301139831543,-102,5346.0,-4.966187477111816,-39,9844.0
8710,0.3380708694458008,-4.458205223083496,-84,5346.0,-2.092872381210327,8,9844.0
8720,0.33815187215805054,-3.732340097427368,-22,5346.0,1.3721705675125122,130,9844.0
8730,0.3385331332683563,-1.1119067668914795,-18,5346.0,-3.816973924636841,123,9844.0
8740,0.33891570568084717,-0.7588037848472595,-27,5346.0,-2.0305256843566895,19,9844.0
8750,0.33953481912612915,-0.2764127254486084,2,5346.0,-1.576226830482483,-38,9844.0
8760,0.34006577730178833,4.0375237464904785,30,5346.0,-3.6427226066589355,-160,9844.0
8770,0.34001976251602173,2.845076560974121,45,5346.0,-4.593172073364258,-219,9844.0
8780,0.34035277366638184,-0.5847862958908081,3,5346.0,-1.1065384149551392,-69,9844.0
8790,0.3407628536224365,0.38673707842826843,1,5346.0,-7.128296852111816,-158,9844.0
8800,0.34113097190856934,0.7419794797897339,38,5346.0,-9.578326225280762,-112,9844.0
8810,0.3413676619529724,-0.22438505291938782,53,5346.0,-9.007927894592285,-48,9844.0
8820,0.3415985405445099,-0.2949550151824951,-22,5346.0,-6.362364768981934,12,9844.0
8830,0.34182947874069214,-4.122822284698486,-116,5346.0,-4.980224609375,-76,9844.0
8840,0.3420196771621704,-6.762263298034668,-100,5346.0,-4.006047248840332,-105,9844.0
8850,0.3429308533668518,-5.175868511199951,-63,5346.0,-3.1714725494384766,-93,9844.0
8860,0.34319862723350525,-3.054002285003662,-28,5346.0,1.6635867357254028,-42,9844.0
8870,0.34332600235939026,-3.548837661743164,-67,5346.0,8.333809852600098,157,9844.0
8880,0.3434104919433594,-4.063963413238525,-99,5346.0,9.307531356811523,269,9844.0
8890,0.34348949790000916,-3.3507378101348877,-59,5346.0,3.252997636795044,126,9844.0
8900,0.3434196412563324,-1.4967767000198364,-51,5346.0,-2.1087825298309326,50,9844.0
8910,0.3435591757297516,0.42871618270874023,-37,5346.0,-4.664656639099121,38,9844.0
8920,0.34364303946495056,0.0966850146651268,-10,5346.0,-4.060968399047852,-28,9844.0
8930,0.34373295307159424,0.5474748611450195,-19,5346.0,-7.124217987060547,-138,9844.0
8940,0.34471672773361206,-1.0146844387054443,-36,5346.0,-1.3115595579147339,-105,9844.0
8950,0.3448590040206909,-1.4507306814193726,-19,5346.0,-0.28195297718048096,-89,9844.0
8960,0.34501153230667114,-2.3322415351867676,-3,5346.0,0.3997681140899658,68,9844.0
8970,0.3451806604862213,-1.9480682611465454,-39,5346.0,0.9642869234085083,167,9844.0
8980,0.34609630703926086,-1.124300241470337,-35,5346.0,7.35675048828125,192,9844.0
8990,0.3463910222053528,-0.2945186495780945,-20,5346.0,4.1356282234191895,121,9844.0
9000,0.3467007279396057,1.031216025352478,-9,5346.0,6.27656364440918,46,9844.0
9010,0.34703129529953003,-2.993853807449341,-10,5346.0,8.651702880859375,-10,9844.0
9020,0.34741199016571045,1.2689169645309448,5,5346.0,0.37470412254333496,-59,9844.0
9030,0.34881433844566345,0.9945245981216431,32,5346.0,4.638815879821777,89,9844.0
9040,0.3491823375225067,1.4725286960601807,36,5346.0,3.4723851680755615,139,9844.0
9050,0.349554181098938,3.4409189224243164,66,5346.0,-1.6859761476516724,18,9844.0
9060,0.34991714358329773,4.874544620513916,63,5346.0,-0.3593059480190277,16,9844.0
9070,0.3523510694503784,5.293156147003174,44,5346.0,0.36392199993133545,-44,9844.0
9080,0.3528485894203186,4.674200057983398,84,5346.0,1.7624934911727905,-38,9844.0
9090,0.35333797335624695,2.0431971549987793,39,5346.0,-4.290777683258057,-11,9844.0
9100,0.3538622260093689,-0.5861543416976929,-48,5346.0,-0.7515893578529358,38,9844.0
9110,0.3543977737426758,-1.2470184564590454,-30,5346.0,-5.398651123046875,-75,9844.0
9120,0.3542664051055908,-3.3819236755371094,-60,5346.0,-0.5553673505783081,-121,9844.0
9130,0.3547340929508209,-2.696244239807129,-20,5346.0,-0.8780423402786255,-114,9844.0
9140,0.35510849952697754,-4.733147621154785,-84,5346.0,0.5045794248580933,15,9844.0
9150,0.35561707615852356,-3.9548351764678955,-77,5346.0,-2.8384406566619873,27,9844.0
9160,0.3565891981124878,-2.8815622329711914,-28,5346.0,-3.907221794128418,-98,9844.0
9170,0.35661497712135315,-1.0486879348754883,-4,5346.0,-2.5329668521881104,-126,9844.0
9180,0.3570381999015808,-1.4416176080703735,10,5346.0,-3.5677330493927,-160,9844.0
9190,0.3574252128601074,-0.20947089791297913,19,5346.0,-1.9190537929534912,6,9844.0
9200,0.3578193187713623,1.012569785118103,-9,5346.0,-1.6827168464660645,64,9844.0
9210,0.3578193187713623,2.7924752235412598,50,5346.0,-5.015739440917969,33,9844.0
9220,0.3581605851650238,3.0231637954711914,11,5346.0,-2.304806709289551,-32,9844.0
9230,0.3584973216056824,0.6045050024986267,3,5346.0,2.310487985610962,-53,9844.0
9240,0.35881802439689636,-1.1946243047714233,-21,5346.0,-0.33872586488723755,69,9844.0
9250,0.35986196994781494,-3.9442763328552246,-51,5346.0,3.1748769283294678,62,9844.0
9260,0.3601650595664978,-4.988913536071777,-69,5346.0,4.964945316314697,80,9844.0
9270,0.36046117544174194,-6.610055446624756,-55,5346.0,9.923673629760742,45,9844.0
9280,0.3607367277145386,-6.886708736419678,-107,5346.0,2.5040340423583984,47,9844.0
9290,0.3621702790260315,-5.751165866851807,-107,5346.0,8.138813018798828,195,9844.0
9300,0.36246901750564575,-5.1746110916137695,-89,5346.0,3.1578447818756104,153,9844.0
9310,0.3627451956272125,-5.233540058135986,-12,5346.0,4.392518520355225,118,9844.0
9320,0.3630024790763855,-2.130265712738037,-47,5346.0,3.5675206184387207,-14,9844.0
9330,0.36323949694633484,-0.08304034173488617,10,5346.0,1.9813657999038696,-39,9844.0
9340,0.3636890649795532,-0.07965891063213348,26,5346.0,1.437641978263855,-138,9844.0
9350,0.36391738057136536,1.5642913579940796,-22,5346.0,-2.66644024848938,46,9844.0
9360,0.3641168773174286,2.566831111907959,32,5346.0,-2.013768434524536,64,9844.0
9370,0.3643072247505188,2.67173171043396,33,5346.0,1.3810269832611084,-3,9844.0
9380,0.3650550842285156,3.136632204055786,70,5346.0,3.0591044425964355,-83,9844.0
9390,0.36524850130081177,0.43213963508605957,15,5346.0,5.176940441131592,-16,9844.0
9400,0.3654586672782898,-4.068926811218262,-72,5346.0,1.3882726430892944,32,9844.0
9410,0.3656792640686035,-3.2491202354431152,-51,5346.0,2.589069366455078,172,9844.0
9420,0.3666643798351288,-6.660691261291504,-145,5346.0,10.604479789733887,314,9844.0
9430,0.36692968010902405,-6.397243499755859,-125,5346.0,5.116214275360107,203,9844.0
9440,0.3672140836715698,-2.1781420707702637,-42,5346.0,7.462319374084473,113,9844.0
9450,0.3676098883152008,6.1429338455200195,153,5346.0,3.666576385498047,54,9844.0
9460,0.3679998219013214,15.081995010375977,232,5346.0,3.432063102722168,14,9844.0
9470,0.3697788715362549,16.67820930480957,231,5346.0,0.49422916769981384,-4,9844.0
9480,0.37019696831703186,13.757598876953125,237,5346.0,1.34880530834198,-151,9844.0
9490,0.3707001507282257,11.38985538482666,200,5346.0,-1.606459617614746,-107,9844.0
9500,0.37115997076034546,9.695099830627441,138,5346.0,-3.5004825592041016,-90,9844.0
9510,0.3725070059299469,6.671102523803711,101,5346.0,-4.072690486907959,-71,9844.0
9520,0.3729574382305145,1.560591697692871,31,5346.0,-7.190243244171143,-3,9844.0
9530,0.37339144945144653,-2.7266414165496826,-90,5346.0,-1.5753653049468994,23,9844.0
9540,0.3737999498844147,-9.160157203674316,-147,5346.0,-1.8596478700637817,91,9844.0
9550,0.3742014765739441,-8.26605224609375,-174,5346.0,1.4323618412017822,73,9844.0
9560,0.3759285509586334,-5.795421123504639,-71,5346.0,2.7428066730499268,61,9844.0
9570,0.3763248324394226,-3.3367254734039307,-45,5346.0,5.650836944580078,17,9844.0
9580,0.37669941782951355,-2.4715616703033447,-7,5346.0,7.213089466094971,37,9844.0
9590,0.3770408034324646,-0.04180797562003136,56,5346.0,6.973413467407227,24,9844.0
9600,0.3745530843734741,2.5935492515563965,83,5346.0,8.271559715270996,40,9844.0
9610,0.37467965483665466,5.58046293258667,102,5346.0,7.183781147003174,16,9844.0
9620,0.37483400106430054,5.450239181518555,120,5346.0,2.6090049743652344,-12,9844.0
9630,0.37497326731681824,6.434390544891357,105,5346.0,-5.747652053833008,-67,9844.0
9640,0.3746841251850128,3.381390333175659,90,5346.0,-10.700934410095215,-164,9844.0
9650,0.37473222613334656,2.578989267349243,42,5346.0,-8.615557670593262,-56,9844.0
9660,0.374750554561615,2.9349358081817627,15,5346.0,-8.439934730529785,-26,9844.0
9670,0.374756783246994,4.363986492156982,32,5346.0,-5.2915568351745605,-8,9844.0
9680,0.37476882338523865,4.968995094299316,41,5346.0,-4.221280574798584,-29,9844.0
9690,0.3744443356990814,3.3518433570861816,65,5346.0,0.06847444921731949,-44,9844.0
9700,0.37439459562301636,2.609015703201294,82,5346.0,2.581604480743408,34,9844.0
9710,0.37448081374168396,1.7842546701431274,26,5346.0,5.3263468742370605,54,9844.0
9720,0.37456047534942627,-2.6564431190490723,-55,5346.0,7.569892406463623,34,9844.0
9730,0.37519600987434387,-2.186152458190918,20,5346.0,3.862672805786133,-51,9844.0
9740,0.3752842843532562,-0.42231711745262146,32,5346.0,4.542247295379639,-16,9844.0
9750,0.37544775009155273,-0.9267839789390564,-4,5346.0,4.646486282348633,61,9844.0
9760,0.37550297379493713,-1.596557378768921,-6,5346.0,4.938685417175293,52,9844.0
9770,0.37566208839416504,-1.6638143062591553,-16,5346.0,1.8277571201324463,76,9844.0
9780,0.3762693703174591,-2.7197682857513428,-66,5346.0,-0.8142926692962646,87,9844.0
9790,0.3762984573841095,-2.2730391025543213,-70,5346.0,2.7304999828338623,98,9844.0
9800,0.37632817029953003,-1.6068905591964722,-28,5346.0,2.5331461429595947,102,9844.0
9810,0.3763929307460785,-0.3182910084724426,-62,5346.0,0.2970344126224518,80,9844.0
9820,0.37702491879463196,-1.0288505554199219,-72,5346.0,-4.0111799240112305,-7,9844.0
9830,0.37711381912231445,-0.18810829520225525,-15,5346.0,-6.081246852874756,-20,9844.0
9840,0.3772249221801758,1.1397018432617188,-3,5346.0,-6.835783958435059,-25,9844.0
9850,0.37738490104675293,-0.24898231029510498,-41,5346.0,-2.6068575382232666,36,9844.0
9860,0.37852954864501953,2.546349048614502,-27,5346.0,1.4173016548156738,82,9844.0
9870,0.37878936529159546,3.980956554412842,56,5346.0,1.3797965049743652,89,9844.0
9880,0.37899190187454224,3.6474547386169434,64,5346.0,4.089727401733398,-80,9844.0
9890,0.37917622923851013,2.373201847076416,103,5346.0,3.0869200229644775,20,9844.0
9900,0.3793911933898926,2.1760945320129395,75,5346.0,3.5654120445251465,4,9844.0
9910,0.38054123520851135,2.52805495262146,43,5346.0,5.931351661682129,6,9844.0
9920,0.3807912766933441,1.8302332162857056,64,5346.0,1.1342062950134277,-180,9844.0
9930,0.3809744417667389,1.0221116542816162,90,5346.0,1.4793920516967773,-114,9844.0
9940,0.38121771812438965,4.275853157043457,133,5346.0,-4.437223434448242,-153,9844.0
9950,0.38011133670806885,5.020590782165527,132,5346.0,-4.862913608551025,-224,9844.0
9960,0.38016775250434875,5.272662162780762,143,5346.0,-7.971865177154541,-145,9844.0
9970,0.3802074193954468,6.179413318634033,35,5346.0,-8.418827056884766,-147,9844.0
9980,0.3802158236503601,4.4595160484313965,57,5346.0,-4.857636451721191,-30,9844.0
9990,0.38016819953918457,4.526002407073975,53,5346.0,-1.4882256984710693,100,9844.0
10000,0.3804686963558197,2.345158576965332,29,5346.0,0.9564141035079956,7,9844.0
10010,0.3804563283920288,1.787834644317627,47,5346.0,3.2000608444213867,47,9844.0
10020,0.38045287132263184,-1.8283973932266235,-31,5346.0,8.384564399719238,24,9844.0
10030,0.38045912981033325,-3.4479331970214844,-106,5346.0,4.7722015380859375,43,9844.0
10040,0.38068580627441406,-5.396486282348633,-79,5346.0,1.8818362951278687,1,9844.0
10050,0.38072648644447327,-3.539210557937622,-28,5346.0,0.9505261778831482,-61,9844.0
10060,0.3807758390903473,-4.5493974685668945,-56,5346.0,-2.878342628479004,-118,9844.0
10070,0.3808138966560364,-3.971529483795166,-40,5346.0,-8.721548080444336,-123,9844.0
10080,0.3812864124774933,-3.2135002613067627,0,5346.0,-7.122349739074707,-129,9844.0
10090,0.38136088848114014,0.2968323528766632,-7,5346.0,-0.19931873679161072,100,9844.0
10100,0.3814283013343811,1.0997493267059326,7,5346.0,-0.3520652949810028,124,9844.0
10110,0.38146311044692993,0.6777929663658142,-22,5346.0,4.027872085571289,147,9844.0
10120,0.38147082924842834,0.53492671251297,-58,5346.0,-0.13065606355667114,191,9844.0
10130,0.3816795349121094,-2.156787157058716,-40,5346.0,0.7694933414459229,37,9844.0
10140,0.38172125816345215,-2.3731961250305176,-41,5346.0,4.71970272064209,92,9844.0
10150,0.3817601203918457,-1.303977131843567,-30,5346.0,0.6350657939910889,-61,9844.0
10160,0.3818323016166687,-2.6612815856933594,-18,5346.0,-1.047291874885559,-97,9844.0
10170,0.3834550380706787,-5.003633499145508,-11,5346.0,-0.21823133528232574,-83,9844.0
10180,0.3836001753807068,-3.650432825088501,-57,5346.0,-0.7703962922096252,-80,9844.0
10190,0.383716881275177,-4.649903297424316,-40,5346.0,-1.4496961832046509,-12,9844.0
10200,0.38377970457077026,-5.966344356536865,-89,5346.0,0.6088764667510986,-13,9844.0
10210,0.3837626874446869,-3.280534029006958,-58,5346.0,0.3254842460155487,50,9844.0
10220,0.384962260723114,-3.5724291801452637,-56,5346.0,3.5606019496917725,174,9844.0
10230,0.3849729597568512,-3.7348568439483643,-72,5346.0,2.2549638748168945,97,9844.0
10240,0.38499021530151367,-3.036832332611084,-83,5346.0,3.4982361793518066,136,9844.0
10250,0.38509923219680786,-1.5505752563476562,-67,5346.0,3.9288318157196045,67,9844.0
10260,0.3858839273452759,-3.558704376220703,-46,5346.0,3.5473873615264893,76,9844.0
10270,0.38596078753471375,-1.2551257610321045,-46,5346.0,1.167191743850708,21,9844.0
10280,0.3860267400741577,-3.071606159210205,-96,5346.0,4.13289737701416,-38,9844.0
10290,0.38607257604599,-4.564972877502441,-36,5346.0,1.9608756303787231,-69,9844.0
10300,0.3868210017681122,-2.2165591716766357,-1,5346.0,-1.1064958572387695,-115,9844.0
10310,0.38688525557518005,-1.181729793548584,-16,5346.0,-1.3066699504852295,-127,9844.0
10320,0.386948823928833,-0.4470686614513397,55,5346.0,-0.07693308591842651,-102,9844.0
10330,0.38702934980392456,1.4856234788894653,40,5346.0,-5.72088098526001,-121,9844.0
10340,0.38711851835250854,2.776151657104492,15,5346.0,-4.626114845275879,82,9844.0
10350,0.38950738310813904,-0.0005351175786927342,-10,5346.0,-1.3578249216079712,110,9844.0
10360,0.3896869122982025,0.5913140773773193,-31,5346.0,2.5528409481048584,145,9844.0
10370,0.38982659578323364,1.1057195663452148,-8,5346.0,0.735114336013794,46,9844.0
10380,0.389950692653656,0.927083432674408,2,5346.0,2.2964909076690674,28,9844.0
10390,0.3908185064792633,0.7510262131690979,37,5346.0,1.5773471593856812,-80,9844.0
10400,0.390988826751709,2.5294415950775146,14,5346.0,2.969923734664917,-66,9844.0
10410,0.3911482095718384,0.5911045670509338,67,5346.0,2.4002933502197266,-69,9844.0
10420,0.39132454991340637,-0.39016780257225037,44,5346.0,1.0748299360275269,-15,9844.0
10430,0.3914770483970642,-1.1442736387252808,-43,5346.0,2.6244523525238037,163,9844.0
10440,0.39182233810424805,-1.8780831098556519,-36,5346.0,3.2833168506622314,185,9844.0
10450,0.39195871353149414,-0.5220991969108582,-36,5346.0,-1.3887741565704346,56,9844.0
10460,0.39204418659210205,-1.4304239749908447,-41,5346.0,1.2895210981369019,59,9844.0
10470,0.3921094536781311,-0.020070238038897514,-43,5346.0,1.70661461353302,-24,9844.0
10480,0.39410194754600525,1.1623722314834595,72,5346.0,-1.5039489269256592,-177,9844.0
10490,0.39422160387039185,0.9174944162368774,46,5346.0,2.488056182861328,-70,9844.0
10500,0.39441007375717163,0.08702173829078674,29,5346.0,3.0527355670928955,14,9844.0
10510,0.3945445418357849,0.5857876539230347,-27,5346.0,-0.6117684841156006,35,9844.0
10520,0.39476776123046875,-1.218392014503479,-27,5346.0,2.888305902481079,161,9844.0
10530,0.394787460565567,-0.7505648136138916,1,5346.0,3.852527618408203,131,9844.0
10540,0.39479419589042664,0.9014428853988647,14,5346.0,1.0444426536560059,6,9844.0
10550,0.39478597044944763,2.2560811042785645,12,5346.0,-3.0891785621643066,-63,9844.0
10560,0.3948170244693756,-0.385398268699646,-4,5346.0,0.905568540096283,-149,9844.0
10570,0.3961288630962372,-1.2096877098083496,-7,5346.0,-1.9389073848724365,-131,9844.0
10580,0.39626070857048035,-1.2804017066955566,-7,5346.0,-0.7691927552223206,-70,9844.0
10590,0.3963942527770996,-0.7078361511230469,-45,5346.0,-0.32169148325920105,58,9844.0
10600,0.39642974734306335,-2.1971259117126465,-61,5346.0,1.076803207397461,169,9844.0
10610,0.39509233832359314,-2.7810089588165283,-53,5346.0,5.045777797698975,189,9844.0
10620,0.3949587643146515,-3.800201892852783,-46,5346.0,8.47093677520752,-10,9844.0
10630,0.39481332898139954,-2.74729323387146,-48,5346.0,3.243981122970581,-15,9844.0
10640,0.3946423828601837,-4.7461419105529785,-75,5346.0,2.3704419136047363,39,9844.0
10650,0.39446377754211426,-2.3340816497802734,-32,5346.0,2.313308000564575,69,9844.0
10660,0.394895076751709,-2.2450945377349854,-21,5346.0,-0.9456387162208557,110,9844.0
10670,0.39474767446517944,-1.6489944458007812,-36,5346.0,0.5486000180244446,122,9844.0
10680,0.3946055471897125,0.04422203078866005,-56,5346.0,2.006855010986328,92,9844.0
10690,0.39445576071739197,1.9828503131866455,31,5346.0,-3.1134047508239746,-11,9844.0
10700,0.39575761556625366,0.9243206977844238,27,5346.0,1.0782264471054077,-59,9844.0
10710,0.395677775144577,-0.6053410172462463,30,5346.0,3.8336284160614014,-88,9844.0
10720,0.3956153690814972,0.7563867568969727,-15,5346.0,-1.696624994277954,-75,9844.0
10730,0.3955487012863159,-0.9035016894340515,-9,5346.0,0.8994312286376953,-20,9844.0
10740,0.39718392491340637,-1.0777850151062012,-8,5346.0,-3.0627636909484863,59,9844.0
10750,0.3971705436706543,-1.0904626846313477,-59,5346.0,-3.598940849304199,81,9844.0
10760,0.3971458375453949,-0.928363025188446,-20,5346.0,-1.8260000944137573,-10,9844.0
10770,0.39710894227027893,-1.064392328262329,-34,5346.0,-4.238813877105713,-41,9844.0
10780,0.3970564603805542,-2.191655397415161,-37,5346.0,0.1345524936914444,-118,9844.0
10790,0.396213561296463,-2.3020551204681396,3,5346.0,4.875124454498291,-6,9844.0
10800,0.39610856771469116,2.242365837097168,50,5346.0,0.8133155107498169,35,9844.0
10810,0.39598050713539124,1.8936227560043335,32,5346.0,4.300562858581543,123,9844.0
10820,0.39584270119667053,0.6234006285667419,11,5346.0,0.30288800597190857,125,9844.0
10830,0.3965819180011749,-0.5567610263824463,8,5346.0,3.562598705291748,99,9844.0
10840,0.3964826464653015,-0.8422338962554932,-37,5346.0,2.2099668979644775,32,9844.0
10850,0.39638933539390564,0.22605977952480316,-2,5346.0,-1.5042707920074463,-68,9844.0
10860,0.3962491452693939,-0.9063584208488464,-16,5346.0,-3.0019657611846924,-124,9844.0
10870,0.3961125910282135,0.9294991493225098,28,5346.0,-4.684972763061523,-153,9844.0
10880,0.3966999053955078,-1.8202636241912842,-1,5346.0,0.5119640827178955,-49,9844.0
10890,0.3965749740600586,-1.329365611076355,-48,5346.0,1.4205219745635986,92,9844.0
10900,0.3964315354824066,0.7282716035842896,-28,5346.0,-1.8462779521942139,39,9844.0
10910,0.3962637186050415,-0.11905040591955185,12,5346.0,-4.646092414855957,46,9844.0
10920,0.3972175717353821,3.0995311737060547,64,5346.0,0.8111901879310608,-27,9844.0
10930,0.39707809686660767,1.166306972503662,29,5346.0,6.308599948883057,-15,9844.0
10940,0.3969249725341797,3.1237380504608154,48,5346.0,8.983784675598145,43,9844.0
10950,0.3967442810535431,3.026650905609131,78,5346.0,-0.5099486112594604,-113,9844.0
10960,0.39749252796173096,1.111067295074463,50,5346.0,-1.8702569007873535,-100,9844.0
10970,0.3973819315433502,2.7566540241241455,51,5346.0,-5.743821144104004,-13,9844.0
10980,0.39724084734916687,1.6420557498931885,27,5346.0,-5.815971851348877,-60,9844.0
10990,0.3971325159072876,2.4076600074768066,21,5346.0,-7.373016834259033,18,9844.0
11000,0.3970145881175995,0.8143897652626038,-23,5346.0,-3.203298330307007,143,9844.0
11010,0.3985155522823334,0.6283861398696899,-57,5346.0,-4.298511981964111,64,9844.0
11020,0.3984678089618683,0.07671042531728745,17,5346.0,-3.8856024742126465,-53,9844.0
11030,0.3984110355377197,0.5025188326835632,24,5346.0,1.7833555936813354,-99,9844.0
11040,0.39834895730018616,2.6088414192199707,56,5346.0,4.631736755371094,-76,9844.0
11050,0.4000888466835022,0.38402125239372253,-12,5346.0,1.337960124015808,-9,9844.0
11060,0.4001428484916687,-0.2091801017522812,35,5346.0,0.3053848147392273,16,9844.0
11070,0.40020790696144104,-0.4809681177139282,-15,5346.0,5.162766456604004,166,9844.0
11080,0.4002896845340729,-0.6313612461090088,-36,5346.0,0.011480271816253662,160,9844.0
11090,0.4003589153289795,0.18787992000579834,7,5346.0,-0.8499319553375244,44,9844.0
11100,0.40226462483406067,0.6025227904319763,-14,5346.0,-4.898864269256592,-13,9844.0
11110,0.402398020029068,0.5803380012512207,-3,5346.0,-2.764756202697754,-122,9844.0
11120,0.40251484513282776,1.3624495267868042,62,5346.0,-6.242908477783203,-145,9844.0
11130,0.4026247262954712,0.7230378985404968,-20,5346.0,-0.45287439227104187,-87,9844.0
11140,0.40203529596328735,0.8829545378684998,39,5346.0,-3.7920258045196533,-81,9844.0
11150,0.4020870327949524,1.3576740026474,78,5346.0,-1.2829166650772095,2,9844.0
11160,0.4021104574203491,4.483425140380859,89,5346.0,-3.547694444656372,-23,9844.0
11170,0.4020623564720154,2.4706108570098877,47,5346.0,4.166934967041016,97,9844.0
11180,0.40118634700775146,3.2898495197296143,31,5346.0,4.4820942878723145,102,9844.0
11190,0.40097925066947937,-0.30179810523986816,47,5346.0,4.851640701293945,-8,9844.0
11200,0.4007730484008789,1.593195915222168,-5,5346.0,0.6596771478652954,-11,9844.0
11210,0.4005601406097412,-1.7571688890457153,-43,5346.0,0.7749947309494019,-1,9844.0
11220,0.4003705084323883,-1.1487269401550293,15,5346.0,-2.24678373336792,30,9844.0
11230,0.40133076906204224,-1.3041290044784546,-4,5346.0,-1.7081552743911743,47,9844.0
11240,0.40120723843574524,-1.9222586154937744,-41,5346.0,-1.635474443435669,-16,9844.0
11250,0.4010547697544098,0.25932061672210693,23,5346.0,-1.299000859260559,-11,9844.0
11260,0.40087124705314636,-0.05718817934393883,14,5346.0,-0.13051369786262512,-54,9844.0
11270,0.4011891186237335,-0.1778879165649414,25,5346.0,1.2629210948944092,-78,9844.0
11280,0.4010467827320099,1.3809841871261597,-14,5346.0,-1.0406118631362915,-43,9844.0
11290,0.4009208083152771,-0.7523934245109558,-23,5346.0,0.847317636013031,72,9844.0
11300,0.40080878138542175,-1.726965069770813,-33,5346.0,1.7088513374328613,119,9844.0
11310,0.4007028639316559,-0.702926754951477,-30,5346.0,-0.8703491687774658,-40,9844.0
11320,0.401493638753891,0.16859111189842224,70,5346.0,-0.6577047109603882,-17,9844.0
11330,0.4013768136501312,-1.4201358556747437,17,5346.0,7.8614821434021,-28,9844.0
11340,0.40123385190963745,1.0674489736557007,7,5346.0,3.3657190799713135,42,9844.0
11350,0.4010970890522003,1.7818623781204224,26,5346.0,-1.1918951272964478,-51,9844.0
11360,0.39939767122268677,1.173871397972107,58,5346.0,0.1828690469264984,61,9844.0
11370,0.3991840183734894,0.9523725509643555,-12,5346.0,1.6201550960540771,125,9844.0
11380,0.3990015387535095,-0.2841653525829315,-44,5346.0,-0.39120960235595703,117,9844.0
11390,0.3987993896007538,1.2977609634399414,10,5346.0,-0.6490956544876099,4,9844.0
11400,0.40103399753570557,-0.2714443802833557,-3,5346.0,-0.8353898525238037,-90,9844.0
11410,0.4009450078010559,0.9845230579376221,7,5346.0,-0.11025118082761765,-51,9844.0
11420,0.4008413553237915,-2.163290023803711,35,5346.0,3.1597142219543457,-75,9844.0
11430,0.40071186423301697,0.7309297919273376,17,5346.0,3.7861921787261963,5,9844.0
11440,0.40055176615715027,0.20998887717723846,-3,5346.0,0.7419974207878113,92,9844.0
11450,0.4010244905948639,0.44774478673934937,-10,5346.0,-0.7998322248458862,112,9844.0
11460,0.4008720815181732,0.5958532691001892,-16,5346.0,0.8550220131874084,139,9844.0
11470,0.40067702531814575,0.5425609946250916,-14,5346.0,0.7951698303222656,85,9844.0
11480,0.4004599452018738,0.566142737865448,0,5346.0,1.1069482564926147,-8,9844.0
11490,0.3997715711593628,0.009356146678328514,17,5346.0,1.5873706340789795,29,9844.0
11500,0.3995491564273834,-0.4037655293941498,-16,5346.0,-0.1665119081735611,12,9844.0
11510,0.39932966232299805,-1.2547179460525513,9,5346.0,4.137617111206055,6,9844.0
11520,0.3991682231426239,1.8748714923858643,68,5346.0,0.7228015065193176,25,9844.0
11530,0.3990655243396759,0.8846340775489807,10,5346.0,3.7277822494506836,108,9844.0
11540,0.39932334423065186,-0.04376250505447388,-14,5346.0,2.577139377593994,87,9844.0
11550,0.39922279119491577,-1.5964975357055664,-64,5346.0,2.0965256690979004,159,9844.0
11560,0.3991227149963379,-0.09990175813436508,-8,5346.0,-0.484571248292923,56,9844.0
11570,0.39897221326828003,1.441705584526062,29,5346.0,1.2881903648376465,4,9844.0
11580,0.4012065827846527,-0.24555982649326324,-1,5346.0,0.9067153930664062,-60,9844.0
11590,0.40105077624320984,-0.260406494140625,29,5346.0,2.2967848777770996,-66,9844.0
11600,0.4008632004261017,-0.7495251297950745,15,5346.0,1.8030242919921875,-16,9844.0
11610,0.40066227316856384,-0.5625578761100769,-13,5346.0,0.8641444444656372,-5,9844.0
11620,0.4006510078907013,-1.1155046224594116,11,5346.0,-2.408191204071045,61,9844.0
11630,0.40043890476226807,1.8264249563217163,10,5346.0,-1.44481360912323,15,9844.0
11640,0.40024352073669434,1.1715900897979736,-4,5346.0,-3.272320032119751,2,9844.0
11650,0.4000548720359802,0.45101800560951233,25,5346.0,-0.7290225625038147,0,9844.0
11660,0.39987415075302124,-0.06746145337820053,-26,5346.0,-1.8108857870101929,15,9844.0
11670,0.3997315466403961,0.08636977523565292,26,5346.0,2.9054479598999023,-12,9844.0
11680,0.3995206654071808,-1.0920124053955078,32,5346.0,3.578547477722168,-23,9844.0
11690,0.3993054926395416,-0.07182397693395615,-41,5346.0,-1.8775147199630737,-8,9844.0
11700,0.3990875482559204,-1.657418966293335,-55,5346.0,0.38200822472572327,19,9844.0
11710,0.4004977345466614,-0.9591453075408936,2,5346.0,-3.321953296661377,10,9844.0
11720,0.4003629982471466,-2.7693023681640625,-7,5346.0,-0.17727446556091309,-29,9844.0
11730,0.4002220928668976,-1.3594709634780884,4,5346.0,0.5529314279556274,16,9844.0
11740,0.40007346868515015,1.2516220808029175,40,5346.0,-1.7107622623443604,-2,9844.0
11750,0.3999733030796051,0.49179208278656006,8,5346.0,1.1783959865570068,-96,9844.0
11760,0.4019581973552704,0.8191643357276917,6,5346.0,3.050525426864624,-33,9844.0
11770,0.4020053446292877,-0.500413179397583,1,5346.0,1.4308717250823975,17,9844.0
11780,0.4021107256412506,0.4931356608867645,6,5346.0,1.5008214712142944,103,9844.0
11790,0.40222886204719543,-0.7035765051841736,-26,5346.0,-0.4030976891517639,57,9844.0
11800,0.40264761447906494,-0.992792010307312,-47,5346.0,-0.7193660736083984,15,9844.0
11810,0.40274778008461,-3.0682594776153564,-48,5346.0,-0.007593253627419472,4,9844.0
11820,0.402802437543869,-0.6179015040397644,-63,5346.0,-2.5780344009399414,-173,9844.0
11830,0.4028093218803406,-2.5430660247802734,2,5346.0,1.5905722379684448,-128,9844.0
11840,0.4020678699016571,-1.577483057975769,2,5346.0,1.57852303981781,-63,9844.0
11850,0.40193259716033936,-0.8328601121902466,32,5346.0,3.413839101791382,-2,9844.0
11860,0.40176546573638916,-0.20137839019298553,-12,5346.0,4.911954402923584,173,9844.0
11870,0.4015812873840332,-0.8541764616966248,-28,5346.0,-4.861449241638184,26,9844.0
11880,0.40138888359069824,-2.736250400543213,-44,5346.0,2.5832152366638184,6,9844.0
11890,0.40150755643844604,-4.736011981964111,-67,5346.0,-1.0444008111953735,-86,9844.0
11900,0.4012846350669861,-2.7783608436584473,-45,5346.0,-2.7672007083892822,-130,9844.0
11910,0.4010224938392639,-4.201564788818359,-31,5346.0,0.013438543304800987,-98,9844.0
11920,0.4007503390312195,-0.288607656955719,-1,5346.0,-5.68231201171875,-23,9844.0
11930,0.3995037078857422,-2.339630126953125,6,5346.0,-1.2835676670074463,35,9844.0
11940,0.39914798736572266,0.7921746373176575,-11,5346.0,-0.8439008593559265,62,9844.0
11950,0.3987814784049988,-0.9462495446205139,0,5346.0,3.436439037322998,66,9844.0
11960,0.3983953297138214,-1.491817831993103,1,5346.0,0.7152137160301208,24,9844.0
11970,0.3979833722114563,-0.4127199053764343,-26,5346.0,2.442018985748291,-23,9844.0
11980,0.3971651494503021,-0.3317461311817169,-39,5346.0,-2.108884334564209,-32,9844.0
11990,0.3967191278934479,-2.182746410369873,-5,5346.0,-0.258040189743042,5,9844.0
12000,0.3962753117084503,-3.1757049560546875,-32,5346.0,0.9492698907852173,70,9844.0
12010,0.3958337604999542,-0.7794877886772156,-7,5346.0,-1.1993138790130615,44,9844.0
12020,0.39680901169776917,-2.3575093746185303,-33,5346.0,2.607896089553833,33,9844.0
12030,0.3964424133300781,0.5485621690750122,22,5346.0,-1.749666690826416,-63,9844.0
12040,0.3960666358470917,1.8850551843643188,40,5346.0,-0.8142603039741516,-32,9844.0
12050,0.3956712782382965,-0.06250346451997757,13,5346.0,6.360102653503418,59,9844.0
12060,0.39553818106651306,2.7683193683624268,62,5346.0,3.6744093894958496,13,9844.0
12070,0.39516186714172363,1.9430091381072998,38,5346.0,1.8487969636917114,-27,9844.0
12080,0.39479947090148926,-0.3075117766857147,15,5346.0,3.3799948692321777,70,9844.0
12090,0.3944615423679352,-0.30996638536453247,7,5346.0,1.1513493061065674,30,9844.0
12100,0.39414528012275696,3.1945457458496094,17,5346.0,-2.4815614223480225,48,9844.0
12110,0.39610522985458374,-0.6431497931480408,-16,5346.0,-2.8877487182617188,50,9844.0
12120,0.39589425921440125,-0.26214808225631714,-2,5346.0,2.5179827213287354,-45,9844.0
12130,0.39568445086479187,1.0170539617538452,-10,5346.0,-2.7584383487701416,-1,9844.0
12140,0.39545977115631104,1.0745127201080322,51,5346.0,-1.948561668395996,-17,9844.0
12150,0.39631569385528564,1.5620121955871582,18,5346.0,-2.8382089138031006,-84,9844.0
12160,0.3961590528488159,0.6255714297294617,18,5346.0,3.567058801651001,-11,9844.0
12170,0.3960084915161133,2.214506149291992,52,5346.0,2.7295544147491455,53,9844.0
12180,0.39585256576538086,0.675304114818573,23,5346.0,3.067502021789551,69,9844.0
12190,0.395687460899353,1.9344805479049683,-17,5346.0,0.11310693621635437,91,9844.0
12200,0.3964293301105499,-0.7618009448051453,-38,5346.0,-1.9265507459640503,62,9844.0
12210,0.39631387591362,-2.5955376625061035,-51,5346.0,-3.7108678817749023,24,9844.0
12220,0.39620253443717957,-1.9805601835250854,-64,5346.0,-1.8414561748504639,29,9844.0
12230,0.3961033523082733,-1.487981915473938,-35,5346.0,-4.144073963165283,-37,9844.0
12240,0.39718785881996155,-0.29459306597709656,2,5346.0,1.1415642499923706,13,9844.0
12250,0.397140771150589,0.2928825318813324,42,5346.0,3.8265695571899414,-79,9844.0
12260,0.39708447456359863,3.0268123149871826,12,5346.0,-1.9826477766036987,-34,9844.0
12270,0.39699655771255493,4.169112205505371,68,5346.0,1.0699009895324707,-48,9844.0
12280,0.3984568119049072,1.237282395362854,25,5346.0,-0.9147420525550842,-4,9844.0
12290,0.39842304587364197,3.3140571117401123,35,5346.0,-3.382507085800171,30,9844.0
12300,0.3983679413795471,3.11185622215271,42,5346.0,0.5538614988327026,85,9844.0
12310,0.3983042240142822,1.4115175008773804,-21,5346.0,0.9189133048057556,22,9844.0
12320,0.3982435166835785,1.113784670829773,-26,5346.0,-0.7090054154396057,15,9844.0
12330,0.39923736453056335,1.6580359935760498,3,5346.0,-0.15596742928028107,-53,9844.0
12340,0.3991903066635132,1.714867115020752,11,5346.0,0.31212836503982544,51,9844.0
12350,0.3990960121154785,3.116603136062622,67,5346.0,-2.8713746070861816,-208,9844.0
12360,0.39897218346595764,0.9621206521987915,53,5346.0,-2.379864454269409,-99,9844.0
12370,0.3977350890636444,1.7177447080612183,40,5346.0,-7.0838165283203125,-1,9844.0
12380,0.3975886404514313,2.871124029159546,17,5346.0,-3.1718289852142334,32,9844.0
12390,0.39742979407310486,2.1498618125915527,-10,5346.0,-4.5245561599731445,11,9844.0
12400,0.3973304033279419,1.7402665615081787,6,5346.0,-3.5547444820404053,-23,9844.0
12410,0.39723819494247437,1.700650691986084,6,5346.0,-1.4964700937271118,-43,9844.0
12420,0.3978388011455536,1.4524842500686646,63,5346.0,0.5526814460754395,-115,9844.0
12430,0.3977169394493103,0.7984519600868225,39,5346.0,1.715930461883545,-53,9844.0
12440,0.3975425660610199,-1.4826430082321167,-20,5346.0,3.0844342708587646,-53,9844.0
12450,0.3972822427749634,-1.1168960332870483,-15,5346.0,-0.5369847416877747,-10,9844.0
12460,0.3977963626384735,-0.3961193561553955,-11,5346.0,-1.1021326780319214,78,9844.0
12470,0.39749449491500854,-1.1210870742797852,-72,5346.0,-1.5473679304122925,36,9844.0
12480,0.3971604108810425,-2.9008426666259766,-60,5346.0,0.22380691766738892,85,9844.0
12490,0.39681681990623474,-0.8693121671676636,-33,5346.0,-0.34968361258506775,13,9844.0
12500,0.3962937593460083,-0.2742331027984619,-8,5346.0,3.404762029647827,26,9844.0
12510,0.3959599435329437,-0.8096621632575989,18,5346.0,-1.493793249130249,-137,9844.0
12520,0.39564159512519836,-1.2887989282608032,56,5346.0,2.183401584625244,-142,9844.0
12530,0.395332932472229,1.3200017213821411,16,5346.0,-2.4832286834716797,-70,9844.0
12540,0.3950113356113434,0.7125974297523499,-19,5346.0,0.28599604964256287,97,9844.0
12550,0.395455926656723,0.7039963006973267,-5,5346.0,1.7481648921966553,89,9844.0
12560,0.3951054513454437,1.4284664392471313,2,5346.0,2.411378860473633,142,9844.0
12570,0.3947509825229645,1.1217087507247925,8,5346.0,3.312068223953247,121,9844.0
12580,0.3944057822227478,1.451298713684082,-29,5346.0,2.440734386444092,108,9844.0
12590,0.3936399519443512,-0.6950685381889343,-38,5346.0,4.101004600524902,-42,9844.0
12600,0.39327532052993774,-2.2493979930877686,-26,5346.0,1.9207488298416138,-21,9844.0
12610,0.39291566610336304,-1.9996033906936646,-19,5346.0,0.6539052128791809,-63,9844.0
12620,0.3925572335720062,-3.7459726333618164,-60,5346.0,4.318209648132324,-23,9844.0
12630,0.3921971619129181,-1.7539112567901611,-42,5346.0,0.3898654878139496,27,9844.0
12640,0.3949936330318451,-1.7643507719039917,5,5346.0,-0.49875780940055847,58,9844.0
12650,0.39487093687057495,-2.646411895751953,-85,5346.0,4.501524925231934,121,9844.0
12660,0.39470675587654114,-0.098309725522995,-19,5346.0,4.585822105407715,111,9844.0
12670,0.39450228214263916,-0.07536809891462326,3,5346.0,1.333540916442871,-24,9844.0
12680,0.39460062980651855,-0.8901188969612122,21,5346.0,2.1470422744750977,-9,9844.0
12690,0.39440563321113586,0.8996279239654541,50,5346.0,1.887181282043457,-64,9844.0
12700,0.39419975876808167,0.6723725199699402,3,5346.0,2.468163251876831,-31,9844.0
12710,0.3939743936061859,0.1403518170118332,16,5346.0,7.699131011962891,131,9844.0
12720,0.3942156732082367,2.1176061630249023,21,5346.0,3.2283213138580322,136,9844.0
12730,0.39399802684783936,1.6327636241912842,-33,5346.0,3.2947421073913574,127,9844.0
12740,0.3937768042087555,1.283036470413208,25,5346.0,2.046900510787964,105,9844.0
12750,0.39355728030204773,1.4875797033309937,-41,5346.0,0.11087186634540558,56,9844.0
12760,0.3933391869068146,-0.8010683655738831,-38,5346.0,1.2479979991912842,-4,9844.0
12770,0.39375483989715576,-2.012071371078491,-27,5346.0,-2.298311948776245,-62,9844.0
12780,0.3935530185699463,-1.6411044597625732,4,5346.0,-4.678738594055176,-201,9844.0
12790,0.39335161447525024,-2.3123180866241455,-17,5346.0,-3.2845544815063477,-103,9844.0
12800,0.39312639832496643,-1.7070132493972778,-1,5346.0,-3.065037965774536,7,9844.0
12810,0.39292415976524353,-2.1237337589263916,-30,5346.0,-2.4592015743255615,40,9844.0
12820,0.39266902208328247,-0.12383563816547394,-23,5346.0,0.9385268688201904,113,9844.0
12830,0.3923991322517395,0.3689627945423126,-13,5346.0,6.070928573608398,178,9844.0
12840,0.3920954167842865,0.6743507385253906,16,5346.0,4.586366176605225,-16,9844.0
12850,0.39179539680480957,3.233865737915039,33,5346.0,4.756008625030518,-36,9844.0
12860,0.3919479548931122,-0.7523887753486633,29,5346.0,3.5087521076202393,-86,9844.0
12870,0.3916343152523041,0.016283631324768066,16,5346.0,-0.4217873811721802,-18,9844.0
12880,0.39131003618240356,1.6573678255081177,27,5346.0,-1.5634191036224365,39,9844.0
12890,0.3909763991832733,0.8131746053695679,6,5346.0,-1.9219475984573364,87,9844.0
12900,0.391424298286438,0.088204525411129,-59,5346.0,-0.6107134222984314,86,9844.0
12910,0.39109763503074646,1.842968225479126,-5,5346.0,-0.8412559032440186,55,9844.0
12920,0.39082276821136475,1.8233848810195923,21,5346.0,0.7117172479629517,-13,9844.0
12930,0.3905370533466339,1.9086071252822876,56,5346.0,0.4903971254825592,-130,9844.0
12940,0.3901249170303345,1.8842213153839111,41,5346.0,0.15673156082630157,-68,9844.0
12950,0.3897821605205536,-0.7955222725868225,17,5346.0,4.404216289520264,42,9844.0
12960,0.3894142508506775,-0.7123051285743713,12,5346.0,4.187647342681885,129,9844.0
12970,0.3890538811683655,-0.03944793716073036,-6,5346.0,-0.6806836128234863,31,9844.0
12980,0.3886972963809967,0.8991849422454834,16,5346.0,0.0397140234708786,126,9844.0
12990,0.3888516128063202,0.006293230690062046,20,5346.0,2.676438570022583,104,9844.0
13000,0.3885188400745392,-0.6875157952308655,-31,5346.0,3.0393643379211426,1,9844.0
13010,0.3881896138191223,-0.9016151428222656,18,5346.0,7.458746910095215,-36,9844.0
13020,0.38785094022750854,-0.3687591552734375,22,5346.0,3.0212998390197754,-78,9844.0
13030,0.3888947069644928,0.9654330015182495,-9,5346.0,-0.8602603673934937,-100,9844.0
13040,0.3886570632457733,1.5386008024215698,32,5346.0,-2.821763515472412,5,9844.0
13050,0.3884107768535614,1.549151062965393,36,5346.0,3.1117959022521973,108,9844.0
13060,0.388149231672287,1.8249009847640991,6,5346.0,2.4044790267944336,86,9844.0
13070,0.3878735303878784,0.7488768100738525,-24,5346.0,0.6073755025863647,110,9844.0
13080,0.38723304867744446,0.33080512285232544,-29,5346.0,2.19828724861145,70,9844.0
13090,0.38691261410713196,-1.7589976787567139,-23,5346.0,0.2908210754394531,-41,9844.0
13100,0.38656163215637207,-3.7097387313842773,-37,5346.0,1.4221352338790894,-79,9844.0
13110,0.3861817717552185,-2.6534011363983154,-78,5346.0,2.3692193031311035,-38,9844.0
13120,0.3860960006713867,-2.1346278190612793,-21,5346.0,-5.250027179718018,-84,9844.0
13130,0.3856796622276306,-1.5071868896484375,44,5346.0,-6.416765213012695,-52,9844.0
13140,0.3852556645870209,0.6153090000152588,23,5346.0,0.4392848312854767,94,9844.0
13150,0.3848351836204529,1.9798719882965088,-30,5346.0,1.2746000289916992,136,9844.0
13160,0.38506680727005005,-0.3125343322753906,5,5346.0,3.926286458969116,101,9844.0
13170,0.384726881980896,-2.8209691047668457,-18,5346.0,4.285573959350586,15,9844.0
13180,0.3844253718852997,-0.4665815830230713,-33,5346.0,1.8440797328948975,-65,9844.0
13190,0.38416367769241333,-1.6519912481307983,-44,5346.0,-1.4345816373825073,-82,9844.0
13200,0.38391321897506714,-2.8540518283843994,-16,5346.0,6.827315330505371,-71,9844.0
13210,0.3840959072113037,-1.4782466888427734,2,5346.0,1.6175674200057983,30,9844.0
13220,0.38388288021087646,-1.259217619895935,7,5346.0,0.8757294416427612,7,9844.0
13230,0.3836260735988617,-0.1612226516008377,23,5346.0,-0.9900243282318115,52,9844.0
13240,0.3833705484867096,0.40144583582878113,65,5346.0,-2.017172336578369,70,9844.0
13250,0.3834657073020935,3.1908321380615234,24,5346.0,0.18706436455249786,-64,9844.0
13260,0.3832469880580902,0.895613968372345,14,5346.0,1.8119330406188965,-27,9844.0
13270,0.3830328583717346,1.7008991241455078,30,5346.0,1.0371768474578857,-92,9844.0
13280,0.38282904028892517,-0.4640003442764282,-27,5346.0,-1.1465336084365845,-36,9844.0
13290,0.3826284408569336,-2.2450695037841797,-22,5346.0,0.40696069598197937,-36,9844.0
13300,0.384189635515213,-0.6801754832267761,-32,5346.0,-3.9308791160583496,13,9844.0
13310,0.38404056429862976,-1.6771773099899292,-23,5346.0,-2.8468079566955566,-61,9844.0
13320,0.38386449217796326,-1.3830904960632324,3,5346.0,-3.3575193881988525,-68,9844.0
13330,0.3837091326713562,-1.8193084001541138,34,5346.0,-1.2907261848449707,-125,9844.0
13340,0.3828861117362976,-0.26130226254463196,12,5346.0,-1.7976596355438232,45,9844.0
13350,0.3826543092727661,1.6657359600067139,8,5346.0,0.06998088210821152,-25,9844.0
13360,0.3824002146720886,2.9449801445007324,46,5346.0,-1.7289403676986694,15,9844.0
13370,0.3821120262145996,2.5241281986236572,51,5346.0,-1.8299144506454468,42,9844.0
13380,0.3818872570991516,0.8698472380638123,-11,5346.0,-4.425050735473633,-68,9844.0
13390,0.38155031204223633,1.515735149383545,23,5346.0,-4.987082481384277,-124,9844.0
13400,0.3811834752559662,0.1619671732187271,26,5346.0,0.633944571018219,-97,9844.0
13410,0.3808024525642395,-1.3221335411071777,-6,5346.0,4.088656425476074,33,9844.0
13420,0.38043421506881714,-0.20314514636993408,11,5346.0,0.681342363357544,31,9844.0
13430,0.3818953335285187,0.09867524355649948,-8,5346.0,2.2253196239471436,104,9844.0
13440,0.38162317872047424,-1.9959293603897095,-57,5346.0,3.1008243560791016,180,9844.0
13450,0.38134604692459106,0.4255315363407135,29,5346.0,-1.6524426937103271,55,9844.0
13460,0.38106539845466614,1.122245192527771,15,5346.0,0.22628861665725708,-35,9844.0
13470,0.38245174288749695,1.3453593254089355,18,5346.0,-1.0704843997955322,-58,9844.0
13480,0.38225793838500977,-2.121570348739624,62,5346.0,-0.0930975005030632,-145,9844.0
13490,0.3820800185203552,-1.0329848527908325,31,5346.0,2.2087295055389404,-77,9844.0
13500,0.3819124102592468,-1.9602513313293457,-12,5346.0,0.8232479095458984,-27,9844.0
13510,0.3817286789417267,-2.5193419456481934,-54,5346.0,-1.7160300016403198,72,9844.0
13520,0.3812195658683777,-0.11570630967617035,-40,5346.0,-1.9103693962097168,53,9844.0
13530,0.3809778392314911,0.21037590503692627,2,5346.0,-4.75595235824585,-9,9844.0
13540,0.38073402643203735,1.031645655632019,14,5346.0,1.7746907472610474,55,9844.0
13550,0.3805021345615387,1.8831288814544678,31,5346.0,1.1917715072631836,49,9844.0
13560,0.3809244632720947,1.0950709581375122,80,5346.0,-0.3478229343891144,-80,9844.0
13570,0.3808514177799225,0.6100308895111084,72,5346.0,2.291445016860962,-104,9844.0
13580,0.3807785212993622,1.0386481285095215,17,5346.0,1.3272943496704102,-8,9844.0
13590,0.380671888589859,-0.2621733844280243,15,5346.0,1.251618504524231,65,9844.0
13600,0.37914782762527466,0.2827715575695038,-15,5346.0,1.7844650745391846,122,9844.0
13610,0.378894567489624,-1.2827156782150269,-37,5346.0,-1.8711323738098145,57,9844.0
13620,0.3786144554615021,-1.4698750972747803,10,5346.0,-1.454728603363037,-41,9844.0
13630,0.37831154465675354,0.4269617795944214,-7,5346.0,-1.6115918159484863,-58,9844.0
13640,0.37798428535461426,0.33815518021583557,46,5346.0,1.3962275981903076,-89,9844.0
13650,0.3776547312736511,-1.1143873929977417,35,5346.0,2.886021614074707,-22,9844.0
13660,0.3773161470890045,-0.47443118691444397,7,5346.0,-2.109645128250122,-10,9844.0
13670,0.3769741952419281,-0.5268034934997559,-41,5346.0,3.6386961936950684,91,9844.0
13680,0.37662389874458313,0.6643645167350769,-7,5346.0,3.934957981109619,190,9844.0
13690,0.3773423433303833,0.5808350443840027,-31,5346.0,-0.5743077397346497,93,9844.0
13700,0.37705162167549133,1.1710326671600342,25,5346.0,0.11042927950620651,-18,9844.0
13710,0.376741498708725,-0.7290018796920776,4,5346.0,2.326746702194214,90,9844.0
13720,0.3765023350715637,0.719940721988678,9,5346.0,-3.1086041927337646,-71,9844.0
13730,0.37619054317474365,-0.2948158085346222,2,5346.0,2.0421159267425537,-84,9844.0
13740,0.3762010633945465,0.18122825026512146,17,5346.0,-7.71071720123291,-71,9844.0
13750,0.3758956491947174,-0.9526684284210205,10,5346.0,2.1019322872161865,-10,9844.0
13760,0.3755885660648346,0.49781790375709534,11,5346.0,3.7142879962921143,78,9844.0
13770,0.37526053190231323,0.1926669031381607,12,5346.0,1.5008076429367065,95,9844.0
13780,0.3756352961063385,2.503880023956299,19,5346.0,0.7534637451171875,15,9844.0
13790,0.3753606081008911,0.9926349520683289,26,5346.0,2.9601869583129883,86,9844.0
13800,0.37508612871170044,3.7630388736724854,58,5346.0,2.7851901054382324,-4,9844.0
13810,0.37480780482292175,1.303303599357605,21,5346.0,3.3856377601623535,17,9844.0
13820,0.37552905082702637,-2.15366792678833,-45,5346.0,3.6966135501861572,38,9844.0
13830,0.3753359913825989,-0.1861473023891449,-41,5346.0,-0.49299153685569763,116,9844.0
13840,0.37513667345046997,-2.7923192977905273,-32,5346.0,-1.1793533563613892,-8,9844.0
13850,0.3749715983867645,-2.834474563598633,-42,5346.0,-1.455049991607666,71,9844.0
13860,0.37476807832717896,-1.5053218603134155,-34,5346.0,-3.700282573699951,2,9844.0
13870,0.3746260106563568,1.007558822631836,34,5346.0,0.7884105443954468,15,9844.0
13880,0.37435027956962585,0.00027960274019278586,2,5346.0,1.226552963256836,16,9844.0
13890,0.3740610182285309,0.007942115887999535,18,5346.0,3.1662638187408447,-25,9844.0
13900,0.3737788498401642,1.2690801620483398,61,5346.0,3.5350377559661865,-27,9844.0
13910,0.37207862734794617,2.3726439476013184,71,5346.0,1.8708724975585938,-53,9844.0
13920,0.37170735001564026,2.8570523262023926,53,5346.0,-2.6930723190307617,-6,9844.0
13930,0.37135764956474304,1.3715224266052246,33,5346.0,-3.8563034534454346,52,9844.0
13940,0.3709796965122223,1.7481292486190796,51,5346.0,-3.5956571102142334,36,9844.0
13950,0.3705746531486511,-0.21324722468852997,13,5346.0,-2.7635862827301025,36,9844.0
13960,0.37117838859558105,-0.3832266926765442,2,5346.0,0.9234054088592529,102,9844.0
13970,0.37082892656326294,1.4646689891815186,-22,5346.0,1.5725630521774292,57,9844.0
13980,0.37048718333244324,3.1057679653167725,39,5346.0,0.9077789187431335,-77,9844.0
13990,0.3701605498790741,1.539995789527893,23,5346.0,2.7402713298797607,-37,9844.0
14000,0.3709662854671478,-0.6852332353591919,-33,5346.0,7.916283130645752,145,9844.0
14010,0.37070247530937195,-2.612351894378662,-20,5346.0,8.388408660888672,137,9844.0
14020,0.37041527032852173,-1.8047477006912231,13,5346.0,-1.0686511993408203,52,9844.0
14030,0.37010690569877625,0.5427307486534119,-19,5346.0,-4.789826393127441,72,9844.0
14040,0.3702694773674011,-1.3723564147949219,-25,5346.0,-0.583733081817627,157,9844.0
14050,0.3700101673603058,-2.1555335521698,-41,5346.0,0.24791355431079865,-3,9844.0
14060,0.3697536885738373,-0.5958539843559265,-36,5346.0,0.4205903112888336,-40,9844.0
14070,0.36949318647384644,0.46976375579833984,12,5346.0,0.5504390001296997,-93,9844.0
14080,0.36923539638519287,-1.1554549932479858,5,5346.0,2.334268093109131,-52,9844.0
14090,0.3684689402580261,-0.04351786524057388,43,5346.0,-0.023950567469000816,-65,9844.0
14100,0.36814188957214355,0.6468167304992676,17,5346.0,2.1617894172668457,50,9844.0
14110,0.36777734756469727,2.5196096897125244,49,5346.0,-4.866844654083252,2,9844.0
14120,0.3673771321773529,0.7164096236228943,25,5346.0,-4.838653087615967,62,9844.0
14130,0.3675799071788788,0.1930539757013321,-34,5346.0,0.7576581239700317,82,9844.0
14140,0.3671624958515167,-1.2501853704452515,-11,5346.0,0.8262928128242493,42,9844.0
14150,0.3667486906051636,1.412690281867981,12,5346.0,-0.8242760300636292,5,9844.0
14160,0.3663540780544281,0.38641515374183655,-32,5346.0,-0.6587350368499756,-72,9844.0
14170,0.3659558892250061,-1.6813632249832153,1,5346.0,3.931562662124634,-116,9844.0
14180,0.3668178617954254,0.3073173761367798,35,5346.0,0.5932359099388123,-116,9844.0
14190,0.3665127754211426,-0.5316088199615479,24,5346.0,-2.286963701248169,-106,9844.0
14200,0.3662257194519043,-2.935032606124878,-54,5346.0,2.442909002304077,96,9844.0
14210,0.36596840620040894,-2.8148717880249023,-8,5346.0,-1.0161315202713013,52,9844.0
14220,0.3669385015964508,-1.3797454833984375,-39,5346.0,-3.259612798690796,85,9844.0
