timestamp,kalman.stateZ,gyro.x,gyro.xRaw,gyro.xVariance,gyro.y,gyro.yRaw,gyro.yVariance
0,0.27886730432510376,-1.8968511819839478,-33,9981.0,20.545652389526367,339,5564.0
10,0.27875426411628723,-1.2207212448120117,-7,9981.0,19.511333465576172,311,5564.0
20,0.2798866629600525,0.14098572731018066,0,9981.0,17.769912719726562,279,5564.0
30,0.27984216809272766,0.3121265769004822,4,9981.0,15.610408782958984,237,5564.0
40,0.2798699140548706,0.4281103014945984,1,9981.0,11.319755554199219,156,5564.0
50,0.2800838053226471,-0.06523944437503815,3,9981.0,6.142383575439453,71,5564.0
60,0.2802894413471222,0.9521102905273438,33,9981.0,-0.05242815241217613,-21,5564.0
70,0.2804099917411804,2.251183032989502,51,9981.0,-4.000486850738525,-86,5564.0
80,0.280508816242218,3.772409677505493,70,9981.0,-7.539250373840332,-132,5564.0
90,0.28063154220581055,4.535708427429199,78,9981.0,-9.246743202209473,-163,5564.0
100,0.28065794706344604,3.977384328842163,61,9981.0,-11.586185455322266,-189,5564.0
110,0.28031229972839355,3.0049245357513428,44,9981.0,-13.05862808227539,-224,5564.0
120,0.28035563230514526,1.184846043586731,11,9981.0,-14.553367614746094,-238,5564.0
130,0.2804917097091675,-0.9803001880645752,-31,9981.0,-14.243522644042969,-225,5564.0
140,0.28065061569213867,-3.5661776065826416,-66,9981.0,-13.17176342010498,-200,5564.0
150,0.2813315987586975,-3.945451021194458,-64,9981.0,-10.659956932067871,-154,5564.0
160,0.28141868114471436,-3.848301887512207,-53,9981.0,-6.762711524963379,-88,5564.0
170,0.28146854043006897,-3.0032052993774414,-43,9981.0,-4.261561393737793,-55,5564.0
180,0.28153884410858154,-0.2425588071346283,19,9981.0,-2.0102005004882812,-26,5564.0
190,0.2815602719783783,2.1536130905151367,22,9981.0,-3.887829065322876,-91,5564.0
200,0.2807348072528839,4.142673969268799,94,9981.0,-10.194025993347168,-244,5564.0
210,0.28086963295936584,3.8956644535064697,73,9981.0,-23.19843101501465,-456,5564.0
220,0.2810296416282654,3.417836904525757,196,9981.0,-36.9801025390625,-754,5564.0
230,0.2812195420265198,11.51192855834961,280,9981.0,-61.31837844848633,-1106,5564.0
240,0.2805626392364502,13.41320514678955,207,9981.0,-89.79362487792969,-1690,5564.0
250,0.2807396352291107,17.452136993408203,311,9981.0,-111.54299926757812,-1940,5564.0
260,0.28017279505729675,17.30513572692871,278,9981.0,-121.9644546508789,-2006,5564.0
270,0.2790912091732025,16.413387298583984,235,9981.0,-123.30733489990234,-1992,5564.0
280,0.28069910407066345,16.03623390197754,162,9981.0,-115.2034912109375,-1688,5564.0
290,0.2802562713623047,8.168184280395508,61,9981.0,-94.07156372070312,-1404,5564.0
300,0.2799389660358429,0.794842541217804,0,9981.0,-63.22913360595703,-923,5564.0
310,0.28045448660850525,-3.4060192108154297,-78,9981.0,-26.234920501708984,-141,5564.0
320,0.2814902365207672,5.529123783111572,154,9981.0,15.04248332977295,478,5564.0
330,0.28248900175094604,11.756216049194336,143,9981.0,55.726497650146484,1007,5564.0
340,0.2836328446865082,1.438280701637268,-10,9981.0,89.29126739501953,1585,5564.0
350,0.2845003604888916,-9.136738777160645,-197,9981.0,95.12583923339844,1571,5564.0
360,0.2853652536869049,-7.900801658630371,-167,9981.0,81.57936096191406,1148,5564.0
370,0.2868671715259552,3.63132381439209,233,9981.0,56.20254898071289,830,5564.0
380,0.28784120082855225,11.565382957458496,116,9981.0,21.155187606811523,45,5564.0
390,0.2886990010738373,11.089200973510742,244,9981.0,-26.768962860107422,-552,5564.0
400,0.28945550322532654,2.834186553955078,-103,9981.0,-59.17799758911133,-1164,5564.0
410,0.2888569235801697,-5.353855133056641,-37,9981.0,-78.88935852050781,-1276,5564.0
420,0.28873610496520996,-9.040928840637207,-169,9981.0,-86.51226043701172,-1434,5564.0
430,0.28936469554901123,-9.7525053024292,-138,9981.0,-84.2341537475586,-1481,5564.0
440,0.29089030623435974,-9.383947372436523,-117,9981.0,-65.81288146972656,-966,5564.0
450,0.29134610295295715,-5.635924339294434,-118,9981.0,-31.449485778808594,-262,5564.0
460,0.2931807041168213,0.5511943101882935,-16,9981.0,-2.7773661613464355,18,5564.0
470,0.29468661546707153,5.6010332107543945,180,9981.0,12.476248741149902,230,5564.0
480,0.29579317569732666,-1.058286190032959,-85,9981.0,29.5128173828125,650,5564.0
490,0.2979384660720825,-9.236132621765137,-214,9981.0,38.10304641723633,746,5564.0
500,0.2985069155693054,-14.581220626831055,-206,9981.0,36.11910629272461,514,5564.0
510,0.3001202344894409,-14.443001747131348,-188,9981.0,43.25355529785156,806,5564.0
520,0.3008987009525299,-6.679357051849365,-66,9981.0,42.49376678466797,772,5564.0
530,0.30255740880966187,2.3724746704101562,122,9981.0,50.38505554199219,673,5564.0
540,0.30410653352737427,17.993314743041992,377,9981.0,54.672645568847656,862,5564.0
550,0.3032265603542328,27.676570892333984,397,9981.0,57.78056716918945,1110,5564.0
560,0.30436769127845764,26.86819076538086,348,9981.0,56.89018630981445,866,5564.0
570,0.30552902817726135,20.69603729248047,384,9981.0,44.582611083984375,626,5564.0
580,0.3071887195110321,9.362664222717285,135,9981.0,27.245853424072266,415,5564.0
590,0.30552351474761963,-0.41791847348213196,-135,9981.0,12.239225387573242,40,5564.0
600,0.30690306425094604,-6.721063613891602,-116,9981.0,-0.08450401574373245,-58,5564.0
610,0.3081943690776825,-13.66856575012207,-210,9981.0,-9.248047828674316,-96,5564.0
620,0.3096759617328644,-19.152849197387695,-316,9981.0,-17.59087562561035,-217,5564.0
630,0.3104105293750763,-20.68243980407715,-367,9981.0,-22.047658920288086,-500,5564.0
640,0.3118734061717987,-13.66823673248291,-187,9981.0,-25.117233276367188,-530,5564.0
650,0.313546359539032,-2.8919169902801514,53,9981.0,-30.829463958740234,-524,5564.0
660,0.3152158856391907,7.475922107696533,151,9981.0,-38.51244354248047,-535,5564.0
670,0.31708717346191406,9.75053882598877,129,9981.0,-45.80437469482422,-672,5564.0
680,0.3178333640098572,7.308315753936768,90,9981.0,-34.82845687866211,-406,5564.0
690,0.32025665044784546,10.058404922485352,184,9981.0,-0.040273867547512054,206,5564.0
700,0.3223017752170563,21.218505859375,326,9981.0,42.273799896240234,761,5564.0
710,0.3241592049598694,15.891352653503418,288,9981.0,79.6402359008789,1272,5564.0
720,0.32174837589263916,14.75246810913086,294,9981.0,99.47456359863281,1710,5564.0
730,0.3231431841850281,13.488442420959473,242,9981.0,109.09160614013672,1743,5564.0
740,0.3234946131706238,8.827317237854004,83,9981.0,99.64012908935547,1649,5564.0
750,0.32410532236099243,1.2542139291763306,-70,9981.0,80.4711685180664,1098,5564.0
760,0.324130654335022,-9.100406646728516,-170,9981.0,44.46137619018555,476,5564.0
770,0.3241836130619049,-16.210636138916016,-376,9981.0,4.235186576843262,-191,5564.0
780,0.32431355118751526,-22.695518493652344,-286,9981.0,-41.15395736694336,-907,5564.0
790,0.32460692524909973,-19.358076095581055,-376,9981.0,-84.33763122558594,-1650,5564.0
800,0.32446497678756714,-11.246479034423828,-84,9981.0,-112.08507537841797,-1886,5564.0
810,0.3234289288520813,1.4529058933258057,177,9981.0,-116.01541900634766,-1794,5564.0
820,0.32303163409233093,17.411088943481445,298,9981.0,-108.03900146484375,-1670,5564.0
830,0.3225218653678894,22.009870529174805,366,9981.0,-87.68465423583984,-1468,5564.0
840,0.3224044442176819,17.2240047454834,284,9981.0,-70.51214599609375,-1169,5564.0
850,0.3228985667228699,7.484012126922607,90,9981.0,-49.90812301635742,-576,5564.0
860,0.32138052582740784,-7.027674198150635,-172,9981.0,-10.6761474609375,67,5564.0
870,0.32152053713798523,-9.37280559539795,-185,9981.0,23.0070858001709,619,5564.0
880,0.3215508759021759,-2.09836745262146,-83,9981.0,48.87843322753906,915,5564.0
890,0.32126885652542114,-6.158980846405029,-218,9981.0,69.32723999023438,1149,5564.0
900,0.31675997376441956,-17.9191951751709,-214,9981.0,70.11260986328125,1075,5564.0
910,0.31579363346099854,-12.158625602722168,-265,9981.0,58.61238479614258,992,5564.0
920,0.3149729073047638,-7.530151844024658,50,9981.0,36.004364013671875,429,5564.0
930,0.3149092495441437,-3.7560465335845947,-116,9981.0,17.91569709777832,208,5564.0
940,0.3127972483634949,-8.356124877929688,-174,9981.0,2.92912220954895,-14,5564.0
950,0.3121334910392761,-14.676533699035645,-328,9981.0,-15.183807373046875,-375,5564.0
960,0.3114849925041199,-15.770156860351562,-137,9981.0,-42.590084075927734,-750,5564.0
970,0.31055212020874023,-3.9293665885925293,85,9981.0,-67.1865463256836,-1324,5564.0
980,0.3102135956287384,13.682787895202637,169,9981.0,-85.29483032226562,-1453,5564.0
990,0.30630797147750854,22.89251708984375,448,9981.0,-95.5747299194336,-1644,5564.0
1000,0.3057614862918854,28.314464569091797,445,9981.0,-94.02642822265625,-1414,5564.0
1010,0.30494099855422974,24.177661895751953,346,9981.0,-86.62012481689453,-1494,5564.0
1020,0.305356502532959,11.272871971130371,201,9981.0,-78.41803741455078,-1213,5564.0
1030,0.30425122380256653,-9.25647258758545,-280,9981.0,-51.528507232666016,-643,5564.0
1040,0.30420804023742676,-31.90644073486328,-578,9981.0,-20.948076248168945,-106,5564.0
1050,0.3044366240501404,-28.680633544921875,-484,9981.0,10.129794120788574,274,5564.0
1060,0.3050404489040375,-27.600353240966797,-360,9981.0,48.41542053222656,970,5564.0
1070,0.3047080636024475,-18.633121490478516,-264,9981.0,80.83168029785156,1554,5564.0
1080,0.3050578236579895,-9.062481880187988,-143,9981.0,95.97911834716797,1554,5564.0
1090,0.3048907518386841,-0.22262322902679443,44,9981.0,92.30841064453125,1620,5564.0
1100,0.30636513233184814,11.967672348022461,299,9981.0,79.26760864257812,1193,5564.0
1110,0.30611932277679443,23.120737075805664,354,9981.0,53.418907165527344,721,5564.0
1120,0.30513840913772583,30.355810165405273,528,9981.0,18.026342391967773,168,5564.0
1130,0.30510348081588745,20.274599075317383,190,9981.0,-20.928749084472656,-572,5564.0
1140,0.3053068220615387,2.3055930137634277,33,9981.0,-60.72697067260742,-1034,5564.0
1150,0.3050611615180969,-8.971878051757812,-167,9981.0,-94.10042572021484,-1708,5564.0
1160,0.30336230993270874,-17.68754768371582,-240,9981.0,-105.82979583740234,-1675,5564.0
1170,0.30302926898002625,-19.958160400390625,-388,9981.0,-102.6802978515625,-1571,5564.0
1180,0.3040626347064972,-21.22786521911621,-345,9981.0,-88.77904510498047,-1459,5564.0
1190,0.30386754870414734,-26.058609008789062,-384,9981.0,-65.77765655517578,-932,5564.0
1200,0.3032386600971222,-32.5427131652832,-573,9981.0,-31.39194107055664,-275,5564.0
1210,0.304787814617157,-36.732398986816406,-658,9981.0,9.908280372619629,343,5564.0
1220,0.30666103959083557,-25.632511138916016,-278,9981.0,42.89118957519531,722,5564.0
1230,0.30826354026794434,-9.482443809509277,-120,9981.0,67.27314758300781,1319,5564.0
1240,0.3098211884498596,9.778867721557617,265,9981.0,95.15074157714844,1540,5564.0
1250,0.3102557063102722,26.68680763244629,519,9981.0,107.25570678710938,1855,5564.0
1260,0.31220605969429016,35.1740837097168,586,9981.0,107.0744400024414,1635,5564.0
1270,0.3133310079574585,39.259193420410156,610,9981.0,94.13561248779297,1585,5564.0
1280,0.31408944725990295,40.69471740722656,673,9981.0,75.03445434570312,1128,5564.0
1290,0.3132363259792328,38.92763900756836,617,9981.0,51.701480865478516,841,5564.0
1300,0.31471604108810425,43.64516830444336,853,9981.0,27.69624137878418,252,5564.0
1310,0.3150133490562439,44.86963653564453,682,9981.0,0.6401205062866211,2,5564.0
1320,0.31518110632896423,33.43653106689453,503,9981.0,-16.380077362060547,-544,5564.0
1330,0.31725355982780457,19.907262802124023,310,9981.0,-28.18866539001465,-465,5564.0
1340,0.3173770606517792,4.678596019744873,-74,9981.0,-30.61219024658203,-442,5564.0
1350,0.31810691952705383,-17.21613121032715,-337,9981.0,-25.366024017333984,-495,5564.0
1360,0.31904634833335876,-33.56047821044922,-523,9981.0,-17.432519912719727,-354,5564.0
1370,0.319987416267395,-39.63516616821289,-632,9981.0,-17.881704330444336,-211,5564.0
1380,0.32135576009750366,-40.68992614746094,-726,9981.0,-17.210289001464844,-285,5564.0
1390,0.32244741916656494,-44.63426971435547,-812,9981.0,-15.15228271484375,-270,5564.0
1400,0.32403361797332764,-43.03099060058594,-615,9981.0,-14.19863224029541,-209,5564.0
1410,0.32541659474372864,-31.39345359802246,-384,9981.0,8.3469877243042,288,5564.0
1420,0.326945424079895,-18.087474822998047,-215,9981.0,37.581607818603516,815,5564.0
1430,0.3264627158641815,-3.033602237701416,-11,9981.0,53.572174072265625,1031,5564.0
1440,0.3275509774684906,2.754851818084717,208,9981.0,77.57939147949219,1307,5564.0
1450,0.32850131392478943,12.297405242919922,225,9981.0,86.99951934814453,1434,5564.0
1460,0.328708291053772,23.539697647094727,406,9981.0,82.22411346435547,1186,5564.0
1470,0.3278147876262665,33.08156204223633,586,9981.0,63.6524543762207,992,5564.0
1480,0.3275854289531708,42.39116668701172,750,9981.0,30.950828552246094,154,5564.0
1490,0.3275870084762573,45.52384948730469,756,9981.0,-0.25796130299568176,-125,5564.0
1500,0.3274393081665039,46.056880950927734,696,9981.0,-27.770360946655273,-551,5564.0
1510,0.3285069763660431,38.357391357421875,636,9981.0,-44.191375732421875,-847,5564.0
1520,0.32749295234680176,16.927640914916992,123,9981.0,-55.23297882080078,-937,5564.0
1530,0.32698580622673035,-8.261306762695312,-299,9981.0,-65.39274597167969,-1106,5564.0
1540,0.32665085792541504,-30.19801139831543,-579,9981.0,-71.5266342163086,-1243,5564.0
1550,0.3262900710105896,-44.91417694091797,-876,9981.0,-70.61198425292969,-1134,5564.0
1560,0.32460907101631165,-56.30942916870117,-871,9981.0,-64.44511413574219,-1041,5564.0
1570,0.324003666639328,-60.5093994140625,-850,9981.0,-50.1823616027832,-814,5564.0
1580,0.32336848974227905,-51.825347900390625,-719,9981.0,-24.138078689575195,-206,5564.0
1590,0.324069082736969,-34.217254638671875,-548,9981.0,5.350835800170898,254,5564.0
1600,0.32290810346603394,-17.85688591003418,-174,9981.0,42.52225112915039,681,5564.0
1610,0.3224322199821472,-3.0527360439300537,-70,9981.0,58.7050895690918,1089,5564.0
1620,0.3217967450618744,8.267309188842773,180,9981.0,58.932735443115234,876,5564.0
1630,0.3212731182575226,22.04083824157715,428,9981.0,45.23297882080078,767,5564.0
1640,0.3205569088459015,32.659515380859375,616,9981.0,26.257585525512695,272,5564.0
1650,0.3198174834251404,38.787353515625,569,9981.0,-1.9216868877410889,-377,5564.0
1660,0.31911835074424744,32.35671615600586,492,9981.0,-39.80828094482422,-747,5564.0
1670,0.3179314136505127,27.62261199951172,458,9981.0,-69.36739349365234,-1299,5564.0
1680,0.31777170300483704,22.51506996154785,279,9981.0,-82.17337799072266,-1212,5564.0
1690,0.3156222999095917,15.105110168457031,175,9981.0,-76.94523620605469,-1272,5564.0
1700,0.3141326606273651,2.500701904296875,-27,9981.0,-58.380584716796875,-748,5564.0
1710,0.3141123652458191,-16.90401840209961,-414,9981.0,-33.89498519897461,-531,5564.0
1720,0.3139948844909668,-25.288942337036133,-375,9981.0,-23.457759857177734,-380,5564.0
1730,0.31347769498825073,-22.808012008666992,-323,9981.0,-22.020788192749023,-285,5564.0
1740,0.31308603286743164,-11.362632751464844,-142,9981.0,-21.20607566833496,-486,5564.0
1750,0.3131740987300873,7.758645057678223,261,9981.0,-13.899888038635254,-39,5564.0
1760,0.3135400116443634,23.992780685424805,365,9981.0,10.167109489440918,381,5564.0
1770,0.3140576481819153,28.478473663330078,502,9981.0,31.058034896850586,538,5564.0
1780,0.31389936804771423,18.490530014038086,261,9981.0,52.73183822631836,1040,5564.0
1790,0.31420624256134033,5.927372455596924,-13,9981.0,68.91505432128906,1231,5564.0
1800,0.3144810199737549,-0.22541534900665283,63,9981.0,73.18717956542969,1161,5564.0
1810,0.31422996520996094,0.3229096531867981,-61,9981.0,60.6982536315918,1046,5564.0
1820,0.31402286887168884,5.608927249908447,102,9981.0,39.60891342163086,464,5564.0
1830,0.3144620954990387,9.933972358703613,257,9981.0,15.896002769470215,208,5564.0
1840,0.31432676315307617,20.674936294555664,343,9981.0,-8.430813789367676,-364,5564.0
1850,0.31408125162124634,24.99738121032715,476,9981.0,-27.48507308959961,-550,5564.0
1860,0.313753217458725,25.53709602355957,289,9981.0,-37.632896423339844,-534,5564.0
1870,0.3128158748149872,6.369560718536377,-85,9981.0,-43.2114143371582,-779,5564.0
1880,0.3125329911708832,-21.42601203918457,-415,9981.0,-43.353511810302734,-740,5564.0
1890,0.3122159242630005,-49.39762878417969,-921,9981.0,-42.33447265625,-616,5564.0
1900,0.3114434480667114,-68.15045166015625,-1228,9981.0,-35.4571418762207,-561,5564.0
1910,0.31309786438941956,-72.58369445800781,-1220,9981.0,-25.194786071777344,-396,5564.0
1920,0.3136442005634308,-66.7982406616211,-944,9981.0,-7.920006275177002,-4,5564.0
1930,0.31360378861427307,-42.395790100097656,-585,9981.0,18.177019119262695,331,5564.0
1940,0.31581106781959534,-14.405424118041992,-67,9981.0,28.093360900878906,550,5564.0
1950,0.31744202971458435,10.529715538024902,251,9981.0,45.271522521972656,885,5564.0
1960,0.31811287999153137,37.48761749267578,867,9981.0,69.31900024414062,1226,5564.0
1970,0.31889626383781433,70.24803161621094,1146,9981.0,78.12297058105469,1195,5564.0
1980,0.3192394971847534,80.6996841430664,1405,9981.0,71.3419189453125,1124,5564.0
1990,0.31894874572753906,71.57234954833984,1041,9981.0,56.40266418457031,681,5564.0
2000,0.322616308927536,47.37492752075195,683,9981.0,28.375389099121094,425,5564.0
2010,0.3229145407676697,17.091167449951172,120,9981.0,7.435576915740967,-72,5564.0
2020,0.3232530355453491,-11.293852806091309,-257,9981.0,-19.449193954467773,-381,5564.0
2030,0.32438331842422485,-26.41644287109375,-541,9981.0,-40.37556076049805,-863,5564.0
2040,0.3227350413799286,-33.97297668457031,-567,9981.0,-56.23801803588867,-896,5564.0
2050,0.3229356110095978,-39.37638473510742,-709,9981.0,-53.29862594604492,-813,5564.0
2060,0.3234103322029114,-35.24941635131836,-484,9981.0,-50.9949836730957,-894,5564.0
2070,0.3238809406757355,-22.26222801208496,-331,9981.0,-55.50112533569336,-794,5564.0
2080,0.3248923122882843,-14.585405349731445,-264,9981.0,-50.362613677978516,-804,5564.0
2090,0.32546380162239075,-19.811199188232422,-290,9981.0,-26.374164581298828,-263,5564.0
2100,0.3266560137271881,-20.019275665283203,-290,9981.0,5.462148666381836,359,5564.0
2110,0.32791024446487427,-5.830443859100342,25,9981.0,37.25640869140625,696,5564.0
2120,0.32896777987480164,10.183904647827148,273,9981.0,71.17327880859375,1324,5564.0
2130,0.3270837664604187,15.775667190551758,171,9981.0,92.33837890625,1548,5564.0
2140,0.32737645506858826,16.486251831054688,267,9981.0,91.79702758789062,1437,5564.0
2150,0.32806888222694397,12.342633247375488,103,9981.0,79.6687240600586,1219,5564.0
2160,0.3280598223209381,8.78250503540039,216,9981.0,57.345664978027344,838,5564.0
2170,0.32881033420562744,11.815858840942383,221,9981.0,24.427780151367188,110,5564.0
2180,0.3270205557346344,18.498584747314453,373,9981.0,-12.226709365844727,-390,5564.0
2190,0.3270849287509918,20.46435546875,285,9981.0,-44.350563049316406,-764,5564.0
2200,0.3267732262611389,17.51620864868164,380,9981.0,-65.60860443115234,-1212,5564.0
2210,0.32647705078125,11.888718605041504,151,9981.0,-75.64781188964844,-1163,5564.0
2220,0.32384470105171204,-0.21649691462516785,-130,9981.0,-67.8062515258789,-1106,5564.0
2230,0.32347872853279114,-15.245561599731445,-218,9981.0,-53.29536437988281,-937,5564.0
2240,0.32311850786209106,-21.783010482788086,-350,9981.0,-49.456546783447266,-782,5564.0
2250,0.3234153687953949,-25.702896118164062,-519,9981.0,-40.78132629394531,-526,5564.0
2260,0.3199830949306488,-26.600582122802734,-468,9981.0,-21.283912658691406,-356,5564.0
2270,0.3196522295475006,-17.105417251586914,-141,9981.0,-10.999077796936035,-122,5564.0
2280,0.3195270299911499,-2.4506916999816895,-2,9981.0,8.936025619506836,306,5564.0
2290,0.31938689947128296,11.241740226745605,207,9981.0,28.713682174682617,635,5564.0
2300,0.3192977011203766,25.398090362548828,532,9981.0,45.77739715576172,769,5564.0
2310,0.3163813352584839,31.54412078857422,449,9981.0,55.3231315612793,1077,5564.0
2320,0.3156251609325409,20.517423629760742,204,9981.0,53.230934143066406,739,5564.0
2330,0.3152330815792084,0.35535454750061035,-18,9981.0,36.87405776977539,537,5564.0
2340,0.31528544425964355,-18.3826904296875,-446,9981.0,10.011519432067871,-70,5564.0
2350,0.31332194805145264,-29.96843910217285,-481,9981.0,-23.599637985229492,-494,5564.0
2360,0.3129020035266876,-33.49562454223633,-607,9981.0,-51.327754974365234,-922,5564.0
2370,0.31231096386909485,-29.808578491210938,-366,9981.0,-65.15880584716797,-996,5564.0
2380,0.3120904564857483,-17.218746185302734,-237,9981.0,-63.59956359863281,-1056,5564.0
2390,0.30988457798957825,-5.406698703765869,9,9981.0,-49.627193450927734,-728,5564.0
2400,0.30959874391555786,4.660418510437012,67,9981.0,-38.05441665649414,-682,5564.0
2410,0.3098679184913635,14.815224647521973,369,9981.0,-39.8226203918457,-673,5564.0
2420,0.30997031927108765,25.887540817260742,406,9981.0,-51.02633285522461,-832,5564.0
2430,0.30990248918533325,33.4083137512207,584,9981.0,-57.32086181640625,-941,5564.0
2440,0.30698317289352417,31.282930374145508,517,9981.0,-36.985965728759766,-492,5564.0
2450,0.30802226066589355,21.619131088256836,224,9981.0,-9.091976165771484,113,5564.0
2460,0.3084189295768738,9.469380378723145,45,9981.0,30.271005630493164,819,5564.0
2470,0.30905601382255554,-7.748287200927734,-187,9981.0,71.36064147949219,1222,5564.0
2480,0.30832600593566895,-25.94402503967285,-455,9981.0,88.7940902709961,1570,5564.0
2490,0.3088811933994293,-31.689598083496094,-526,9981.0,100.07902526855469,1684,5564.0
2500,0.309137761592865,-25.555667877197266,-278,9981.0,97.61386108398438,1527,5564.0
2510,0.308977872133255,-13.981203079223633,-200,9981.0,74.62328338623047,1063,5564.0
2520,0.3090973198413849,-3.5182762145996094,-5,9981.0,40.64247131347656,507,5564.0
2530,0.3102775812149048,1.9852206707000732,64,9981.0,0.2115839719772339,-222,5564.0
2540,0.31068193912506104,4.605077266693115,34,9981.0,-34.457855224609375,-669,5564.0
2550,0.31110408902168274,6.824668884277344,169,9981.0,-63.66798400878906,-1043,5564.0
2560,0.31131511926651,7.434418678283691,99,9981.0,-79.97476196289062,-1551,5564.0
2570,0.3081502914428711,7.338379859924316,181,9981.0,-90.59850311279297,-1470,5564.0
2580,0.3092036247253418,6.7104973793029785,72,9981.0,-88.47610473632812,-1551,5564.0
2590,0.3092051148414612,6.5595784187316895,173,9981.0,-90.14685821533203,-1463,5564.0
2600,0.3101155459880829,13.251110076904297,223,9981.0,-80.14514923095703,-1053,5564.0
2610,0.3068583905696869,17.846067428588867,229,9981.0,-45.08717727661133,-599,5564.0
2620,0.3077661395072937,10.675317764282227,165,9981.0,-4.853425025939941,-33,5564.0
2630,0.30892086029052734,4.418395042419434,62,9981.0,38.928680419921875,841,5564.0
2640,0.31059879064559937,-7.675993919372559,-164,9981.0,89.162109375,1709,5564.0
2650,0.3119608759880066,-15.222514152526855,-362,9981.0,124.69369506835938,2095,5564.0
2660,0.3100711405277252,-22.356517791748047,-346,9981.0,138.81491088867188,2152,5564.0
2670,0.31044015288352966,-26.657272338867188,-470,9981.0,131.62474060058594,2143,5564.0
2680,0.3106200397014618,-25.917842864990234,-348,9981.0,116.1520004272461,1773,5564.0
2690,0.3106496334075928,-15.095907211303711,-240,9981.0,97.34033966064453,1401,5564.0
2700,0.31055912375450134,-6.155857086181641,59,9981.0,61.36069869995117,831,5564.0
2710,0.31118080019950867,8.330065727233887,267,9981.0,15.763994216918945,-76,5564.0
2720,0.3117173910140991,22.945974349975586,399,9981.0,-39.793827056884766,-977,5564.0
2730,0.313281774520874,30.282983779907227,579,9981.0,-79.4137191772461,-1370,5564.0
2740,0.3137032389640808,34.485755920410156,549,9981.0,-106.26726531982422,-1961,5564.0
2750,0.312858521938324,23.62152862548828,334,9981.0,-116.8481216430664,-1930,5564.0
2760,0.31339260935783386,14.371448516845703,182,9981.0,-119.53369140625,-2079,5564.0
2770,0.3136008679866791,7.30264139175415,61,9981.0,-118.74842071533203,-1817,5564.0
2780,0.31697285175323486,-7.961442947387695,-255,9981.0,-86.92471313476562,-1083,5564.0
2790,0.31367528438568115,-32.09093475341797,-551,9981.0,-34.03425598144531,-273,5564.0
2800,0.3150586187839508,-37.42788314819336,-688,9981.0,13.322257041931152,448,5564.0
2810,0.316502183675766,-39.61379623413086,-704,9981.0,60.407745361328125,1173,5564.0
2820,0.3169570565223694,-25.699607849121094,-284,9981.0,105.91961669921875,2007,5564.0
2830,0.3174780309200287,-7.403340816497803,-51,9981.0,133.48477172851562,2165,5564.0
2840,0.3156525492668152,10.700387954711914,234,9981.0,134.1205596923828,2193,5564.0
2850,0.31561681628227234,26.80755043029785,429,9981.0,119.46967315673828,1890,5564.0
2860,0.31689029932022095,34.343841552734375,666,9981.0,89.2646255493164,1357,5564.0
2870,0.31666556000709534,37.89268112182617,664,9981.0,39.275413513183594,319,5564.0
2880,0.3158165216445923,38.968910217285156,451,9981.0,-14.408975601196289,-516,5564.0
2890,0.31599754095077515,23.539081573486328,341,9981.0,-55.41619110107422,-941,5564.0
2900,0.3156156539916992,6.679157733917236,-40,9981.0,-79.9532241821289,-1402,5564.0
2910,0.31631845235824585,-8.960846900939941,-109,9981.0,-91.65541076660156,-1473,5564.0
2920,0.3138766884803772,-20.082738876342773,-399,9981.0,-90.79254150390625,-1396,5564.0
2930,0.31407007575035095,-25.62761878967285,-342,9981.0,-89.92588806152344,-1550,5564.0
2940,0.31482529640197754,-19.148075103759766,-255,9981.0,-82.69873809814453,-1228,5564.0
2950,0.3150927722454071,-20.551528930664062,-403,9981.0,-56.20368576049805,-598,5564.0
2960,0.3163606524467468,-19.71885871887207,-332,9981.0,-13.208986282348633,-7,5564.0
2970,0.31447145342826843,-13.594974517822266,-140,9981.0,22.376548767089844,405,5564.0
2980,0.31543031334877014,-1.9463160037994385,10,9981.0,56.147132873535156,1147,5564.0
2990,0.3159501254558563,10.80167293548584,156,9981.0,86.76231384277344,1490,5564.0
3000,0.3162824213504791,19.233440399169922,400,9981.0,100.4302978515625,1643,5564.0
3010,0.3137647807598114,24.003183364868164,340,9981.0,103.3405990600586,1694,5564.0
3020,0.31340351700782776,28.10804557800293,562,9981.0,95.7726821899414,1549,5564.0
3030,0.31448420882225037,26.114891052246094,330,9981.0,70.63459777832031,949,5564.0
3040,0.3141925632953644,18.1790714263916,311,9981.0,26.238245010375977,204,5564.0
3050,0.31294459104537964,10.331744194030762,134,9981.0,-26.606998443603516,-684,5564.0
3060,0.31329140067100525,0.47529956698417664,-117,9981.0,-69.46159362792969,-1257,5564.0
3070,0.3130529820919037,-9.473843574523926,-93,9981.0,-98.40705871582031,-1697,5564.0
3080,0.3131818473339081,-19.02741050720215,-374,9981.0,-114.29556274414062,-1787,5564.0
3090,0.3130980432033539,-23.902257919311523,-330,9981.0,-117.74880981445312,-1982,5564.0
3100,0.3109593689441681,-22.481966018676758,-354,9981.0,-118.83900451660156,-1817,5564.0
3110,0.31231293082237244,-19.419361114501953,-384,9981.0,-99.60636138916016,-1423,5564.0
3120,0.3125310242176056,-12.025629997253418,-120,9981.0,-56.237648010253906,-781,5564.0
3130,0.31294775009155273,0.6029486060142517,108,9981.0,-15.979171752929688,-71,5564.0
3140,0.3115816116333008,7.739962100982666,69,9981.0,24.005084991455078,641,5564.0
3150,0.3119395971298218,-0.7869350910186768,-70,9981.0,65.71986389160156,1236,5564.0
3160,0.3123279809951782,-4.627874851226807,10,9981.0,100.27165222167969,1719,5564.0
3170,0.312549889087677,-0.4652475118637085,56,9981.0,110.3220443725586,1854,5564.0
3180,0.3125556409358978,8.934115409851074,193,9981.0,105.1390609741211,1594,5564.0
3190,0.31010758876800537,14.486091613769531,281,9981.0,95.1368179321289,1545,5564.0
3200,0.30951449275016785,15.19086742401123,327,9981.0,74.16992950439453,1015,5564.0
3210,0.30914536118507385,18.002349853515625,171,9981.0,37.01234436035156,354,5564.0
3220,0.3095279037952423,16.939029693603516,311,9981.0,-16.291839599609375,-377,5564.0
3230,0.308531254529953,7.846575736999512,32,9981.0,-70.05960845947266,-1321,5564.0
3240,0.3087955117225647,-5.043915271759033,-90,9981.0,-102.74293518066406,-1692,5564.0
3250,0.3089539706707001,-17.113462448120117,-378,9981.0,-117.4221420288086,-2001,5564.0
3260,0.3089371621608734,-23.520263671875,-333,9981.0,-117.89479064941406,-1964,5564.0
3270,0.3084631860256195,-19.205224990844727,-250,9981.0,-99.79369354248047,-1481,5564.0
3280,0.3088509440422058,-17.9263916015625,-319,9981.0,-75.41936492919922,-1128,5564.0
3290,0.30981507897377014,-12.891166687011719,-188,9981.0,-45.84018325805664,-706,5564.0
3300,0.3105418384075165,0.7517366409301758,159,9981.0,-7.945128917694092,-2,5564.0
3310,0.31381720304489136,14.05545425415039,322,9981.0,33.187225341796875,764,5564.0
3320,0.3131435513496399,25.076963424682617,401,9981.0,65.57893371582031,1370,5564.0
3330,0.31451287865638733,31.881000518798828,433,9981.0,95.03585052490234,1806,5564.0
3340,0.31541818380355835,22.60525894165039,240,9981.0,116.97695922851562,1977,5564.0
3350,0.3178040087223053,-1.958106279373169,-89,9981.0,130.4929962158203,2138,5564.0
3360,0.31443047523498535,-17.415922164916992,-333,9981.0,123.01104736328125,1920,5564.0
3370,0.3144127428531647,-20.830585479736328,-292,9981.0,101.91746520996094,1427,5564.0
3380,0.314359188079834,-21.760509490966797,-400,9981.0,62.67028045654297,587,5564.0
3390,0.31690526008605957,-12.795782089233398,-76,9981.0,7.890810966491699,-11,5564.0
3400,0.31751325726509094,2.2288742065429688,133,9981.0,-45.333984375,-1161,5564.0
3410,0.3141125440597534,8.506895065307617,41,9981.0,-91.33381652832031,-1635,5564.0
3420,0.31405460834503174,7.468869209289551,151,9981.0,-121.27037048339844,-2207,5564.0
3430,0.3140016198158264,4.297126293182373,60,9981.0,-136.1334686279297,-2078,5564.0
3440,0.3154461979866028,1.976940631866455,-71,9981.0,-139.03370666503906,-2177,5564.0
3450,0.3112252354621887,-5.179553031921387,-93,9981.0,-124.27867126464844,-1959,5564.0
3460,0.3114112317562103,-11.929917335510254,-194,9981.0,-95.54795837402344,-1546,5564.0
3470,0.31145745515823364,-18.231365203857422,-324,9981.0,-63.343467712402344,-948,5564.0
3480,0.3155255913734436,-27.047746658325195,-446,9981.0,-28.165510177612305,-286,5564.0
3490,0.3168676793575287,-24.7166690826416,-334,9981.0,16.695253372192383,567,5564.0
3500,0.31582194566726685,-9.23830795288086,-130,9981.0,68.93717193603516,1423,5564.0
3510,0.3191896975040436,1.0040513277053833,6,9981.0,119.47380065917969,2098,5564.0
3520,0.3214262127876282,7.566737651824951,94,9981.0,152.62677001953125,2470,5564.0
3530,0.3236490786075592,7.61859130859375,71,9981.0,166.8452606201172,2888,5564.0
3540,0.3222411572933197,7.181288719177246,139,9981.0,169.92404174804688,2767,5564.0
3550,0.3235476016998291,16.17629623413086,362,9981.0,154.84661865234375,2389,5564.0
3560,0.32743844389915466,27.961807250976562,438,9981.0,116.45686340332031,1555,5564.0
3570,0.3291436731815338,34.7079963684082,572,9981.0,57.584110260009766,799,5564.0
3580,0.3270188868045807,37.25517272949219,644,9981.0,-7.377691268920898,-593,5564.0
3590,0.3303923010826111,38.68210220336914,529,9981.0,-66.85063934326172,-1140,5564.0
3600,0.3320541977882385,23.380033493041992,342,9981.0,-111.46633911132812,-2051,5564.0
3610,0.3333740830421448,12.941615104675293,203,9981.0,-141.24600219726562,-2484,5564.0
3620,0.3363143801689148,-2.2797305583953857,-192,9981.0,-153.32151794433594,-2432,5564.0
3630,0.33565112948417664,-20.081958770751953,-415,9981.0,-145.12704467773438,-2146,5564.0
3640,0.3372323215007782,-32.76872253417969,-632,9981.0,-121.14009857177734,-1845,5564.0
3650,0.3388364017009735,-42.195858001708984,-639,9981.0,-93.88934326171875,-1465,5564.0
3660,0.34035351872444153,-40.27626419067383,-580,9981.0,-64.74851989746094,-921,5564.0
3670,0.34227851033210754,-28.730220794677734,-297,9981.0,-30.514766693115234,-361,5564.0
3680,0.34395891427993774,-8.31261157989502,-2,9981.0,9.791197776794434,427,5564.0
3690,0.34549680352211,3.7003204822540283,44,9981.0,56.316532135009766,1204,5564.0
3700,0.3470299243927002,4.080724716186523,18,9981.0,83.06298065185547,1433,5564.0
3710,0.3486315906047821,7.356865882873535,136,9981.0,99.71621704101562,1488,5564.0
3720,0.34927898645401,8.76603889465332,133,9981.0,97.4540786743164,1638,5564.0
3730,0.34957876801490784,8.689366340637207,194,9981.0,75.04779815673828,1053,5564.0
3740,0.3498793840408325,19.189882278442383,424,9981.0,35.21653747558594,402,5564.0
3750,0.3499819338321686,31.474994659423828,504,9981.0,-4.557081699371338,-309,5564.0
3760,0.34840327501296997,40.51081466674805,743,9981.0,-36.794227600097656,-634,5564.0
3770,0.34848475456237793,32.87215805053711,389,9981.0,-60.37990951538086,-1108,5564.0
3780,0.3488122522830963,10.016812324523926,17,9981.0,-91.23238372802734,-1754,5564.0
3790,0.3484179377555847,-16.627344131469727,-331,9981.0,-120.73331451416016,-1974,5564.0
3800,0.3488653004169464,-32.5526008605957,-554,9981.0,-127.14532470703125,-1928,5564.0
3810,0.34896883368492126,-43.91065979003906,-749,9981.0,-116.08067321777344,-1774,5564.0
3820,0.34813880920410156,-46.5344352722168,-776,9981.0,-83.85855865478516,-1312,5564.0
3830,0.34773701429367065,-37.87785339355469,-486,9981.0,-54.077388763427734,-805,5564.0
3840,0.3473292589187622,-8.652926445007324,45,9981.0,-19.025121688842773,-133,5564.0
3850,0.3520551919937134,15.290771484375,246,9981.0,21.715967178344727,667,5564.0
3860,0.3520979881286621,19.667476654052734,289,9981.0,58.28499221801758,1096,5564.0
3870,0.3524571657180786,8.329610824584961,39,9981.0,91.2688980102539,1491,5564.0
3880,0.3527044653892517,-6.711140155792236,-56,9981.0,117.84832763671875,2050,5564.0
3890,0.3523499667644501,-10.010087013244629,-200,9981.0,129.63619995117188,2151,5564.0
3900,0.3519844114780426,-13.109023094177246,-183,9981.0,113.32864379882812,1595,5564.0
3910,0.3513356149196625,-10.974128723144531,-249,9981.0,69.00257110595703,907,5564.0
3920,0.35149580240249634,-1.0691035985946655,93,9981.0,19.456262588500977,242,5564.0
3930,0.3437807857990265,9.118585586547852,196,9981.0,-26.821645736694336,-671,5564.0
3940,0.34295353293418884,13.994925498962402,261,9981.0,-59.333133697509766,-1063,5564.0
3950,0.3419820964336395,12.262042999267578,87,9981.0,-74.11627197265625,-1301,5564.0
3960,0.3407433331012726,1.4419238567352295,33,9981.0,-74.01235961914062,-1242,5564.0
3970,0.3398316502571106,-11.762414932250977,-269,9981.0,-59.34300231933594,-773,5564.0
3980,0.33352288603782654,-22.989791870117188,-468,9981.0,-37.16497802734375,-536,5564.0
3990,0.33224424719810486,-31.278427124023438,-455,9981.0,-14.748645782470703,-107,5564.0
4000,0.33220934867858887,-32.32014465332031,-525,9981.0,24.16363525390625,674,5564.0
4010,0.3321354389190674,-27.49663543701172,-386,9981.0,60.14802932739258,1105,5564.0
4020,0.328429251909256,1.7293139696121216,304,9981.0,79.93630981445312,1296,5564.0
4030,0.3287219703197479,37.377159118652344,670,9981.0,80.92797088623047,1334,5564.0
4040,0.3282838463783264,60.19913101196289,1133,9981.0,71.73387145996094,919,5564.0
4050,0.3277004361152649,70.51024627685547,1136,9981.0,56.940643310546875,866,5564.0
4060,0.3277741074562073,70.72431945800781,1209,9981.0,50.38929748535156,820,5564.0
4070,0.3211526870727539,56.070194244384766,762,9981.0,54.317256927490234,989,5564.0
4080,0.32149508595466614,43.995033264160156,625,9981.0,59.4716796875,890,5564.0
4090,0.3219607472419739,27.928007125854492,482,9981.0,56.50032043457031,822,5564.0
4100,0.3218739926815033,9.612256050109863,-92,9981.0,45.3926887512207,785,5564.0
4110,0.32005009055137634,-20.425642013549805,-427,9981.0,41.30928039550781,499,5564.0
4120,0.32011833786964417,-37.613311767578125,-651,9981.0,26.810203552246094,376,5564.0
4130,0.3199494183063507,-52.3537712097168,-998,9981.0,6.90044641494751,-91,5564.0
4140,0.3198080062866211,-58.12991714477539,-935,9981.0,-8.27597713470459,-204,5564.0
4150,0.31958335638046265,-50.48884201049805,-806,9981.0,-14.885936737060547,-220,5564.0
4160,0.3152633011341095,-39.1944694519043,-620,9981.0,-9.161402702331543,-175,5564.0
4170,0.31477782130241394,-26.081693649291992,-381,9981.0,0.017949160188436508,156,5564.0
4180,0.31457236409187317,-26.79783058166504,-493,9981.0,15.959667205810547,303,5564.0
4190,0.3141014277935028,-24.373075485229492,-240,9981.0,22.23956871032715,349,5564.0
4200,0.31121423840522766,-11.063157081604004,-194,9981.0,22.865089416503906,415,5564.0
4210,0.31092995405197144,-0.10012190043926239,83,9981.0,25.489465713500977,491,5564.0
4220,0.31042107939720154,6.026691436767578,93,9981.0,17.730741500854492,61,5564.0
4230,0.31001946330070496,4.252635955810547,74,9981.0,4.9526047706604,43,5564.0
4240,0.3087410628795624,0.2694580852985382,16,9981.0,-7.049803733825684,-196,5564.0
4250,0.30824148654937744,-2.595149040222168,-120,9981.0,-15.298212051391602,-213,5564.0
4260,0.3077538311481476,2.8499045372009277,224,9981.0,-16.15121841430664,-200,5564.0
4270,0.3074912130832672,26.233684539794922,497,9981.0,-4.9630255699157715,-55,5564.0
4280,0.30721554160118103,40.65907669067383,756,9981.0,6.668577671051025,167,5564.0
4290,0.3065565824508667,44.80146789550781,646,9981.0,20.921306610107422,395,5564.0
4300,0.30617380142211914,39.47393035888672,703,9981.0,23.014663696289062,363,5564.0
4310,0.3056415021419525,29.984766006469727,422,9981.0,18.596155166625977,322,5564.0
4320,0.3052668571472168,22.657129287719727,314,9981.0,8.857000350952148,26,5564.0
4330,0.3047938942909241,10.81322956085205,99,9981.0,4.0519280433654785,125,5564.0
4340,0.30472448468208313,-11.944272994995117,-349,9981.0,10.717642784118652,214,5564.0
4350,0.3043723702430725,-31.389829635620117,-590,9981.0,24.209962844848633,398,5564.0
4360,0.30368611216545105,-54.079551696777344,-1011,9981.0,25.612340927124023,489,5564.0
4370,0.30280837416648865,-69.24085998535156,-1177,9981.0,20.136249542236328,254,5564.0
4380,0.30335238575935364,-69.59527587890625,-1150,9981.0,8.62102222442627,193,5564.0
4390,0.3026620149612427,-69.18450927734375,-1015,9981.0,-11.631073951721191,-308,5564.0
4400,0.302229106426239,-51.707069396972656,-760,9981.0,-39.450870513916016,-937,5564.0
4410,0.30078914761543274,-18.685943603515625,-232,9981.0,-66.08428955078125,-1208,5564.0
4420,0.29992273449897766,14.31459903717041,373,9981.0,-89.55123138427734,-1437,5564.0
4430,0.2991267442703247,31.63707160949707,580,9981.0,-98.1091079711914,-1705,5564.0
4440,0.2979670464992523,45.84945297241211,777,9981.0,-92.68190002441406,-1381,5564.0
4450,0.296508252620697,49.1895751953125,765,9981.0,-80.98466491699219,-1298,5564.0
4460,0.29651111364364624,50.15858459472656,870,9981.0,-62.36313247680664,-855,5564.0
4470,0.29514098167419434,54.6999626159668,816,9981.0,-45.042720794677734,-623,5564.0
4480,0.29336124658584595,52.51443099975586,836,9981.0,-28.826427459716797,-394,5564.0
4490,0.2939418852329254,35.279571533203125,545,9981.0,6.441390037536621,313,5564.0
4500,0.292799174785614,19.001840591430664,187,9981.0,52.18729019165039,1138,5564.0
4510,0.2912594676017761,3.9793102741241455,-74,9981.0,100.45901489257812,1843,5564.0
4520,0.29056766629219055,-12.49594497680664,-257,9981.0,129.03021240234375,2094,5564.0
4530,0.2895944118499756,-27.733781814575195,-475,9981.0,131.3733673095703,2153,5564.0
4540,0.29065436124801636,-24.665699005126953,-309,9981.0,114.23417663574219,1731,5564.0
4550,0.28685706853866577,-11.9617280960083,-259,9981.0,81.67052459716797,1118,5564.0
4560,0.2858496606349945,-13.285881996154785,-185,9981.0,39.279666900634766,573,5564.0
4570,0.2852514088153839,-17.964263916015625,-252,9981.0,-6.176382064819336,-312,5564.0
4580,0.2845308482646942,-25.67841911315918,-474,9981.0,-41.574642181396484,-840,5564.0
4590,0.2828390896320343,-30.4379825592041,-482,9981.0,-70.25996398925781,-1089,5564.0
4600,0.28158262372016907,-28.637248992919922,-438,9981.0,-82.72483825683594,-1439,5564.0
4610,0.2804100513458252,-19.24479866027832,-379,9981.0,-79.36527252197266,-1176,5564.0
4620,0.27987825870513916,-9.452134132385254,-50,9981.0,-67.85408782958984,-1151,5564.0
4630,0.2793038785457611,5.916008472442627,189,9981.0,-55.08548355102539,-755,5564.0
4640,0.2774588167667389,19.316734313964844,367,9981.0,-39.61137771606445,-671,5564.0
4650,0.27724236249923706,27.890127182006836,494,9981.0,-26.1910400390625,-327,5564.0
4660,0.2767336964607239,32.5109748840332,487,9981.0,-17.086078643798828,-280,5564.0
4670,0.27602189779281616,30.345556259155273,516,9981.0,-10.308016777038574,-193,5564.0
4680,0.2751268446445465,21.861282348632812,276,9981.0,6.34135103225708,355,5564.0
4690,0.2751995027065277,13.014108657836914,154,9981.0,32.921871185302734,593,5564.0
4700,0.275195449590683,5.407013416290283,112,9981.0,63.98630142211914,1179,5564.0
4710,0.27496814727783203,0.29933589696884155,6,9981.0,89.23225402832031,1601,5564.0
4720,0.27510887384414673,8.509258270263672,203,9981.0,108.31559753417969,1696,5564.0
4730,0.2732272744178772,8.377975463867188,73,9981.0,102.1347427368164,1565,5564.0
4740,0.2724709212779999,5.968408107757568,186,9981.0,82.90348052978516,1252,5564.0
4750,0.2742718458175659,10.485627174377441,176,9981.0,54.99748611450195,570,5564.0
4760,0.27393627166748047,21.122699737548828,423,9981.0,18.007614135742188,205,5564.0
4770,0.27185437083244324,29.528127670288086,547,9981.0,-11.254701614379883,-340,5564.0
4780,0.2708773612976074,25.913869857788086,336,9981.0,-30.692577362060547,-553,5564.0
4790,0.2698562443256378,20.19272804260254,360,9981.0,-45.761016845703125,-892,5564.0
4800,0.2685035169124603,13.576172828674316,157,9981.0,-54.812320709228516,-807,5564.0
4810,0.2669973373413086,-6.86573600769043,-289,9981.0,-56.68791961669922,-920,5564.0
4820,0.2669992446899414,-29.67379379272461,-479,9981.0,-50.715423583984375,-799,5564.0
4830,0.26611047983169556,-40.05760192871094,-668,9981.0,-37.67127990722656,-461,5564.0
4840,0.2649644613265991,-44.19835662841797,-770,9981.0,-23.958406448364258,-374,5564.0
4850,0.26410961151123047,-43.89716339111328,-689,9981.0,-14.484236717224121,-215,5564.0
4860,0.2604799270629883,-39.76868438720703,-663,9981.0,-4.133925437927246,116,5564.0
4870,0.2602384090423584,-38.01459503173828,-600,9981.0,8.991827011108398,114,5564.0
4880,0.25920650362968445,-31.521617889404297,-478,9981.0,24.418354034423828,512,5564.0
4890,0.25889888405799866,-25.309282302856445,-396,9981.0,42.03956604003906,702,5564.0
4900,0.25703009963035583,-14.863100051879883,-187,9981.0,59.19961166381836,1200,5564.0
4910,0.2555766701698303,-1.6165449619293213,98,9981.0,71.26399230957031,1166,5564.0
4920,0.25531771779060364,13.208399772644043,213,9981.0,70.06626892089844,1081,5564.0
4930,0.25528910756111145,25.590354919433594,486,9981.0,49.614192962646484,790,5564.0
4940,0.25455382466316223,30.252910614013672,484,9981.0,29.153818130493164,293,5564.0
4950,0.2515818178653717,25.996841430664062,342,9981.0,4.567019462585449,50,5564.0
4960,0.2507510781288147,15.130849838256836,288,9981.0,-5.457461833953857,-83,5564.0
4970,0.2497822791337967,11.621357917785645,141,9981.0,-8.82247257232666,-127,5564.0
4980,0.24859780073165894,7.65839147567749,139,9981.0,-9.469934463500977,-38,5564.0
4990,0.24796633422374725,4.579287528991699,12,9981.0,-10.41512680053711,-287,5564.0
5000,0.24701520800590515,3.808166980743408,98,9981.0,-8.228397369384766,6,5564.0
5010,0.24694426357746124,3.0000994205474854,27,9981.0,-4.047497749328613,-162,5564.0
5020,0.24532082676887512,-0.8142725229263306,-41,9981.0,-4.109299659729004,34,5564.0
5030,0.2432212382555008,-5.264329433441162,-93,9981.0,-5.19364595413208,-226,5564.0
5040,0.24113205075263977,-3.4523043632507324,-76,9981.0,-10.132004737854004,-46,5564.0
5050,0.24144485592842102,-5.204988956451416,-43,9981.0,-1.4811509847640991,-18,5564.0
5060,0.24061614274978638,-5.027279853820801,-80,9981.0,19.13957977294922,497,5564.0
5070,0.24038036167621613,-7.170620918273926,-68,9981.0,39.30132293701172,603,5564.0
5080,0.2400384098291397,-1.0232012271881104,-31,9981.0,52.34577941894531,933,5564.0
5090,0.24025340378284454,2.1791138648986816,136,9981.0,55.52647018432617,908,5564.0
5100,0.23912778496742249,2.2213854789733887,-72,9981.0,44.08241653442383,600,5564.0
5110,0.23935072124004364,0.37395963072776794,35,9981.0,24.08133316040039,408,5564.0
5120,0.24087151885032654,3.231844663619995,77,9981.0,5.954076766967773,-41,5564.0
5130,0.24035677313804626,6.671590805053711,59,9981.0,-12.385027885437012,-282,5564.0
5140,0.23973675072193146,8.210114479064941,196,9981.0,-27.293785095214844,-453,5564.0
5150,0.23881776630878448,8.87201976776123,80,9981.0,-32.07874298095703,-559,5564.0
5160,0.23801223933696747,5.406049728393555,120,9981.0,-30.900760650634766,-472,5564.0
5170,0.23723869025707245,1.7222946882247925,-57,9981.0,-23.60086441040039,-287,5564.0
5180,0.2375389039516449,-4.108864784240723,-7,9981.0,-17.189498901367188,-254,5564.0
5190,0.23537522554397583,-9.831006050109863,-271,9981.0,-9.222105979919434,-100,5564.0
5200,0.23516660928726196,-16.585725784301758,-243,9981.0,-4.558370590209961,-64,5564.0
5210,0.23233623802661896,-16.935304641723633,-316,9981.0,-5.338604927062988,-41,5564.0
5220,0.23279544711112976,-12.60659122467041,-131,9981.0,-10.652872085571289,-243,5564.0
5230,0.23102907836437225,-4.44342565536499,-93,9981.0,-11.812786102294922,-149,5564.0
5240,0.23115429282188416,-0.3809658885002136,96,9981.0,-8.871192932128906,-130,5564.0
5250,0.22930164635181427,2.9457614421844482,-20,9981.0,-3.4362704753875732,-72,5564.0
5260,0.22886984050273895,7.909379482269287,255,9981.0,-2.2306597232818604,4,5564.0
5270,0.22758793830871582,14.735870361328125,211,9981.0,-7.745849609375,-168,5564.0
5280,0.227690652012825,17.791759490966797,348,9981.0,-10.52267074584961,-144,5564.0
5290,0.2273665815591812,8.032144546508789,11,9981.0,-12.499476432800293,-172,5564.0
5300,0.2274666279554367,-10.63237190246582,-239,9981.0,-12.420369148254395,-280,5564.0
5310,0.2271890938282013,-28.49810791015625,-646,9981.0,-23.72317123413086,-331,5564.0
5320,0.2266528457403183,-47.66407012939453,-760,9981.0,-27.001850128173828,-507,5564.0
5330,0.22614072263240814,-57.47224044799805,-1024,9981.0,-28.1146297454834,-452,5564.0
5340,0.22586548328399658,-55.17537307739258,-779,9981.0,-24.750484466552734,-408,5564.0
5350,0.2252586930990219,-47.98333740234375,-807,9981.0,-25.275075912475586,-369,5564.0
5360,0.2243059128522873,-39.32503890991211,-522,9981.0,-23.644691467285156,-411,5564.0
5370,0.2256573885679245,-24.522668838500977,-369,9981.0,-21.857746124267578,-440,5564.0
5380,0.22495633363723755,-6.126957893371582,-45,9981.0,-18.63782501220703,-158,5564.0
5390,0.22232145071029663,9.1792631149292,202,9981.0,-10.675402641296387,-147,5564.0
5400,0.22195784747600555,26.76919937133789,566,9981.0,-1.727117896080017,178,5564.0
5410,0.22148525714874268,47.62887954711914,889,9981.0,13.209141731262207,263,5564.0
5420,0.22195598483085632,56.774105072021484,992,9981.0,30.401317596435547,647,5564.0
5430,0.22014524042606354,59.882442474365234,848,9981.0,47.4405517578125,836,5564.0
5440,0.222208634018898,49.18244934082031,795,9981.0,55.423397064208984,934,5564.0
5450,0.22230002284049988,33.04612731933594,442,9981.0,57.27781677246094,858,5564.0
5460,0.22227835655212402,15.068656921386719,182,9981.0,56.06961441040039,809,5564.0
5470,0.21891680359840393,0.169596865773201,-92,9981.0,39.56260299682617,610,5564.0
5480,0.21858853101730347,-11.789468765258789,-190,9981.0,18.737300872802734,189,5564.0
5490,0.21792250871658325,-25.00091552734375,-530,9981.0,-5.942739963531494,-238,5564.0
5500,0.21712546050548553,-31.03166961669922,-467,9981.0,-29.763879776000977,-501,5564.0
5510,0.2160366326570511,-28.4936466217041,-483,9981.0,-46.573055267333984,-876,5564.0
5520,0.21107421815395355,-20.881065368652344,-302,9981.0,-54.69351577758789,-791,5564.0
5530,0.20982982218265533,-13.625810623168945,-221,9981.0,-50.29612731933594,-825,5564.0
5540,0.20795287191867828,-6.802103042602539,-68,9981.0,-38.45869445800781,-454,5564.0
5550,0.2076369822025299,-0.14286664128303528,45,9981.0,-21.996009826660156,-382,5564.0
5560,0.2059163898229599,3.895977020263672,58,9981.0,-4.864270210266113,2,5564.0
5570,0.2053566873073578,10.586527824401855,258,9981.0,9.677214622497559,197,5564.0
5580,0.20491136610507965,19.097240447998047,292,9981.0,22.768278121948242,516,5564.0
5590,0.20433689653873444,18.260032653808594,366,9981.0,35.65706253051758,654,5564.0
5600,0.20353233814239502,16.1865291595459,215,9981.0,41.516029357910156,562,5564.0
5610,0.20297789573669434,13.608357429504395,218,9981.0,43.818458557128906,845,5564.0
5620,0.2026839256286621,12.051441192626953,239,9981.0,43.867889404296875,683,5564.0
5630,0.2022835910320282,11.444388389587402,102,9981.0,38.70438003540039,473,5564.0
5640,0.20201759040355682,13.05379581451416,211,9981.0,24.63248634338379,456,5564.0
5650,0.20157060027122498,6.483158588409424,124,9981.0,7.709429740905762,7,5564.0
5660,0.20135872066020966,-0.6557155251502991,-85,9981.0,-7.755118370056152,-325,5564.0
5670,0.20109112560749054,-7.411060810089111,-90,9981.0,-22.724853515625,-322,5564.0
5680,0.20064467191696167,-10.77006721496582,-78,9981.0,-32.68407440185547,-651,5564.0
5690,0.19842305779457092,-8.243577003479004,-218,9981.0,-39.84779739379883,-680,5564.0
5700,0.19766131043434143,-9.047907829284668,-32,9981.0,-37.99591064453125,-484,5564.0
5710,0.1971941590309143,-6.840075969696045,-134,9981.0,-26.839405059814453,-430,5564.0
5720,0.1969308704137802,-5.1476850509643555,-28,9981.0,-13.638456344604492,-30,5564.0
5730,0.19721265137195587,-2.673227548599243,-12,9981.0,4.594030857086182,64,5564.0
5740,0.19490168988704681,1.245234489440918,7,9981.0,19.07573699951172,444,5564.0
5750,0.1947963982820511,2.1246674060821533,60,9981.0,30.992218017578125,507,5564.0
5760,0.19472403824329376,1.0285449028015137,-91,9981.0,31.247804641723633,514,5564.0
5770,0.19486503303050995,-7.67626428604126,-107,9981.0,27.20673942565918,454,5564.0
5780,0.1940932422876358,-12.296205520629883,-326,9981.0,23.99207305908203,232,5564.0
5790,0.19407296180725098,-16.117698669433594,-258,9981.0,13.31061840057373,246,5564.0
5800,0.19407501816749573,-9.749592781066895,-28,9981.0,4.6336212158203125,60,5564.0
5810,0.19395937025547028,0.6692885160446167,35,9981.0,-7.604142665863037,-290,5564.0
5820,0.19478286802768707,10.23404312133789,229,9981.0,-8.597220420837402,-59,5564.0
5830,0.19487833976745605,12.187185287475586,174,9981.0,-2.0585529804229736,-111,5564.0
5840,0.1950497329235077,8.873734474182129,55,9981.0,0.014177283272147179,82,5564.0
5850,0.1947702169418335,3.504319667816162,126,9981.0,0.07768591493368149,-27,5564.0
5860,0.19526970386505127,2.731156349182129,15,9981.0,-2.977006196975708,-28,5564.0
5870,0.19524362683296204,2.489983320236206,109,9981.0,-1.838603138923645,-48,5564.0
5880,0.19504547119140625,4.59202766418457,38,9981.0,-0.008226221427321434,-5,5564.0
5890,0.19578208029270172,8.461730003356934,177,9981.0,3.4849917888641357,60,5564.0
5900,0.19607152044773102,8.068645477294922,83,9981.0,7.254504680633545,142,5564.0
5910,0.19922927021980286,7.042289733886719,172,9981.0,8.917491912841797,142,5564.0
5920,0.20015035569667816,4.003515243530273,-29,9981.0,7.448038101196289,80,5564.0
5930,0.20164397358894348,1.469869613647461,115,9981.0,6.533426284790039,100,5564.0
5940,0.20229138433933258,0.39778223633766174,-28,9981.0,11.761704444885254,150,5564.0
5950,0.20378459990024567,-1.1675190925598145,30,9981.0,20.751201629638672,472,5564.0
5960,0.20477820932865143,-1.1490033864974976,-38,9981.0,25.44841194152832,406,5564.0
5970,0.20568141341209412,3.4170687198638916,78,9981.0,30.102657318115234,649,5564.0
5980,0.20619149506092072,-3.920438051223755,-93,9981.0,33.5682487487793,538,5564.0
5990,0.20711882412433624,-10.582401275634766,-261,9981.0,33.99355697631836,579,5564.0
6000,0.20701317489147186,-13.866002082824707,-173,9981.0,24.9949893951416,255,5564.0
6010,0.2080661505460739,-18.045745849609375,-350,9981.0,8.590469360351562,-71,5564.0
6020,0.20841512084007263,-21.31815528869629,-351,9981.0,-11.433671951293945,-225,5564.0
6030,0.2085399031639099,-23.934650421142578,-270,9981.0,-30.168960571289062,-556,5564.0
6040,0.20830877125263214,-20.6867733001709,-309,9981.0,-41.855712890625,-827,5564.0
6050,0.20685625076293945,-14.423964500427246,-123,9981.0,-51.842735290527344,-784,5564.0
6060,0.20764973759651184,-5.756957054138184,-102,9981.0,-54.745338439941406,-953,5564.0
6070,0.20813235640525818,4.667240619659424,146,9981.0,-48.761260986328125,-670,5564.0
6080,0.20809467136859894,14.917954444885254,274,9981.0,-32.12810134887695,-525,5564.0
6090,0.2071734517812729,21.08707046508789,376,9981.0,-12.888193130493164,-41,5564.0
6100,0.2072352170944214,23.158824920654297,390,9981.0,2.3247954845428467,19,5564.0
6110,0.20737962424755096,21.221546173095703,322,9981.0,12.364750862121582,319,5564.0
6120,0.20749309659004211,12.941421508789062,194,9981.0,16.177101135253906,224,5564.0
6130,0.20657537877559662,7.747877597808838,56,9981.0,20.85787582397461,420,5564.0
6140,0.2068694531917572,11.141818046569824,352,9981.0,30.410560607910156,529,5564.0
6150,0.206846684217453,20.800426483154297,355,9981.0,39.44110107421875,552,5564.0
6160,0.20756512880325317,25.548110961914062,381,9981.0,44.34485626220703,800,5564.0
6170,0.20712125301361084,6.196439266204834,0,9981.0,31.303491592407227,409,5564.0
6180,0.20949490368366241,-25.229236602783203,-654,9981.0,8.76230239868164,0,5564.0
6190,0.2093239277601242,-48.28083419799805,-810,9981.0,-13.730894088745117,-279,5564.0
6200,0.20993556082248688,-53.485660552978516,-756,9981.0,-27.539752960205078,-581,5564.0
6210,0.2092713713645935,-37.500144958496094,-571,9981.0,-36.3291130065918,-677,5564.0
6220,0.2107761651277542,-17.20775032043457,-203,9981.0,-44.22203826904297,-687,5564.0
6230,0.2107338011264801,7.080632209777832,270,9981.0,-50.91486740112305,-758,5564.0
6240,0.2112194001674652,23.3057861328125,466,9981.0,-50.741485595703125,-837,5564.0
6250,0.21138936281204224,36.29296112060547,559,9981.0,-36.21403884887695,-566,5564.0
6260,0.20908038318157196,41.374420166015625,712,9981.0,-19.2056827545166,-160,5564.0
6270,0.20928102731704712,40.51490020751953,657,9981.0,-2.6612260341644287,-80,5564.0
6280,0.20931746065616608,36.39854049682617,542,9981.0,8.723715782165527,196,5564.0
6290,0.20950494706630707,30.262041091918945,534,9981.0,15.849653244018555,232,5564.0
6300,0.21114303171634674,21.125743865966797,268,9981.0,19.35870933532715,255,5564.0
6310,0.2102566808462143,12.068005561828613,198,9981.0,17.8413143157959,369,5564.0
6320,0.21072904765605927,6.109642028808594,27,9981.0,21.708681106567383,290,5564.0
6330,0.21170172095298767,-2.559896230697632,-110,9981.0,16.612735748291016,389,5564.0
6340,0.2123817354440689,-13.586410522460938,-204,9981.0,7.552044868469238,59,5564.0
6350,0.21084901690483093,-16.33465003967285,-294,9981.0,1.6969311237335205,-60,5564.0
6360,0.21140186488628387,-6.096139907836914,9,9981.0,-4.2465643882751465,-88,5564.0
6370,0.21194009482860565,3.191551923751831,54,9981.0,-4.877890110015869,-187,5564.0
6380,0.21235445141792297,13.658472061157227,294,9981.0,-1.7793669700622559,177,5564.0
6390,0.21283891797065735,19.572952270507812,366,9981.0,8.23891544342041,147,5564.0
6400,0.21439144015312195,20.414791107177734,290,9981.0,7.964014530181885,158,5564.0
6410,0.21457108855247498,16.199716567993164,223,9981.0,-5.849961280822754,-237,5564.0
6420,0.21486234664916992,3.3640291690826416,-60,9981.0,-20.286531448364258,-308,5564.0
6430,0.21564981341362,-13.881335258483887,-216,9981.0,-29.886629104614258,-625,5564.0
6440,0.2171967327594757,-22.29042625427246,-376,9981.0,-29.24448585510254,-356,5564.0
6450,0.21808622777462006,-24.736980438232422,-414,9981.0,-25.636350631713867,-536,5564.0
6460,0.21858711540699005,-30.44124984741211,-474,9981.0,-24.534297943115234,-324,5564.0
6470,0.21890360116958618,-32.6855583190918,-545,9981.0,-15.416644096374512,-210,5564.0
6480,0.21838562190532684,-29.769752502441406,-417,9981.0,-8.192237854003906,-44,5564.0
6490,0.21887093782424927,-22.12885093688965,-365,9981.0,5.1090803146362305,162,5564.0
6500,0.21962971985340118,-15.516701698303223,-150,9981.0,15.135690689086914,232,5564.0
6510,0.22072027623653412,-3.246284008026123,-64,9981.0,20.882001876831055,294,5564.0
6520,0.22125613689422607,6.757281303405762,199,9981.0,23.708511352539062,479,5564.0
6530,0.22190457582473755,15.517786026000977,251,9981.0,32.66581726074219,429,5564.0
6540,0.22239656746387482,17.796720504760742,282,9981.0,39.64303970336914,774,5564.0
6550,0.22333112359046936,16.017072677612305,275,9981.0,44.48125076293945,695,5564.0
6560,0.22373689711093903,18.707237243652344,257,9981.0,36.1364631652832,571,5564.0
6570,0.22243136167526245,16.984708786010742,318,9981.0,24.51155662536621,353,5564.0
6580,0.22331055998802185,17.311494827270508,202,9981.0,15.372698783874512,137,5564.0
6590,0.22364604473114014,15.82737922668457,285,9981.0,2.8842265605926514,33,5564.0
6600,0.22384479641914368,9.773776054382324,118,9981.0,-7.548748970031738,-306,5564.0
6610,0.22399678826332092,-2.263641834259033,-83,9981.0,-13.88277816772461,-149,5564.0
6620,0.22772322595119476,-8.164942741394043,-121,9981.0,-14.594282150268555,-261,5564.0
6630,0.2279384434223175,-13.807052612304688,-338,9981.0,-19.315715789794922,-303,5564.0
6640,0.22828873991966248,-16.21561622619629,-194,9981.0,-25.047208786010742,-494,5564.0
6650,0.22869686782360077,-15.492593765258789,-328,9981.0,-32.928916931152344,-577,5564.0
6660,0.2272845357656479,-15.216519355773926,-246,9981.0,-27.954524993896484,-363,5564.0
6670,0.22769317030906677,-15.379403114318848,-239,9981.0,-24.448719024658203,-363,5564.0
6680,0.22818788886070251,-12.88111686706543,-184,9981.0,-9.295162200927734,16,5564.0
6690,0.2288154512643814,-8.98383617401123,-148,9981.0,5.431494235992432,70,5564.0
6700,0.2326822727918625,-2.826199531555176,-45,9981.0,27.69778823852539,692,5564.0
6710,0.23339249193668365,-3.6780548095703125,-38,9981.0,53.784889221191406,786,5564.0
6720,0.2343401461839676,-9.675756454467773,-279,9981.0,56.07513427734375,881,5564.0
6730,0.23469533026218414,-15.522987365722656,-190,9981.0,47.1296501159668,717,5564.0
6740,0.2363722026348114,-7.442038059234619,-39,9981.0,26.63486671447754,292,5564.0
6750,0.23540432751178741,13.377652168273926,289,9981.0,1.6809015274047852,-33,5564.0
6760,0.235775887966156,28.23976707458496,531,9981.0,-17.672359466552734,-248,5564.0
6770,0.2360002100467682,31.765567779541016,546,9981.0,-29.464555740356445,-557,5564.0
6780,0.23672980070114136,27.766510009765625,378,9981.0,-34.62327575683594,-682,5564.0
6790,0.23576948046684265,19.095752716064453,304,9981.0,-38.41825866699219,-542,5564.0
6800,0.2362026572227478,11.151898384094238,80,9981.0,-36.744354248046875,-656,5564.0
6810,0.23642539978027344,0.8197372555732727,-25,9981.0,-31.111303329467773,-345,5564.0
6820,0.23684817552566528,-7.394421100616455,-148,9981.0,-18.899423599243164,-294,5564.0
6830,0.2372029721736908,-10.888171195983887,-204,9981.0,-6.525630950927734,56,5564.0
6840,0.2369692474603653,-9.196588516235352,-129,9981.0,7.921238899230957,105,5564.0
6850,0.2372380644083023,-3.9149019718170166,-144,9981.0,21.386112213134766,418,5564.0
6860,0.23758846521377563,-8.01640510559082,-104,9981.0,31.025108337402344,607,5564.0
6870,0.2381618320941925,-10.511743545532227,-198,9981.0,36.27577209472656,492,5564.0
6880,0.23983986675739288,-1.742188572883606,57,9981.0,33.21870040893555,590,5564.0
6890,0.24007415771484375,10.93285083770752,261,9981.0,26.729459762573242,451,5564.0
6900,0.2403394728899002,21.39618682861328,304,9981.0,15.27653980255127,100,5564.0
6910,0.24073877930641174,19.485336303710938,270,9981.0,-1.9033819437026978,29,5564.0
6920,0.2424311488866806,8.518288612365723,139,9981.0,-9.30904769897461,-195,5564.0
6930,0.24300047755241394,-6.464878082275391,-208,9981.0,-9.19275188446045,-292,5564.0
6940,0.2430187612771988,-17.043254852294922,-245,9981.0,-11.302480697631836,-72,5564.0
6950,0.24310921132564545,-18.80455780029297,-263,9981.0,-17.76774024963379,-298,5564.0
6960,0.24302352964878082,-19.255870819091797,-384,9981.0,-23.391109466552734,-362,5564.0
6970,0.2440408170223236,-12.985861778259277,-161,9981.0,-21.612287521362305,-212,5564.0
6980,0.24411506950855255,-3.9530436992645264,38,9981.0,-18.660837173461914,-332,5564.0
6990,0.24425716698169708,9.03731632232666,138,9981.0,-26.414243698120117,-458,5564.0
7000,0.24485258758068085,14.890976905822754,296,9981.0,-33.38982009887695,-396,5564.0
7010,0.24592041969299316,16.63361167907715,237,9981.0,-25.468524932861328,-521,5564.0
7020,0.24639642238616943,15.347108840942383,138,9981.0,-15.167720794677734,-101,5564.0
7030,0.24708802998065948,4.766482830047607,161,9981.0,11.606710433959961,337,5564.0
7040,0.24783794581890106,-2.2632782459259033,-116,9981.0,46.767364501953125,906,5564.0
7050,0.24991919100284576,-6.7920823097229,-45,9981.0,65.29893493652344,1133,5564.0
7060,0.2504667639732361,-7.944279193878174,-170,9981.0,65.4518814086914,898,5564.0
7070,0.2517552077770233,-4.677865505218506,-69,9981.0,51.78338623046875,794,5564.0
7080,0.25234416127204895,-1.5252710580825806,13,9981.0,28.41738510131836,452,5564.0
7090,0.25269967317581177,1.5580705404281616,11,9981.0,1.3937557935714722,-102,5564.0
7100,0.2545071542263031,1.3677743673324585,-38,9981.0,-19.974720001220703,-520,5564.0
7110,0.2549481689929962,-2.1949751377105713,-66,9981.0,-41.07453155517578,-703,5564.0
7120,0.25543367862701416,-5.707787036895752,-26,9981.0,-60.603057861328125,-1090,5564.0
7130,0.2557544410228729,-10.492976188659668,-251,9981.0,-69.77857208251953,-1213,5564.0
7140,0.25628861784935,-13.497126579284668,-151,9981.0,-64.03550720214844,-957,5564.0
7150,0.25650668144226074,-12.708662986755371,-248,9981.0,-47.72941207885742,-710,5564.0
7160,0.2579392194747925,-9.935951232910156,-44,9981.0,-28.465789794921875,-299,5564.0
7170,0.25857338309288025,-2.4967658519744873,-78,9981.0,-10.690597534179688,-194,5564.0
7180,0.2592517137527466,3.172908306121826,98,9981.0,0.5015513300895691,101,5564.0
7190,0.26012372970581055,9.904051780700684,167,9981.0,10.271681785583496,140,5564.0
7200,0.2612011134624481,21.6726131439209,355,9981.0,27.684120178222656,627,5564.0
7210,0.26241448521614075,28.535593032836914,522,9981.0,50.89975357055664,957,5564.0
7220,0.2638959288597107,29.735918045043945,367,9981.0,69.35932922363281,1283,5564.0
7230,0.2635875344276428,24.2554874420166,455,9981.0,77.59709930419922,1269,5564.0
7240,0.2653617262840271,20.480838775634766,227,9981.0,66.68152618408203,952,5564.0
7250,0.26643654704093933,11.070316314697266,232,9981.0,51.13663864135742,736,5564.0
7260,0.26701903343200684,9.920462608337402,204,9981.0,26.19521713256836,204,5564.0
7270,0.2676528990268707,2.3583061695098877,-110,9981.0,-7.846060276031494,-414,5564.0
7280,0.2693100571632385,-16.156187057495117,-362,9981.0,-35.58976364135742,-571,5564.0
7290,0.269635409116745,-30.030241012573242,-513,9981.0,-52.114933013916016,-995,5564.0
7300,0.27030059695243835,-34.71821212768555,-632,9981.0,-65.0137939453125,-1172,5564.0
7310,0.27062466740608215,-35.719661712646484,-530,9981.0,-68.39314270019531,-955,5564.0
7320,0.2711581885814667,-37.0220832824707,-522,9981.0,-58.629329681396484,-911,5564.0
7330,0.2722446024417877,-32.24637985229492,-479,9981.0,-36.53290557861328,-526,5564.0
7340,0.27245789766311646,-21.409591674804688,-204,9981.0,-20.149410247802734,-226,5564.0
7350,0.2728824317455292,-5.444490432739258,-19,9981.0,-12.578458786010742,-240,5564.0
7360,0.27297356724739075,4.028952598571777,91,9981.0,-13.01469612121582,-105,5564.0
7370,0.27372297644615173,10.979111671447754,291,9981.0,-8.974778175354004,46,5564.0
7380,0.27462390065193176,27.168542861938477,463,9981.0,5.879634857177734,139,5564.0
7390,0.2755481004714966,34.04225158691406,674,9981.0,25.722156524658203,528,5564.0
7400,0.27665242552757263,32.57466506958008,514,9981.0,40.2929573059082,570,5564.0
7410,0.277447909116745,31.38865089416504,543,9981.0,55.77033996582031,1060,5564.0
7420,0.2785908579826355,38.55864715576172,764,9981.0,59.94041061401367,930,5564.0
7430,0.2789868414402008,37.199378967285156,535,9981.0,47.18833923339844,601,5564.0
7440,0.2800135314464569,27.455219268798828,396,9981.0,30.637149810791016,593,5564.0
7450,0.2822072207927704,10.67397689819336,73,9981.0,19.60820198059082,176,5564.0
7460,0.28290361166000366,-6.772496223449707,-310,9981.0,3.1335532665252686,-3,5564.0
7470,0.28387248516082764,-30.002147674560547,-501,9981.0,-11.747696876525879,-243,5564.0
7480,0.28503286838531494,-47.36814498901367,-844,9981.0,-29.978221893310547,-598,5564.0
7490,0.28651976585388184,-53.93133544921875,-924,9981.0,-44.29187774658203,-744,5564.0
7500,0.2873556911945343,-47.31535720825195,-647,9981.0,-57.749053955078125,-835,5564.0
7510,0.28815799951553345,-26.504865646362305,-367,9981.0,-57.4833869934082,-933,5564.0
7520,0.28895801305770874,-1.547890543937683,38,9981.0,-48.22786331176758,-794,5564.0
7530,0.29038140177726746,16.64156150817871,368,9981.0,-39.365089416503906,-523,5564.0
7540,0.29168418049812317,28.91748046875,419,9981.0,-25.66636085510254,-439,5564.0
7550,0.2927718460559845,32.31965255737305,502,9981.0,-6.726560115814209,98,5564.0
7560,0.29400843381881714,34.04045867919922,508,9981.0,6.745091438293457,109,5564.0
7570,0.2955634295940399,32.669883728027344,500,9981.0,25.34556007385254,594,5564.0
7580,0.29622432589530945,16.045772552490234,98,9981.0,53.82768630981445,898,5564.0
7590,0.2975037693977356,-8.852856636047363,-258,9981.0,65.5828857421875,1179,5564.0
7600,0.2984113097190857,-36.29690170288086,-674,9981.0,62.60308837890625,867,5564.0
7610,0.30120059847831726,-48.97907257080078,-892,9981.0,45.141666412353516,735,5564.0
7620,0.3021959662437439,-64.10240936279297,-1043,9981.0,23.899539947509766,304,5564.0
7630,0.30335909128189087,-61.09904098510742,-1002,9981.0,-3.987917184829712,-213,5564.0
7640,0.30478745698928833,-48.77983474731445,-716,9981.0,-27.065372467041016,-612,5564.0
7650,0.30580607056617737,-31.15163230895996,-409,9981.0,-49.32530212402344,-809,5564.0
7660,0.3071386218070984,-10.485681533813477,-11,9981.0,-56.555660247802734,-874,5564.0
7670,0.3084692060947418,12.736865043640137,284,9981.0,-52.87314987182617,-904,5564.0
7680,0.3094944655895233,28.87921714782715,497,9981.0,-47.43064880371094,-780,5564.0
7690,0.3107994794845581,42.19676208496094,828,9981.0,-45.77157211303711,-705,5564.0
7700,0.3121189475059509,47.80319595336914,747,9981.0,-43.666725158691406,-682,5564.0
7710,0.31316661834716797,39.515159606933594,609,9981.0,-30.198999404907227,-437,5564.0
7720,0.31435084342956543,19.06764793395996,184,9981.0,-11.654756546020508,-91,5564.0
7730,0.3159044086933136,-1.247446894645691,-57,9981.0,10.596921920776367,273,5564.0
7740,0.3174014091491699,-21.288331985473633,-386,9981.0,36.532440185546875,791,5564.0
7750,0.3196066915988922,-35.292442321777344,-616,9981.0,50.98701858520508,799,5564.0
7760,0.32085418701171875,-38.097808837890625,-663,9981.0,56.65655517578125,962,5564.0
7770,0.3220822215080261,-38.76034927368164,-591,9981.0,44.8046875,650,5564.0
7780,0.3242368698120117,-34.5369987487793,-537,9981.0,24.109281539916992,115,5564.0
7790,0.32550546526908875,-27.196266174316406,-427,9981.0,0.5499370694160461,-19,5564.0
7800,0.32535749673843384,-12.677966117858887,-92,9981.0,-14.468398094177246,-206,5564.0
7810,0.3265565037727356,5.840089321136475,199,9981.0,-31.081220626831055,-680,5564.0
7820,0.32747262716293335,21.6600341796875,355,9981.0,-43.47481155395508,-726,5564.0
7830,0.328352153301239,31.00444221496582,629,9981.0,-38.823238372802734,-498,5564.0
7840,0.3286896049976349,40.643959045410156,637,9981.0,-25.721004486083984,-404,5564.0
7850,0.3296506106853485,51.49884796142578,920,9981.0,-10.536375045776367,-11,5564.0
7860,0.33071169257164,55.84767532348633,835,9981.0,5.599386692047119,52,5564.0
7870,0.33178815245628357,46.30298614501953,698,9981.0,10.597286224365234,211,5564.0
7880,0.33288219571113586,31.46800994873047,318,9981.0,10.563139915466309,303,5564.0
7890,0.33288809657096863,12.807465553283691,173,9981.0,24.2659969329834,435,5564.0
7900,0.3342999219894409,6.715530872344971,29,9981.0,42.832061767578125,880,5564.0
7910,0.33535224199295044,1.2502814531326294,10,9981.0,46.58100509643555,619,5564.0
7920,0.3362535536289215,-1.379989504814148,-13,9981.0,40.161441802978516,722,5564.0
7930,0.33632028102874756,-3.446016311645508,3,9981.0,42.061832427978516,640,5564.0
7940,0.3370538055896759,-10.39659309387207,-328,9981.0,36.95223617553711,550,5564.0
7950,0.33798250555992126,-19.14136505126953,-294,9981.0,17.01252555847168,260,5564.0
7960,0.3387516438961029,-21.78774070739746,-434,9981.0,-4.9743828773498535,-349,5564.0
7970,0.34024378657341003,-21.705814361572266,-352,9981.0,-24.292634963989258,-421,5564.0
7980,0.34054845571517944,-9.077735900878906,127,9981.0,-33.805633544921875,-575,5564.0
7990,0.34091293811798096,19.869495391845703,411,9981.0,-42.74126434326172,-745,5564.0
8000,0.34119531512260437,40.006038665771484,784,9981.0,-34.288368225097656,-385,5564.0
8010,0.341586172580719,46.77734375,710,9981.0,-21.26340103149414,-462,5564.0
8020,0.3410736620426178,32.640010833740234,373,9981.0,-11.007919311523438,27,5564.0
8030,0.3414536118507385,4.175221920013428,-95,9981.0,-0.8739995360374451,68,5564.0
8040,0.34194162487983704,-23.695764541625977,-537,9981.0,1.815073013305664,-46,5564.0
8050,0.34247854351997375,-54.876441955566406,-1013,9981.0,9.315693855285645,297,5564.0
8060,0.3406703472137451,-68.4215087890625,-1123,9981.0,12.786563873291016,147,5564.0
8070,0.3409310579299927,-63.05949783325195,-1054,9981.0,15.853361129760742,317,5564.0
8080,0.3412969708442688,-48.99163818359375,-684,9981.0,21.69888687133789,517,5564.0
8090,0.3415776789188385,-25.327373504638672,-226,9981.0,26.94249725341797,329,5564.0
8100,0.34236061573028564,11.25477123260498,282,9981.0,14.178058624267578,200,5564.0
8110,0.34105610847473145,37.6734733581543,679,9981.0,13.505945205688477,178,5564.0
8120,0.3413720726966858,44.31699752807617,766,9981.0,12.514315605163574,180,5564.0
8130,0.34170350432395935,45.556922912597656,797,9981.0,2.1127450466156006,85,5564.0
8140,0.34200018644332886,44.12356948852539,789,9981.0,-6.923183441162109,-258,5564.0
8150,0.341164231300354,43.99184799194336,677,9981.0,-17.413339614868164,-397,5564.0
8160,0.3413081765174866,40.60030746459961,640,9981.0,-27.396217346191406,-355,5564.0
8170,0.34148815274238586,32.3433952331543,492,9981.0,-27.241552352905273,-410,5564.0
8180,0.34165048599243164,14.914764404296875,13,9981.0,-19.553503036499023,-205,5564.0
8190,0.34122955799102783,-17.89411163330078,-349,9981.0,-9.704164505004883,-116,5564.0
8200,0.3417013883590698,-48.4440803527832,-969,9981.0,-7.20925760269165,-178,5564.0
8210,0.34203359484672546,-70.36463165283203,-1211,9981.0,-15.980612754821777,-215,5564.0
8220,0.3422178328037262,-83.03107452392578,-1352,9981.0,-18.341678619384766,-322,5564.0
8230,0.3430978059768677,-77.85999298095703,-1204,9981.0,-13.344388008117676,-305,5564.0
8240,0.3440451920032501,-46.84373092651367,-539,9981.0,-15.536332130432129,-233,5564.0
8250,0.3447660803794861,-1.2091039419174194,224,9981.0,-11.619372367858887,-114,5564.0
8260,0.3456180989742279,43.59185028076172,932,9981.0,-7.680715560913086,-41,5564.0
8270,0.34634527564048767,78.32428741455078,1292,9981.0,2.4902617931365967,-8,5564.0
8280,0.34448155760765076,82.9287109375,1233,9981.0,10.86305046081543,275,5564.0
8290,0.3447621762752533,57.63725280761719,923,9981.0,25.876859664916992,500,5564.0
8300,0.3450016379356384,33.744537353515625,454,9981.0,37.20043182373047,452,5564.0
8310,0.3454938530921936,16.93461799621582,256,9981.0,35.476104736328125,697,5564.0
8320,0.34549713134765625,3.6777472496032715,107,9981.0,32.38230895996094,403,5564.0
8330,0.3461630344390869,-6.971198081970215,-183,9981.0,19.400070190429688,107,5564.0
8340,0.3465389907360077,-15.162589073181152,-254,9981.0,0.20669767260551453,27,5564.0
8350,0.3467392921447754,-14.02651596069336,-168,9981.0,-17.679981231689453,-232,5564.0
8360,0.3470538854598999,-17.9807186126709,-390,9981.0,-22.32962989807129,-420,5564.0
8370,0.34779834747314453,-27.487455368041992,-514,9981.0,-19.44024658203125,-233,5564.0
8380,0.3483504354953766,-30.685876846313477,-493,9981.0,-20.31540870666504,-238,5564.0
8390,0.34898117184638977,-27.900249481201172,-460,9981.0,-16.54274559020996,-227,5564.0
8400,0.34987783432006836,-23.697006225585938,-408,9981.0,-6.845986366271973,-151,5564.0
8410,0.35187822580337524,-15.534317970275879,-110,9981.0,1.3103718757629395,152,5564.0
8420,0.352842777967453,4.534848213195801,249,9981.0,12.342859268188477,292,5564.0
8430,0.3537324070930481,24.77933692932129,407,9981.0,28.93995475769043,438,5564.0
8440,0.35447531938552856,42.93828201293945,734,9981.0,35.475616455078125,556,5564.0
8450,0.35513266921043396,49.965614318847656,804,9981.0,23.431066513061523,410,5564.0
8460,0.3573733866214752,31.19926643371582,401,9981.0,7.523224830627441,-31,5564.0
8470,0.35827308893203735,-1.7259811162948608,-222,9981.0,-2.2798187732696533,-104,5564.0
8480,0.3592676520347595,-25.91080665588379,-429,9981.0,-10.05815315246582,-125,5564.0
8490,0.3600560128688812,-30.613407135009766,-484,9981.0,-28.188072204589844,-643,5564.0
8500,0.3608621656894684,-27.626262664794922,-486,9981.0,-45.11121368408203,-784,5564.0
8510,0.36142680048942566,-23.447710037231445,-295,9981.0,-51.65505599975586,-685,5564.0
8520,0.362048864364624,-18.512651443481445,-307,9981.0,-31.655019760131836,-455,5564.0
8530,0.36288875341415405,-19.780778884887695,-302,9981.0,-7.426016330718994,49,5564.0
8540,0.3636722266674042,-10.894515991210938,-113,9981.0,19.141891479492188,493,5564.0
8550,0.36576128005981445,-6.665533542633057,-135,9981.0,32.59490203857422,505,5564.0
8560,0.366929829120636,2.3251469135284424,39,9981.0,33.459659576416016,518,5564.0
8570,0.36810699105262756,10.909100532531738,300,9981.0,30.98234748840332,588,5564.0
8580,0.36947157979011536,17.582019805908203,317,9981.0,26.87783432006836,393,5564.0
8590,0.3720804452896118,20.65480613708496,381,9981.0,15.137447357177734,62,5564.0
8600,0.3732708990573883,31.318008422851562,505,9981.0,2.7312233448028564,41,5564.0
8610,0.3743419647216797,27.083974838256836,359,9981.0,0.4674830436706543,76,5564.0
8620,0.37549442052841187,19.40210723876953,281,9981.0,-3.3161463737487793,-154,5564.0
8630,0.3785669207572937,12.49161148071289,154,9981.0,-15.284598350524902,-296,5564.0
8640,0.37983688712120056,5.573729038238525,106,9981.0,-22.86281394958496,-365,5564.0
8650,0.38069236278533936,-2.176750421524048,-44,9981.0,-34.33017349243164,-633,5564.0
8660,0.3814278244972229,-3.8807590007781982,-118,9981.0,-35.21986770629883,-467,5564.0
8670,0.38211750984191895,-1.2238844633102417,-53,9981.0,-21.032453536987305,-364,5564.0
8680,0.38322463631629944,-2.633326292037964,-68,9981.0,0.14640001952648163,156,5564.0
8690,0.38401275873184204,-9.083678245544434,-185,9981.0,16.337223052978516,428,5564.0
8700,0.3848643898963928,-15.841205596923828,-328,9981.0,20.777164459228516,242,5564.0
8710,0.38583359122276306,-17.359317779541016,-218,9981.0,5.9823832511901855,175,5564.0
8720,0.3872227668762207,-17.247922897338867,-241,9981.0,-5.209262371063232,-147,5564.0
8730,0.38822299242019653,-18.796527862548828,-418,9981.0,-12.746023178100586,-207,5564.0
8740,0.38924989104270935,-21.123903274536133,-277,9981.0,-19.03440284729004,-214,5564.0
8750,0.3901793658733368,-19.775070190429688,-261,9981.0,-19.832326889038086,-341,5564.0
8760,0.39147520065307617,-4.633203983306885,-83,9981.0,-11.03880500793457,-112,5564.0
8770,0.3922615349292755,14.311944961547852,372,9981.0,-2.026723623275757,145,5564.0
8780,0.3931887149810791,25.668062210083008,387,9981.0,3.583508014678955,31,5564.0
8790,0.3939562141895294,22.000627517700195,191,9981.0,10.937129020690918,223,5564.0
8800,0.3945038318634033,12.401226997375488,231,9981.0,11.993356704711914,331,5564.0
8810,0.3934113383293152,3.7058119773864746,37,9981.0,14.429262161254883,73,5564.0
8820,0.3937743902206421,8.5831937789917,139,9981.0,4.453954696655273,180,5564.0
8830,0.39395463466644287,23.015666961669922,544,9981.0,-5.029032230377197,-81,5564.0
8840,0.39421430230140686,32.183135986328125,423,9981.0,-14.11719036102295,-347,5564.0
8850,0.39413920044898987,13.429100036621094,139,9981.0,-28.536758422851562,-434,5564.0
8860,0.3942033648490906,-18.648548126220703,-488,9981.0,-34.91856002807617,-615,5564.0
8870,0.3942771553993225,-45.996543884277344,-777,9981.0,-35.084228515625,-529,5564.0
8880,0.3942786753177643,-61.95149230957031,-1077,9981.0,-28.475542068481445,-479,5564.0
8890,0.39476022124290466,-63.125099182128906,-1065,9981.0,-19.733997344970703,-188,5564.0
8900,0.3940278887748718,-56.56020736694336,-801,9981.0,-1.654460072517395,32,5564.0
8910,0.39422792196273804,-42.28532409667969,-684,9981.0,14.675195693969727,225,5564.0
8920,0.39439657330513,-25.33354377746582,-350,9981.0,21.0071964263916,456,5564.0
8930,0.3952091336250305,-2.5461270809173584,105,9981.0,24.48021125793457,435,5564.0
8940,0.39523202180862427,28.90900993347168,652,9981.0,17.465618133544922,327,5564.0
8950,0.3956226706504822,65.5976333618164,1208,9981.0,12.773979187011719,156,5564.0
8960,0.3957482576370239,81.34307861328125,1296,9981.0,12.96351432800293,109,5564.0
8970,0.39610403776168823,75.05659484863281,1172,9981.0,21.666336059570312,446,5564.0
8980,0.3960230350494385,58.97470474243164,909,9981.0,21.973628997802734,427,5564.0
8990,0.39671429991722107,46.10287094116211,608,9981.0,10.68069076538086,-30,5564.0
9000,0.39648598432540894,32.405094146728516,531,9981.0,-1.7286689281463623,36,5564.0
9010,0.3965435028076172,27.17891502380371,452,9981.0,-9.165816307067871,-258,5564.0
9020,0.39673346281051636,10.235742568969727,-1,9981.0,-22.677417755126953,-472,5564.0
9030,0.39740684628486633,-18.170352935791016,-351,9981.0,-29.120372772216797,-406,5564.0
9040,0.39730104804039,-43.88713455200195,-908,9981.0,-25.43231201171875,-502,5564.0
9050,0.39714398980140686,-72.23614501953125,-1212,9981.0,-18.563690185546875,-212,5564.0
9060,0.39703503251075745,-84.45109558105469,-1380,9981.0,-12.407947540283203,-229,5564.0
9070,0.3972187340259552,-79.3242416381836,-1239,9981.0,-13.531684875488281,-291,5564.0
9080,0.3974820077419281,-51.24552917480469,-698,9981.0,-14.66968059539795,-151,5564.0
9090,0.3983226716518402,-20.06338119506836,-114,9981.0,-7.6478776931762695,-63,5564.0
9100,0.39920082688331604,11.018129348754883,199,9981.0,6.363395690917969,143,5564.0
9110,0.4000052213668823,27.178573608398438,487,9981.0,21.54026985168457,348,5564.0
9120,0.4015667140483856,38.51820755004883,628,9981.0,35.30078887939453,776,5564.0
9130,0.4025326669216156,31.22574234008789,635,9981.0,42.33171844482422,621,5564.0
9140,0.4033990800380707,33.7323112487793,464,9981.0,34.5230827331543,485,5564.0
9150,0.40431085228919983,31.730318069458008,493,9981.0,22.436948776245117,391,5564.0
9160,0.40604326128959656,25.124446868896484,415,9981.0,13.417924880981445,292,5564.0
9170,0.40686628222465515,11.302826881408691,-19,9981.0,5.990032196044922,-7,5564.0
9180,0.40769273042678833,-6.9768242835998535,-281,9981.0,-2.0989887714385986,-95,5564.0
9190,0.4083119332790375,-22.55855941772461,-357,9981.0,-18.40480613708496,-339,5564.0
9200,0.40884339809417725,-27.362348556518555,-483,9981.0,-33.26332473754883,-801,5564.0
9210,0.40990328788757324,-23.804384231567383,-374,9981.0,-50.30432891845703,-738,5564.0
9220,0.4101475775241852,-15.03816032409668,-110,9981.0,-45.36068344116211,-621,5564.0
9230,0.41057828068733215,-1.9151606559753418,-25,9981.0,-24.868501663208008,-308,5564.0
9240,0.4113985002040863,3.308502674102783,142,9981.0,2.606393337249756,218,5564.0
9250,0.41221001744270325,9.2628755569458,170,9981.0,17.553741455078125,322,5564.0
9260,0.4128921926021576,8.191390037536621,90,9981.0,29.727888107299805,392,5564.0
9270,0.4136382043361664,7.52772855758667,198,9981.0,26.703168869018555,446,5564.0
9280,0.4144667685031891,10.119611740112305,252,9981.0,18.984296798706055,287,5564.0
9290,0.4155871868133545,7.582873344421387,39,9981.0,7.395925045013428,75,5564.0
9300,0.4164421558380127,-2.797828197479248,-24,9981.0,7.496634006500244,126,5564.0
9310,0.41730955243110657,-13.327315330505371,-187,9981.0,10.684489250183105,324,5564.0
9320,0.41803479194641113,-13.004900932312012,-233,9981.0,21.745555877685547,325,5564.0
9330,0.41877713799476624,-8.908567428588867,-108,9981.0,30.833057403564453,360,5564.0
9340,0.4198584258556366,1.5175867080688477,79,9981.0,26.687515258789062,522,5564.0
9350,0.4203358590602875,8.72083854675293,223,9981.0,24.931081771850586,388,5564.0
9360,0.42070242762565613,15.557916641235352,210,9981.0,12.657395362854004,135,5564.0
9370,0.42105332016944885,20.986339569091797,385,9981.0,-2.6309850215911865,-207,5564.0
9380,0.4238976836204529,27.019081115722656,433,9981.0,-31.745567321777344,-550,5564.0
9390,0.42401647567749023,24.291133880615234,397,9981.0,-55.254051208496094,-927,5564.0
9400,0.4239954948425293,11.47640609741211,90,9981.0,-66.92415618896484,-1170,5564.0
9410,0.424015611410141,0.524153470993042,-82,9981.0,-55.270599365234375,-710,5564.0
9420,0.4241480529308319,-9.266637802124023,-201,9981.0,-32.885128021240234,-497,5564.0
9430,0.4262751638889313,-26.900598526000977,-606,9981.0,-2.660228967666626,218,5564.0
9440,0.4265751540660858,-39.88759994506836,-553,9981.0,29.549562454223633,572,5564.0
9450,0.4267478287220001,-27.068037033081055,-413,9981.0,44.9760627746582,627,5564.0
9460,0.4269450008869171,-5.176630973815918,23,9981.0,42.840457916259766,664,5564.0
9470,0.4265682101249695,19.2788028717041,450,9981.0,31.577606201171875,563,5564.0
9480,0.4269413650035858,46.24907684326172,874,9981.0,17.823524475097656,389,5564.0
9490,0.427273690700531,66.92841339111328,1151,9981.0,13.534220695495605,52,5564.0
9500,0.42777103185653687,72.2935791015625,1099,9981.0,5.836372375488281,125,5564.0
9510,0.428251177072525,56.019866943359375,811,9981.0,5.417080402374268,248,5564.0
9520,0.4286467134952545,28.31009292602539,342,9981.0,15.51357650756836,258,5564.0
9530,0.4291413128376007,-3.6164348125457764,-257,9981.0,19.499977111816406,294,5564.0
9540,0.4294785261154175,-25.852046966552734,-444,9981.0,24.329423904418945,515,5564.0
9550,0.42951247096061707,-35.22085189819336,-499,9981.0,2.8084359169006348,-121,5564.0
9560,0.43000084161758423,-41.580711364746094,-739,9981.0,-27.135936737060547,-692,5564.0
9570,0.4299437999725342,-45.64326858520508,-811,9981.0,-52.64237594604492,-749,5564.0
9580,0.42984434962272644,-57.29173278808594,-902,9981.0,-44.015174865722656,-606,5564.0
9590,0.42969509959220886,-56.976524353027344,-935,9981.0,-17.93912696838379,-181,5564.0
9600,0.42769336700439453,-46.03255844116211,-658,9981.0,11.464079856872559,269,5564.0
9610,0.42784354090690613,-16.250289916992188,-78,9981.0,34.30013656616211,678,5564.0
9620,0.4282565116882324,23.123794555664062,658,9981.0,36.4281120300293,571,5564.0
9630,0.42887458205223083,61.894615173339844,1112,9981.0,12.028785705566406,121,5564.0
9640,0.42935243248939514,70.63585662841797,1068,9981.0,-3.4174411296844482,-236,5564.0
9650,0.4284045398235321,56.99577331542969,857,9981.0,-12.545422554016113,-190,5564.0
9660,0.4289558231830597,28.182113647460938,387,9981.0,-17.898786544799805,-282,5564.0
9670,0.42956894636154175,-1.4144015312194824,-249,9981.0,-14.413728713989258,-249,5564.0
9680,0.4301490783691406,-26.464021682739258,-444,9981.0,-8.685846328735352,-11,5564.0
9690,0.4288288950920105,-34.01319885253906,-615,9981.0,-4.777714252471924,-176,5564.0
9700,0.4289965033531189,-34.4434700012207,-564,9981.0,3.4701733589172363,226,5564.0
9710,0.42905429005622864,-33.47027587890625,-433,9981.0,17.045063018798828,282,5564.0
9720,0.4289240837097168,-27.249113082885742,-446,9981.0,25.779918670654297,364,5564.0
9730,0.42679938673973083,-16.196067810058594,-255,9981.0,23.052934646606445,329,5564.0
9740,0.42659634351730347,-1.2205058336257935,42,9981.0,1.0456100702285767,-26,5564.0
9750,0.42641228437423706,4.511432647705078,88,9981.0,-23.92435646057129,-547,5564.0
9760,0.42623820900917053,7.874885082244873,120,9981.0,-37.38143539428711,-636,5564.0
9770,0.42606058716773987,7.124692916870117,129,9981.0,-21.10263442993164,-163,5564.0
9780,0.4247075617313385,-1.7285168170928955,-55,9981.0,4.132870197296143,103,5564.0
9790,0.42459413409233093,-6.174460411071777,-160,9981.0,18.980545043945312,309,5564.0
9800,0.4245462417602539,-6.766750335693359,-103,9981.0,19.93817710876465,394,5564.0
9810,0.4245518147945404,-7.261435508728027,-73,9981.0,14.196619987487793,47,5564.0
9820,0.4239814281463623,-2.866548776626587,-54,9981.0,7.722572326660156,122,5564.0
9830,0.4241102337837219,2.3230807781219482,89,9981.0,2.183013916015625,70,5564.0
9840,0.4243134558200836,10.084909439086914,315,9981.0,-13.167461395263672,-306,5564.0
9850,0.4244668781757355,22.636680603027344,397,9981.0,-25.60605239868164,-530,5564.0
9860,0.4246043264865875,24.071321487426758,307,9981.0,-29.226938247680664,-359,5564.0
9870,0.42279738187789917,10.193305015563965,150,9981.0,-14.087918281555176,-69,5564.0
9880,0.4226306676864624,-4.682275772094727,-126,9981.0,10.402642250061035,187,5564.0
9890,0.42226892709732056,-13.114946365356445,-236,9981.0,25.5583438873291,417,5564.0
9900,0.421982079744339,-11.513026237487793,-150,9981.0,9.366751670837402,114,5564.0
9910,0.42249760031700134,-12.517752647399902,-251,9981.0,-17.384504318237305,-429,5564.0
9920,0.4221590459346771,-21.08635902404785,-386,9981.0,-38.688377380371094,-743,5564.0
9930,0.42192432284355164,-25.578737258911133,-464,9981.0,-33.3138427734375,-362,5564.0
9940,0.42168742418289185,-22.418949127197266,-320,9981.0,-14.386448860168457,-105,5564.0
9950,0.41941845417022705,-19.215892791748047,-243,9981.0,6.22649621963501,71,5564.0
9960,0.4193589687347412,-13.795387268066406,-178,9981.0,15.082446098327637,110,5564.0
9970,0.4193862974643707,-6.547453880310059,-40,9981.0,3.261737823486328,37,5564.0
9980,0.41949909925460815,3.851682662963867,159,9981.0,-6.580639839172363,-63,5564.0
9990,0.4196900725364685,25.240657806396484,520,9981.0,-8.683244705200195,-170,5564.0
10000,0.4195778965950012,43.23362350463867,730,9981.0,-8.346685409545898,-224,5564.0
10010,0.4198368191719055,47.9447021484375,788,9981.0,-0.7082123756408691,107,5564.0
10020,0.41995081305503845,43.44999313354492,718,9981.0,9.019530296325684,234,5564.0
10030,0.4202164113521576,35.21453094482422,446,9981.0,17.4276065826416,303,5564.0
10040,0.42167288064956665,10.14730453491211,-101,9981.0,26.488204956054688,496,5564.0
10050,0.4218808710575104,-19.166486740112305,-385,9981.0,36.93472671508789,641,5564.0
10060,0.4222272038459778,-36.23554229736328,-581,9981.0,37.15693664550781,461,5564.0
10070,0.4222579896450043,-36.44234085083008,-633,9981.0,15.739919662475586,25,5564.0
10080,0.4224925935268402,-36.005943298339844,-575,9981.0,-19.224075317382812,-485,5564.0
10090,0.4240324795246124,-41.9206657409668,-668,9981.0,-43.11293411254883,-771,5564.0
10100,0.4240056574344635,-44.64198303222656,-747,9981.0,-54.28636169433594,-770,5564.0
10110,0.42391258478164673,-53.93583297729492,-847,9981.0,-44.648860931396484,-655,5564.0
10120,0.4242626130580902,-41.606204986572266,-572,9981.0,-20.896862030029297,-268,5564.0
10130,0.4270789623260498,-13.199071884155273,-34,9981.0,3.5477418899536133,79,5564.0
10140,0.4277406930923462,24.92818260192871,522,9981.0,18.58714485168457,359,5564.0
10150,0.428697794675827,51.970890045166016,957,9981.0,17.58281898498535,318,5564.0
10160,0.4295356273651123,61.719329833984375,992,9981.0,15.120099067687988,214,5564.0
10170,0.4298965632915497,54.99211502075195,861,9981.0,3.6686527729034424,-88,5564.0
10180,0.4308411777019501,43.105831146240234,594,9981.0,-3.5484840869903564,-87,5564.0
10190,0.4317799210548401,23.011646270751953,358,9981.0,-6.422569751739502,-122,5564.0
10200,0.43270400166511536,-2.9150211811065674,-164,9981.0,-16.774858474731445,-410,5564.0
10210,0.4335847795009613,-21.896787643432617,-422,9981.0,-19.95313835144043,-248,5564.0
10220,0.4347313344478607,-36.91545486450195,-607,9981.0,-7.214362621307373,-72,5564.0
10230,0.4352058172225952,-48.34467697143555,-882,9981.0,12.822723388671875,219,5564.0
10240,0.43547508120536804,-49.61233901977539,-726,9981.0,28.145984649658203,597,5564.0
10250,0.4356573224067688,-35.055335998535156,-449,9981.0,16.07127571105957,95,5564.0
10260,0.4358227550983429,-24.520923614501953,-378,9981.0,-10.204516410827637,-353,5564.0
10270,0.43584170937538147,-11.811197280883789,-191,9981.0,-31.318910598754883,-556,5564.0
10280,0.43578898906707764,-11.281525611877441,-90,9981.0,-32.907222747802734,-419,5564.0
10290,0.43566828966140747,4.900566577911377,234,9981.0,-14.224161148071289,-112,5564.0
10300,0.43614661693573,28.054033279418945,527,9981.0,8.73034954071045,150,5564.0
10310,0.4363577663898468,44.93655014038086,776,9981.0,25.70238494873047,501,5564.0
10320,0.4365728199481964,44.458858489990234,744,9981.0,32.190216064453125,497,5564.0
10330,0.4367891550064087,35.74650192260742,478,9981.0,23.31708526611328,160,5564.0
10340,0.43695318698883057,23.06964874267578,257,9981.0,10.09027099609375,225,5564.0
10350,0.4356790781021118,9.369979858398438,193,9981.0,11.557735443115234,156,5564.0
10360,0.43591052293777466,1.2942867279052734,-16,9981.0,3.4845941066741943,-64,5564.0
10370,0.4360445737838745,-1.6839157342910767,-62,9981.0,-4.929200649261475,-68,5564.0
10380,0.43614333868026733,-7.0311174392700195,-146,9981.0,-7.485230922698975,9,5564.0
10390,0.43571779131889343,-11.141919136047363,-185,9981.0,1.392507791519165,129,5564.0
10400,0.43563276529312134,-15.990022659301758,-308,9981.0,19.23721694946289,274,5564.0
10410,0.4354684054851532,-14.620622634887695,-249,9981.0,27.134042739868164,507,5564.0
10420,0.43526118993759155,-2.802217960357666,7,9981.0,21.032732009887695,399,5564.0
10430,0.43497949838638306,9.948623657226562,184,9981.0,3.1451809406280518,-75,5564.0
10440,0.4351271986961365,11.297188758850098,154,9981.0,-13.945775032043457,-315,5564.0
10450,0.4348355531692505,0.06615998595952988,-25,9981.0,-16.14557456970215,-305,5564.0
10460,0.43459352850914,0.9165662527084351,34,9981.0,-16.3753662109375,-69,5564.0
10470,0.43445640802383423,5.511170387268066,194,9981.0,-4.266180515289307,-73,5564.0
10480,0.43306347727775574,11.658770561218262,141,9981.0,-2.972485303878784,-135,5564.0
10490,0.4330911338329315,13.406233787536621,164,9981.0,-2.794405221939087,34,5564.0
10500,0.4332067370414734,4.807863235473633,15,9981.0,-0.8594168424606323,63,5564.0
10510,0.43340182304382324,-0.7665792107582092,14,9981.0,-1.334944248199463,-46,5564.0
10520,0.43361586332321167,-1.8780500888824463,-110,9981.0,-3.0353341102600098,-111,5564.0
10530,0.4345163404941559,-4.549983024597168,-110,9981.0,4.6963582038879395,242,5564.0
10540,0.4349595308303833,-4.492620944976807,13,9981.0,20.886905670166016,545,5564.0
10550,0.43535900115966797,3.5405261516571045,96,9981.0,30.10736083984375,524,5564.0
10560,0.4357907772064209,7.589942932128906,104,9981.0,35.402984619140625,415,5564.0
10570,0.43336787819862366,9.926553726196289,181,9981.0,27.055273056030273,520,5564.0
10580,0.4334143400192261,7.041360855102539,139,9981.0,29.44744300842285,565,5564.0
10590,0.43331462144851685,4.017558574676514,59,9981.0,24.90020179748535,211,5564.0
10600,0.4332864582538605,-2.4124560356140137,-143,9981.0,-6.525279521942139,-280,5564.0
10610,0.4322342574596405,-13.413853645324707,-297,9981.0,-25.989063262939453,-513,5564.0
10620,0.43193310499191284,-23.908096313476562,-392,9981.0,-30.888574600219727,-431,5564.0
10630,0.4315849542617798,-24.202533721923828,-369,9981.0,-24.665403366088867,-397,5564.0
10640,0.43154963850975037,-17.7685604095459,-314,9981.0,-5.206743240356445,-21,5564.0
10650,0.4313932955265045,-5.826923847198486,50,9981.0,9.851561546325684,356,5564.0
10660,0.42839109897613525,8.01303768157959,186,9981.0,19.1835880279541,279,5564.0
10670,0.4283619821071625,17.753986358642578,321,9981.0,15.351702690124512,138,5564.0
10680,0.42842695116996765,27.578487396240234,515,9981.0,9.94844913482666,-21,5564.0
10690,0.4285031855106354,39.111061096191406,666,9981.0,-4.592319965362549,-160,5564.0
10700,0.42760351300239563,40.350799560546875,718,9981.0,-14.902934074401855,-130,5564.0
10710,0.4275975227355957,30.070941925048828,401,9981.0,-5.894819259643555,-189,5564.0
10720,0.4277380406856537,7.5434956550598145,4,9981.0,2.1446261405944824,141,5564.0
10730,0.4277651309967041,-6.433793544769287,-119,9981.0,8.189077377319336,207,5564.0
10740,0.4277755320072174,-15.274229049682617,-289,9981.0,13.098838806152344,194,5564.0
10750,0.42485472559928894,-24.505517959594727,-485,9981.0,22.366737365722656,437,5564.0
10760,0.42449751496315,-24.38973617553711,-294,9981.0,22.661563873291016,433,5564.0
10770,0.42406293749809265,-16.95525360107422,-182,9981.0,13.889918327331543,144,5564.0
10780,0.4236956238746643,-12.962197303771973,-244,9981.0,-10.443595886230469,-389,5564.0
10790,0.4237026274204254,-11.994589805603027,-225,9981.0,-36.06696319580078,-682,5564.0
10800,0.4232521653175354,-16.000080108642578,-216,9981.0,-39.12858963012695,-585,5564.0
10810,0.42280226945877075,-11.188187599182129,-111,9981.0,-18.024639129638672,19,5564.0
10820,0.42279109358787537,-2.868468999862671,-75,9981.0,15.363112449645996,373,5564.0
10830,0.4217034578323364,4.838943004608154,52,9981.0,39.407108306884766,648,5564.0
10840,0.42175960540771484,10.340497016906738,226,9981.0,42.48904037475586,724,5564.0
10850,0.4218751788139343,11.0545654296875,159,9981.0,27.12792205810547,381,5564.0
10860,0.42243504524230957,11.146624565124512,272,9981.0,1.4580060243606567,-104,5564.0
10870,0.4228227734565735,21.744836807250977,345,9981.0,-23.168466567993164,-508,5564.0
10880,0.4242207407951355,26.295377731323242,442,9981.0,-34.73500061035156,-630,5564.0
10890,0.42471617460250854,23.588972091674805,449,9981.0,-29.386598587036133,-357,5564.0
10900,0.42516398429870605,20.343015670776367,411,9981.0,-21.688594818115234,-392,5564.0
10910,0.4256381094455719,9.613659858703613,-18,9981.0,-19.8700008392334,-334,5564.0
10920,0.42420804500579834,-14.420289993286133,-273,9981.0,-4.331825256347656,184,5564.0
10930,0.4244503974914551,-27.421350479125977,-508,9981.0,19.132741928100586,336,5564.0
10940,0.42447197437286377,-31.892086029052734,-566,9981.0,37.741031646728516,681,5564.0
10950,0.4243573248386383,-25.916053771972656,-349,9981.0,31.414609909057617,496,5564.0
10960,0.42441603541374207,-12.751225471496582,-55,9981.0,9.523968696594238,-18,5564.0
10970,0.42421436309814453,6.236590385437012,69,9981.0,-16.76076889038086,-451,5564.0
10980,0.4241805076599121,2.670992136001587,19,9981.0,-24.67936134338379,-378,5564.0
10990,0.42420947551727295,-9.421546936035156,-197,9981.0,-18.562217712402344,-128,5564.0
11000,0.4241998791694641,-24.50543785095215,-460,9981.0,-1.8316335678100586,-85,5564.0
11010,0.4229127764701843,-29.95963478088379,-557,9981.0,5.53264045715332,105,5564.0
11020,0.42292729020118713,-20.11107063293457,-209,9981.0,8.359853744506836,279,5564.0
11030,0.4229884743690491,-3.3837313652038574,29,9981.0,6.139011859893799,57,5564.0
11040,0.4231562614440918,10.576544761657715,196,9981.0,0.09311994165182114,-113,5564.0
11050,0.42334142327308655,15.7620210647583,237,9981.0,-9.409100532531738,-144,5564.0
11060,0.42352578043937683,8.13529109954834,157,9981.0,-11.806964874267578,-138,5564.0
11070,0.4236733913421631,-11.491644859313965,-260,9981.0,-12.841377258300781,-233,5564.0
11080,0.4238330125808716,-23.783723831176758,-450,9981.0,-8.012835502624512,-116,5564.0
11090,0.42386162281036377,-15.539215087890625,-131,9981.0,-13.922857284545898,-123,5564.0
11100,0.42296934127807617,-3.339850664138794,3,9981.0,-10.311911582946777,-133,5564.0
11110,0.4228082001209259,5.082113742828369,47,9981.0,0.307108074426651,15,5564.0
11120,0.4225037097930908,8.48951244354248,167,9981.0,4.915226936340332,81,5564.0
11130,0.4220661520957947,7.507273197174072,97,9981.0,-9.505057334899902,-254,5564.0
11140,0.4206960201263428,-4.962224006652832,-209,9981.0,-23.666669845581055,-583,5564.0
11150,0.4201788306236267,-24.47525978088379,-553,9981.0,-24.6009578704834,-278,5564.0
11160,0.4196726977825165,-39.988128662109375,-688,9981.0,-9.392087936401367,56,5564.0
11170,0.41920801997184753,-41.178462982177734,-556,9981.0,13.140207290649414,294,5564.0
11180,0.41873064637184143,-15.655803680419922,-95,9981.0,24.857744216918945,335,5564.0
11190,0.41756224632263184,17.965137481689453,439,9981.0,26.702465057373047,397,5564.0
11200,0.4173077642917633,42.768531799316406,811,9981.0,15.612369537353516,164,5564.0
11210,0.41726401448249817,53.90341567993164,926,9981.0,-4.066132068634033,-120,5564.0
11220,0.4173356592655182,52.91751480102539,875,9981.0,-22.783960342407227,-427,5564.0
11230,0.4182663857936859,46.35955810546875,724,9981.0,-32.855167388916016,-661,5564.0
11240,0.4185377359390259,35.632076263427734,405,9981.0,-37.59737014770508,-599,5564.0
11250,0.4186413586139679,18.72693634033203,257,9981.0,-36.20301055908203,-431,5564.0
11260,0.419036328792572,5.666228771209717,-64,9981.0,-25.228187561035156,-377,5564.0
11270,0.4204058051109314,-8.127073287963867,-180,9981.0,-7.056511402130127,151,5564.0
11280,0.42054787278175354,-20.06216049194336,-400,9981.0,17.002002716064453,306,5564.0
11290,0.4205414652824402,-30.222745895385742,-590,9981.0,28.681493759155273,399,5564.0
11300,0.42047110199928284,-42.437644958496094,-649,9981.0,21.081167221069336,318,5564.0
11310,0.4204294979572296,-41.163429260253906,-624,9981.0,7.6662917137146,95,5564.0
11320,0.42138296365737915,-32.91018295288086,-498,9981.0,-7.012617111206055,-222,5564.0
11330,0.42140844464302063,-13.100269317626953,-130,9981.0,-9.027632713317871,-132,5564.0
11340,0.42145848274230957,12.254952430725098,318,9981.0,-9.943058013916016,-293,5564.0
11350,0.42169567942619324,40.02764892578125,782,9981.0,-15.096972465515137,-329,5564.0
11360,0.4211962819099426,59.294593811035156,1024,9981.0,-25.344465255737305,-417,5564.0
11370,0.42131879925727844,57.515357971191406,931,9981.0,-28.95139503479004,-461,5564.0
11380,0.4217861294746399,38.140777587890625,478,9981.0,-24.232460021972656,-425,5564.0
11390,0.42254170775413513,4.334949016571045,-32,9981.0,-5.3667826652526855,60,5564.0
11400,0.4229457378387451,-25.402952194213867,-534,9981.0,14.025433540344238,197,5564.0
11410,0.42463603615760803,-52.676082611083984,-973,9981.0,26.133710861206055,528,5564.0
11420,0.4251038134098053,-62.53726577758789,-963,9981.0,34.179840087890625,675,5564.0
11430,0.4256190359592438,-49.83591079711914,-765,9981.0,34.20820236206055,397,5564.0
11440,0.4259340465068817,-22.83416175842285,-282,9981.0,19.08749771118164,231,5564.0
11450,0.42664679884910583,-4.296899795532227,-2,9981.0,14.31098747253418,326,5564.0
11460,0.4268791973590851,5.91956901550293,190,9981.0,17.80472755432129,307,5564.0
11470,0.42704832553863525,15.09535026550293,242,9981.0,0.6605406999588013,-159,5564.0
11480,0.42715033888816833,13.06825065612793,155,9981.0,-14.761855125427246,-337,5564.0
11490,0.42713528871536255,9.965481758117676,229,9981.0,-25.85660171508789,-346,5564.0
11500,0.42714184522628784,12.547389030456543,238,9981.0,-25.506996154785156,-470,5564.0
11510,0.4272814989089966,17.229042053222656,248,9981.0,-11.056150436401367,-61,5564.0
11520,0.42741823196411133,20.831111907958984,396,9981.0,14.702727317810059,321,5564.0
11530,0.42819663882255554,13.51637077331543,123,9981.0,29.310319900512695,487,5564.0
11540,0.4273120164871216,5.297528266906738,177,9981.0,30.25016212463379,504,5564.0
11550,0.4281100332736969,7.553339958190918,46,9981.0,14.141815185546875,73,5564.0
11560,0.4281150698661804,5.9943389892578125,112,9981.0,-0.6025813817977905,54,5564.0
11570,0.428841769695282,0.44240057468414307,24,9981.0,-4.934913635253906,-124,5564.0
11580,0.4281526803970337,-4.447051525115967,-117,9981.0,-8.135868072509766,-126,5564.0
11590,0.4284607768058777,-7.5458269119262695,-124,9981.0,-6.3209147453308105,-9,5564.0
11600,0.428718239068985,-9.175600051879883,-235,9981.0,6.026148796081543,101,5564.0
11610,0.42891600728034973,-12.786489486694336,-185,9981.0,15.178009033203125,377,5564.0
11620,0.42898038029670715,-16.018321990966797,-251,9981.0,24.753171920776367,401,5564.0
11630,0.42892035841941833,-17.513761520385742,-343,9981.0,31.70317840576172,496,5564.0
11640,0.4287255108356476,-16.325515747070312,-203,9981.0,26.667293548583984,572,5564.0
11650,0.4283860921859741,-8.744058609008789,-78,9981.0,5.409056186676025,-120,5564.0
11660,0.42737889289855957,-7.625974655151367,-201,9981.0,-21.9615421295166,-476,5564.0
11670,0.4267846941947937,-15.07492733001709,-334,9981.0,-29.47305679321289,-387,5564.0
11680,0.4253527522087097,-28.209569931030273,-451,9981.0,-18.109291076660156,-150,5564.0
11690,0.42550966143608093,-23.06900405883789,-326,9981.0,3.220810651779175,91,5564.0
11700,0.4244007468223572,-3.383876323699951,60,9981.0,30.388202667236328,540,5564.0
11710,0.42506104707717896,21.693063735961914,415,9981.0,32.27768325805664,654,5564.0
11720,0.4242369532585144,27.770963668823242,500,9981.0,20.55449867248535,158,5564.0
11730,0.4242386221885681,28.46770668029785,428,9981.0,2.7577438354492188,-60,5564.0
11740,0.4238387644290924,29.540849685668945,432,9981.0,-9.124611854553223,-215,5564.0
11750,0.42346903681755066,26.298906326293945,412,9981.0,-17.00322151184082,-214,5564.0
11760,0.422760546207428,14.96564769744873,310,9981.0,-11.560295104980469,-171,5564.0
11770,0.42267754673957825,13.508699417114258,199,9981.0,-6.173328876495361,-115,5564.0
11780,0.4225868880748749,17.177017211914062,314,9981.0,3.3227667808532715,290,5564.0
11790,0.4224504232406616,7.903703212738037,-56,9981.0,19.972976684570312,270,5564.0
11800,0.42175596952438354,-11.57568073272705,-327,9981.0,29.166810989379883,633,5564.0
11810,0.42149829864501953,-18.18195915222168,-315,9981.0,36.95535659790039,719,5564.0
11820,0.42115458846092224,-17.804452896118164,-287,9981.0,32.602500915527344,432,5564.0
11830,0.42080679535865784,-21.012434005737305,-436,9981.0,8.11118221282959,-247,5564.0
11840,0.4204125702381134,-23.97233009338379,-453,9981.0,-19.63404083251953,-371,5564.0
11850,0.4206959307193756,-26.2064266204834,-361,9981.0,-26.73904037475586,-316,5564.0
11860,0.4201227128505707,-18.920995712280273,-242,9981.0,-5.498704433441162,204,5564.0
11870,0.4198170304298401,8.124577522277832,344,9981.0,17.528072357177734,283,5564.0
11880,0.41953471302986145,37.72575378417969,739,9981.0,12.982159614562988,42,5564.0
11890,0.4184081554412842,59.472328186035156,1060,9981.0,-7.620565414428711,-365,5564.0
11900,0.4181644320487976,69.04073333740234,1108,9981.0,-27.124147415161133,-441,5564.0
11910,0.41797852516174316,58.1024055480957,823,9981.0,-29.99312973022461,-544,5564.0
11920,0.4179449677467346,33.42529296875,373,9981.0,-33.0884895324707,-503,5564.0
11930,0.416216105222702,9.062192916870117,50,9981.0,-26.24652671813965,-268,5564.0
11940,0.4161664843559265,-6.034414291381836,-177,9981.0,-14.710419654846191,-259,5564.0
11950,0.4161416292190552,-16.39322280883789,-302,9981.0,-9.989506721496582,-3,5564.0
11960,0.41612252593040466,-28.5057373046875,-577,9981.0,-3.080681800842285,-75,5564.0
11970,0.4160175919532776,-35.568538665771484,-669,9981.0,4.38203763961792,177,5564.0
11980,0.4151270389556885,-37.63199996948242,-562,9981.0,16.855998992919922,461,5564.0
11990,0.41485291719436646,-28.709964752197266,-472,9981.0,27.336483001708984,437,5564.0
12000,0.4144437313079834,-15.158180236816406,-209,9981.0,26.681425094604492,367,5564.0
12010,0.4139839708805084,-0.07006186246871948,63,9981.0,11.703926086425781,142,5564.0
12020,0.41437098383903503,8.491223335266113,184,9981.0,-10.116662979125977,-129,5564.0
12030,0.41383829712867737,3.328725814819336,75,9981.0,-16.621545791625977,-316,5564.0
12040,0.4132738411426544,-4.319436073303223,-89,9981.0,-3.304633855819702,-96,5564.0
12050,0.41273486614227295,0.22487564384937286,24,9981.0,3.6689646244049072,112,5564.0
12060,0.41228142380714417,8.337667465209961,206,9981.0,4.71538782119751,127,5564.0
12070,0.41236457228660583,13.996840476989746,305,9981.0,3.0560669898986816,-98,5564.0
12080,0.41216233372688293,18.16794776916504,232,9981.0,-3.8679494857788086,-19,5564.0
12090,0.41211849451065063,17.403348922729492,324,9981.0,-12.915099143981934,-100,5564.0
12100,0.41215720772743225,9.025613784790039,109,9981.0,-12.922728538513184,-225,5564.0
12110,0.41136878728866577,0.6438953876495361,-86,9981.0,-8.76679515838623,-20,5564.0
12120,0.41147103905677795,-12.216170310974121,-243,9981.0,-0.6428033709526062,149,5564.0
12130,0.41162148118019104,-19.989665985107422,-330,9981.0,7.744734764099121,88,5564.0
12140,0.41172486543655396,-23.003671646118164,-452,9981.0,10.808209419250488,121,5564.0
12150,0.41144439578056335,-24.931655883789062,-360,9981.0,13.411062240600586,325,5564.0
12160,0.41136178374290466,-21.298603057861328,-269,9981.0,23.456026077270508,431,5564.0
12170,0.4113120436668396,-5.531599044799805,24,9981.0,23.905506134033203,244,5564.0
12180,0.41099756956100464,17.866607666015625,357,9981.0,6.6754913330078125,-125,5564.0
12190,0.41073691844940186,29.867023468017578,508,9981.0,-14.750020980834961,-233,5564.0
12200,0.41062167286872864,29.977968215942383,495,9981.0,-33.16637420654297,-492,5564.0
12210,0.4102135896682739,11.006096839904785,10,9981.0,-28.901838302612305,-519,5564.0
12220,0.40975525975227356,-7.75551176071167,-254,9981.0,-13.66773509979248,-101,5564.0
12230,0.4093911945819855,-25.6273136138916,-405,9981.0,-0.4169868528842926,87,5564.0
12240,0.40904736518859863,-34.4189567565918,-649,9981.0,14.22847843170166,193,5564.0
12250,0.4088258147239685,-25.610122680664062,-320,9981.0,14.791082382202148,289,5564.0
12260,0.40870434045791626,-0.7284258008003235,143,9981.0,1.2245160341262817,-59,5564.0
12270,0.40863075852394104,16.59440040588379,255,9981.0,-17.830947875976562,-465,5564.0
12280,0.4083850681781769,14.817867279052734,145,9981.0,-28.649152755737305,-348,5564.0
12290,0.40840139985084534,-1.4812067747116089,-11,9981.0,-13.873733520507812,-153,5564.0
12300,0.40835797786712646,-11.144826889038086,-223,9981.0,8.063486099243164,73,5564.0
12310,0.4082956314086914,-12.043550491333008,-174,9981.0,14.147980690002441,301,5564.0
12320,0.40818068385124207,-11.119170188903809,-43,9981.0,15.083645820617676,239,5564.0
12330,0.4087488651275635,-4.600199222564697,-100,9981.0,19.63130760192871,227,5564.0
12340,0.4085298776626587,-0.6397426128387451,32,9981.0,23.470457077026367,469,5564.0
12350,0.4081806540489197,3.153804302215576,103,9981.0,16.286535263061523,327,5564.0
12360,0.4077792465686798,6.549622535705566,126,9981.0,-3.422450542449951,-249,5564.0
12370,0.4100382924079895,1.2521687746047974,-103,9981.0,-28.531755447387695,-526,5564.0
12380,0.40967267751693726,-9.427221298217773,-221,9981.0,-41.789825439453125,-578,5564.0
12390,0.4093192517757416,-23.024795532226562,-383,9981.0,-31.001840591430664,-425,5564.0
12400,0.4089823365211487,-30.060007095336914,-480,9981.0,-5.199728012084961,-90,5564.0
12410,0.40869975090026855,-12.352717399597168,4,9981.0,9.318415641784668,315,5564.0
12420,0.4079037308692932,8.023354530334473,247,9981.0,16.537687301635742,216,5564.0
12430,0.4079965353012085,19.52370834350586,326,9981.0,6.650878429412842,-31,5564.0
12440,0.4080538749694824,21.96044921875,318,9981.0,-9.058104515075684,-294,5564.0
12450,0.40815144777297974,21.294363021850586,394,9981.0,-26.269567489624023,-359,5564.0
12460,0.4082406461238861,28.739118576049805,564,9981.0,-27.09963607788086,-537,5564.0
12470,0.40839657187461853,39.34522247314453,708,9981.0,-21.79737091064453,-404,5564.0
12480,0.4084627330303192,40.57184982299805,570,9981.0,-6.738724231719971,37,5564.0
12490,0.4085841476917267,17.550582885742188,123,9981.0,0.40116700530052185,-100,5564.0
12500,0.4087256193161011,-11.049592971801758,-311,9981.0,1.9064347743988037,120,5564.0
12510,0.40770208835601807,-29.828393936157227,-510,9981.0,5.451571941375732,140,5564.0
12520,0.4075763523578644,-42.21781539916992,-817,9981.0,22.591745376586914,428,5564.0
12530,0.4072785973548889,-42.282066345214844,-550,9981.0,32.96788024902344,548,5564.0
12540,0.40692830085754395,-29.75626564025879,-514,9981.0,19.578107833862305,103,5564.0
12550,0.40710610151290894,-20.216510772705078,-308,9981.0,-9.753169059753418,-363,5564.0
12560,0.406691312789917,-17.553071975708008,-237,9981.0,-28.08963966369629,-451,5564.0
12570,0.4062129259109497,-9.406190872192383,-40,9981.0,-19.057022094726562,-145,5564.0
12580,0.4058002233505249,8.617515563964844,161,9981.0,5.238584041595459,70,5564.0
12590,0.40684637427330017,22.010021209716797,372,9981.0,17.7006893157959,235,5564.0
12600,0.40686720609664917,34.71016311645508,633,9981.0,14.729171752929688,271,5564.0
12610,0.40706318616867065,44.91254425048828,822,9981.0,4.119775772094727,21,5564.0
12620,0.4074220359325409,43.023033142089844,592,9981.0,-5.610387802124023,-213,5564.0
12630,0.40799954533576965,31.533777236938477,425,9981.0,-10.370759963989258,-63,5564.0
12640,0.40826237201690674,11.85964298248291,137,9981.0,-5.8159379959106445,-74,5564.0
12650,0.4087090790271759,0.5791629552841187,-106,9981.0,-0.8015235662460327,-96,5564.0
12660,0.4090697169303894,-3.5607028007507324,-73,9981.0,-2.3739237785339355,97,5564.0
12670,0.40930595993995667,-6.882842540740967,-65,9981.0,1.543871521949768,-45,5564.0
12680,0.4108731150627136,-14.735431671142578,-354,9981.0,10.259981155395508,203,5564.0
12690,0.41103819012641907,-25.054821014404297,-388,9981.0,18.948585510253906,437,5564.0
12700,0.41105952858924866,-27.24433135986328,-384,9981.0,23.600236892700195,375,5564.0
12710,0.4110543131828308,-22.48142433166504,-353,9981.0,20.598859786987305,74,5564.0
12720,0.41060465574264526,-15.596853256225586,-221,9981.0,-7.234879493713379,-203,5564.0
12730,0.41031721234321594,-11.141077041625977,-104,9981.0,-34.15228271484375,-535,5564.0
12740,0.4098775386810303,-7.370163440704346,-75,9981.0,-39.74361801147461,-635,5564.0
12750,0.40946462750434875,-3.2131965160369873,-54,9981.0,-33.195831298828125,-590,5564.0
12760,0.40906187891960144,4.22584867477417,140,9981.0,-13.846395492553711,-58,5564.0
12770,0.40882813930511475,13.758197784423828,283,9981.0,2.9988811016082764,45,5564.0
12780,0.40853169560432434,11.035157203674316,102,9981.0,10.230392456054688,96,5564.0
12790,0.408345103263855,3.6498794555664062,129,9981.0,5.8992838859558105,160,5564.0
12800,0.4081566333770752,1.408357858657837,48,9981.0,-5.264977931976318,-137,5564.0
12810,0.4076387584209442,-0.4682202637195587,-57,9981.0,-9.15523910522461,-134,5564.0
12820,0.4075922966003418,-2.5202431678771973,-21,9981.0,-6.237242221832275,-9,5564.0
12830,0.4076192080974579,-1.5619676113128662,60,9981.0,3.048448324203491,14,5564.0
12840,0.40762558579444885,6.084510803222656,34,9981.0,9.205973625183105,124,5564.0
12850,0.407564252614975,9.02746868133545,202,9981.0,13.52110767364502,309,5564.0
12860,0.40802425146102905,7.361189365386963,111,9981.0,24.115541458129883,294,5564.0
12870,0.40781834721565247,3.4287853240966797,-26,9981.0,28.861299514770508,598,5564.0
12880,0.4073925316333771,0.8508230447769165,59,9981.0,34.05721664428711,610,5564.0
12890,0.4067932069301605,5.3025641441345215,128,9981.0,21.915739059448242,146,5564.0
12900,0.40725433826446533,3.8572704792022705,16,9981.0,-8.43988037109375,-408,5564.0
12910,0.4066384434700012,2.2157559394836426,115,9981.0,-31.02052879333496,-549,5564.0
12920,0.4058959186077118,3.8720266819000244,118,9981.0,-27.62335777282715,-369,5564.0
12930,0.40519168972969055,2.9994399547576904,53,9981.0,-5.304116249084473,2,5564.0
12940,0.4043261706829071,7.824623107910156,173,9981.0,18.097570419311523,471,5564.0
12950,0.40371668338775635,10.546553611755371,224,9981.0,26.182016372680664,313,5564.0
12960,0.40325355529785156,1.1898589134216309,-76,9981.0,17.51020050048828,127,5564.0
12970,0.40282756090164185,-13.793082237243652,-268,9981.0,3.1376845836639404,62,5564.0
12980,0.4025779664516449,-26.22551155090332,-407,9981.0,-8.091132164001465,-227,5564.0
12990,0.4029758870601654,-26.8701229095459,-413,9981.0,-11.557456970214844,-319,5564.0
13000,0.4027891159057617,-9.859536170959473,-139,9981.0,-13.798101425170898,-166,5564.0
13010,0.40262570977211,1.1974046230316162,121,9981.0,-10.18761920928955,-72,5564.0
13020,0.40247926115989685,7.140430927276611,87,9981.0,-4.367191314697266,-181,5564.0
13030,0.40257811546325684,12.29892349243164,120,9981.0,-0.4775083661079407,123,5564.0
13040,0.4024013876914978,7.132364273071289,141,9981.0,11.143439292907715,334,5564.0
13050,0.4021744430065155,-2.4799227714538574,-98,9981.0,22.522815704345703,365,5564.0
13060,0.40183281898498535,-10.340304374694824,-202,9981.0,27.10489845275879,475,5564.0
13070,0.40136459469795227,-4.946224212646484,7,9981.0,20.534343719482422,400,5564.0
13080,0.3999495804309845,9.423859596252441,289,9981.0,2.7735531330108643,-181,5564.0
13090,0.3994191586971283,27.889123916625977,491,9981.0,-21.15668296813965,-475,5564.0
13100,0.3987996578216553,33.648529052734375,625,9981.0,-32.01192092895508,-396,5564.0
13110,0.3982827067375183,25.752758026123047,299,9981.0,-27.605085372924805,-500,5564.0
13120,0.39851000905036926,-0.7385859489440918,-205,9981.0,-13.592607498168945,-99,5564.0
13130,0.39814478158950806,-30.73003578186035,-598,9981.0,1.7639470100402832,72,5564.0
13140,0.39783647656440735,-50.78232192993164,-864,9981.0,17.23702621459961,368,5564.0
13150,0.3975798785686493,-43.76758575439453,-598,9981.0,20.25755500793457,336,5564.0
13160,0.3984405994415283,-30.6954402923584,-508,9981.0,12.441643714904785,84,5564.0
13170,0.39842489361763,-26.981164932250977,-459,9981.0,7.681704044342041,43,5564.0
13180,0.39852431416511536,-19.61820411682129,-170,9981.0,6.986743927001953,139,5564.0
13190,0.3988170027732849,1.8696361780166626,244,9981.0,6.4974446296691895,26,5564.0
13200,0.3991883099079132,31.321847915649414,568,9981.0,6.631080150604248,32,5564.0
13210,0.3992446959018707,46.11150360107422,742,9981.0,7.836893558502197,277,5564.0
13220,0.39937344193458557,37.297637939453125,494,9981.0,16.945419311523438,341,5564.0
13230,0.3994423449039459,11.772627830505371,112,9981.0,22.841747283935547,264,5564.0
13240,0.3995485007762909,0.5802851915359497,-45,9981.0,14.777215003967285,254,5564.0
13250,0.40077048540115356,6.432286739349365,209,9981.0,-4.2679338455200195,-129,5564.0
13260,0.4006589949131012,17.022048950195312,343,9981.0,-23.159889221191406,-558,5564.0
13270,0.4004833996295929,27.028257369995117,450,9981.0,-45.92677688598633,-738,5564.0
13280,0.4003704786300659,20.45271110534668,324,9981.0,-52.758060455322266,-881,5564.0
13290,0.400136262178421,-0.5767202973365784,-208,9981.0,-43.21001434326172,-514,5564.0
13300,0.39923423528671265,-24.135496139526367,-411,9981.0,-18.364351272583008,-246,5564.0
13310,0.39910316467285156,-36.105369567871094,-652,9981.0,2.7643256187438965,167,5564.0
13320,0.3993118107318878,-33.22967529296875,-440,9981.0,12.354178428649902,182,5564.0
13330,0.39937371015548706,-20.46847915649414,-273,9981.0,17.1364803314209,271,5564.0
13340,0.4003831744194031,-4.709756374359131,32,9981.0,23.120607376098633,506,5564.0
13350,0.4005848169326782,7.604818820953369,201,9981.0,25.484153747558594,404,5564.0
13360,0.4007420241832733,13.238143920898438,171,9981.0,33.033721923828125,494,5564.0
13370,0.40082454681396484,16.108861923217773,300,9981.0,35.09622573852539,695,5564.0
13380,0.4012567102909088,13.554424285888672,141,9981.0,27.533170700073242,318,5564.0
13390,0.4011813700199127,-1.0051441192626953,-131,9981.0,18.30250358581543,306,5564.0
13400,0.40105870366096497,-7.6708455085754395,-81,9981.0,10.966898918151855,219,5564.0
13410,0.40080082416534424,2.3345303535461426,173,9981.0,-5.12217903137207,-191,5564.0
13420,0.4004986882209778,19.35031509399414,332,9981.0,-23.938791275024414,-495,5564.0
13430,0.40099969506263733,37.220088958740234,684,9981.0,-28.496501922607422,-269,5564.0
13440,0.4004983901977539,42.922237396240234,738,9981.0,-20.10650634765625,-386,5564.0
13450,0.399980366230011,37.844970703125,564,9981.0,-12.354823112487793,-62,5564.0
13460,0.39939865469932556,19.031944274902344,150,9981.0,-2.716954231262207,-128,5564.0
13470,0.39963459968566895,-8.349884033203125,-203,9981.0,1.9942470788955688,163,5564.0
13480,0.3989981412887573,-19.675514221191406,-429,9981.0,7.552116870880127,75,5564.0
13490,0.3983381688594818,-31.69231414794922,-548,9981.0,8.446428298950195,226,5564.0
13500,0.3978698253631592,-41.710628509521484,-678,9981.0,8.272909164428711,68,5564.0
13510,0.3991258144378662,-44.69221878051758,-763,9981.0,8.053741455078125,96,5564.0
13520,0.39884427189826965,-35.55260467529297,-440,9981.0,7.8874311447143555,181,5564.0
13530,0.3987995386123657,-19.64975929260254,-304,9981.0,10.436442375183105,63,5564.0
13540,0.39878740906715393,-10.687047958374023,-154,9981.0,10.736886024475098,291,5564.0
13550,0.39876317977905273,-6.942928791046143,-114,9981.0,15.802350997924805,356,5564.0
13560,0.3979945182800293,-3.1545677185058594,23,9981.0,18.471033096313477,219,5564.0
13570,0.39785856008529663,6.4760308265686035,69,9981.0,12.39530086517334,65,5564.0
13580,0.39765846729278564,4.752856254577637,124,9981.0,4.152763366699219,165,5564.0
13590,0.39735978841781616,1.9300642013549805,97,9981.0,-0.8799225687980652,-60,5564.0
13600,0.39809390902519226,6.746057033538818,159,9981.0,-9.815043449401855,-338,5564.0
13610,0.39772579073905945,22.80607032775879,370,9981.0,-18.59115982055664,-276,5564.0
13620,0.3973187208175659,36.44771194458008,749,9981.0,-19.931615829467773,-231,5564.0
13630,0.3969109356403351,37.85851287841797,490,9981.0,-18.18650245666504,-491,5564.0
13640,0.39632508158683777,30.563739776611328,538,9981.0,-33.336612701416016,-512,5564.0
13650,0.3957795798778534,18.080354690551758,100,9981.0,-38.64612579345703,-675,5564.0
13660,0.3953559398651123,-9.94505500793457,-256,9981.0,-26.459285736083984,-331,5564.0
13670,0.3952553868293762,-38.64744186401367,-816,9981.0,-3.9802911281585693,53,5564.0
13680,0.39504849910736084,-53.6654167175293,-753,9981.0,9.440760612487793,187,5564.0
13690,0.3944191038608551,-46.84764862060547,-765,9981.0,19.155282974243164,291,5564.0
13700,0.39461639523506165,-27.577373504638672,-334,9981.0,22.266809463500977,535,5564.0
13710,0.39494460821151733,-10.621091842651367,17,9981.0,30.315940856933594,519,5564.0
13720,0.3950228691101074,7.252701759338379,159,9981.0,42.13408660888672,761,5564.0
13730,0.39498764276504517,19.390169143676758,398,9981.0,54.643367767333984,1031,5564.0
13740,0.39494118094444275,30.175039291381836,588,9981.0,47.1478271484375,691,5564.0
13750,0.39478799700737,33.878074645996094,568,9981.0,34.275550842285156,417,5564.0
13760,0.3944947421550751,34.189697265625,540,9981.0,17.575794219970703,84,5564.0
13770,0.3944094479084015,37.68733215332031,684,9981.0,-5.89039945602417,-199,5564.0
13780,0.39508500695228577,52.85123062133789,924,9981.0,-37.381717681884766,-740,5564.0
13790,0.3945668339729309,51.89386749267578,847,9981.0,-56.530364990234375,-1086,5564.0
13800,0.3941149413585663,48.83389663696289,739,9981.0,-56.1996955871582,-764,5564.0
13810,0.39399707317352295,33.395263671875,326,9981.0,-38.8685188293457,-588,5564.0
13820,0.3934307396411896,-0.732816755771637,-250,9981.0,-19.53517723083496,-105,5564.0
13830,0.3931922912597656,-42.720863342285156,-935,9981.0,1.3129186630249023,93,5564.0
13840,0.3930646777153015,-71.3446273803711,-1251,9981.0,16.57393455505371,413,5564.0
13850,0.3927983045578003,-82.14082336425781,-1329,9981.0,26.314817428588867,337,5564.0
13860,0.39281272888183594,-72.1807861328125,-1108,9981.0,25.576757431030273,415,5564.0
13870,0.392709344625473,-55.630245208740234,-863,9981.0,22.262950897216797,312,5564.0
13880,0.39255160093307495,-42.154537200927734,-666,9981.0,21.37986946105957,263,5564.0
13890,0.3924989402294159,-26.47930908203125,-409,9981.0,19.0218505859375,338,5564.0
13900,0.39288878440856934,-5.8042497634887695,26,9981.0,17.512434005737305,386,5564.0
13910,0.3921082615852356,21.80013656616211,486,9981.0,7.895753383636475,118,5564.0
13920,0.39235198497772217,42.98478317260742,781,9981.0,-11.555320739746094,-193,5564.0
13930,0.392377644777298,49.43795394897461,762,9981.0,-29.688518524169922,-567,5564.0
13940,0.39250648021698,41.915889739990234,524,9981.0,-36.020999908447266,-589,5564.0
13950,0.39242881536483765,30.32035255432129,600,9981.0,-35.17425537109375,-462,5564.0
13960,0.3929888904094696,36.24211120605469,558,9981.0,-37.6886100769043,-684,5564.0
13970,0.39278438687324524,32.888641357421875,420,9981.0,-37.624290466308594,-530,5564.0
13980,0.3932435214519501,20.42850112915039,279,9981.0,-33.71524429321289,-585,5564.0
13990,0.39309972524642944,-4.026659965515137,-204,9981.0,-18.01840591430664,-71,5564.0
14000,0.39110222458839417,-29.0929012298584,-598,9981.0,7.007411956787109,140,5564.0
14010,0.3911084532737732,-51.54568099975586,-944,9981.0,28.12835693359375,625,5564.0
14020,0.39110785722732544,-66.90108489990234,-1120,9981.0,39.284603118896484,617,5564.0
14030,0.3910942077636719,-60.6063232421875,-1009,9981.0,35.79597091674805,561,5564.0
14040,0.3880434036254883,-45.05213165283203,-601,9981.0,25.347455978393555,491,5564.0
14050,0.3880704939365387,-24.216360092163086,-313,9981.0,18.113994598388672,263,5564.0
