timestamp,kalman.stateZ,gyro.x,gyro.xRaw,gyro.xVariance,gyro.y,gyro.yRaw,gyro.yVariance
0,0.3124353289604187,0.11165830492973328,9,5346.0,1.8290067911148071,28,9844.0
10,0.312555730342865,0.3038993179798126,11,5346.0,1.8511744737625122,36,9844.0
20,0.3117780387401581,0.5094585418701172,10,5346.0,2.3478870391845703,37,9844.0
30,0.31185704469680786,0.6297519207000732,10,5346.0,2.447826385498047,41,9844.0
40,0.3119339942932129,0.21265430748462677,-1,5346.0,2.3831653594970703,49,9844.0
50,0.31201139092445374,-0.4934031367301941,-7,5346.0,2.8985774517059326,51,9844.0
60,0.31186139583587646,-0.6218854784965515,-17,5346.0,2.6263110637664795,49,9844.0
70,0.3119259774684906,-0.5834352970123291,0,5346.0,2.7312674522399902,44,9844.0
80,0.31199148297309875,-0.021945292130112648,9,5346.0,2.8281776905059814,41,9844.0
90,0.3120587170124054,0.4582041800022125,15,5346.0,2.5590920448303223,41,9844.0
100,0.3121260106563568,0.671869695186615,13,5346.0,2.4102137088775635,40,9844.0
110,0.31188589334487915,0.567807137966156,7,5346.0,2.0370585918426514,23,9844.0
120,0.31194427609443665,0.06319357454776764,1,5346.0,1.2824817895889282,26,9844.0
130,0.31200435757637024,-0.09151021391153336,-2,5346.0,0.6654347777366638,13,9844.0
140,0.3120681941509247,-0.6422105431556702,-3,5346.0,0.4847296178340912,5,9844.0
150,0.311794251203537,-0.8477786183357239,-15,5346.0,0.1009843498468399,-2,9844.0
160,0.31185320019721985,-0.79200279712677,-12,5346.0,-0.5359609723091125,-12,9844.0
170,0.3119211792945862,-0.6223825216293335,-8,5346.0,-1.4485734701156616,-26,9844.0
180,0.31199946999549866,0.1902649849653244,0,5346.0,-2.1281142234802246,-36,9844.0
190,0.3117842376232147,0.8401349186897278,21,5346.0,-4.6707844734191895,-94,9844.0
200,0.31183815002441406,1.6959480047225952,34,5346.0,-8.9496488571167,-186,9844.0
210,0.31194692850112915,3.2914164066314697,28,5346.0,-17.49435806274414,-351,9844.0
220,0.3119736611843109,5.003969669342041,121,5346.0,-31.45842170715332,-608,9844.0
230,0.31212010979652405,4.078817367553711,96,5346.0,-49.33264923095703,-908,9844.0
240,0.3086938261985779,6.336038589477539,81,5346.0,-70.14349365234375,-1179,9844.0
250,0.30864742398262024,6.592944145202637,41,5346.0,-87.64396667480469,-1523,9844.0
260,0.30842509865760803,2.231076955795288,57,5346.0,-101.04007720947266,-1759,9844.0
270,0.30931493639945984,1.3078962564468384,34,5346.0,-102.16719055175781,-1625,9844.0
280,0.3081442415714264,3.1008167266845703,-5,5346.0,-92.80506896972656,-1435,9844.0
290,0.30779504776000977,5.359488010406494,31,5346.0,-76.69281005859375,-1015,9844.0
300,0.3077907860279083,6.436042308807373,99,5346.0,-49.27544403076172,-789,9844.0
310,0.3087850511074066,9.89134693145752,176,5346.0,-21.70591926574707,-264,9844.0
320,0.3106991648674011,11.225117683410645,165,5346.0,3.266666889190674,228,9844.0
330,0.3113621473312378,9.480718612670898,179,5346.0,20.989913940429688,244,9844.0
340,0.312030166387558,9.436511993408203,189,5346.0,27.08280372619629,412,9844.0
350,0.3126879334449768,7.496028423309326,124,5346.0,25.591781616210938,144,9844.0
360,0.3133910000324249,6.925807952880859,143,5346.0,12.554399490356445,91,9844.0
370,0.31457647681236267,3.2045464515686035,42,5346.0,-1.6900705099105835,-88,9844.0
380,0.31542789936065674,0.17561715841293335,133,5346.0,-16.488550186157227,-311,9844.0
390,0.3162139654159546,0.42031994462013245,-86,5346.0,-28.265169143676758,-472,9844.0
400,0.31689581274986267,-3.769331693649292,-21,5346.0,-36.32346725463867,-425,9844.0
410,0.3190726637840271,-1.5860049724578857,-131,5346.0,-39.26572799682617,-573,9844.0
420,0.3198569118976593,-3.707592010498047,-48,5346.0,-36.264244079589844,-401,9844.0
430,0.3211067020893097,0.3308519423007965,-77,5346.0,-29.835254669189453,-322,9844.0
440,0.3221668601036072,-0.7087795734405518,-65,5346.0,-14.907135963439941,-38,9844.0
450,0.32345151901245117,-1.525775671005249,-28,5346.0,-0.662522554397583,195,9844.0
460,0.32396018505096436,-1.7687618732452393,-69,5346.0,16.183055877685547,295,9844.0
470,0.32436466217041016,-4.65808629989624,-186,5346.0,27.225492477416992,588,9844.0
480,0.32547247409820557,-5.556044101715088,-97,5346.0,35.402870178222656,747,9844.0
490,0.3271753191947937,-5.493450164794922,-144,5346.0,40.3714714050293,673,9844.0
500,0.3280653655529022,-5.4516377449035645,-168,5346.0,43.17604064941406,874,9844.0
510,0.3289388120174408,-5.1873860359191895,-91,5346.0,44.503074645996094,872,9844.0
520,0.3303028345108032,-3.8894240856170654,-109,5346.0,40.7259407043457,537,9844.0
530,0.3317127823829651,-1.03305983543396,-21,5346.0,38.35388946533203,628,9844.0
540,0.3324023187160492,-0.1327890306711197,43,5346.0,29.370615005493164,370,9844.0
550,0.333902508020401,-0.8259914517402649,11,5346.0,25.617616653442383,310,9844.0
560,0.3353090286254883,0.307424932718277,174,5346.0,18.172863006591797,183,9844.0
570,0.33675503730773926,3.150167465209961,59,5346.0,11.97630500793457,243,9844.0
580,0.3381957709789276,4.006896018981934,112,5346.0,5.7136549949646,78,9844.0
590,0.33969542384147644,5.29243278503418,-6,5346.0,-1.6850923299789429,140,9844.0
600,0.34095412492752075,4.906980991363525,7,5346.0,-5.05040979385376,-29,9844.0
610,0.34220200777053833,6.901827335357666,3,5346.0,-12.601383209228516,-190,9844.0
620,0.34323757886886597,4.5279083251953125,77,5346.0,-14.123451232910156,-160,9844.0
630,0.34212252497673035,4.835129737854004,81,5346.0,-17.129226684570312,-465,9844.0
640,0.3427427113056183,0.9415866732597351,2,5346.0,-19.015949249267578,-295,9844.0
650,0.34337133169174194,2.9644417762756348,118,5346.0,-17.724225997924805,-412,9844.0
660,0.3437856435775757,0.9555241465568542,8,5346.0,-16.154314041137695,-520,9844.0
670,0.34402304887771606,2.9622597694396973,129,5346.0,-21.733142852783203,-327,9844.0
680,0.34164002537727356,2.156407356262207,116,5346.0,-16.002378463745117,-455,9844.0
690,0.34136661887168884,-0.23659317195415497,12,5346.0,-12.006461143493652,-363,9844.0
700,0.34098976850509644,-1.9111231565475464,134,5346.0,-10.800878524780273,-191,9844.0
710,0.3405199348926544,-2.2755420207977295,46,5346.0,-8.477720260620117,-356,9844.0
720,0.338328093290329,-2.512601375579834,-95,5346.0,-11.532464981079102,-137,9844.0
730,0.33750948309898376,-3.8914177417755127,-7,5346.0,-8.609169006347656,18,9844.0
740,0.33655643463134766,-0.17764735221862793,-143,5346.0,-16.05128288269043,-133,9844.0
750,0.33547696471214294,-0.1913193017244339,-184,5346.0,-22.850873947143555,-179,9844.0
760,0.33422356843948364,-4.260420799255371,-122,5346.0,-19.967517852783203,-253,9844.0
770,0.33319807052612305,0.05678773671388626,11,5346.0,-18.272268295288086,-256,9844.0
780,0.33212363719940186,-1.087296962738037,84,5346.0,-21.722190856933594,-554,9844.0
790,0.3310617506504059,-2.3942313194274902,-37,5346.0,-14.229741096496582,-349,9844.0
800,0.33014386892318726,-2.4827017784118652,64,5346.0,-14.424863815307617,-229,9844.0
810,0.3308072090148926,-6.706651210784912,-18,5346.0,-11.141860961914062,-46,9844.0
820,0.3301609754562378,-4.602659702301025,-74,5346.0,-11.497879981994629,-144,9844.0
830,0.329708456993103,-3.9312021732330322,-175,5346.0,-10.428367614746094,-113,9844.0
840,0.3294934034347534,-6.781064033508301,-185,5346.0,-3.8319430351257324,89,9844.0
850,0.3287595510482788,-6.959755897521973,-116,5346.0,-5.27593994140625,-176,9844.0
860,0.32856014370918274,-5.907212257385254,-48,5346.0,-1.573178768157959,-252,9844.0
870,0.32837986946105957,-6.227163314819336,-88,5346.0,-1.0725023746490479,-15,9844.0
880,0.32832810282707214,-1.1559257507324219,-28,5346.0,-4.926414966583252,109,9844.0
890,0.32831501960754395,1.5004886388778687,19,5346.0,-6.021599292755127,80,9844.0
900,0.3285791575908661,4.747325420379639,88,5346.0,-0.16581770777702332,-78,9844.0
910,0.32859185338020325,7.964120864868164,168,5346.0,-2.3884503841400146,-119,9844.0
920,0.32862046360969543,7.972419738769531,143,5346.0,-1.5240538120269775,91,9844.0
930,0.3287052512168884,7.828146457672119,81,5346.0,-1.9611643552780151,133,9844.0
940,0.328017920255661,10.073813438415527,107,5346.0,-5.28446626663208,24,9844.0
950,0.3280175030231476,7.106694221496582,66,5346.0,-3.81359601020813,-75,9844.0
960,0.3279796242713928,2.5632717609405518,-7,5346.0,-0.5854216814041138,-209,9844.0
970,0.3277444541454315,-3.2171592712402344,19,5346.0,-3.5885660648345947,-91,9844.0
980,0.32885316014289856,-5.789821147918701,-21,5346.0,-1.7221349477767944,35,9844.0
990,0.3289119303226471,-7.637620449066162,-114,5346.0,-0.6845417022705078,169,9844.0
1000,0.32893121242523193,-8.355147361755371,-196,5346.0,7.582624912261963,48,9844.0
1010,0.32893162965774536,-3.385409116744995,-142,5346.0,7.803353309631348,186,9844.0
1020,0.32888251543045044,-1.035583734512329,14,5346.0,11.010562896728516,117,9844.0
1030,0.3287629187107086,4.852337837219238,197,5346.0,17.05573272705078,163,9844.0
1040,0.3284783363342285,5.096776962280273,256,5346.0,13.317939758300781,80,9844.0
1050,0.32825231552124023,8.193718910217285,49,5346.0,10.540071487426758,246,9844.0
1060,0.32819804549217224,7.472253799438477,76,5346.0,13.945903778076172,355,9844.0
1070,0.3299045264720917,4.142637252807617,5,5346.0,15.157515525817871,380,9844.0
1080,0.32993921637535095,0.4017229378223419,40,5346.0,20.07593536376953,273,9844.0
1090,0.33007529377937317,-2.368155002593994,-38,5346.0,19.015596389770508,145,9844.0
1100,0.3302011787891388,-3.1185801029205322,-23,5346.0,18.859514236450195,278,9844.0
1110,0.3328385055065155,-3.6916627883911133,-104,5346.0,15.334192276000977,393,9844.0
1120,0.33309072256088257,-2.4388363361358643,-8,5346.0,12.13742733001709,247,9844.0
1130,0.33333781361579895,-2.103386640548706,-17,5346.0,8.927766799926758,104,9844.0
1140,0.33349964022636414,-0.18945221602916718,-7,5346.0,6.2520976066589355,-97,9844.0
1150,0.3335290551185608,0.5073535442352295,58,5346.0,-0.30498069524765015,19,9844.0
1160,0.3364831507205963,1.3035424947738647,126,5346.0,-4.4141011238098145,16,9844.0
1170,0.33661460876464844,1.8847565650939941,-11,5346.0,-6.478231430053711,-72,9844.0
1180,0.3366996645927429,2.4725944995880127,-45,5346.0,-7.2657470703125,-130,9844.0
1190,0.3366547226905823,1.1394531726837158,-13,5346.0,-9.445564270019531,-201,9844.0
1200,0.339372456073761,1.6045407056808472,89,5346.0,-2.6107711791992188,15,9844.0
1210,0.3393729031085968,0.7109701037406921,135,5346.0,-1.5636115074157715,-98,9844.0
1220,0.33936813473701477,3.2857818603515625,108,5346.0,-9.99916934967041,-144,9844.0
1230,0.3393086791038513,-0.12859179079532623,-131,5346.0,0.4624805748462677,19,9844.0
1240,0.33910274505615234,0.3753854036331177,-6,5346.0,-1.78526771068573,36,9844.0
1250,0.34074822068214417,-2.8047780990600586,-60,5346.0,6.045619964599609,117,9844.0
1260,0.34057626128196716,1.3199864625930786,91,5346.0,3.703981637954712,21,9844.0
1270,0.34040647745132446,0.36261123418807983,103,5346.0,0.8340272903442383,-135,9844.0
1280,0.34018197655677795,-0.4798068702220917,-45,5346.0,-1.2947804927825928,-60,9844.0
1290,0.34112897515296936,-0.7342606782913208,-110,5346.0,-2.484365463256836,139,9844.0
1300,0.3408817946910858,-0.13942717015743256,-58,5346.0,-5.094747543334961,52,9844.0
1310,0.34064754843711853,-3.0499894618988037,-3,5346.0,0.4945143461227417,-187,9844.0
1320,0.3403565585613251,-2.7260217666625977,23,5346.0,-6.946600437164307,-245,9844.0
1330,0.34075596928596497,-3.0536820888519287,-61,5346.0,-4.5209221839904785,-109,9844.0
1340,0.34033340215682983,-1.7548954486846924,-70,5346.0,-5.912159442901611,-51,9844.0
1350,0.3399408459663391,-0.025895800441503525,-106,5346.0,-6.0274248123168945,77,9844.0
1360,0.33970531821250916,0.14631003141403198,-35,5346.0,-6.011952877044678,-160,9844.0
1370,0.3394148349761963,0.022514555603265762,39,5346.0,-0.8859847784042358,-182,9844.0
1380,0.34067970514297485,-2.027942419052124,59,5346.0,3.1598846912384033,-110,9844.0
1390,0.34041640162467957,-2.3929378986358643,-5,5346.0,4.168842315673828,113,9844.0
1400,0.3401530683040619,-1.1090348958969116,-39,5346.0,1.5042595863342285,177,9844.0
1410,0.33992907404899597,1.209771752357483,3,5346.0,-0.2018820345401764,65,9844.0
1420,0.3382411003112793,1.2714624404907227,26,5346.0,-2.64817476272583,-226,9844.0
1430,0.3378884196281433,-4.470585346221924,44,5346.0,2.757145643234253,-158,9844.0
1440,0.33751770853996277,-0.7088481187820435,-65,5346.0,-2.964930772781372,12,9844.0
1450,0.33715060353279114,-0.3990478217601776,-18,5346.0,-2.478468418121338,114,9844.0
1460,0.33683785796165466,1.1846699714660645,4,5346.0,-1.164544701576233,-48,9844.0
1470,0.3354126811027527,1.519392490386963,141,5346.0,-3.6581485271453857,-98,9844.0
1480,0.33506324887275696,2.328634738922119,60,5346.0,1.6231485605239868,-99,9844.0
1490,0.3347107172012329,1.2830746173858643,-56,5346.0,-6.7079854011535645,36,9844.0
1500,0.3343949615955353,-1.7108911275863647,-110,5346.0,-1.5652605295181274,109,9844.0
1510,0.3345010280609131,-1.7431031465530396,-64,5346.0,-4.327154636383057,-89,9844.0
1520,0.3343525528907776,-3.4052987098693848,-97,5346.0,-4.640872955322266,-222,9844.0
1530,0.33416998386383057,-1.7193684577941895,9,5346.0,-3.911932945251465,-113,9844.0
1540,0.3339517414569855,1.3805983066558838,5,5346.0,-14.172760009765625,-30,9844.0
1550,0.3338177800178528,2.793424129486084,43,5346.0,-4.022411823272705,89,9844.0
1560,0.33365511894226074,2.14381742477417,25,5346.0,-1.454197883605957,13,9844.0
1570,0.33358490467071533,2.7018494606018066,17,5346.0,-2.3423728942871094,-165,9844.0
1580,0.3335829973220825,-0.9518755078315735,30,5346.0,-0.5136300921440125,-35,9844.0
1590,0.333566278219223,1.6624609231948853,33,5346.0,5.490525722503662,38,9844.0
1600,0.3344854414463043,3.2000572681427,22,5346.0,0.4506824016571045,132,9844.0
1610,0.3344888687133789,1.8241640329360962,3,5346.0,0.11631803214550018,35,9844.0
1620,0.334611177444458,1.923734426498413,37,5346.0,2.082624673843384,-62,9844.0
1630,0.33483007550239563,-0.7111850380897522,43,5346.0,0.4854573607444763,-128,9844.0
1640,0.33584025502204895,-0.6227099299430847,-51,5346.0,2.7954347133636475,137,9844.0
1650,0.33616024255752563,-2.7464990615844727,-58,5346.0,2.3236801624298096,96,9844.0
1660,0.3365079462528229,-4.4036545753479,-80,5346.0,4.248373031616211,233,9844.0
1670,0.33695265650749207,-2.9572291374206543,-48,5346.0,1.7114545106887817,-44,9844.0
1680,0.3374156653881073,-1.7509160041809082,8,5346.0,4.221019744873047,-82,9844.0
1690,0.3388236463069916,-2.8392577171325684,16,5346.0,4.399249076843262,-47,9844.0
1700,0.33918580412864685,-1.0108717679977417,14,5346.0,5.565334796905518,169,9844.0
1710,0.33956700563430786,1.1416451930999756,60,5346.0,5.346513271331787,177,9844.0
1720,0.33998623490333557,1.7183144092559814,-32,5346.0,8.394880294799805,166,9844.0
1730,0.3391403257846832,3.4344170093536377,-35,5346.0,5.465704917907715,50,9844.0
1740,0.33946409821510315,1.7150883674621582,-22,5346.0,8.490281105041504,130,9844.0
1750,0.3398268520832062,-0.2884015440940857,58,5346.0,0.4830154478549957,5,9844.0
1760,0.3402828574180603,-2.6889448165893555,10,5346.0,8.154738426208496,-41,9844.0
1770,0.33961424231529236,-4.390976905822754,-77,5346.0,7.396807670593262,18,9844.0
1780,0.33972588181495667,-4.331242084503174,-117,5346.0,4.033850193023682,150,9844.0
1790,0.3397846221923828,-5.1135029792785645,-32,5346.0,4.8050336837768555,252,9844.0
1800,0.3398979604244232,-0.6581510901451111,-130,5346.0,-0.18047872185707092,136,9844.0
1810,0.3399060070514679,-0.9687262177467346,-93,5346.0,3.117485284805298,4,9844.0
1820,0.34061887860298157,0.07985250651836395,-42,5346.0,2.7311174869537354,-88,9844.0
1830,0.3405348062515259,0.18707171082496643,154,5346.0,2.2522192001342773,-39,9844.0
1840,0.34052205085754395,2.133281707763672,142,5346.0,-0.16279983520507812,-73,9844.0
1850,0.3404971659183502,3.2414615154266357,-17,5346.0,-0.7126297950744629,29,9844.0
1860,0.34027501940727234,3.5043540000915527,-15,5346.0,-6.090299606323242,33,9844.0
1870,0.34026771783828735,1.7676136493682861,2,5346.0,-4.508382797241211,62,9844.0
1880,0.3403216302394867,0.3185564875602722,2,5346.0,-6.808490753173828,-192,9844.0
1890,0.3403579592704773,0.7596916556358337,36,5346.0,-4.598756313323975,-190,9844.0
1900,0.34029465913772583,-0.9595425128936768,14,5346.0,-2.143531322479248,-110,9844.0
1910,0.3388286232948303,-1.9357739686965942,48,5346.0,1.9109611511230469,84,9844.0
1920,0.33857443928718567,-2.9112257957458496,2,5346.0,3.232067823410034,66,9844.0
1930,0.33825480937957764,-3.287837028503418,-144,5346.0,4.305833339691162,177,9844.0
1940,0.33783650398254395,-0.18097496032714844,-146,5346.0,3.5034451484680176,227,9844.0
1950,0.33646878600120544,-1.7272943258285522,-76,5346.0,4.080916404724121,167,9844.0
1960,0.336200088262558,-0.8605122566223145,13,5346.0,0.14524221420288086,-88,9844.0
1970,0.3358370363712311,-0.9317569732666016,64,5346.0,-0.5814406871795654,-211,9844.0
1980,0.33543431758880615,-0.3339039385318756,-5,5346.0,-4.884870529174805,-137,9844.0
1990,0.33269762992858887,2.6834261417388916,29,5346.0,-12.63274097442627,-80,9844.0
2000,0.3322623074054718,2.4892642498016357,-2,5346.0,-10.35794734954834,-109,9844.0
2010,0.33190539479255676,0.3916481137275696,-44,5346.0,-8.570077896118164,-117,9844.0
2020,0.3314690887928009,-0.07155276089906693,-31,5346.0,-11.089903831481934,-322,9844.0
2030,0.33108025789260864,0.6063357591629028,65,5346.0,-9.593229293823242,-162,9844.0
2040,0.3315526247024536,-1.0268175601959229,45,5346.0,-6.288530349731445,-177,9844.0
2050,0.3313542902469635,-2.3613839149475098,80,5346.0,-4.572417259216309,13,9844.0
2060,0.331169068813324,-1.1628174781799316,-72,5346.0,0.37087804079055786,-34,9844.0
2070,0.33101293444633484,-0.10709858685731888,-87,5346.0,-0.5929285287857056,64,9844.0
2080,0.3317871391773224,-0.6644172072410583,-47,5346.0,3.12382173538208,-4,9844.0
2090,0.33188396692276,-2.13558030128479,52,5346.0,5.882586479187012,102,9844.0
2100,0.33196115493774414,-0.9412602186203003,82,5346.0,4.380697727203369,-94,9844.0
2110,0.33199697732925415,-1.2650272846221924,24,5346.0,5.324639797210693,102,9844.0
2120,0.33209043741226196,-0.45079469680786133,-86,5346.0,5.400763511657715,145,9844.0
2130,0.3330821692943573,1.9533820152282715,-19,5346.0,7.309171199798584,240,9844.0
2140,0.3334268629550934,3.038405179977417,105,5346.0,12.114538192749023,-5,9844.0
2150,0.3336849808692932,4.829404830932617,205,5346.0,-0.6144362688064575,-170,9844.0
2160,0.3338964283466339,5.905850410461426,151,5346.0,-0.7381569147109985,-27,9844.0
2170,0.3344782590866089,3.761063814163208,48,5346.0,-0.13470785319805145,16,9844.0
2180,0.3348044753074646,1.6001765727996826,56,5346.0,-0.44035443663597107,3,9844.0
2190,0.3351176679134369,0.5166881084442139,-72,5346.0,-2.748133420944214,109,9844.0
2200,0.3353827893733978,-2.4173367023468018,-71,5346.0,2.0791807174682617,183,9844.0
2210,0.3350623846054077,-4.212758541107178,-53,5346.0,6.094849109649658,146,9844.0
2220,0.33544036746025085,-3.294285774230957,-26,5346.0,2.568622589111328,-76,9844.0
2230,0.3358064591884613,-4.660489559173584,-71,5346.0,5.904306888580322,-43,9844.0
2240,0.3361392319202423,-1.70561945438385,14,5346.0,4.485884666442871,71,9844.0
2250,0.3365410566329956,1.070892333984375,113,5346.0,1.444535493850708,-5,9844.0
2260,0.33678534626960754,2.146606683731079,11,5346.0,3.043276309967041,146,9844.0
2270,0.3372134566307068,2.302396297454834,-23,5346.0,5.2118706703186035,165,9844.0
2280,0.33757156133651733,2.9495222568511963,-39,5346.0,3.6049177646636963,291,9844.0
2290,0.3378851115703583,1.662650227546692,-11,5346.0,6.011751651763916,77,9844.0
2300,0.33652159571647644,2.2410855293273926,-19,5346.0,5.147623538970947,-31,9844.0
2310,0.3366340100765228,1.3175008296966553,48,5346.0,3.4865376949310303,32,9844.0
2320,0.3366599678993225,0.5881983041763306,153,5346.0,-0.010059019550681114,-109,9844.0
2330,0.3367195725440979,0.47171664237976074,77,5346.0,0.4141375422477722,-38,9844.0
2340,0.33673322200775146,-1.0137581825256348,-77,5346.0,-2.843273639678955,-16,9844.0
2350,0.338286817073822,-2.5807671546936035,-4,5346.0,-1.9171065092086792,106,9844.0
2360,0.33818796277046204,-2.259546995162964,-109,5346.0,-4.575488090515137,18,9844.0
2370,0.33803772926330566,-3.188432216644287,-183,5346.0,-4.339189529418945,9,9844.0
2380,0.3377675712108612,-3.5547266006469727,-92,5346.0,-3.272794008255005,-94,9844.0
2390,0.3364761769771576,-2.8231818675994873,42,5346.0,-1.5678372383117676,-136,9844.0
2400,0.3361552655696869,0.09795676916837692,118,5346.0,-2.3140034675598145,-153,9844.0
2410,0.33585473895072937,-0.2889458239078522,16,5346.0,-0.01760898157954216,18,9844.0
2420,0.33547765016555786,1.0300792455673218,40,5346.0,-0.7101146578788757,102,9844.0
2430,0.33588019013404846,0.9182274341583252,6,5346.0,3.729261875152588,126,9844.0
2440,0.3357657194137573,1.0335347652435303,-60,5346.0,-1.7274417877197266,-34,9844.0
2450,0.33569958806037903,0.3579474091529846,-59,5346.0,-0.24839115142822266,-99,9844.0
2460,0.33556458353996277,-1.1802257299423218,6,5346.0,0.4456256926059723,4,9844.0
2470,0.3353113830089569,-1.0127573013305664,99,5346.0,-2.5161948204040527,-156,9844.0
2480,0.3341618776321411,-2.072279214859009,123,5346.0,-1.6768916845321655,-202,9844.0
2490,0.33383914828300476,2.163018226623535,-20,5346.0,-3.448273181915283,-73,9844.0
2500,0.33343949913978577,2.654080867767334,24,5346.0,-7.891562461853027,47,9844.0
2510,0.33308809995651245,0.8132690191268921,-36,5346.0,-5.3744001388549805,-19,9844.0
2520,0.3328619599342346,1.4253617525100708,-56,5346.0,-6.341521739959717,-96,9844.0
2530,0.33250904083251953,1.4027807712554932,-37,5346.0,-4.797791957855225,-187,9844.0
2540,0.33212193846702576,1.195022463798523,64,5346.0,-6.691751956939697,-62,9844.0
2550,0.33180662989616394,0.5520246028900146,126,5346.0,-5.195888042449951,-70,9844.0
2560,0.33156779408454895,-2.219676971435547,62,5346.0,0.7613382935523987,-7,9844.0
2570,0.33073362708091736,-0.04897284507751465,-81,5346.0,-0.6117817163467407,21,9844.0
2580,0.3304794430732727,-1.209162712097168,-100,5346.0,1.6773864030838013,203,9844.0
2590,0.3303013741970062,-1.5309062004089355,-79,5346.0,0.649233341217041,67,9844.0
2600,0.3301314115524292,-0.9652935266494751,-14,5346.0,-1.7324284315109253,-132,9844.0
2610,0.33077144622802734,-2.0889992713928223,-35,5346.0,4.408963203430176,-169,9844.0
2620,0.3306408226490021,-1.8465670347213745,23,5346.0,-0.19139151275157928,73,9844.0
2630,0.330604612827301,-0.7416425347328186,65,5346.0,0.3209986090660095,49,9844.0
2640,0.33066412806510925,-0.8288468718528748,-61,5346.0,0.9945179224014282,136,9844.0
2650,0.3339439034461975,-0.48710617423057556,-106,5346.0,4.532904148101807,50,9844.0
2660,0.33413833379745483,0.157035693526268,-101,5346.0,1.8598158359527588,91,9844.0
2670,0.33437851071357727,0.04763660207390785,26,5346.0,2.827521800994873,37,9844.0
2680,0.33466824889183044,2.9292373657226562,108,5346.0,6.534065246582031,3,9844.0
2690,0.3349399268627167,0.664544403553009,107,5346.0,4.59988260269165,-55,9844.0
2700,0.33438640832901,1.9965548515319824,4,5346.0,6.429892539978027,102,9844.0
2710,0.3345962166786194,2.227130889892578,68,5346.0,4.9493842124938965,289,9844.0
2720,0.33480265736579895,1.6952911615371704,-42,5346.0,3.2527732849121094,76,9844.0
2730,0.3348827064037323,-0.09585385024547577,-115,5346.0,1.554115891456604,63,9844.0
2740,0.33493438363075256,-2.216095209121704,-141,5346.0,4.233489513397217,61,9844.0
2750,0.33503496646881104,-2.468259572982788,28,5346.0,-1.2553240060806274,7,9844.0
2760,0.33521828055381775,-3.7567179203033447,39,5346.0,1.4548280239105225,-252,9844.0
2770,0.33544716238975525,-0.8879760503768921,19,5346.0,0.43452370166778564,-18,9844.0
2780,0.3357359766960144,1.2536700963974,107,5346.0,1.2013201713562012,120,9844.0
2790,0.33577924966812134,0.39259669184684753,41,5346.0,4.589378833770752,111,9844.0
2800,0.33611682057380676,2.3163394927978516,-89,5346.0,2.715364456176758,126,9844.0
2810,0.3363892734050751,0.5289661884307861,-46,5346.0,3.2481112480163574,167,9844.0
2820,0.33664241433143616,1.1432604789733887,-58,5346.0,4.903284072875977,172,9844.0
2830,0.3353119194507599,2.283389091491699,-79,5346.0,4.279227256774902,172,9844.0
2840,0.3353270888328552,0.23521706461906433,-38,5346.0,3.3337032794952393,141,9844.0
2850,0.3352319598197937,0.8028591871261597,27,5346.0,4.769042015075684,4,9844.0
2860,0.33510199189186096,0.13144810497760773,-25,5346.0,3.622267007827759,-118,9844.0
2870,0.33686530590057373,0.10243605822324753,56,5346.0,0.2571505904197693,-10,9844.0
2880,0.336759090423584,-0.8496822714805603,97,5346.0,-0.45696768164634705,-164,9844.0
2890,0.3367021381855011,-2.8361825942993164,16,5346.0,-1.1720223426818848,-58,9844.0
2900,0.3366670608520508,0.002284485148265958,-38,5346.0,-6.436216354370117,-36,9844.0
2910,0.33651793003082275,-1.327542781829834,-42,5346.0,-7.199351787567139,49,9844.0
2920,0.33567920327186584,0.4039295017719269,-81,5346.0,-5.9282026290893555,-115,9844.0
2930,0.33538374304771423,0.13459089398384094,-87,5346.0,-3.868532657623291,-19,9844.0
2940,0.3350321650505066,2.329658269882202,23,5346.0,-3.642585515975952,-28,9844.0
2950,0.3346944749355316,-1.9781533479690552,51,5346.0,3.8923592567443848,-93,9844.0
2960,0.33345267176628113,-0.09252843260765076,67,5346.0,3.0084197521209717,-152,9844.0
2970,0.3331790864467621,-0.4235837459564209,39,5346.0,3.143171787261963,-39,9844.0
2980,0.33295756578445435,-0.21863973140716553,89,5346.0,5.090824604034424,205,9844.0
2990,0.33279380202293396,-1.6926989555358887,64,5346.0,3.092867612838745,45,9844.0
3000,0.33240562677383423,-0.9388959407806396,-106,5346.0,3.7930946350097656,122,9844.0
3010,0.332289457321167,1.7125331163406372,-71,5346.0,-0.34823325276374817,62,9844.0
3020,0.33213651180267334,0.38847479224205017,-23,5346.0,-3.0074892044067383,-18,9844.0
3030,0.3319999873638153,-1.107285737991333,32,5346.0,-3.5799710750579834,-218,9844.0
3040,0.33195337653160095,-2.364192247390747,-12,5346.0,-5.7598042488098145,-233,9844.0
3050,0.33230283856391907,-2.567713975906372,26,5346.0,-4.796887397766113,-94,9844.0
3060,0.33223167061805725,0.2596811056137085,53,5346.0,-8.304001808166504,-151,9844.0
3070,0.3321642577648163,-0.1315537989139557,-16,5346.0,-4.57417106628418,-79,9844.0
3080,0.33211150765419006,2.12351655960083,-67,5346.0,-4.478044509887695,-12,9844.0
3090,0.3320280909538269,0.8239538669586182,-15,5346.0,-1.6837502717971802,148,9844.0
3100,0.3319094777107239,2.5956549644470215,44,5346.0,-1.6664272546768188,-92,9844.0
3110,0.3318347632884979,3.2147276401519775,16,5346.0,0.2993398904800415,8,9844.0
3120,0.33175721764564514,1.0319781303405762,40,5346.0,1.9782545566558838,-78,9844.0
3130,0.3316657841205597,2.721060037612915,217,5346.0,1.042249321937561,-64,9844.0
3140,0.33099672198295593,0.04613551124930382,113,5346.0,-0.5960646271705627,-163,9844.0
3150,0.33109405636787415,-1.299841046333313,-68,5346.0,2.0987327098846436,29,9844.0
3160,0.3312484622001648,-1.9130935668945312,-46,5346.0,0.3054468631744385,147,9844.0
3170,0.33138152956962585,-1.09607994556427,-55,5346.0,-1.1833020448684692,51,9844.0
3180,0.33207085728645325,-2.620718240737915,-112,5346.0,-0.04536087438464165,1,9844.0
3190,0.3320908546447754,-1.569456934928894,-137,5346.0,-1.4038817882537842,91,9844.0
3200,0.3319942355155945,-1.7703050374984741,18,5346.0,0.936809778213501,67,9844.0
3210,0.3318175673484802,-4.370043754577637,24,5346.0,5.429215908050537,-207,9844.0
3220,0.33141133189201355,-1.8801349401474,3,5346.0,5.212983131408691,-66,9844.0
3230,0.3312549889087677,3.337599515914917,109,5346.0,4.725977420806885,22,9844.0
3240,0.33107027411460876,0.16997136175632477,106,5346.0,3.761319398880005,39,9844.0
3250,0.33093562722206116,1.3256841897964478,-23,5346.0,5.393324851989746,85,9844.0
3260,0.3308510482311249,2.102160692214966,-68,5346.0,1.3016589879989624,193,9844.0
3270,0.33156588673591614,-0.19700545072555542,0,5346.0,2.791647434234619,117,9844.0
3280,0.33142930269241333,0.04981214180588722,-93,5346.0,1.2306108474731445,-41,9844.0
3290,0.3313612639904022,0.09951753169298172,-33,5346.0,0.23561805486679077,-11,9844.0
3300,0.3313468098640442,-2.0206127166748047,69,5346.0,-0.7875438928604126,-59,9844.0
3310,0.33238622546195984,-2.196830987930298,100,5346.0,-1.1025559902191162,-217,9844.0
3320,0.33245423436164856,-2.5296688079833984,47,5346.0,1.935010313987732,-159,9844.0
3330,0.3325788676738739,0.50649493932724,30,5346.0,-3.9072225093841553,70,9844.0
3340,0.3325856924057007,-1.4058563709259033,49,5346.0,0.6570834517478943,38,9844.0
3350,0.332528293132782,-1.4688104391098022,-84,5346.0,-0.030940411612391472,63,9844.0
3360,0.3331061601638794,0.7621542811393738,-48,5346.0,3.469266891479492,178,9844.0
3370,0.3330753743648529,1.702075719833374,-40,5346.0,2.877356767654419,213,9844.0
3380,0.3329959213733673,0.9254583120346069,37,5346.0,2.817864418029785,8,9844.0
3390,0.33298709988594055,0.0018131271935999393,-25,5346.0,3.2403650283813477,-96,9844.0
3400,0.3346368670463562,0.5518052577972412,79,5346.0,6.630286693572998,-3,9844.0
3410,0.3346335291862488,0.5876244902610779,129,5346.0,4.552926540374756,-115,9844.0
3420,0.3345709443092346,-1.5997035503387451,10,5346.0,1.547534704208374,54,9844.0
3430,0.3345259726047516,0.5225130319595337,-44,5346.0,1.568855881690979,95,9844.0
3440,0.3343910276889801,-0.9119566679000854,28,5346.0,-0.403566837310791,41,9844.0
3450,0.33313286304473877,-0.5160224437713623,-103,5346.0,-2.49001407623291,0,9844.0
3460,0.33278366923332214,-0.8233757615089417,-73,5346.0,-2.2374491691589355,83,9844.0
3470,0.33245423436164856,2.528268337249756,-22,5346.0,-5.345953941345215,121,9844.0
3480,0.3320840299129486,0.8499563932418823,-89,5346.0,-2.2991583347320557,-229,9844.0
3490,0.3333432972431183,2.0355734825134277,-41,5346.0,-2.275747299194336,91,9844.0
3500,0.33326610922813416,1.477772831916809,58,5346.0,1.3693130016326904,22,9844.0
3510,0.33322811126708984,-0.5220444202423096,-60,5346.0,1.6849628686904907,-110,9844.0
3520,0.3331036865711212,-0.03133903443813324,65,5346.0,3.219587802886963,-28,9844.0
3530,0.3325687050819397,0.10060504078865051,160,5346.0,0.10432211309671402,-89,9844.0
3540,0.33235329389572144,-2.557631254196167,55,5346.0,0.8973239064216614,-30,9844.0
3550,0.3320479989051819,0.07481390982866287,-90,5346.0,4.5876078605651855,64,9844.0
3560,0.33171597123146057,0.42530298233032227,-32,5346.0,0.15240365266799927,181,9844.0
3570,0.33146390318870544,-2.1652486324310303,-53,5346.0,-0.23808154463768005,32,9844.0
3580,0.3326454758644104,-0.5876813530921936,-131,5346.0,-3.467526912689209,-22,9844.0
3590,0.3324521481990814,-2.3534128665924072,-109,5346.0,-0.8263894319534302,53,9844.0
3600,0.3322863280773163,-3.562154769897461,-13,5346.0,-5.527249336242676,-145,9844.0
3610,0.33214473724365234,-2.0033962726593018,48,5346.0,-4.507079601287842,-339,9844.0
3620,0.3318469226360321,0.36583736538887024,30,5346.0,-3.130906105041504,-146,9844.0
3630,0.3315480053424835,1.2311328649520874,229,5346.0,-5.552152633666992,-113,9844.0
3640,0.3313019275665283,2.2553763389587402,37,5346.0,-2.0312342643737793,-42,9844.0
3650,0.33102741837501526,3.007930040359497,-76,5346.0,-3.5944440364837646,112,9844.0
3660,0.33119067549705505,0.8753662109375,-25,5346.0,-1.2181898355484009,120,9844.0
3670,0.3308801054954529,0.6038026809692383,-48,5346.0,0.6705775260925293,67,9844.0
3680,0.3306393623352051,-0.31130626797676086,-35,5346.0,1.1494563817977905,-23,9844.0
3690,0.33044713735580444,-1.256313681602478,-38,5346.0,2.5030734539031982,21,9844.0
3700,0.3303487300872803,-0.14171898365020752,101,5346.0,1.4716453552246094,-55,9844.0
3710,0.3306449353694916,-1.776609182357788,52,5346.0,0.2996103763580322,-241,9844.0
3720,0.3307313621044159,-0.5706042647361755,63,5346.0,2.525674343109131,59,9844.0
3730,0.3307380676269531,1.5822213888168335,120,5346.0,-0.4251919984817505,96,9844.0
3740,0.3307352066040039,-0.08223985135555267,-59,5346.0,-1.9968841075897217,110,9844.0
3750,0.33126893639564514,3.388629913330078,-59,5346.0,-3.6691598892211914,-9,9844.0
3760,0.3312717080116272,2.0015289783477783,-38,5346.0,-2.9456851482391357,63,9844.0
3770,0.33123254776000977,0.29414841532707214,31,5346.0,-4.794214725494385,-92,9844.0
3780,0.3312552571296692,0.654198944568634,-20,5346.0,-3.6663589477539062,-155,9844.0
3790,0.3312866687774658,0.10117003321647644,62,5346.0,-3.3261842727661133,-80,9844.0
3800,0.33155182003974915,1.0024974346160889,82,5346.0,-3.9397966861724854,-211,9844.0
3810,0.33155351877212524,-2.6593127250671387,70,5346.0,-0.7225905060768127,-162,9844.0
3820,0.3315735459327698,0.05773616582155228,3,5346.0,2.6034998893737793,44,9844.0
3830,0.33154672384262085,-3.257281541824341,22,5346.0,-0.9700215458869934,20,9844.0
3840,0.33171889185905457,-2.508571147918701,-123,5346.0,5.029702186584473,114,9844.0
3850,0.33177340030670166,-1.5468918085098267,-129,5346.0,5.113532543182373,198,9844.0
3860,0.33176589012145996,-3.142742395401001,-74,5346.0,8.548453330993652,281,9844.0
3870,0.33170410990715027,2.5980489253997803,-5,5346.0,1.2759735584259033,39,9844.0
3880,0.3318054974079132,0.3346289396286011,-37,5346.0,4.857179641723633,105,9844.0
3890,0.3318953812122345,1.4615074396133423,78,5346.0,3.038435459136963,-24,9844.0
3900,0.3320433795452118,1.9704185724258423,105,5346.0,1.8120300769805908,-119,9844.0
3910,0.3323439657688141,2.6646339893341064,80,5346.0,1.033791184425354,-45,9844.0
3920,0.3327192962169647,1.8912512063980103,82,5346.0,-3.57084321975708,-25,9844.0
3930,0.3331966698169708,-1.067219614982605,64,5346.0,0.49541959166526794,-72,9844.0
3940,0.3334513306617737,1.8242206573486328,-39,5346.0,-5.252788543701172,-39,9844.0
3950,0.33366310596466064,-2.571150541305542,-2,5346.0,-0.028937658295035362,90,9844.0
3960,0.33382776379585266,-0.8999757766723633,-128,5346.0,2.1897947788238525,41,9844.0
3970,0.3331678807735443,0.6160448789596558,-59,5346.0,-2.5295498371124268,36,9844.0
3980,0.33319440484046936,1.198267936706543,-34,5346.0,1.2672061920166016,151,9844.0
3990,0.3332034647464752,3.144033193588257,-40,5346.0,-0.6423436999320984,56,9844.0
4000,0.33313435316085815,1.0632959604263306,-65,5346.0,2.317063331604004,83,9844.0
4010,0.33304959535598755,1.7930995225906372,105,5346.0,2.6788363456726074,-102,9844.0
4020,0.3342801332473755,0.3103587031364441,24,5346.0,2.8056046962738037,-158,9844.0
4030,0.3343367576599121,2.0415685176849365,85,5346.0,-0.9622694253921509,-4,9844.0
4040,0.33412864804267883,2.0127806663513184,110,5346.0,-0.27614185214042664,-45,9844.0
4050,0.3338777422904968,-1.564782738685608,-20,5346.0,-2.270220994949341,-68,9844.0
4060,0.33238062262535095,-2.5180418491363525,-58,5346.0,0.824051558971405,167,9844.0
4070,0.3319760262966156,-2.6080782413482666,-51,5346.0,-1.8040521144866943,113,9844.0
4080,0.33163899183273315,1.3306171894073486,-131,5346.0,-6.878693580627441,25,9844.0
4090,0.3313368856906891,0.004071826580911875,-71,5346.0,-2.7545385360717773,75,9844.0
4100,0.33144068717956543,2.2743027210235596,-46,5346.0,-2.6212849617004395,-36,9844.0
4110,0.3312811851501465,0.44188109040260315,-65,5346.0,-3.4612410068511963,-136,9844.0
4120,0.3310871124267578,1.333722472190857,-24,5346.0,-1.932414174079895,-30,9844.0
4130,0.33080875873565674,0.2982776165008545,-1,5346.0,-3.5318503379821777,-256,9844.0
4140,0.33051183819770813,-3.1681082248687744,-97,5346.0,0.27400481700897217,-80,9844.0
4150,0.32994207739830017,2.56779146194458,99,5346.0,-0.3504433035850525,-20,9844.0
4160,0.32945987582206726,-1.352673053741455,36,5346.0,3.254293203353882,-142,9844.0
4170,0.32894280552864075,-2.028423547744751,-14,5346.0,-1.4800279140472412,-15,9844.0
4180,0.32848235964775085,-0.5656752586364746,152,5346.0,0.37494349479675293,-17,9844.0
4190,0.32862719893455505,-1.5123389959335327,4,5346.0,0.9208086133003235,40,9844.0
4200,0.32824116945266724,0.8428432941436768,-115,5346.0,-0.2319500595331192,117,9844.0
4210,0.32798218727111816,-0.9643770456314087,-64,5346.0,0.7061684727668762,137,9844.0
4220,0.32782942056655884,2.1942241191864014,-5,5346.0,0.35212552547454834,31,9844.0
4230,0.3276452422142029,2.2352209091186523,-21,5346.0,3.882007122039795,-94,9844.0
4240,0.3300454616546631,1.403054118156433,49,5346.0,4.445308685302734,113,9844.0
4250,0.33002224564552307,-0.694503903388977,87,5346.0,5.2005839347839355,-75,9844.0
4260,0.3299686908721924,-2.292764186859131,-4,5346.0,9.334406852722168,-94,9844.0
4270,0.3298985958099365,-1.068630337715149,47,5346.0,3.2734782695770264,53,9844.0
4280,0.3315276801586151,-1.5187665224075317,77,5346.0,3.80796480178833,46,9844.0
4290,0.33170607686042786,-0.18659169971942902,-109,5346.0,-1.1188987493515015,113,9844.0
4300,0.3318678140640259,0.3610132336616516,-93,5346.0,-3.751993417739868,45,9844.0
4310,0.3320436477661133,0.47460612654685974,-34,5346.0,-2.883762836456299,64,9844.0
4320,0.3329525291919708,1.9336695671081543,-36,5346.0,-3.540532350540161,-101,9844.0
4330,0.33314546942710876,0.18750500679016113,-70,5346.0,-0.1378243863582611,78,9844.0
4340,0.33329471945762634,1.257607340812683,73,5346.0,-1.657254934310913,-90,9844.0
4350,0.33344677090644836,-0.47339341044425964,-27,5346.0,3.3241565227508545,-186,9844.0
4360,0.3335011303424835,-0.3396158218383789,95,5346.0,3.8587465286254883,3,9844.0
4370,0.33402320742607117,0.693865954875946,133,5346.0,-1.8317495584487915,-140,9844.0
4380,0.33396461606025696,-0.11131206154823303,12,5346.0,3.21958327293396,-8,9844.0
4390,0.3339079022407532,2.8570659160614014,66,5346.0,-0.03160702437162399,28,9844.0
4400,0.3337255120277405,0.18963199853897095,79,5346.0,5.015376567840576,55,9844.0
4410,0.3321045935153961,0.6475250124931335,-42,5346.0,7.9400458335876465,209,9844.0
4420,0.331985741853714,-0.06691404432058334,-40,5346.0,2.692028522491455,203,9844.0
4430,0.3318827450275421,0.005263050086796284,-96,5346.0,4.0800089836120605,175,9844.0
4440,0.3317711055278778,0.6525844931602478,-38,5346.0,1.1145038604736328,-8,9844.0
4450,0.3318479061126709,-1.2351124286651611,-68,5346.0,3.537158966064453,172,9844.0
4460,0.33186447620391846,0.15735496580600739,-35,5346.0,2.473503351211548,-32,9844.0
4470,0.33185476064682007,-1.602526068687439,-57,5346.0,-0.03516247496008873,-236,9844.0
4480,0.33182525634765625,1.5674632787704468,162,5346.0,-2.0328028202056885,-139,9844.0
4490,0.3317898213863373,0.7905905246734619,103,5346.0,-2.1339921951293945,-250,9844.0
4500,0.33258989453315735,0.8146211504936218,18,5346.0,-4.173187732696533,-40,9844.0
4510,0.33253470063209534,-0.997382402420044,114,5346.0,-5.566450119018555,-141,9844.0
4520,0.3324575424194336,-1.7717188596725464,-8,5346.0,-4.597005844116211,-95,9844.0
4530,0.33230188488960266,-0.7480061054229736,-3,5346.0,-3.687713384628296,70,9844.0
4540,0.33244362473487854,-0.7972552180290222,10,5346.0,-0.13586558401584625,64,9844.0
4550,0.33221420645713806,1.2928863763809204,-79,5346.0,4.87263822555542,102,9844.0
4560,0.3319188058376312,0.8614930510520935,-43,5346.0,-0.41669535636901855,140,9844.0
4570,0.3316679894924164,2.375206232070923,-38,5346.0,1.0648303031921387,99,9844.0
4580,0.33149993419647217,2.9018123149871826,-36,5346.0,-1.611501693725586,5,9844.0
4590,0.33115285634994507,-0.9950599074363708,-94,5346.0,0.1494644433259964,-47,9844.0
4600,0.33097007870674133,0.7667235732078552,75,5346.0,-1.9916471242904663,-146,9844.0
4610,0.33080539107322693,-2.6327292919158936,-13,5346.0,-2.940905809402466,-249,9844.0
4620,0.3305560052394867,-2.9225242137908936,6,5346.0,-6.65872049331665,-50,9844.0
4630,0.3304134011268616,-2.9338667392730713,79,5346.0,-2.5676870346069336,-153,9844.0
4640,0.33018702268600464,-3.8666799068450928,-38,5346.0,-0.4613477885723114,-92,9844.0
4650,0.3300586938858032,-1.1012688875198364,-16,5346.0,1.6601059436798096,142,9844.0
4660,0.32990705966949463,-3.023730754852295,38,5346.0,2.1300487518310547,-5,9844.0
4670,0.32949790358543396,0.9760408401489258,-103,5346.0,-0.5786600112915039,72,9844.0
4680,0.3295259475708008,-0.1571989506483078,-22,5346.0,0.8469455242156982,158,9844.0
4690,0.3295389711856842,2.837233543395996,-52,5346.0,2.701251745223999,154,9844.0
4700,0.32951557636260986,5.195847988128662,-45,5346.0,-1.1065477132797241,41,9844.0
4710,0.3295912742614746,2.5406298637390137,-74,5346.0,-0.5130819082260132,59,9844.0
4720,0.330566942691803,3.286738634109497,115,5346.0,-4.3797287940979,-118,9844.0
4730,0.3305666744709015,1.012902021408081,-30,5346.0,-1.5981181859970093,-150,9844.0
4740,0.3306073844432831,-0.8992589712142944,70,5346.0,-1.1256859302520752,-31,9844.0
4750,0.33060815930366516,-2.221966505050659,96,5346.0,0.7715106010437012,-145,9844.0
4760,0.3310772776603699,0.5970799326896667,17,5346.0,-3.131270170211792,-56,9844.0
4770,0.3308942914009094,-0.631415605545044,136,5346.0,-3.769507646560669,-238,9844.0
4780,0.3305778205394745,-2.309605121612549,29,5346.0,-1.2698640823364258,-211,9844.0
4790,0.3301648199558258,-0.6812220215797424,27,5346.0,-1.4263935089111328,-55,9844.0
4800,0.32972991466522217,-4.346335411071777,-7,5346.0,1.3735885620117188,-5,9844.0
4810,0.32982704043388367,-0.5157443284988403,-69,5346.0,-1.2761619091033936,35,9844.0
4820,0.3294461965560913,-0.7319761514663696,25,5346.0,-1.7624796628952026,38,9844.0
4830,0.32915669679641724,0.6034566164016724,-42,5346.0,0.7960930466651917,81,9844.0
4840,0.32891327142715454,3.3374619483947754,-59,5346.0,0.4020450711250305,181,9844.0
4850,0.3282293677330017,0.3761715292930603,-58,5346.0,2.1801717281341553,258,9844.0
4860,0.32788532972335815,4.099431991577148,-4,5346.0,2.5581765174865723,39,9844.0
4870,0.3275756239891052,1.3923839330673218,-43,5346.0,3.6342155933380127,113,9844.0
4880,0.3272000849246979,1.6874974966049194,81,5346.0,1.5457961559295654,0,9844.0
4890,0.3280714750289917,0.7975048422813416,70,5346.0,3.8057944774627686,-65,9844.0
4900,0.32783812284469604,-1.0719965696334839,15,5346.0,4.437451362609863,-7,9844.0
4910,0.3276700973510742,0.4651739001274109,76,5346.0,2.567598819732666,-88,9844.0
4920,0.32755523920059204,-1.1595330238342285,79,5346.0,0.6297785043716431,-142,9844.0
4930,0.3275547921657562,0.6670324802398682,35,5346.0,-2.640885829925537,-23,9844.0
4940,0.3285568654537201,-0.2266533374786377,71,5346.0,-3.8729922771453857,99,9844.0
4950,0.32857710123062134,2.6167352199554443,-47,5346.0,-2.253535270690918,4,9844.0
4960,0.3286293148994446,5.207102298736572,5,5346.0,-1.995453953742981,100,9844.0
4970,0.3287176787853241,4.770354270935059,63,5346.0,2.326594591140747,253,9844.0
4980,0.32964056730270386,8.14006233215332,58,5346.0,-2.0850234031677246,-66,9844.0
4990,0.32959169149398804,3.225196599960327,4,5346.0,1.3911678791046143,94,9844.0
5000,0.32950839400291443,-1.2336630821228027,3,5346.0,2.5791525840759277,16,9844.0
5010,0.3293542265892029,-3.722094774246216,-35,5346.0,0.7923789620399475,-129,9844.0
5020,0.3291721045970917,-5.549725532531738,-135,5346.0,1.189893364906311,-49,9844.0
5030,0.32971611618995667,-4.853874683380127,-13,5346.0,-1.546599268913269,-144,9844.0
5040,0.32948634028434753,-4.684218883514404,37,5346.0,1.0475856065750122,-220,9844.0
5050,0.3292866349220276,-3.363877058029175,12,5346.0,1.7466140985488892,-42,9844.0
5060,0.32914236187934875,1.122482419013977,121,5346.0,0.3222557306289673,69,9844.0
5070,0.33052754402160645,-2.2277755737304688,124,5346.0,4.856778144836426,-188,9844.0
5080,0.33050575852394104,5.459957122802734,53,5346.0,-0.15933050215244293,-44,9844.0
5090,0.33055824041366577,2.8295257091522217,183,5346.0,-1.9608657360076904,18,9844.0
5100,0.33058202266693115,2.0101513862609863,52,5346.0,4.410966873168945,38,9844.0
5110,0.331951767206192,2.6530580520629883,-49,5346.0,1.2182978391647339,177,9844.0
5120,0.332019567489624,0.1174304187297821,84,5346.0,3.911846876144409,81,9844.0
5130,0.33206677436828613,-0.9308162927627563,-69,5346.0,6.8385844230651855,97,9844.0
5140,0.33209097385406494,-3.2491395473480225,-123,5346.0,6.408942222595215,298,9844.0
5150,0.3320739269256592,-4.432014465332031,-110,5346.0,5.651131629943848,198,9844.0
5160,0.33078768849372864,-1.8263304233551025,-141,5346.0,2.016448736190796,41,9844.0
5170,0.3307022154331207,-2.4409737586975098,-62,5346.0,-1.3690110445022583,168,9844.0
5180,0.3304808735847473,1.2094342708587646,-49,5346.0,-5.646239280700684,-76,9844.0
5190,0.33014345169067383,-0.4563993215560913,-63,5346.0,-8.768176078796387,-84,9844.0
5200,0.33209216594696045,-1.8250296115875244,-41,5346.0,-8.665837287902832,-190,9844.0
5210,0.33175772428512573,0.9780705571174622,71,5346.0,-11.46517276763916,-316,9844.0
5220,0.3313113749027252,-1.6126068830490112,-62,5346.0,-5.628849983215332,-221,9844.0
5230,0.33082693815231323,-0.702517032623291,69,5346.0,-6.220231533050537,-149,9844.0
5240,0.3301696479320526,-1.509541392326355,70,5346.0,-2.0190787315368652,-238,9844.0
5250,0.3296312093734741,-0.6577612161636353,22,5346.0,-0.7032451033592224,-131,9844.0
5260,0.3290877342224121,0.6167181134223938,121,5346.0,0.7454140186309814,-5,9844.0
5270,0.32870054244995117,-1.7576205730438232,76,5346.0,8.378721237182617,-95,9844.0
5280,0.32824045419692993,3.9226956367492676,3,5346.0,7.874845027923584,102,9844.0
5290,0.32775813341140747,4.334134101867676,169,5346.0,1.5728349685668945,137,9844.0
5300,0.32739976048469543,3.3064682483673096,5,5346.0,-0.831925630569458,49,9844.0
5310,0.32699674367904663,4.116726398468018,-37,5346.0,-5.59787130355835,104,9844.0
5320,0.3265785872936249,-1.0318900346755981,-67,5346.0,-6.2260589599609375,47,9844.0
5330,0.328289270401001,2.3557732105255127,-54,5346.0,-8.518922805786133,-124,9844.0
5340,0.32783281803131104,-1.5804667472839355,-50,5346.0,-9.475040435791016,-134,9844.0
5350,0.3274034559726715,-0.29041197896003723,16,5346.0,-6.346837043762207,-63,9844.0
5360,0.32724931836128235,1.5662564039230347,80,5346.0,-8.71304702758789,-214,9844.0
5370,0.32679879665374756,2.4903757572174072,-19,5346.0,-3.271054267883301,-240,9844.0
5380,0.3268042504787445,3.8759241104125977,171,5346.0,-5.972968578338623,-66,9844.0
5390,0.32631102204322815,0.6016181111335754,139,5346.0,2.9459245204925537,-143,9844.0
5400,0.3257448971271515,-0.5567801594734192,-11,5346.0,4.949586391448975,-75,9844.0
5410,0.32520103454589844,2.646156072616577,10,5346.0,3.473694086074829,121,9844.0
5420,0.3254151940345764,-1.143410086631775,94,5346.0,4.738200664520264,30,9844.0
5430,0.3250139057636261,0.8955678939819336,-18,5346.0,0.7735461592674255,65,9844.0
5440,0.3247793912887573,1.831836223602295,-57,5346.0,3.89935302734375,115,9844.0
5450,0.32461562752723694,-0.9144918918609619,-48,5346.0,1.5853424072265625,60,9844.0
5460,0.324484258890152,-1.2125107049942017,-78,5346.0,0.5508673787117004,37,9844.0
5470,0.3270960748195648,-1.7081458568572998,-13,5346.0,3.1451480388641357,225,9844.0
5480,0.327213317155838,-4.303469181060791,-124,5346.0,5.831898212432861,258,9844.0
5490,0.32729655504226685,-0.5233758091926575,-122,5346.0,3.8210511207580566,147,9844.0
5500,0.3272693157196045,-1.3312917947769165,-98,5346.0,4.89192533493042,226,9844.0
5510,0.32918816804885864,0.08776330947875977,9,5346.0,5.637105941772461,75,9844.0
5520,0.3293849527835846,1.3286291360855103,-22,5346.0,4.897459506988525,69,9844.0
5530,0.32953017950057983,-0.012210671789944172,17,5346.0,7.469563961029053,150,9844.0
5540,0.32967138290405273,-0.15861549973487854,68,5346.0,6.340002536773682,-86,9844.0
5550,0.3303784430027008,-2.886103391647339,14,5346.0,8.655797004699707,-29,9844.0
5560,0.33065375685691833,0.3798031210899353,96,5346.0,5.737071990966797,28,9844.0
5570,0.3307335078716278,-1.154984474182129,88,5346.0,6.3384575843811035,-102,9844.0
5580,0.33067587018013,1.4933569431304932,50,5346.0,4.068346977233887,-65,9844.0
5590,0.33049070835113525,2.5694997310638428,137,5346.0,-0.038649700582027435,-62,9844.0
5600,0.3309050500392914,-0.45063987374305725,131,5346.0,3.156140089035034,-85,9844.0
5610,0.3306836783885956,1.9322535991668701,-32,5346.0,1.6994272470474243,7,9844.0
5620,0.3303028345108032,2.4905683994293213,105,5346.0,-1.7815192937850952,-48,9844.0
5630,0.3299022316932678,5.420650959014893,64,5346.0,-5.584432125091553,-85,9844.0
5640,0.3306231200695038,9.19362735748291,84,5346.0,-10.526400566101074,-63,9844.0
5650,0.3299628496170044,7.477630138397217,156,5346.0,-10.167051315307617,-65,9844.0
5660,0.3291442096233368,10.556889533996582,61,5346.0,-18.084888458251953,-191,9844.0
5670,0.3281611204147339,6.043267250061035,68,5346.0,-9.80219841003418,-52,9844.0
5680,0.3281559348106384,-1.0719294548034668,-19,5346.0,-6.511009216308594,31,9844.0
5690,0.32687118649482727,-2.9028830528259277,-122,5346.0,-2.7626070976257324,86,9844.0
5700,0.3255411386489868,-4.576725959777832,-128,5346.0,0.5487467646598816,14,9844.0
5710,0.3239773213863373,-6.1561713218688965,-70,5346.0,3.4557905197143555,154,9844.0
5720,0.3221685588359833,-6.746606826782227,-94,5346.0,7.626956462860107,373,9844.0
5730,0.3232223093509674,-4.897408485412598,-187,5346.0,12.755688667297363,347,9844.0
5740,0.3201502561569214,-5.286069393157959,-204,5346.0,14.000479698181152,365,9844.0
5750,0.3200313448905945,-2.9247145652770996,-99,5346.0,14.319387435913086,278,9844.0
5760,0.3164423108100891,-2.580146074295044,-111,5346.0,18.47357749938965,461,9844.0
5770,0.3174203038215637,0.3213769793510437,17,5346.0,20.270612716674805,358,9844.0
5780,0.3159394860267639,3.660693645477295,153,5346.0,15.372201919555664,231,9844.0
5790,0.3143152892589569,5.116466045379639,152,5346.0,18.504253387451172,67,9844.0
5800,0.31251001358032227,6.051948547363281,184,5346.0,11.427130699157715,191,9844.0
5810,0.3108479380607605,10.82178783416748,202,5346.0,12.943890571594238,263,9844.0
5820,0.31098654866218567,9.367890357971191,162,5346.0,12.054970741271973,313,9844.0
5830,0.30935823917388916,-0.4769066870212555,9,5346.0,9.20592212677002,297,9844.0
5840,0.3069280683994293,-4.639712333679199,-169,5346.0,12.430426597595215,326,9844.0
5850,0.3052483797073364,-11.662822723388672,-382,5346.0,12.776890754699707,378,9844.0
5860,0.30368825793266296,-15.267800331115723,-308,5346.0,21.89561653137207,384,9844.0
5870,0.29941999912261963,-9.318525314331055,-242,5346.0,22.082521438598633,477,9844.0
5880,0.2985997796058655,-10.37417984008789,-225,5346.0,19.14963722229004,365,9844.0
5890,0.29425790905952454,-20.078304290771484,-408,5346.0,32.961822509765625,602,9844.0
5900,0.2950977385044098,-23.827754974365234,-410,5346.0,31.307720184326172,644,9844.0
5910,0.29086628556251526,-27.472938537597656,-313,5346.0,29.7099666595459,416,9844.0
5920,0.2882845401763916,-29.24258804321289,-401,5346.0,31.554872512817383,366,9844.0
5930,0.2823978364467621,-30.511577606201172,-454,5346.0,25.604106903076172,227,9844.0
5940,0.2821948528289795,-43.1070556640625,-667,5346.0,23.230772018432617,95,9844.0
5950,0.2836471498012543,-42.357452392578125,-633,5346.0,14.096139907836914,171,9844.0
5960,0.278626412153244,-36.703941345214844,-510,5346.0,14.213902473449707,80,9844.0
5970,0.2753966748714447,-36.54813766479492,-336,5346.0,10.347973823547363,2,9844.0
5980,0.2737526297569275,-31.644203186035156,-326,5346.0,17.63578987121582,233,9844.0
5990,0.27405568957328796,-20.265729904174805,-132,5346.0,19.783315658569336,367,9844.0
6000,0.2704086899757385,8.351238250732422,413,5346.0,34.172264099121094,593,9844.0
6010,0.2693650722503662,21.285619735717773,370,5346.0,50.13489532470703,706,9844.0
6020,0.2707062363624573,0.7795692682266235,17,5346.0,55.39525604248047,763,9844.0
6030,0.2717352509498596,-28.977991104125977,-650,5346.0,53.227638244628906,850,9844.0
6040,0.2720414102077484,-51.74761962890625,-1016,5346.0,41.121063232421875,694,9844.0
6050,0.2705879509449005,-61.88267517089844,-1020,5346.0,22.704999923706055,143,9844.0
6060,0.2677612602710724,-63.1869010925293,-994,5346.0,3.8487701416015625,-84,9844.0
6070,0.2640937566757202,-53.004066467285156,-716,5346.0,-18.320960998535156,-508,9844.0
6080,0.2688608169555664,-34.104881286621094,-429,5346.0,-40.67532730102539,-587,9844.0
6090,0.2657405734062195,-9.612521171569824,87,5346.0,-41.68896484375,-653,9844.0
6100,0.2627682089805603,13.037449836730957,379,5346.0,-38.65235900878906,-554,9844.0
6110,0.26165100932121277,41.165382385253906,739,5346.0,-29.352527618408203,-455,9844.0
6120,0.26365968585014343,61.15239715576172,1166,5346.0,-12.548030853271484,-105,9844.0
6130,0.2646481990814209,78.06378936767578,1322,5346.0,7.227847576141357,283,9844.0
6140,0.2642890214920044,88.4430160522461,1426,5346.0,25.672277450561523,354,9844.0
6150,0.2645018696784973,88.47627258300781,1477,5346.0,38.125370025634766,740,9844.0
6160,0.261794775724411,85.00676727294922,1269,5346.0,47.3617057800293,893,9844.0
6170,0.2654305696487427,72.07373809814453,1084,5346.0,43.94721603393555,791,9844.0
6180,0.26551833748817444,57.56987380981445,867,5346.0,42.19423294067383,503,9844.0
6190,0.26501134037971497,45.60367965698242,748,5346.0,35.67593002319336,424,9844.0
6200,0.26483333110809326,33.60633087158203,539,5346.0,20.633195877075195,375,9844.0
6210,0.26203620433807373,28.937536239624023,364,5346.0,12.167076110839844,229,9844.0
6220,0.2618218660354614,24.395124435424805,345,5346.0,-0.8959221839904785,99,9844.0
6230,0.2610897421836853,22.78032112121582,390,5346.0,-6.94101095199585,-28,9844.0
6240,0.2610006630420685,19.774648666381836,294,5346.0,-12.750895500183105,-306,9844.0
6250,0.25933802127838135,18.65638542175293,239,5346.0,-26.44110870361328,-567,9844.0
6260,0.2561852037906647,4.799396514892578,74,5346.0,-27.898923873901367,-483,9844.0
6270,0.25386422872543335,-4.866342544555664,-85,5346.0,-12.389514923095703,-178,9844.0
6280,0.25352758169174194,-5.833414554595947,78,5346.0,-13.910560607910156,-260,9844.0
6290,0.24976637959480286,-0.7724766135215759,186,5346.0,-5.007535457611084,-224,9844.0
6300,0.24612724781036377,15.186555862426758,288,5346.0,-1.1707861423492432,-40,9844.0
6310,0.24554260075092316,28.277982711791992,549,5346.0,13.187448501586914,288,9844.0
6320,0.24606743454933167,38.674072265625,705,5346.0,20.91938018798828,474,9844.0
6330,0.24163958430290222,40.73374938964844,739,5346.0,29.0430908203125,507,9844.0
6340,0.23871903121471405,37.77376937866211,454,5346.0,30.651216506958008,598,9844.0
6350,0.238335520029068,28.146068572998047,217,5346.0,30.187583923339844,625,9844.0
6360,0.23745520412921906,11.68644905090332,42,5346.0,31.72658348083496,527,9844.0
6370,0.23433078825473785,-0.12730172276496887,-111,5346.0,32.06758499145508,613,9844.0
6380,0.23362506926059723,-4.825531005859375,-48,5346.0,27.039472579956055,379,9844.0
6390,0.23368604481220245,-4.832203388214111,-45,5346.0,23.891448974609375,200,9844.0
6400,0.23228010535240173,-5.882462024688721,-1,5346.0,21.648868560791016,237,9844.0
6410,0.23033055663108826,-3.8134660720825195,-41,5346.0,11.218339920043945,280,9844.0
6420,0.2291196882724762,-6.855560302734375,18,5346.0,7.024892807006836,130,9844.0
6430,0.22907252609729767,-3.654754638671875,-105,5346.0,-0.8732708096504211,34,9844.0
6440,0.22788648307323456,-0.2598473131656647,-167,5346.0,-1.5662447214126587,69,9844.0
6450,0.22603684663772583,3.318596601486206,-22,5346.0,-4.098048686981201,42,9844.0
6460,0.22488950192928314,-0.5144076347351074,-29,5346.0,-5.252042770385742,2,9844.0
6470,0.22567877173423767,-6.430203437805176,-137,5346.0,-3.8910114765167236,-140,9844.0
6480,0.2246999740600586,-16.471242904663086,-262,5346.0,-2.8875513076782227,-64,9844.0
6490,0.222218856215477,-24.601667404174805,-503,5346.0,2.528679132461548,27,9844.0
6500,0.22179321944713593,-32.430118560791016,-552,5346.0,0.6725196242332458,-29,9844.0
6510,0.22029981017112732,-37.11520767211914,-596,5346.0,8.893294334411621,96,9844.0
6520,0.22192947566509247,-36.17549514770508,-451,5346.0,6.016176700592041,187,9844.0
6530,0.21985924243927002,-33.093421936035156,-432,5346.0,15.446813583374023,223,9844.0
6540,0.2194426953792572,-24.390377044677734,-263,5346.0,18.13762092590332,148,9844.0
6550,0.21937178075313568,-19.81536293029785,-217,5346.0,19.01094627380371,155,9844.0
6560,0.2214660942554474,-10.179791450500488,-152,5346.0,18.904132843017578,257,9844.0
6570,0.22126750648021698,-12.218454360961914,-160,5346.0,6.99270486831665,130,9844.0
6580,0.2206248641014099,-20.095216751098633,-179,5346.0,3.3561129570007324,-5,9844.0
6590,0.22037866711616516,-23.18004035949707,-368,5346.0,-1.4485571384429932,-35,9844.0
6600,0.21943651139736176,-25.13934898376465,-443,5346.0,-2.8617897033691406,-181,9844.0
6610,0.21914704144001007,-20.93960189819336,-387,5346.0,-14.458316802978516,-243,9844.0
6620,0.21789191663265228,-20.50358772277832,-387,5346.0,-14.284353256225586,-201,9844.0
6630,0.21713660657405853,-20.143720626831055,-306,5346.0,-14.645946502685547,-270,9844.0
6640,0.21605676412582397,-20.296340942382812,-200,5346.0,-14.753480911254883,-361,9844.0
6650,0.21886037290096283,-22.42919921875,-302,5346.0,-9.08665943145752,-155,9844.0
6660,0.21765196323394775,-20.714664459228516,-286,5346.0,-2.8665595054626465,-227,9844.0
6670,0.21698184311389923,-19.078266143798828,-251,5346.0,-0.5741870999336243,-189,9844.0
6680,0.21745111048221588,-15.350064277648926,-216,5346.0,0.4512638449668884,-143,9844.0
6690,0.214557945728302,-14.127507209777832,-179,5346.0,2.3236327171325684,-102,9844.0
6700,0.21311980485916138,-11.45734691619873,-153,5346.0,5.155462265014648,-22,9844.0
6710,0.21249833703041077,-10.217440605163574,-129,5346.0,6.133451461791992,-29,9844.0
6720,0.2119027078151703,-10.985506057739258,-182,5346.0,5.710195541381836,-2,9844.0
6730,0.21105308830738068,-12.022971153259277,-215,5346.0,2.456024169921875,-51,9844.0
6740,0.21215377748012543,-12.473245620727539,-132,5346.0,-6.427548408508301,-158,9844.0
6750,0.2119787633419037,-11.355091094970703,-121,5346.0,-0.144919753074646,-126,9844.0
6760,0.2111043930053711,-10.166781425476074,-142,5346.0,0.8149977922439575,-124,9844.0
6770,0.21085426211357117,-8.685998916625977,-12,5346.0,-0.23882223665714264,5,9844.0
6780,0.21132515370845795,-3.920562744140625,-42,5346.0,0.8096054196357727,19,9844.0
6790,0.2107664942741394,-2.487818956375122,35,5346.0,5.83903694152832,13,9844.0
6800,0.21033620834350586,-2.6668670177459717,20,5346.0,2.665923595428467,-25,9844.0
6810,0.20945784449577332,0.3752439022064209,41,5346.0,-1.8134328126907349,-151,9844.0
6820,0.20942412316799164,1.925026297569275,122,5346.0,-1.2951209545135498,-219,9844.0
6830,0.2090747058391571,1.9084787368774414,94,5346.0,-6.658692359924316,-300,9844.0
6840,0.20830413699150085,0.9144375920295715,75,5346.0,-0.574329674243927,-280,9844.0
6850,0.20756153762340546,1.0278955698013306,91,5346.0,-6.84572696685791,-149,9844.0
6860,0.20618388056755066,-0.6450252532958984,41,5346.0,-4.443976879119873,-182,9844.0
6870,0.20598916709423065,-3.2075936794281006,-5,5346.0,-0.9529529809951782,-74,9844.0
6880,0.20496536791324615,-4.5291008949279785,-3,5346.0,1.316239833831787,-50,9844.0
6890,0.20455272495746613,-0.9171854257583618,46,5346.0,5.889911651611328,19,9844.0
6900,0.2036074846982956,2.304576873779297,117,5346.0,3.07195782661438,28,9844.0
6910,0.20271188020706177,3.5317270755767822,91,5346.0,9.331443786621094,36,9844.0
6920,0.20190466940402985,2.567356824874878,207,5346.0,9.09445571899414,-2,9844.0
6930,0.20095057785511017,6.258907318115234,212,5346.0,1.3342963457107544,-140,9844.0
6940,0.2000105082988739,7.342408180236816,190,5346.0,7.209899425506592,-119,9844.0
6950,0.19909875094890594,11.89069938659668,276,5346.0,-0.8906100392341614,-208,9844.0
6960,0.1984027773141861,15.64206600189209,317,5346.0,-7.256694793701172,-212,9844.0
6970,0.1976192593574524,17.032785415649414,390,5346.0,-8.258411407470703,-336,9844.0
6980,0.1963578462600708,15.205891609191895,334,5346.0,-11.962236404418945,-319,9844.0
6990,0.19512426853179932,14.005782127380371,261,5346.0,-10.710184097290039,-352,9844.0
7000,0.19563956558704376,11.129861831665039,218,5346.0,-8.921939849853516,-259,9844.0
7010,0.19511334598064423,6.185225963592529,159,5346.0,-5.718444347381592,-88,9844.0
7020,0.19446201622486115,3.220738649368286,67,5346.0,5.936514854431152,11,9844.0
7030,0.1938391923904419,2.0178606510162354,27,5346.0,8.606597900390625,126,9844.0
7040,0.19599799811840057,0.6165652871131897,66,5346.0,11.699801445007324,72,9844.0
7050,0.19527506828308105,2.6089601516723633,68,5346.0,11.616677284240723,85,9844.0
7060,0.1955830603837967,2.0412700176239014,63,5346.0,13.285600662231445,166,9844.0
7070,0.19507496058940887,0.33061298727989197,53,5346.0,3.7377848625183105,-21,9844.0
7080,0.19464907050132751,1.5799206495285034,84,5346.0,-2.0686163902282715,-61,9844.0
7090,0.1972077339887619,1.4233872890472412,62,5346.0,-1.9829174280166626,-80,9844.0
7100,0.19698907434940338,-3.523751974105835,17,5346.0,-0.6578724980354309,61,9844.0
7110,0.19697082042694092,-1.634106159210205,27,5346.0,-2.625511646270752,-81,9844.0
7120,0.1966816782951355,-0.9668622016906738,-11,5346.0,-5.724955081939697,-178,9844.0
7130,0.20021812617778778,-0.5878795981407166,75,5346.0,-4.675315856933594,-80,9844.0
7140,0.20031265914440155,2.219660520553589,104,5346.0,-2.0255746841430664,-36,9844.0
7150,0.20024961233139038,2.8409712314605713,98,5346.0,2.703158378601074,111,9844.0
7160,0.20069780945777893,6.160804271697998,153,5346.0,1.1424280405044556,58,9844.0
7170,0.20098866522312164,8.903075218200684,183,5346.0,7.919010639190674,195,9844.0
7180,0.2011207938194275,10.801825523376465,170,5346.0,6.208508491516113,204,9844.0
7190,0.20128673315048218,13.638666152954102,247,5346.0,-0.8020361065864563,82,9844.0
7200,0.201496422290802,14.876221656799316,196,5346.0,-6.322899341583252,41,9844.0
7210,0.20195196568965912,10.962830543518066,120,5346.0,-9.377108573913574,-42,9844.0
7220,0.2064826637506485,8.962432861328125,55,5346.0,-14.548622131347656,-196,9844.0
7230,0.2069617211818695,0.46931663155555725,-45,5346.0,-13.17381477355957,-187,9844.0
7240,0.20732931792736053,-6.507066249847412,-196,5346.0,-12.44735050201416,-123,9844.0
7250,0.20773844420909882,-9.467913627624512,-212,5346.0,-9.859115600585938,-145,9844.0
7260,0.20775318145751953,-9.488106727600098,-149,5346.0,-9.503376007080078,-82,9844.0
7270,0.20814572274684906,-7.777838230133057,-157,5346.0,-7.586158752441406,-173,9844.0
7280,0.2087090015411377,-3.978445291519165,-62,5346.0,-2.745183229446411,-177,9844.0
7290,0.20913729071617126,-3.0713000297546387,-60,5346.0,2.7490553855895996,-62,9844.0
7300,0.20959089696407318,-3.859508514404297,4,5346.0,4.277515411376953,3,9844.0
7310,0.21359089016914368,0.004306301008909941,42,5346.0,9.600374221801758,148,9844.0
7320,0.21426135301589966,-0.00845011044293642,11,5346.0,10.250265121459961,88,9844.0
7330,0.21468837559223175,-0.6453083157539368,35,5346.0,7.267631530761719,127,9844.0
7340,0.21513500809669495,-1.2474936246871948,-5,5346.0,7.755130767822266,178,9844.0
7350,0.2144296020269394,-2.3866524696350098,-17,5346.0,5.562540531158447,116,9844.0
7360,0.21458852291107178,-2.6848273277282715,-21,5346.0,1.920721411705017,157,9844.0
7370,0.21488086879253387,-1.3752837181091309,-60,5346.0,0.11750797927379608,145,9844.0
7380,0.21510037779808044,0.18845224380493164,25,5346.0,-6.780774116516113,77,9844.0
7390,0.21547192335128784,1.7560606002807617,32,5346.0,-5.127668857574463,-13,9844.0
7400,0.2166585773229599,6.1398024559021,109,5346.0,-6.97147798538208,-50,9844.0
7410,0.2170308232307434,8.124658584594727,122,5346.0,-11.1632080078125,-126,9844.0
7420,0.21740449965000153,9.007206916809082,235,5346.0,-10.361734390258789,-239,9844.0
7430,0.2177414745092392,10.793712615966797,216,5346.0,-8.416098594665527,-164,9844.0
7440,0.21921207010746002,9.055166244506836,124,5346.0,-12.401314735412598,-175,9844.0
7450,0.21954594552516937,7.9500579833984375,131,5346.0,-6.074058532714844,-91,9844.0
7460,0.21987351775169373,7.088012218475342,85,5346.0,-3.7465600967407227,58,9844.0
7470,0.2201787829399109,6.465388774871826,82,5346.0,1.7554669380187988,92,9844.0
7480,0.21950556337833405,3.705338954925537,42,5346.0,2.688014507293701,142,9844.0
7490,0.21963372826576233,-0.7694536447525024,-29,5346.0,4.821521282196045,55,9844.0
7500,0.21975071728229523,-3.1075944900512695,-50,5346.0,5.854038238525391,36,9844.0
7510,0.2198779582977295,-5.1000542640686035,-94,5346.0,5.650256156921387,19,9844.0
7520,0.2199556976556778,-4.037415981292725,-17,5346.0,2.675863742828369,-88,9844.0
7530,0.21916626393795013,-4.1179518699646,-14,5346.0,2.9462924003601074,-130,9844.0
7540,0.21909712255001068,-2.8735191822052,10,5346.0,3.308352470397949,-35,9844.0
7550,0.2191191166639328,-0.058900296688079834,60,5346.0,3.038297653198242,8,9844.0
7560,0.21904698014259338,1.3100868463516235,70,5346.0,4.0541181564331055,21,9844.0
7570,0.22005662322044373,1.9654977321624756,55,5346.0,5.531488418579102,52,9844.0
7580,0.22002317011356354,1.350844383239746,-4,5346.0,4.946053981781006,120,9844.0
7590,0.219912588596344,1.479040503501892,-7,5346.0,0.882793664932251,70,9844.0
7600,0.2197612076997757,-1.3443025350570679,-21,5346.0,5.355318546295166,110,9844.0
7610,0.21895550191402435,0.10337503999471664,24,5346.0,0.9420375227928162,165,9844.0
7620,0.2186928242444992,0.38989022374153137,-2,5346.0,3.0540103912353516,126,9844.0
7630,0.21841973066329956,-0.298195481300354,20,5346.0,3.9991977214813232,102,9844.0
7640,0.21824485063552856,0.40030255913734436,23,5346.0,1.9524766206741333,111,9844.0
7650,0.21796618402004242,-1.564097285270691,-19,5346.0,-0.3673097789287567,-43,9844.0
7660,0.2204057276248932,0.7451047897338867,-10,5346.0,-2.5502986907958984,-11,9844.0
7670,0.22030094265937805,0.8868531584739685,22,5346.0,-4.651083946228027,2,9844.0
7680,0.22017990052700043,0.9310315251350403,27,5346.0,-2.5657546520233154,-54,9844.0
7690,0.22008153796195984,0.8854478597640991,48,5346.0,-1.5403350591659546,-7,9844.0
7700,0.22075892984867096,0.18153221905231476,27,5346.0,-2.498859167098999,-12,9844.0
7710,0.22069165110588074,2.3359007835388184,37,5346.0,-2.9055838584899902,-95,9844.0
7720,0.22075846791267395,2.5903310775756836,52,5346.0,-3.2695369720458984,-62,9844.0
7730,0.220845028758049,2.1922411918640137,30,5346.0,1.2355690002441406,110,9844.0
7740,0.2205560952425003,2.292600393295288,24,5346.0,3.1158576011657715,51,9844.0
7750,0.2205520123243332,0.9351895451545715,58,5346.0,6.352659702301025,209,9844.0
7760,0.22052736580371857,-1.382074236869812,-58,5346.0,5.857462406158447,166,9844.0
7770,0.22057956457138062,-1.1697759628295898,-40,5346.0,6.952009201049805,78,9844.0
7780,0.22064033150672913,-0.48624899983406067,-9,5346.0,6.296752452850342,75,9844.0
7790,0.22200757265090942,-0.7364166378974915,57,5346.0,4.397817611694336,37,9844.0
7800,0.22211460769176483,2.019982099533081,54,5346.0,-0.8865326642990112,-86,9844.0
7810,0.22214582562446594,2.761599063873291,99,5346.0,-5.3343119621276855,-142,9844.0
7820,0.222159281373024,1.3880430459976196,82,5346.0,-5.513368129730225,-187,9844.0
7830,0.22327236831188202,2.8429765701293945,69,5346.0,-8.950661659240723,-249,9844.0
7840,0.2233353704214096,2.602329969406128,101,5346.0,-6.339676856994629,-228,9844.0
7850,0.2234790325164795,0.69049471616745,82,5346.0,-5.848123073577881,-86,9844.0
7860,0.2235506772994995,-1.0539700984954834,20,5346.0,-3.637667179107666,-144,9844.0
7870,0.22492381930351257,-2.777146339416504,-18,5346.0,1.8479431867599487,-104,9844.0
7880,0.22507889568805695,-4.984838008880615,5,5346.0,1.759292721748352,-56,9844.0
7890,0.2251276820898056,-3.134256362915039,16,5346.0,2.1494853496551514,-52,9844.0
7900,0.2259846180677414,-5.241433620452881,-24,5346.0,6.939970016479492,-71,9844.0
7910,0.2264702469110489,-2.5571341514587402,41,5346.0,-3.663843870162964,-70,9844.0
7920,0.227736234664917,0.22003543376922607,36,5346.0,-4.158371925354004,-219,9844.0
7930,0.22811147570610046,-0.4340294301509857,114,5346.0,-5.008039951324463,-199,9844.0
7940,0.2287844568490982,0.10440316796302795,124,5346.0,-4.855790138244629,-186,9844.0
7950,0.22923490405082703,2.0840744972229004,52,5346.0,-1.18610417842865,-52,9844.0
7960,0.22980162501335144,1.3670190572738647,77,5346.0,-5.943109035491943,-66,9844.0
7970,0.23017273843288422,3.889727830886841,24,5346.0,-4.8526506423950195,29,9844.0
7980,0.2305542677640915,2.7569713592529297,-4,5346.0,-4.169493198394775,-50,9844.0
7990,0.23092728853225708,0.5841758251190186,66,5346.0,3.889542579650879,-16,9844.0
8000,0.23155979812145233,-1.918315052986145,-4,5346.0,5.043140888214111,19,9844.0
8010,0.23353129625320435,-2.3516287803649902,-39,5346.0,2.9500234127044678,-38,9844.0
8020,0.2342899888753891,-2.3334262371063232,-63,5346.0,3.082623243331909,88,9844.0
8030,0.23503027856349945,-1.33822762966156,-68,5346.0,3.6708455085754395,90,9844.0
8040,0.2357703596353531,0.17605847120285034,6,5346.0,1.2420148849487305,-140,9844.0
8050,0.2382821887731552,0.2356402724981308,-22,5346.0,-1.2534310817718506,-118,9844.0
8060,0.23912709951400757,2.058955430984497,22,5346.0,2.7210583686828613,-89,9844.0
8070,0.2400481104850769,3.5190176963806152,-6,5346.0,-2.3483171463012695,-58,9844.0
8080,0.2409968376159668,4.8158860206604,45,5346.0,-0.1538720279932022,-81,9844.0
8090,0.24306896328926086,3.8850796222686768,69,5346.0,1.8138892650604248,-143,9844.0
8100,0.2439776062965393,2.4283883571624756,84,5346.0,1.6374799013137817,-82,9844.0
8110,0.24487780034542084,1.128455638885498,41,5346.0,0.5575413703918457,-49,9844.0
8120,0.24586482346057892,-1.567164421081543,35,5346.0,1.8078274726867676,-46,9844.0
8130,0.2467987835407257,-3.1487481594085693,-22,5346.0,2.778249979019165,-35,9844.0
8140,0.24697627127170563,-4.694367408752441,-39,5346.0,3.2466354370117188,-87,9844.0
8150,0.24778415262699127,-3.02162504196167,-25,5346.0,1.0195471048355103,-46,9844.0
8160,0.24855588376522064,-4.788122177124023,-90,5346.0,3.0280654430389404,89,9844.0
8170,0.24932961165905,-5.119300365447998,-83,5346.0,2.3060660362243652,-24,9844.0
8180,0.25046464800834656,-6.31074857711792,-80,5346.0,2.718186378479004,63,9844.0
8190,0.25119343400001526,-5.797720909118652,-129,5346.0,2.0497324466705322,43,9844.0
8200,0.2519006133079529,-5.057445049285889,-59,5346.0,1.5967154502868652,42,9844.0
8210,0.2524816691875458,-4.759639739990234,-53,5346.0,0.8159462213516235,177,9844.0
8220,0.2531578540802002,-0.8288657665252686,-12,5346.0,4.8426337242126465,137,9844.0
8230,0.2543830871582031,-2.926074743270874,-20,5346.0,6.526552200317383,159,9844.0
8240,0.2548723816871643,-2.602905750274658,-25,5346.0,7.22415828704834,58,9844.0
8250,0.25546613335609436,-0.5700269341468811,20,5346.0,4.196087837219238,-6,9844.0
8260,0.25606220960617065,0.013361393474042416,34,5346.0,0.7358931303024292,5,9844.0
8270,0.2593264877796173,2.5028939247131348,107,5346.0,0.6593101024627686,-92,9844.0
8280,0.26008662581443787,3.3473753929138184,91,5346.0,-1.2787994146347046,-35,9844.0
8290,0.26083454489707947,1.952033519744873,66,5346.0,-1.001318097114563,-118,9844.0
8300,0.2616077959537506,2.621734857559204,101,5346.0,1.6432130336761475,-99,9844.0
8310,0.2615810036659241,1.0394821166992188,116,5346.0,-1.7342047691345215,-150,9844.0
8320,0.2623276114463806,1.1914401054382324,87,5346.0,1.4384255409240723,-136,9844.0
8330,0.2631435692310333,1.0695322751998901,117,5346.0,-7.9651103019714355,-229,9844.0
8340,0.26392263174057007,1.3418943881988525,58,5346.0,-5.920650959014893,-175,9844.0
8350,0.2647043764591217,1.9512863159179688,85,5346.0,-10.951776504516602,-210,9844.0
8360,0.26422807574272156,-1.0641313791275024,2,5346.0,-9.56407642364502,-211,9844.0
8370,0.2649838328361511,-2.4314568042755127,1,5346.0,-10.656659126281738,-276,9844.0
8380,0.2656393051147461,-5.233579635620117,-9,5346.0,-6.6728010177612305,-197,9844.0
8390,0.2661769688129425,-2.8410134315490723,-59,5346.0,-5.871856212615967,-128,9844.0
8400,0.2652610242366791,-2.013475179672241,-7,5346.0,-4.635588645935059,-128,9844.0
8410,0.2658175230026245,-2.793168544769287,-54,5346.0,-0.7199288606643677,28,9844.0
8420,0.2664601802825928,-0.3345867097377777,-15,5346.0,1.5823712348937988,-24,9844.0
8430,0.26721009612083435,0.07668675482273102,65,5346.0,5.949093341827393,57,9844.0
8440,0.2671948969364166,4.772310256958008,60,5346.0,10.752725601196289,230,9844.0
8450,0.26786890625953674,2.353200674057007,-23,5346.0,8.529757499694824,213,9844.0
8460,0.2685277462005615,3.7163422107696533,14,5346.0,7.413516044616699,223,9844.0
8470,0.26912131905555725,0.8684545755386353,-26,5346.0,11.792774200439453,233,9844.0
8480,0.2697567343711853,1.3974629640579224,-22,5346.0,4.637207508087158,24,9844.0
8490,0.270160973072052,2.1525957584381104,-75,5346.0,2.4822123050689697,129,9844.0
8500,0.2705661654472351,1.4327387809753418,-29,5346.0,2.607361316680908,44,9844.0
8510,0.27088290452957153,1.344550609588623,-58,5346.0,-0.40360161662101746,47,9844.0
8520,0.2711256146430969,1.1662538051605225,-58,5346.0,0.9749904274940491,68,9844.0
8530,0.2708204686641693,-0.13802270591259003,-86,5346.0,-0.831250011920929,-11,9844.0
8540,0.2710796296596527,0.1360197216272354,-5,5346.0,-2.764803171157837,70,9844.0
8550,0.27134189009666443,-1.8461447954177856,-59,5346.0,2.91512131690979,79,9844.0
8560,0.27159029245376587,-1.1305011510849,3,5346.0,6.958742618560791,70,9844.0
8570,0.271841824054718,-0.3433930277824402,66,5346.0,9.738855361938477,66,9844.0
8580,0.27209925651550293,-1.8980201482772827,2,5346.0,10.076619148254395,18,9844.0
8590,0.2722891867160797,-1.6267927885055542,139,5346.0,8.46677303314209,-60,9844.0
8600,0.27245089411735535,-0.331554651260376,140,5346.0,6.755062103271484,-34,9844.0
8610,0.27263203263282776,1.4311119318008423,111,5346.0,6.226511001586914,-11,9844.0
8620,0.27452710270881653,-0.11669191718101501,135,5346.0,1.0894863605499268,81,9844.0
8630,0.27494367957115173,2.395000457763672,-5,5346.0,2.6695127487182617,156,9844.0
8640,0.2753138840198517,2.9786291122436523,-63,5346.0,-2.308101177215576,46,9844.0
8650,0.2756943702697754,0.812653124332428,-59,5346.0,0.13799075782299042,113,9844.0
8660,0.276212215423584,1.5078073740005493,-52,5346.0,-4.681819915771484,23,9844.0
8670,0.2762007415294647,2.5009257793426514,0,5346.0,-6.21539306640625,-54,9844.0
8680,0.27659887075424194,1.621607780456543,-38,5346.0,-3.826270818710327,-18,9844.0
8690,0.27698153257369995,-1.1288208961486816,-28,5346.0,-0.7297298312187195,-5,9844.0
8700,0.27738267183303833,-1.5173226594924927,-43,5346.0,1.891698956489563,-43,9844.0
8710,0.27863946557044983,-1.3168472051620483,-2,5346.0,6.120441436767578,-17,9844.0
8720,0.27894413471221924,-4.541182041168213,89,5346.0,3.8880136013031006,-42,9844.0
8730,0.27923691272735596,-2.8956921100616455,44,5346.0,4.746001720428467,-10,9844.0
8740,0.27946385741233826,-0.5312153697013855,95,5346.0,4.373543739318848,4,9844.0
8750,0.2821597456932068,-0.7011390924453735,94,5346.0,6.482029914855957,-19,9844.0
8760,0.28267282247543335,3.9313740730285645,147,5346.0,-2.8211638927459717,-113,9844.0
8770,0.2830907702445984,3.363344669342041,119,5346.0,-4.0098371505737305,15,9844.0
8780,0.2835802435874939,4.384644508361816,11,5346.0,-5.116089820861816,-2,9844.0
8790,0.2841353118419647,3.9722347259521484,25,5346.0,-3.9366939067840576,-52,9844.0
8800,0.2846298813819885,2.4377524852752686,-31,5346.0,-3.83911395072937,36,9844.0
8810,0.2852086126804352,2.2192702293395996,-51,5346.0,-2.1899452209472656,75,9844.0
8820,0.2858215570449829,0.1938992291688919,-74,5346.0,-3.399022102355957,16,9844.0
8830,0.28640902042388916,0.1659238040447235,-92,5346.0,1.4310455322265625,26,9844.0
8840,0.2876485288143158,-1.9418721199035645,-18,5346.0,3.530447006225586,-5,9844.0
8850,0.28834065794944763,-2.376156806945801,-18,5346.0,-1.6033517122268677,-119,9844.0
8860,0.2890755832195282,-2.220905065536499,36,5346.0,-0.9684462547302246,-120,9844.0
8870,0.28978654742240906,-2.4912760257720947,59,5346.0,-3.261216878890991,-96,9844.0
8880,0.29025784134864807,-0.11617161333560944,58,5346.0,-6.865532875061035,-158,9844.0
8890,0.29107949137687683,1.22593092918396,81,5346.0,-12.291108131408691,-200,9844.0
8900,0.2919657230377197,-1.2575944662094116,3,5346.0,-8.32493782043457,-68,9844.0
8910,0.29288119077682495,1.7826979160308838,4,5346.0,-10.067709922790527,-116,9844.0
8920,0.29384756088256836,0.034553442150354385,56,5346.0,-9.77794075012207,-101,9844.0
8930,0.29521140456199646,2.1625237464904785,-59,5346.0,-11.024689674377441,-61,9844.0
8940,0.29599812626838684,2.8724005222320557,-26,5346.0,-5.074097633361816,9,9844.0
8950,0.29692384600639343,1.0747674703598022,-35,5346.0,-4.115729808807373,35,9844.0
8960,0.29770663380622864,2.3626012802124023,-78,5346.0,1.5237964391708374,191,9844.0
8970,0.2982674241065979,1.2171070575714111,-43,5346.0,6.998798847198486,201,9844.0
8980,0.29900026321411133,2.3772013187408447,13,5346.0,1.169617772102356,101,9844.0
8990,0.2996376156806946,3.374483823776245,55,5346.0,6.479397773742676,151,9844.0
9000,0.3003849685192108,1.875274896621704,7,5346.0,4.19210147857666,143,9844.0
9010,0.30112820863723755,2.7705652713775635,64,5346.0,2.18623423576355,-30,9844.0
9020,0.3010273575782776,2.5343401432037354,54,5346.0,-6.250080585479736,-143,9844.0
9030,0.30173489451408386,1.0174014568328857,55,5346.0,-4.044153690338135,-168,9844.0
9040,0.3022412657737732,-2.7153828144073486,17,5346.0,-7.228301048278809,-318,9844.0
9050,0.3027302026748657,-1.1171716451644897,79,5346.0,-8.137142181396484,-320,9844.0
9060,0.30390942096710205,-2.8296985626220703,51,5346.0,-9.314866065979004,-176,9844.0
9070,0.3043806254863739,-2.4365651607513428,36,5346.0,-6.018548011779785,-218,9844.0
9080,0.3048771321773529,-3.1963558197021484,54,5346.0,-0.9586745500564575,-114,9844.0
9090,0.3054473102092743,-1.3149114847183228,55,5346.0,0.2569010555744171,-65,9844.0
9100,0.3037208020687103,-0.005788870621472597,28,5346.0,2.585697650909424,-25,9844.0
9110,0.3041253387928009,0.9538121223449707,110,5346.0,3.9466092586517334,-4,9844.0
9120,0.3045949935913086,3.142507314682007,33,5346.0,5.114003658294678,186,9844.0
9130,0.3050498962402344,0.7393433451652527,-78,5346.0,7.760769367218018,228,9844.0
9140,0.3053969144821167,-0.6071268916130066,-81,5346.0,6.077388763427734,194,9844.0
9150,0.30713850259780884,-1.2461292743682861,-130,5346.0,8.556924819946289,200,9844.0
9160,0.30753853917121887,-1.6006468534469604,-106,5346.0,0.6429265737533569,158,9844.0
9170,0.3078930974006653,-4.406572341918945,-131,5346.0,1.8423641920089722,151,9844.0
9180,0.3082774877548218,-1.310887336730957,-24,5346.0,-2.3227827548980713,0,9844.0
9190,0.31033751368522644,-1.9834249019622803,39,5346.0,-2.02388596534729,-17,9844.0
9200,0.3108004033565521,-0.03656221181154251,11,5346.0,2.6193649768829346,-39,9844.0
9210,0.311346173286438,0.8560047149658203,35,5346.0,-0.028589945286512375,-18,9844.0
9220,0.31190353631973267,-0.43506893515586853,101,5346.0,5.950382709503174,-122,9844.0
9230,0.3124963641166687,-0.04990949109196663,98,5346.0,-1.8281300067901611,-43,9844.0
9240,0.31331056356430054,0.5676870942115784,64,5346.0,-2.9990198612213135,-80,9844.0
9250,0.31412914395332336,0.44525209069252014,46,5346.0,-2.0334808826446533,-43,9844.0
9260,0.31480276584625244,-0.5692575573921204,-39,5346.0,-3.1849687099456787,46,9844.0
9270,0.31538769602775574,0.8216145038604736,-73,5346.0,-4.320837497711182,54,9844.0
9280,0.3172796964645386,-2.532956838607788,-47,5346.0,-1.5780545473098755,-11,9844.0
9290,0.3178793489933014,-1.6006345748901367,-41,5346.0,-1.8227355480194092,-40,9844.0
9300,0.31864556670188904,1.2695634365081787,-26,5346.0,-4.766497611999512,46,9844.0
9310,0.31947678327560425,2.0514588356018066,-44,5346.0,-6.569727420806885,47,9844.0
9320,0.32051917910575867,2.061319589614868,-65,5346.0,-6.064816951751709,37,9844.0
9330,0.32113218307495117,1.1747922897338867,-57,5346.0,-6.606203079223633,67,9844.0
9340,0.321699857711792,0.08195298910140991,-28,5346.0,-8.773682594299316,15,9844.0
9350,0.32217592000961304,-3.1663806438446045,-102,5346.0,2.640192985534668,103,9844.0
9360,0.32262399792671204,-1.6242941617965698,-118,5346.0,-0.8002822995185852,92,9844.0
9370,0.32436060905456543,-1.8236624002456665,-85,5346.0,1.5761216878890991,58,9844.0
9380,0.32471489906311035,-2.8546557426452637,-62,5346.0,2.2125513553619385,146,9844.0
9390,0.32505491375923157,-3.437788248062134,-60,5346.0,1.04312264919281,122,9844.0
9400,0.325374037027359,-2.9401767253875732,-76,5346.0,4.393228530883789,154,9844.0
9410,0.3282271921634674,0.15713050961494446,-104,5346.0,2.278402805328369,182,9844.0
9420,0.3288041949272156,0.028764398768544197,-94,5346.0,5.581899166107178,171,9844.0
9430,0.3294161260128021,0.31163153052330017,-20,5346.0,2.8841640949249268,73,9844.0
9440,0.33008646965026855,0.9649730920791626,17,5346.0,0.392632395029068,-28,9844.0
9450,0.3307938277721405,3.215306282043457,31,5346.0,0.0568249337375164,132,9844.0
9460,0.3323476016521454,1.4121061563491821,-45,5346.0,5.622233867645264,126,9844.0
9470,0.33306175470352173,-0.11977019160985947,22,5346.0,3.559220552444458,-74,9844.0
9480,0.3337613344192505,1.3027434349060059,43,5346.0,3.0750696659088135,16,9844.0
9490,0.33447638154029846,2.1318817138671875,60,5346.0,1.1614110469818115,47,9844.0
9500,0.3375321924686432,2.4187915325164795,-16,5346.0,2.8910861015319824,108,9844.0
9510,0.33837398886680603,1.9711922407150269,62,5346.0,2.3057329654693604,50,9844.0
9520,0.33917471766471863,2.919217109680176,56,5346.0,1.1950945854187012,-28,9844.0
9530,0.3400062024593353,0.8387264013290405,23,5346.0,1.9931374788284302,23,9844.0
9540,0.343235582113266,2.421311616897583,39,5346.0,-7.318716526031494,14,9844.0
9550,0.3443562388420105,1.251810908317566,-4,5346.0,-0.38817834854125977,5,9844.0
9560,0.34550538659095764,1.4250656366348267,36,5346.0,-1.340040683746338,19,9844.0
9570,0.3466067314147949,1.6722664833068848,25,5346.0,-2.04010272026062,58,9844.0
9580,0.3476752042770386,0.8926260471343994,15,5346.0,-0.7478851079940796,150,9844.0
9590,0.35041144490242004,-0.31655755639076233,-66,5346.0,2.6136698722839355,169,9844.0
9600,0.3515450358390808,-0.6860976219177246,-48,5346.0,2.3801236152648926,137,9844.0
9610,0.3526526987552643,-2.4833037853240967,-45,5346.0,4.252760410308838,117,9844.0
9620,0.3537620007991791,-1.5122615098953247,-71,5346.0,4.68804407119751,154,9844.0
9630,0.3541276454925537,-2.4501445293426514,-77,5346.0,5.694038391113281,120,9844.0
9640,0.3552244305610657,-2.1240460872650146,-28,5346.0,4.80168342590332,28,9844.0
9650,0.3563331365585327,-3.2063865661621094,-70,5346.0,3.4595587253570557,57,9844.0
9660,0.35720619559288025,-3.694690465927124,-26,5346.0,0.4648739993572235,-44,9844.0
9670,0.3580608069896698,-0.2620302736759186,0,5346.0,-3.3410420417785645,-206,9844.0
9680,0.3592822253704071,2.151489496231079,80,5346.0,-1.5906938314437866,-153,9844.0
9690,0.36008062958717346,4.1347150802612305,150,5346.0,-3.067192792892456,-102,9844.0
9700,0.3608092665672302,5.16172456741333,91,5346.0,-5.162347793579102,-118,9844.0
9710,0.3615145981311798,4.811293125152588,85,5346.0,-3.2854340076446533,-81,9844.0
9720,0.36148977279663086,4.686470985412598,68,5346.0,-2.6394875049591064,-37,9844.0
9730,0.3620122969150543,1.7738159894943237,24,5346.0,-4.991384506225586,32,9844.0
9740,0.36333319544792175,1.0393445491790771,-11,5346.0,-2.017812490463257,29,9844.0
9750,0.3641088008880615,-3.5033388137817383,-78,5346.0,0.1463758498430252,84,9844.0
9760,0.3629419505596161,-6.775618076324463,-110,5346.0,-1.2155249118804932,65,9844.0
9770,0.36350470781326294,-6.916456699371338,-167,5346.0,-0.6698065400123596,41,9844.0
9780,0.36401382088661194,-6.391124725341797,-110,5346.0,-5.8907060623168945,-116,9844.0
9790,0.3645224869251251,-5.770735263824463,-77,5346.0,-6.621194839477539,-116,9844.0
9800,0.36490511894226074,-4.844744682312012,-54,5346.0,-5.218820571899414,-92,9844.0
9810,0.3620854914188385,-3.0400404930114746,-76,5346.0,-6.089062690734863,-129,9844.0
9820,0.36229071021080017,-0.6794496774673462,-3,5346.0,-3.402811050415039,-140,9844.0
9830,0.3624506890773773,-2.2949466705322266,26,5346.0,-4.5479865074157715,-146,9844.0
9840,0.36260002851486206,-0.40953415632247925,88,5346.0,-5.467763423919678,-195,9844.0
9850,0.3596016466617584,1.8872225284576416,18,5346.0,-1.8797054290771484,-104,9844.0
9860,0.35948896408081055,1.9952640533447266,44,5346.0,-0.14257515966892242,-79,9844.0
9870,0.35933542251586914,0.6593162417411804,86,5346.0,1.672480583190918,-93,9844.0
9880,0.3591214418411255,0.1904166042804718,12,5346.0,1.4795740842819214,9,9844.0
9890,0.3569822609424591,-1.089274525642395,14,5346.0,4.201438903808594,-35,9844.0
9900,0.35659259557724,-1.327554702758789,-27,5346.0,3.7610294818878174,13,9844.0
9910,0.3562326729297638,-4.134398937225342,12,5346.0,3.491241455078125,-131,9844.0
9920,0.35594800114631653,-5.1983819007873535,23,5346.0,7.501892566680908,-6,9844.0
9930,0.35570329427719116,-5.929869651794434,10,5346.0,2.492710590362549,-93,9844.0
9940,0.35481971502304077,-4.752060890197754,-20,5346.0,5.001373767852783,86,9844.0
9950,0.3545163571834564,-4.43333101272583,-27,5346.0,0.539121150970459,69,9844.0
9960,0.35419517755508423,-3.911097526550293,-99,5346.0,0.7912634611129761,88,9844.0
9970,0.35395491123199463,-3.5422775745391846,-24,5346.0,1.5571657419204712,-17,9844.0
9980,0.3542517125606537,-2.1205928325653076,-78,5346.0,3.31233286857605,97,9844.0
9990,0.35399100184440613,-0.23005865514278412,-126,5346.0,1.2732231616973877,188,9844.0
10000,0.35367560386657715,-1.2620868682861328,-88,5346.0,4.034043312072754,221,9844.0
10010,0.35328635573387146,2.5353665351867676,-55,5346.0,0.5827653408050537,130,9844.0
10020,0.35282063484191895,-1.1986260414123535,-51,5346.0,5.520026206970215,44,9844.0
10030,0.354937881231308,0.7236269116401672,-69,5346.0,5.2416181564331055,6,9844.0
10040,0.3547022044658661,-2.629851818084717,25,5346.0,2.7983527183532715,-122,9844.0
10050,0.3545856475830078,-3.559417963027954,-81,5346.0,3.6501340866088867,-102,9844.0
10060,0.3546004593372345,-6.309844493865967,-74,5346.0,4.508101463317871,27,9844.0
10070,0.35636481642723083,-0.7641271948814392,76,5346.0,1.5883899927139282,-45,9844.0
10080,0.3564625382423401,-1.838276982307434,37,5346.0,1.7867891788482666,-79,9844.0
10090,0.35661354660987854,-0.098964162170887,63,5346.0,-3.305889368057251,-129,9844.0
10100,0.3567158877849579,-0.12999893724918365,81,5346.0,-2.6292483806610107,-40,9844.0
10110,0.35666391253471375,0.9673849940299988,-35,5346.0,-2.929532527923584,83,9844.0
10120,0.36040693521499634,3.6683709621429443,-22,5346.0,-4.937671661376953,89,9844.0
10130,0.36063089966773987,2.9434192180633545,-58,5346.0,-2.1774840354919434,84,9844.0
10140,0.3608705699443817,3.604282855987549,-26,5346.0,-1.434171438217163,101,9844.0
10150,0.36117875576019287,0.5746923089027405,-92,5346.0,0.7544745802879333,62,9844.0
10160,0.3659960627555847,2.048330783843994,-44,5346.0,-0.27647173404693604,50,9844.0
10170,0.3668352961540222,1.5325349569320679,2,5346.0,2.3699190616607666,96,9844.0
10180,0.3677087426185608,3.806676149368286,-62,5346.0,2.204213857650757,134,9844.0
10190,0.3686457574367523,-0.11660203337669373,8,5346.0,1.46554696559906,52,9844.0
10200,0.3712923526763916,0.496002197265625,-10,5346.0,-0.7934779524803162,-10,9844.0
10210,0.37226495146751404,1.7373592853546143,43,5346.0,-3.311919689178467,-86,9844.0
10220,0.37321287393569946,4.24004602432251,57,5346.0,-4.007562160491943,-127,9844.0
10230,0.3740389943122864,3.372511625289917,113,5346.0,-2.4344711303710938,-36,9844.0
10240,0.3747989535331726,3.6693193912506104,94,5346.0,-3.2685627937316895,13,9844.0
10250,0.376444935798645,8.456771850585938,181,5346.0,-7.054116725921631,16,9844.0
10260,0.3772263526916504,7.515417575836182,145,5346.0,-3.874865770339966,-30,9844.0
10270,0.37796473503112793,6.158863067626953,67,5346.0,-3.690037965774536,-16,9844.0
10280,0.37863242626190186,2.6964855194091797,33,5346.0,-6.99923038482666,8,9844.0
10290,0.3817857801914215,-2.383049726486206,-39,5346.0,-7.840540885925293,2,9844.0
10300,0.3824937343597412,-2.7206270694732666,-84,5346.0,-6.309373378753662,-35,9844.0
10310,0.3831790089607239,-2.480087995529175,-60,5346.0,-6.092662334442139,-73,9844.0
10320,0.38385236263275146,-2.6307857036590576,-44,5346.0,-3.629054546356201,-48,9844.0
10330,0.38703200221061707,-2.0484554767608643,-28,5346.0,-1.8665603399276733,-74,9844.0
10340,0.38772526383399963,-0.9640895128250122,-6,5346.0,-0.3738020658493042,-63,9844.0
10350,0.3883809745311737,0.6278759241104126,41,5346.0,-3.9046645164489746,-100,9844.0
10360,0.3889961242675781,2.286599636077881,63,5346.0,-1.863779902458191,-120,9844.0
10370,0.3895743489265442,-0.3144948482513428,26,5346.0,-7.830849647521973,-168,9844.0
10380,0.39227110147476196,0.8678346872329712,40,5346.0,-7.1482157707214355,-74,9844.0
10390,0.3929111063480377,0.39816540479660034,39,5346.0,-7.0923967361450195,-40,9844.0
10400,0.3935032784938812,1.3720439672470093,-7,5346.0,-7.014837265014648,-43,9844.0
10410,0.3940950930118561,0.45792147517204285,-38,5346.0,-5.761083602905273,-33,9844.0
10420,0.3947645425796509,0.05430063232779503,-15,5346.0,-4.104498863220215,-175,9844.0
10430,0.3952876925468445,0.6074929237365723,49,5346.0,-5.439962863922119,-146,9844.0
10440,0.3957681655883789,-0.2352180927991867,7,5346.0,-0.40767335891723633,-49,9844.0
10450,0.39625757932662964,-1.1356017589569092,13,5346.0,3.379927635192871,64,9844.0
10460,0.3966866135597229,-1.799047827720642,-57,5346.0,4.478588104248047,141,9844.0
10470,0.3983955383300781,-1.604432463645935,-42,5346.0,5.078940391540527,181,9844.0
10480,0.39882490038871765,-3.158874034881592,-90,5346.0,6.633981704711914,70,9844.0
10490,0.3992191255092621,-2.2457783222198486,-5,5346.0,5.270659923553467,41,9844.0
10500,0.39958682656288147,-1.9159033298492432,-10,5346.0,5.704455375671387,28,9844.0
10510,0.4008922576904297,0.15071864426136017,21,5346.0,0.07520799338817596,4,9844.0
10520,0.4012332856655121,-0.2010001838207245,17,5346.0,-4.833538055419922,-27,9844.0
10530,0.4015549421310425,1.6265714168548584,50,5346.0,-3.280959129333496,-91,9844.0
10540,0.401838093996048,1.9973827600479126,51,5346.0,-3.3093128204345703,-123,9844.0
10550,0.40164443850517273,1.610328197479248,34,5346.0,-1.1053996086120605,-132,9844.0
10560,0.4018208980560303,0.6214017271995544,48,5346.0,-0.025493349879980087,-9,9844.0
10570,0.40199482440948486,0.6604264974594116,4,5346.0,0.19217640161514282,83,9844.0
10580,0.4023151099681854,0.15731172263622284,-29,5346.0,5.189497470855713,207,9844.0
10590,0.4024810791015625,-0.6419534087181091,-6,5346.0,2.236945867538452,-31,9844.0
10600,0.4037134051322937,-1.5839927196502686,-17,5346.0,2.3500020503997803,-98,9844.0
10610,0.4039178788661957,-4.7179999351501465,-25,5346.0,-1.3405697345733643,-206,9844.0
10620,0.4041619300842285,-2.70589280128479,-37,5346.0,-4.516933441162109,-159,9844.0
10630,0.4043464660644531,-3.2866437435150146,-33,5346.0,-6.995887756347656,-42,9844.0
10640,0.40432295203208923,-3.3902430534362793,-50,5346.0,-3.7093701362609863,-37,9844.0
10650,0.40446585416793823,-2.16559100151062,-56,5346.0,-5.848535060882568,-97,9844.0
10660,0.40463030338287354,-2.934751272201538,-35,5346.0,-5.200811862945557,-114,9844.0
10670,0.4047960042953491,-2.0621109008789062,-42,5346.0,-1.0398613214492798,-112,9844.0
10680,0.4049302637577057,-2.0900089740753174,-43,5346.0,-1.13364577293396,-42,9844.0
10690,0.40629151463508606,-0.3921443223953247,-15,5346.0,-3.188891649246216,29,9844.0
10700,0.40647414326667786,-2.9905407428741455,-31,5346.0,7.21405029296875,199,9844.0
10710,0.4066392779350281,-1.858888030052185,-47,5346.0,4.197463035583496,111,9844.0
10720,0.40680360794067383,-1.9137060642242432,-31,5346.0,2.6236937046051025,61,9844.0
10730,0.40742772817611694,-1.9223352670669556,-41,5346.0,3.194972515106201,27,9844.0
10740,0.40763047337532043,-2.2903239727020264,15,5346.0,4.982687950134277,-18,9844.0
10750,0.4078221917152405,-0.25178274512290955,2,5346.0,0.7618797421455383,31,9844.0
10760,0.40800756216049194,-0.3011179268360138,-29,5346.0,-0.17708204686641693,2,9844.0
10770,0.40817970037460327,0.21442528069019318,-6,5346.0,1.444719672203064,88,9844.0
10780,0.4082487225532532,0.9800612926483154,17,5346.0,-0.8238077759742737,44,9844.0
10790,0.4083689749240875,3.147794723510742,42,5346.0,-0.38345083594322205,65,9844.0
10800,0.40845197439193726,2.12408185005188,74,5346.0,3.511418581008911,28,9844.0
10810,0.4085402190685272,2.593085289001465,35,5346.0,0.630143940448761,-19,9844.0
10820,0.4088160991668701,3.1371288299560547,63,5346.0,1.2017055749893188,-18,9844.0
10830,0.40889328718185425,2.1037471294403076,45,5346.0,4.289458751678467,-41,9844.0
10840,0.4089430570602417,2.366896152496338,57,5346.0,2.270596742630005,93,9844.0
10850,0.40899768471717834,0.6661876440048218,68,5346.0,-0.9446461200714111,37,9844.0
10860,0.4094316363334656,1.9675555229187012,6,5346.0,2.6734087467193604,205,9844.0
10870,0.4095001220703125,1.7799241542816162,-15,5346.0,0.6110708713531494,117,9844.0
10880,0.40957045555114746,0.4796470105648041,19,5346.0,-0.024818850681185722,19,9844.0
10890,0.4097069203853607,1.5835202932357788,-6,5346.0,-2.013197660446167,-61,9844.0
10900,0.40980637073516846,1.800050973892212,17,5346.0,0.8726795315742493,-127,9844.0
10910,0.4092596173286438,2.3059394359588623,58,5346.0,-4.94224739074707,-180,9844.0
10920,0.40945062041282654,0.012641104869544506,46,5346.0,-0.9049376249313354,-67,9844.0
10930,0.4096294343471527,-0.20776425302028656,-26,5346.0,-3.4548420906066895,-77,9844.0
10940,0.40980562567710876,1.0072616338729858,19,5346.0,-1.9575088024139404,32,9844.0
10950,0.4104301333427429,0.40911370515823364,28,5346.0,-4.675915718078613,62,9844.0
10960,0.41056928038597107,1.6698541641235352,-14,5346.0,-4.053635120391846,55,9844.0
10970,0.4106823801994324,-0.5761995911598206,-30,5346.0,0.9945225119590759,48,9844.0
10980,0.41074806451797485,-1.8818562030792236,-20,5346.0,3.6363582611083984,-19,9844.0
10990,0.4101336896419525,-1.0192633867263794,5,5346.0,1.0408010482788086,-50,9844.0
11000,0.41021594405174255,-5.0821533203125,-38,5346.0,3.123241424560547,-22,9844.0
11010,0.4102908670902252,-3.0652425289154053,-34,5346.0,-1.5597292184829712,-58,9844.0
11020,0.4103400707244873,-2.289351463317871,-48,5346.0,-2.1186556816101074,-25,9844.0
11030,0.4103686511516571,-4.413744926452637,-13,5346.0,-2.4936628341674805,-34,9844.0
11040,0.4094238877296448,-2.071415901184082,-26,5346.0,-5.683070659637451,-49,9844.0
11050,0.4093477129936218,-2.8566503524780273,-64,5346.0,-2.716365098953247,14,9844.0
11060,0.4092665910720825,-1.6304970979690552,-23,5346.0,-3.156745672225952,-24,9844.0
11070,0.40917494893074036,-0.7850244641304016,-23,5346.0,-3.9405314922332764,-17,9844.0
11080,0.4090038537979126,-1.7061245441436768,26,5346.0,-1.4892926216125488,-54,9844.0
11090,0.40895602107048035,-0.5121065378189087,-6,5346.0,3.133840322494507,41,9844.0
11100,0.40890610218048096,1.9467103481292725,3,5346.0,1.7323851585388184,-1,9844.0
11110,0.4088476300239563,-1.142558217048645,-4,5346.0,5.503505706787109,21,9844.0
11120,0.4087827801704407,-1.4698408842086792,-15,5346.0,1.5358777046203613,53,9844.0
11130,0.4087989330291748,-1.2809635400772095,-27,5346.0,4.138911724090576,86,9844.0
11140,0.4087337851524353,-0.6708343029022217,12,5346.0,4.099477767944336,76,9844.0
11150,0.4086892604827881,1.194787621498108,7,5346.0,3.181467294692993,93,9844.0
11160,0.4086456894874573,0.14973586797714233,-29,5346.0,3.631680488586426,131,9844.0
11170,0.4091452360153198,1.4909284114837646,14,5346.0,1.8666528463363647,75,9844.0
11180,0.409122496843338,0.41913026571273804,11,5346.0,2.7231640815734863,33,9844.0
11190,0.40911662578582764,0.8344609141349792,-18,5346.0,1.6936650276184082,0,9844.0
11200,0.4090794622898102,-1.2819489240646362,4,5346.0,-0.6262847185134888,-97,9844.0
11210,0.41105398535728455,0.009160625748336315,24,5346.0,-4.073277950286865,-51,9844.0
11220,0.4111313223838806,0.29769694805145264,7,5346.0,2.803183078765869,141,9844.0
11230,0.4112178087234497,1.3709030151367188,4,5346.0,4.386150360107422,125,9844.0
11240,0.41130495071411133,1.7667542695999146,20,5346.0,3.8405866622924805,186,9844.0
11250,0.4113878607749939,2.5972495079040527,-16,5346.0,8.160898208618164,220,9844.0
11260,0.41336196660995483,3.1127049922943115,-18,5346.0,0.003476032754406333,109,9844.0
11270,0.41354259848594666,2.6673102378845215,10,5346.0,1.7308094501495361,5,9844.0
11280,0.4137685000896454,1.0663604736328125,51,5346.0,2.7300467491149902,-11,9844.0
11290,0.41397738456726074,1.9057979583740234,20,5346.0,-2.4058597087860107,-91,9844.0
11300,0.4145772159099579,-0.643528163433075,19,5346.0,5.119691848754883,-86,9844.0
11310,0.41477927565574646,2.962522029876709,24,5346.0,0.397845983505249,-55,9844.0
11320,0.4149777889251709,-0.05404885113239288,37,5346.0,-1.5428673028945923,-26,9844.0
11330,0.41517356038093567,-0.3491980731487274,6,5346.0,-0.1017138734459877,131,9844.0
11340,0.4153524935245514,-0.08900797367095947,-25,5346.0,2.7044765949249268,67,9844.0
11350,0.41621068120002747,-0.348671019077301,-32,5346.0,0.8551672697067261,4,9844.0
11360,0.41638150811195374,-0.2726266384124756,-25,5346.0,-2.0196242332458496,-49,9844.0
11370,0.4165382981300354,-2.0793235301971436,-16,5346.0,0.8198075294494629,-55,9844.0
11380,0.41669201850891113,0.39805683493614197,-8,5346.0,3.0091969966888428,46,9844.0
11390,0.41656026244163513,0.7036343812942505,-3,5346.0,0.9639284014701843,81,9844.0
11400,0.41668325662612915,1.41708242893219,5,5346.0,-2.198106527328491,-40,9844.0
11410,0.41678935289382935,3.923130989074707,46,5346.0,-3.9584195613861084,-64,9844.0
11420,0.41684943437576294,1.5919010639190674,63,5346.0,-0.7101537585258484,-53,9844.0
11430,0.41733911633491516,1.454025149345398,53,5346.0,0.12977422773838043,-40,9844.0
11440,0.4174072742462158,1.7420940399169922,3,5346.0,0.6301611661911011,60,9844.0
11450,0.41744616627693176,-1.0620108842849731,-33,5346.0,-0.9528231620788574,62,9844.0
11460,0.4174664616584778,-0.2032940685749054,-13,5346.0,-1.4468640089035034,21,9844.0
11470,0.41743701696395874,-1.5588005781173706,7,5346.0,0.018801270052790642,106,9844.0
11480,0.41801154613494873,-1.8477530479431152,-17,5346.0,-1.4006563425064087,54,9844.0
11490,0.4179852604866028,-0.5933341383934021,-16,5346.0,-2.0497539043426514,-68,9844.0
11500,0.4179766774177551,0.4229949414730072,-15,5346.0,-4.144059181213379,-70,9844.0
11510,0.4179427921772003,-0.22921384871006012,-10,5346.0,0.3626958429813385,-34,9844.0
11520,0.4190942645072937,1.9136195182800293,48,5346.0,-3.665540933609009,-24,9844.0
11530,0.4191109240055084,0.4121984541416168,16,5346.0,3.598175287246704,93,9844.0
11540,0.4191109538078308,0.6062597632408142,-1,5346.0,1.8318406343460083,98,9844.0
11550,0.41909486055374146,-0.9818395972251892,-30,5346.0,-2.339977502822876,26,9844.0
11560,0.41905415058135986,-3.3179771900177,-23,5346.0,-2.710348129272461,-24,9844.0
11570,0.4185182750225067,-1.3569263219833374,-68,5346.0,0.23654012382030487,33,9844.0
11580,0.4183501601219177,0.6782038807868958,51,5346.0,3.633395195007324,-76,9844.0
11590,0.41816452145576477,-0.04724019765853882,57,5346.0,-1.7907614707946777,-137,9844.0
11600,0.41799741983413696,-0.5441496968269348,20,5346.0,-1.8092294931411743,-16,9844.0
11610,0.4182005524635315,-0.24326708912849426,-30,5346.0,0.9039361476898193,-20,9844.0
11620,0.4180307686328888,1.5691663026809692,-20,5346.0,-3.9869682788848877,66,9844.0
11630,0.4178328216075897,0.5168122053146362,-16,5346.0,-0.07565118372440338,76,9844.0
11640,0.417635440826416,-0.8578751087188721,-32,5346.0,-6.732849597930908,35,9844.0
11650,0.4172442555427551,-0.9769340753555298,-41,5346.0,0.8755362629890442,160,9844.0
11660,0.41701221466064453,-3.5118188858032227,-20,5346.0,3.699847459793091,18,9844.0
11670,0.41676223278045654,-3.179847240447998,-14,5346.0,7.323821067810059,-4,9844.0
11680,0.4165625274181366,-3.097625732421875,-42,5346.0,4.7711334228515625,-46,9844.0
11690,0.41637399792671204,-1.2845005989074707,-26,5346.0,-2.6241886615753174,-55,9844.0
11700,0.4176330864429474,-0.8189536333084106,-21,5346.0,2.224027395248413,105,9844.0
11710,0.41755062341690063,-0.6357219219207764,-1,5346.0,0.1602279394865036,30,9844.0
11720,0.4174496531486511,-1.2810522317886353,-28,5346.0,-0.2970195412635803,104,9844.0
11730,0.41735804080963135,-0.23232629895210266,-31,5346.0,-4.465004920959473,-10,9844.0
11740,0.4178767502307892,0.7322961688041687,-60,5346.0,-4.3855204582214355,38,9844.0
11750,0.4178203344345093,2.018982172012329,-12,5346.0,-10.733986854553223,-82,9844.0
11760,0.4176962971687317,-1.645599603652954,-51,5346.0,0.32449138164520264,-35,9844.0
11770,0.4176208972930908,-0.07542861253023148,-22,5346.0,-1.1819400787353516,-74,9844.0
11780,0.4174780249595642,-0.19860729575157166,-16,5346.0,-0.5740620493888855,-118,9844.0
11790,0.4180402159690857,0.0547860749065876,35,5346.0,-7.909496307373047,-203,9844.0
11800,0.4179609715938568,-2.3089709281921387,-6,5346.0,-3.938443183898926,-191,9844.0
11810,0.41789039969444275,-1.598488688468933,13,5346.0,-6.307574272155762,-126,9844.0
11820,0.41778111457824707,-2.004399538040161,27,5346.0,-4.613483428955078,-83,9844.0
11830,0.4173520803451538,0.7663587331771851,56,5346.0,-4.968971252441406,-23,9844.0
11840,0.4172588586807251,2.9466793537139893,47,5346.0,1.2547258138656616,94,9844.0
11850,0.4171384572982788,3.8842575550079346,78,5346.0,0.4468499422073364,80,9844.0
11860,0.41701140999794006,3.9601399898529053,20,5346.0,-0.061388049274683,0,9844.0
11870,0.4181424379348755,4.653142929077148,12,5346.0,-3.7932727336883545,-29,9844.0
11880,0.4180666208267212,-1.6528337001800537,25,5346.0,5.1661529541015625,-41,9844.0
11890,0.4179953932762146,1.4708930253982544,20,5346.0,-0.3753148913383484,-107,9844.0
11900,0.4179142713546753,-0.47748905420303345,41,5346.0,0.7391421794891357,-88,9844.0
11910,0.41786107420921326,-1.8468530178070068,33,5346.0,-1.2025105953216553,44,9844.0
11920,0.4190824627876282,-1.2392526865005493,-24,5346.0,-2.7831594944000244,-12,9844.0
11930,0.41908538341522217,0.5454325675964355,3,5346.0,-1.8601595163345337,-5,9844.0
11940,0.41910600662231445,0.464332640171051,-33,5346.0,0.5358221530914307,151,9844.0
11950,0.41912922263145447,1.0809470415115356,-4,5346.0,0.31281936168670654,68,9844.0
11960,0.418695867061615,1.1762871742248535,-10,5346.0,1.9529774188995361,34,9844.0
11970,0.41866785287857056,1.584397792816162,36,5346.0,5.3438496589660645,72,9844.0
11980,0.4186038672924042,1.5700017213821411,14,5346.0,5.140139102935791,29,9844.0
11990,0.41850465536117554,0.3663371205329895,24,5346.0,5.918647289276123,64,9844.0
12000,0.41838711500167847,0.0013291448121890426,12,5346.0,10.790451049804688,10,9844.0
12010,0.41894814372062683,1.9201911687850952,74,5346.0,2.5353472232818604,27,9844.0
12020,0.41888779401779175,1.6141294240951538,-38,5346.0,2.3559679985046387,106,9844.0
12030,0.4187847077846527,0.3221907913684845,3,5346.0,-1.345380425453186,114,9844.0
12040,0.4186725914478302,0.20986534655094147,-19,5346.0,-0.9209122657775879,55,9844.0
12050,0.41947418451309204,0.6430833339691162,-23,5346.0,-3.137691020965576,-41,9844.0
12060,0.41937127709388733,-1.0672845840454102,18,5346.0,-1.3434584140777588,-66,9844.0
12070,0.4192619025707245,0.194574773311615,-31,5346.0,-1.9583985805511475,-102,9844.0
12080,0.4191407561302185,-1.4194785356521606,-36,5346.0,1.1754626035690308,-36,9844.0
12090,0.4190186858177185,-0.9239915609359741,14,5346.0,-1.4671313762664795,-27,9844.0
12100,0.42098820209503174,0.5440166592597961,34,5346.0,3.6583523750305176,73,9844.0
12110,0.4209466278553009,0.25766193866729736,8,5346.0,2.9534108638763428,163,9844.0
12120,0.4208962619304657,0.9955863356590271,-5,5346.0,3.30788516998291,103,9844.0
12130,0.42084425687789917,-0.19696500897407532,-34,5346.0,4.717715263366699,150,9844.0
12140,0.42205771803855896,-1.3466953039169312,-60,5346.0,3.7750847339630127,71,9844.0
12150,0.4220667779445648,-0.9506769776344299,-5,5346.0,2.346083641052246,-65,9844.0
12160,0.4220733642578125,-0.8091054558753967,-17,5346.0,4.710750579833984,27,9844.0
12170,0.42208635807037354,-0.7745860815048218,6,5346.0,2.860592842102051,-4,9844.0
12180,0.42366358637809753,-0.2115137130022049,-8,5346.0,0.985115647315979,20,9844.0
12190,0.42381393909454346,-2.55596923828125,-17,5346.0,4.990476131439209,117,9844.0
12200,0.42392781376838684,4.611323833465576,101,5346.0,-3.5206167697906494,-26,9844.0
12210,0.42402639985084534,4.523592472076416,71,5346.0,-1.108329176902771,72,9844.0
12220,0.4240756332874298,6.180685520172119,68,5346.0,-4.845730781555176,-55,9844.0
12230,0.426098108291626,4.127810478210449,71,5346.0,-4.698798656463623,-130,9844.0
12240,0.4261489510536194,1.0944105386734009,39,5346.0,-1.1837438344955444,-202,9844.0
12250,0.42613476514816284,1.4053544998168945,46,5346.0,-2.3084635734558105,-190,9844.0
12260,0.42611703276634216,1.4782065153121948,6,5346.0,-3.085362434387207,-41,9844.0
12270,0.42521435022354126,-2.140016794204712,-51,5346.0,-0.8053298592567444,54,9844.0
12280,0.4251088500022888,-3.1364238262176514,-70,5346.0,1.4110612869262695,134,9844.0
12290,0.4249582290649414,-2.8373985290527344,-74,5346.0,1.819596290588379,86,9844.0
12300,0.4249548316001892,-4.658929347991943,-80,5346.0,5.089046478271484,45,9844.0
12310,0.4250936508178711,-4.174720287322998,-73,5346.0,-1.7232414484024048,-49,9844.0
12320,0.4250950217247009,-3.5299692153930664,-19,5346.0,-1.7286080121994019,-162,9844.0
12330,0.4247097969055176,-3.622018575668335,-14,5346.0,-1.2615327835083008,-60,9844.0
12340,0.4247150719165802,0.8822052478790283,25,5346.0,-3.7160677909851074,12,9844.0
12350,0.4242526590824127,2.432927131652832,46,5346.0,-2.939666748046875,66,9844.0
12360,0.4245547950267792,4.310603141784668,7,5346.0,-1.9326754808425903,49,9844.0
12370,0.42434629797935486,6.626681804656982,62,5346.0,-2.056551933288574,3,9844.0
12380,0.42414671182632446,4.346468925476074,17,5346.0,-1.987383484840393,72,9844.0
12390,0.42394402623176575,2.966632604598999,52,5346.0,0.17254844307899475,-39,9844.0
12400,0.4242008626461029,0.16324567794799805,27,5346.0,2.5814857482910156,-22,9844.0
12410,0.4239717721939087,-3.3842227458953857,-32,5346.0,-1.0878583192825317,-41,9844.0
12420,0.423758327960968,-4.522247314453125,-75,5346.0,1.0998706817626953,6,9844.0
12430,0.42355191707611084,-5.737880706787109,-109,5346.0,2.6527066230773926,105,9844.0
12440,0.42311936616897583,-2.5876810550689697,-36,5346.0,-0.1836654245853424,40,9844.0
12450,0.42346999049186707,-2.79095196723938,-50,5346.0,-1.3770244121551514,-9,9844.0
12460,0.4230552315711975,-2.4805986881256104,-45,5346.0,-0.025504665449261665,12,9844.0
12470,0.42306646704673767,-0.859095573425293,-14,5346.0,1.5072133541107178,-6,9844.0
12480,0.42254307866096497,0.4062003195285797,18,5346.0,2.9215919971466064,24,9844.0
12490,0.4215737283229828,0.9161733388900757,16,5346.0,0.8315629959106445,-40,9844.0
12500,0.4212264120578766,-1.1136823892593384,4,5346.0,5.673518657684326,-61,9844.0
12510,0.4208064675331116,0.4487047493457794,34,5346.0,-2.3625645637512207,-101,9844.0
12520,0.42036858201026917,-0.059005506336688995,-12,5346.0,0.01446718629449606,2,9844.0
12530,0.4207025468349457,-1.712416172027588,-16,5346.0,2.4714324474334717,71,9844.0
12540,0.4202909767627716,0.7264013886451721,29,5346.0,-3.6003074645996094,36,9844.0
12550,0.4198853671550751,1.6113300323486328,28,5346.0,-6.014888286590576,-47,9844.0
12560,0.4194874167442322,1.76911461353302,15,5346.0,-1.5361154079437256,68,9844.0
12570,0.4191260039806366,-0.6487101316452026,-29,5346.0,6.088343620300293,139,9844.0
12580,0.42085152864456177,-0.8721914887428284,2,5346.0,3.466203212738037,32,9844.0
12590,0.4206063449382782,-2.708489418029785,-33,5346.0,7.249150276184082,103,9844.0
12600,0.4203609526157379,-4.042717456817627,-4,5346.0,10.288905143737793,156,9844.0
12610,0.42010262608528137,-3.272383213043213,-49,5346.0,8.005663871765137,75,9844.0
12620,0.42105066776275635,-3.229236125946045,-59,5346.0,4.610687255859375,87,9844.0
12630,0.420791357755661,-2.6995253562927246,-34,5346.0,4.074817180633545,136,9844.0
12640,0.42051875591278076,-1.5494050979614258,-14,5346.0,0.5774911046028137,106,9844.0
12650,0.4202554523944855,1.6493401527404785,13,5346.0,-0.06335142999887466,11,9844.0
12660,0.42003655433654785,0.9977812170982361,-5,5346.0,-3.2499642372131348,68,9844.0
12670,0.42070040106773376,0.6372782588005066,-5,5346.0,-6.480762481689453,49,9844.0
12680,0.420556902885437,0.02416941337287426,22,5346.0,-4.468050003051758,-104,9844.0
12690,0.42043471336364746,2.0469741821289062,69,5346.0,-3.462244749069214,-139,9844.0
12700,0.42029672861099243,0.7915502786636353,21,5346.0,0.983975887298584,-64,9844.0
12710,0.42085403203964233,-0.04633290693163872,31,5346.0,0.45248907804489136,-50,9844.0
12720,0.42074671387672424,-0.5153049230575562,-8,5346.0,2.177276611328125,-15,9844.0
12730,0.42067915201187134,-2.857454776763916,-43,5346.0,2.479670524597168,101,9844.0
12740,0.4206116199493408,-2.3469183444976807,-13,5346.0,3.258549690246582,11,9844.0
12750,0.4196379780769348,-1.2023612260818481,-6,5346.0,0.054946418851614,37,9844.0
12760,0.41959747672080994,-0.13341955840587616,-9,5346.0,-1.2345714569091797,-34,9844.0
12770,0.41955694556236267,-0.7469266653060913,3,5346.0,-0.7750208973884583,-39,9844.0
12780,0.4195503890514374,0.01641838811337948,21,5346.0,-0.9166778326034546,-77,9844.0
12790,0.41947975754737854,3.033397674560547,72,5346.0,1.8424699306488037,-23,9844.0
12800,0.42000511288642883,3.533003807067871,80,5346.0,-0.25766685605049133,-100,9844.0
12810,0.419879287481308,3.6703062057495117,60,5346.0,4.950732231140137,33,9844.0
12820,0.419699490070343,3.999547243118286,66,5346.0,0.8027886152267456,50,9844.0
12830,0.41947200894355774,3.7979445457458496,53,5346.0,1.5943001508712769,139,9844.0
12840,0.4210106134414673,0.5178465843200684,-7,5346.0,2.776547908782959,154,9844.0
12850,0.42078763246536255,0.7058684229850769,-11,5346.0,-3.6135647296905518,-4,9844.0
12860,0.4205564260482788,-0.48718106746673584,6,5346.0,-1.3344266414642334,-79,9844.0
12870,0.4203287363052368,-0.6883664727210999,-10,5346.0,-0.40663382411003113,-96,9844.0
12880,0.42010298371315,-0.6389553546905518,-18,5346.0,0.6954939961433411,-123,9844.0
12890,0.42111217975616455,-2.0544545650482178,3,5346.0,-0.7675742506980896,-23,9844.0
12900,0.42094793915748596,0.05159292370080948,32,5346.0,-0.7117919921875,-28,9844.0
12910,0.4207800626754761,0.028332959860563278,24,5346.0,5.1762495040893555,114,9844.0
12920,0.42057332396507263,1.5570757389068604,-27,5346.0,3.9915950298309326,122,9844.0
12930,0.421353816986084,0.9658625721931458,-13,5346.0,2.3921241760253906,32,9844.0
12940,0.4211430251598358,1.1480200290679932,-5,5346.0,4.321088790893555,56,9844.0
12950,0.420939177274704,-0.5398176312446594,0,5346.0,3.763991594314575,25,9844.0
12960,0.4207251965999603,-1.4266209602355957,31,5346.0,5.782017707824707,-2,9844.0
12970,0.42032960057258606,-2.5706329345703125,7,5346.0,7.822071075439453,48,9844.0
12980,0.4201088845729828,-1.6364223957061768,-2,5346.0,0.5063937306404114,-49,9844.0
12990,0.41988471150398254,1.03473699092865,52,5346.0,-0.24622087180614471,-52,9844.0
13000,0.4196493923664093,1.745124101638794,-14,5346.0,0.13300082087516785,48,9844.0
13010,0.41938862204551697,-2.612257242202759,-9,5346.0,3.907764196395874,124,9844.0
13020,0.4194525480270386,-2.7939863204956055,-29,5346.0,-0.8433427214622498,43,9844.0
13030,0.4191742241382599,-1.843222975730896,-44,5346.0,-6.955470085144043,66,9844.0
13040,0.41887205839157104,-3.6843202114105225,-26,5346.0,-1.180030345916748,18,9844.0
13050,0.41854938864707947,0.45466819405555725,7,5346.0,2.565117120742798,-5,9844.0
13060,0.41736939549446106,1.2471705675125122,-10,5346.0,-1.129726767539978,-38,9844.0
13070,0.41695132851600647,-0.06618693470954895,16,5346.0,2.7698118686676025,-75,9844.0
13080,0.41650018095970154,0.8710222244262695,33,5346.0,2.407853364944458,61,9844.0
13090,0.41601720452308655,0.6568619012832642,35,5346.0,4.795804500579834,66,9844.0
13100,0.4155128300189972,-0.6510306000709534,3,5346.0,4.194694519042969,169,9844.0
13110,0.4158031940460205,0.3552091717720032,-31,5346.0,4.033369064331055,133,9844.0
13120,0.41534510254859924,-0.32877668738365173,-24,5346.0,-2.833588123321533,33,9844.0
13130,0.4148888885974884,0.7337316870689392,4,5346.0,-6.089017868041992,-130,9844.0
13140,0.4144311249256134,-0.23135235905647278,-39,5346.0,0.2981339991092682,29,9844.0
13150,0.4147500693798065,1.5382992029190063,-3,5346.0,-1.255626916885376,-79,9844.0
13160,0.41431891918182373,-0.6192965507507324,10,5346.0,-0.5760525465011597,-123,9844.0
13170,0.4138897657394409,-0.6912586688995361,9,5346.0,-1.294783592224121,-173,9844.0
13180,0.413458913564682,0.4904322326183319,16,5346.0,0.7357902526855469,-65,9844.0
13190,0.41301414370536804,-2.4292044639587402,28,5346.0,2.6287436485290527,-35,9844.0
13200,0.41257455945014954,-1.019336223602295,19,5346.0,3.472442150115967,-79,9844.0
13210,0.412151575088501,-1.5918045043945312,21,5346.0,0.14868652820587158,-60,9844.0
13220,0.41174784302711487,-1.5455564260482788,4,5346.0,0.9315037727355957,70,9844.0
13230,0.41136911511421204,-2.2566447257995605,-44,5346.0,4.768365383148193,35,9844.0
13240,0.4130136966705322,0.8641828894615173,-19,5346.0,-0.6373315453529358,33,9844.0
13250,0.4127521216869354,-2.682384967803955,-57,5346.0,3.786659002304077,61,9844.0
13260,0.41249409317970276,1.8918135166168213,-29,5346.0,0.5222933888435364,-7,9844.0
13270,0.4122491776943207,1.752199411392212,-14,5346.0,-3.1198792457580566,-59,9844.0
13280,0.41276392340660095,-0.09512896835803986,-27,5346.0,-1.4170875549316406,-105,9844.0
13290,0.41252097487449646,-1.2578226327896118,33,5346.0,2.500208616256714,-47,9844.0
13300,0.41226866841316223,0.49126332998275757,34,5346.0,2.678241491317749,10,9844.0
13310,0.4119825065135956,0.9277412295341492,-14,5346.0,3.5098395347595215,-14,9844.0
13320,0.41165098547935486,1.2138129472732544,14,5346.0,0.720602810382843,49,9844.0
13330,0.4107722342014313,-0.48689189553260803,10,5346.0,0.575606107711792,104,9844.0
13340,0.4103894829750061,-0.5759267807006836,-27,5346.0,3.2392868995666504,104,9844.0
13350,0.41001760959625244,1.9783077239990234,-21,5346.0,-1.0604037046432495,35,9844.0
13360,0.4096909761428833,0.7830228805541992,-21,5346.0,-1.8967434167861938,-11,9844.0
13370,0.40925168991088867,-2.1567890644073486,-14,5346.0,0.061678141355514526,-120,9844.0
13380,0.4089944064617157,-2.0940330028533936,-32,5346.0,-1.9263263940811157,-94,9844.0
13390,0.4087786376476288,2.192784070968628,41,5346.0,-3.358879804611206,-153,9844.0
13400,0.40859830379486084,0.6261361837387085,20,5346.0,-4.593945503234863,-99,9844.0
13410,0.40974128246307373,-0.517649233341217,31,5346.0,-4.506172180175781,-119,9844.0
13420,0.4095838665962219,0.4287777543067932,34,5346.0,-2.262755870819092,-20,9844.0
13430,0.4093848764896393,1.7761573791503906,15,5346.0,1.2555454969406128,82,9844.0
13440,0.4091632068157196,1.4785219430923462,46,5346.0,0.34330254793167114,88,9844.0
13450,0.40892234444618225,3.8887040615081787,49,5346.0,-1.6258375644683838,102,9844.0
13460,0.40918850898742676,5.522068500518799,24,5346.0,-5.20043420791626,74,9844.0
13470,0.40896493196487427,0.8815015554428101,25,5346.0,-1.3993933200836182,4,9844.0
13480,0.40875545144081116,2.133615493774414,11,5346.0,-3.2182350158691406,-91,9844.0
13490,0.40853631496429443,-1.3061771392822266,-11,5346.0,-1.582505702972412,-138,9844.0
13500,0.4093181788921356,-2.2943060398101807,-57,5346.0,1.8742376565933228,5,9844.0
13510,0.4091137945652008,-2.2719082832336426,-34,5346.0,-0.8203046321868896,-61,9844.0
13520,0.4088992178440094,-1.53253972530365,-47,5346.0,-2.8520288467407227,66,9844.0
13530,0.4086737632751465,-4.168668270111084,-102,5346.0,0.4189557731151581,89,9844.0
13540,0.4084767997264862,-4.049694061279297,-99,5346.0,2.639944553375244,148,9844.0
13550,0.40886619687080383,-2.0024542808532715,-6,5346.0,6.550655364990234,113,9844.0
13560,0.40872612595558167,3.3699140548706055,54,5346.0,1.637490153312683,46,9844.0
13570,0.40860581398010254,3.3804681301116943,31,5346.0,2.5974013805389404,-11,9844.0
13580,0.4085683226585388,4.088655471801758,85,5346.0,-0.19362741708755493,-146,9844.0
13590,0.4098328948020935,3.929608106613159,114,5346.0,-0.8663828372955322,-81,9844.0
13600,0.4097355604171753,2.56604266166687,121,5346.0,-4.150331974029541,-173,9844.0
13610,0.4096078872680664,1.8289896249771118,41,5346.0,-0.7790414094924927,-17,9844.0
13620,0.409456342458725,1.3018752336502075,-1,5346.0,0.3628813922405243,22,9844.0
13630,0.4095458686351776,1.7818224430084229,-30,5346.0,-3.2307190895080566,-8,9844.0
13640,0.4093453288078308,0.880003035068512,-4,5346.0,-5.226737022399902,1,9844.0
13650,0.4091200530529022,0.8748664855957031,39,5346.0,-6.798680782318115,-15,9844.0
13660,0.4088507294654846,0.8824608325958252,-4,5346.0,-0.4246273338794708,33,9844.0
13670,0.4085736870765686,1.620253562927246,48,5346.0,-0.8901129364967346,-48,9844.0
13680,0.4077650010585785,2.530578136444092,61,5346.0,-1.0454539060592651,24,9844.0
13690,0.4074249565601349,1.0362409353256226,46,5346.0,6.643966197967529,81,9844.0
13700,0.4070896804332733,1.6106685400009155,47,5346.0,3.5812501907348633,13,9844.0
13710,0.40677085518836975,-0.1656176894903183,-29,5346.0,4.7110514640808105,109,9844.0
13720,0.40779373049736023,-1.3270131349563599,-60,5346.0,3.9229378700256348,154,9844.0
13730,0.4074886441230774,-2.502274513244629,-46,5346.0,1.4523121118545532,46,9844.0
13740,0.4071597158908844,-2.58359956741333,-100,5346.0,1.00728178024292,131,9844.0
13750,0.40682947635650635,-1.4808306694030762,-27,5346.0,-0.4015311002731323,-35,9844.0
13760,0.40651386976242065,-0.6163784265518188,-1,5346.0,-1.8285906314849854,-78,9844.0
13770,0.40677863359451294,-0.8409351110458374,55,5346.0,-2.3102755546569824,-111,9844.0
13780,0.40652164816856384,1.829417109489441,43,5346.0,2.2453324794769287,1,9844.0
13790,0.406278520822525,2.3608663082122803,45,5346.0,0.3096993565559387,-84,9844.0
13800,0.4060308337211609,-0.46586179733276367,-17,5346.0,3.1063332557678223,-15,9844.0
13810,0.4066462814807892,1.3496323823928833,-4,5346.0,-1.5170938968658447,13,9844.0
13820,0.4063779413700104,2.003708839416504,14,5346.0,-2.8628733158111572,118,9844.0
13830,0.4060843586921692,1.3924436569213867,31,5346.0,0.5605087876319885,103,9844.0
13840,0.40576598048210144,1.438369870185852,-17,5346.0,-2.88706111907959,-49,9844.0
13850,0.4052668511867523,1.1368608474731445,-11,5346.0,1.8836913108825684,51,9844.0
13860,0.404928982257843,-0.9513137936592102,-24,5346.0,3.7687222957611084,92,9844.0
13870,0.40462160110473633,-0.32696330547332764,40,5346.0,-1.2390214204788208,-155,9844.0
13880,0.40435299277305603,-0.7652177810668945,7,5346.0,1.58799409866333,-66,9844.0
13890,0.4041239619255066,-0.15316905081272125,-9,5346.0,2.687455654144287,-43,9844.0
13900,0.405545711517334,-1.0299066305160522,9,5346.0,1.0022515058517456,-75,9844.0
13910,0.4053446352481842,0.01715635135769844,49,5346.0,0.6307965517044067,-100,9844.0
13920,0.4051012098789215,0.8208539485931396,2,5346.0,3.3018181324005127,94,9844.0
13930,0.4048141539096832,1.028008222579956,-5,5346.0,5.498824119567871,155,9844.0
13940,0.4046831429004669,-0.28634706139564514,-23,5346.0,3.444316864013672,93,9844.0
13950,0.40432900190353394,-2.0681540966033936,-70,5346.0,3.363102912902832,145,9844.0
13960,0.40396106243133545,-1.9248372316360474,-53,5346.0,3.552137613296509,113,9844.0
13970,0.40357568860054016,-2.578218460083008,3,5346.0,4.750168800354004,66,9844.0
13980,0.40320178866386414,-2.591259717941284,-9,5346.0,2.1319358348846436,76,9844.0
13990,0.4027685821056366,-1.507889986038208,-45,5346.0,2.7326138019561768,11,9844.0
14000,0.4024016559123993,-1.1722551584243774,9,5346.0,1.6109057664871216,-54,9844.0
14010,0.4020218849182129,1.2465335130691528,31,5346.0,0.2627904713153839,31,9844.0
14020,0.4016133248806,0.7786200046539307,4,5346.0,-2.1391050815582275,18,9844.0
14030,0.4003099203109741,0.42271366715431213,-10,5346.0,0.2311849445104599,68,9844.0
14040,0.3997993469238281,0.8978976011276245,0,5346.0,0.9749037623405457,84,9844.0
14050,0.3992690145969391,-1.4901362657546997,-4,5346.0,1.1475353240966797,86,9844.0
14060,0.398709774017334,1.240206003189087,-38,5346.0,-2.7971341609954834,107,9844.0
14070,0.39846497774124146,-0.33266299962997437,5,5346.0,3.3960397243499756,91,9844.0
14080,0.3978954255580902,-0.42513686418533325,-9,5346.0,4.461573600769043,116,9844.0
14090,0.39733222126960754,1.3643232583999634,7,5346.0,-0.6376215815544128,-70,9844.0
14100,0.3967527449131012,-2.494382858276367,-13,5346.0,-0.43657103180885315,-70,9844.0
14110,0.39615949988365173,-1.641784906387329,6,5346.0,-4.260441780090332,-97,9844.0
14120,0.39770403504371643,-2.3894965648651123,-12,5346.0,-0.7199214100837708,-133,9844.0
14130,0.3971937894821167,-1.856065034866333,4,5346.0,2.657351493835449,-72,9844.0
14140,0.3966718018054962,-2.3932807445526123,-15,5346.0,0.3894592821598053,-27,9844.0
14150,0.39611977338790894,-0.623698890209198,7,5346.0,-0.7414416670799255,-32,9844.0
14160,0.39571699500083923,-1.5177797079086304,4,5346.0,1.0311304330825806,31,9844.0
14170,0.3951288163661957,-0.5989317297935486,1,5346.0,-1.563814640045166,82,9844.0
14180,0.3944944441318512,-1.52217698097229,11,5346.0,3.356092929840088,73,9844.0
14190,0.39383918046951294,-1.7869422435760498,-33,5346.0,3.2682976722717285,87,9844.0
14200,0.3932216465473175,-1.0367987155914307,-26,5346.0,-3.0545272827148438,-34,9844.0
