timestamp,kalman.stateZ,gyro.x,gyro.xRaw,gyro.xVariance,gyro.y,gyro.yRaw,gyro.yVariance
0,0.28707659244537354,0.47265514731407166,13,5346.0,0.4954904615879059,6,9844.0
10,0.2871367335319519,0.20505373179912567,-2,5346.0,0.6141669154167175,1,9844.0
20,0.2872101068496704,-0.6642267107963562,-5,5346.0,0.8021764159202576,9,9844.0
30,0.2872784435749054,-0.9896886348724365,-19,5346.0,0.2773014008998871,11,9844.0
40,0.28639551997184753,-1.1790902614593506,-17,5346.0,0.4487494230270386,12,9844.0
50,0.28643327951431274,-1.4895615577697754,-22,5346.0,0.3454382121562958,0,9844.0
60,0.28648898005485535,-1.1906059980392456,-10,5346.0,0.7152904868125916,10,9844.0
70,0.2865367531776428,0.04682287201285362,-1,5346.0,1.0275434255599976,24,9844.0
80,0.28666216135025024,0.9674941301345825,20,5346.0,1.1098971366882324,21,9844.0
90,0.28670498728752136,1.696812629699707,30,5346.0,1.1589869260787964,19,9844.0
100,0.28673824667930603,2.011544942855835,38,5346.0,1.4998687505722046,31,9844.0
110,0.2867640256881714,1.0671497583389282,16,5346.0,1.5169776678085327,23,9844.0
120,0.2867923974990845,0.13367947936058044,-3,5346.0,1.056585431098938,20,9844.0
130,0.2860155701637268,-0.9320386052131653,-15,5346.0,1.03925621509552,17,9844.0
140,0.28602439165115356,-2.0331714153289795,-33,5346.0,1.1947767734527588,16,9844.0
150,0.28604453802108765,-1.9807718992233276,-33,5346.0,0.8261640071868896,17,9844.0
160,0.2860749363899231,-1.977364182472229,-29,5346.0,1.3019975423812866,19,9844.0
170,0.2867507040500641,-1.463971495628357,-16,5346.0,1.2250158786773682,19,9844.0
180,0.2868354618549347,-0.8098249435424805,-8,5346.0,1.3130866289138794,15,9844.0
190,0.2868831157684326,0.5164586901664734,11,5346.0,0.5124182105064392,5,9844.0
200,0.2869502604007721,-0.5527123212814331,-11,5346.0,-1.4255350828170776,-45,9844.0
210,0.28706663846969604,3.575814962387085,46,5346.0,-7.702389240264893,-204,9844.0
220,0.2863316237926483,4.011961460113525,84,5346.0,-23.418851852416992,-459,9844.0
230,0.2864774465560913,2.714874744415283,111,5346.0,-38.58243179321289,-777,9844.0
240,0.2866339087486267,5.168744087219238,108,5346.0,-62.430320739746094,-1128,9844.0
250,0.2869204878807068,10.82835578918457,155,5346.0,-82.95144653320312,-1462,9844.0
260,0.28588083386421204,7.477477073669434,32,5346.0,-104.62671661376953,-1853,9844.0
270,0.28582853078842163,1.6440461874008179,134,5346.0,-116.3193359375,-1870,9844.0
280,0.28511345386505127,5.037931442260742,41,5346.0,-114.5013198852539,-1895,9844.0
290,0.2847984731197357,2.3393421173095703,82,5346.0,-103.76970672607422,-1700,9844.0
300,0.2844635844230652,2.7551491260528564,42,5346.0,-82.49739837646484,-1247,9844.0
310,0.2841627299785614,1.1514027118682861,134,5346.0,-52.480690002441406,-719,9844.0
320,0.28346651792526245,1.5046577453613281,-19,5346.0,-22.53660774230957,-199,9844.0
330,0.28391018509864807,2.9607982635498047,62,5346.0,4.578532695770264,171,9844.0
340,0.284074604511261,2.521892786026001,69,5346.0,21.761390686035156,487,9844.0
350,0.2868019640445709,4.820984363555908,-36,5346.0,26.60616111755371,564,9844.0
360,0.2869842052459717,5.292583465576172,83,5346.0,21.240779876708984,437,9844.0
370,0.2872532606124878,6.936774253845215,63,5346.0,8.333771705627441,116,9844.0
380,0.28742319345474243,4.526318550109863,119,5346.0,-7.289682388305664,-295,9844.0
390,0.2889150381088257,1.9501680135726929,97,5346.0,-20.36641502380371,-496,9844.0
400,0.28921282291412354,3.491157293319702,133,5346.0,-34.06177520751953,-551,9844.0
410,0.28932318091392517,1.803191065788269,49,5346.0,-39.19981384277344,-670,9844.0
420,0.2896955609321594,-0.30899885296821594,-114,5346.0,-39.70585250854492,-484,9844.0
430,0.28956419229507446,-3.263603925704956,-132,5346.0,-34.331748962402344,-408,9844.0
440,0.29146599769592285,1.038419246673584,-16,5346.0,-24.618144989013672,-349,9844.0
450,0.2917853891849518,-0.5132185220718384,-79,5346.0,-12.796335220336914,-199,9844.0
460,0.29193323850631714,-5.5693488121032715,-119,5346.0,11.21573543548584,112,9844.0
470,0.292721152305603,-6.68941593170166,-59,5346.0,23.810924530029297,386,9844.0
480,0.29565054178237915,-3.6847314834594727,55,5346.0,35.18558883666992,593,9844.0
490,0.2967413365840912,-7.836319923400879,-60,5346.0,43.89825439453125,544,9844.0
500,0.2964954078197479,-7.7988505363464355,-33,5346.0,49.30339813232422,794,9844.0
510,0.2978523373603821,-3.163811683654785,97,5346.0,43.00408172607422,784,9844.0
520,0.29903557896614075,-1.008156657218933,-26,5346.0,41.904693603515625,708,9844.0
530,0.3001856207847595,-1.3413928747177124,-128,5346.0,33.183841705322266,719,9844.0
540,0.30131763219833374,-2.1681694984436035,-71,5346.0,35.463321685791016,573,9844.0
550,0.3020590841770172,0.6235335469245911,-18,5346.0,28.0207462310791,288,9844.0
560,0.30350375175476074,-0.28350120782852173,22,5346.0,26.98173713684082,421,9844.0
570,0.3059457838535309,1.1130573749542236,99,5346.0,22.10542106628418,356,9844.0
580,0.3074796795845032,2.901233196258545,-1,5346.0,21.369291305541992,322,9844.0
590,0.3092133402824402,3.3709113597869873,53,5346.0,16.621278762817383,394,9844.0
600,0.31094634532928467,1.7481558322906494,35,5346.0,19.927282333374023,391,9844.0
610,0.3141424357891083,6.992551326751709,6,5346.0,13.94701099395752,170,9844.0
620,0.31595128774642944,5.40065336227417,111,5346.0,13.190994262695312,142,9844.0
630,0.31777387857437134,6.281376838684082,201,5346.0,9.58054256439209,-39,9844.0
640,0.31950661540031433,6.06137228012085,109,5346.0,3.3163888454437256,3,9844.0
650,0.32294487953186035,6.946399688720703,226,5346.0,-2.3343122005462646,-101,9844.0
660,0.3245870769023895,5.96238899230957,88,5346.0,-6.321381092071533,-177,9844.0
670,0.3261066675186157,5.268578052520752,58,5346.0,-11.748261451721191,-77,9844.0
680,0.3274710178375244,2.9018900394439697,140,5346.0,-9.323073387145996,-195,9844.0
690,0.32871705293655396,6.24674654006958,41,5346.0,-7.521629333496094,-111,9844.0
700,0.33066877722740173,4.217443943023682,69,5346.0,-11.316210746765137,-82,9844.0
710,0.33169159293174744,4.551641464233398,46,5346.0,-9.504064559936523,-95,9844.0
720,0.3326302766799927,3.8189215660095215,-9,5346.0,-5.278173446655273,-50,9844.0
730,0.333415150642395,1.9610888957977295,2,5346.0,-8.22087287902832,61,9844.0
740,0.3339794874191284,3.6795616149902344,-13,5346.0,-6.394748210906982,-53,9844.0
750,0.33449292182922363,5.777309417724609,-5,5346.0,-4.1443190574646,-43,9844.0
760,0.3348056674003601,0.6786361336708069,-25,5346.0,-9.230265617370605,68,9844.0
770,0.33498090505599976,-2.626136541366577,-133,5346.0,-8.833369255065918,-88,9844.0
780,0.3350541591644287,-2.5059921741485596,-167,5346.0,-12.218578338623047,-165,9844.0
790,0.33405691385269165,-5.576162338256836,-118,5346.0,-12.661087036132812,34,9844.0
800,0.3337528109550476,-7.551358222961426,-184,5346.0,-14.61375617980957,-154,9844.0
810,0.333339661359787,-5.63065242767334,-196,5346.0,-15.539376258850098,-156,9844.0
820,0.3328613042831421,-9.416167259216309,-193,5346.0,-12.086821556091309,-71,9844.0
830,0.32920706272125244,-5.6214799880981445,-132,5346.0,-13.225481033325195,-142,9844.0
840,0.328342467546463,-3.694927930831909,-140,5346.0,-15.229310989379883,-248,9844.0
850,0.3276105225086212,-2.5029184818267822,-111,5346.0,-15.092867851257324,-64,9844.0
860,0.32677504420280457,-2.860525608062744,-77,5346.0,-15.243480682373047,-386,9844.0
870,0.32510605454444885,-2.6723060607910156,-79,5346.0,-14.84309196472168,-369,9844.0
880,0.3242822587490082,-1.0267761945724487,-7,5346.0,-20.28258514404297,-372,9844.0
890,0.32348310947418213,-3.8131322860717773,104,5346.0,-18.3134765625,-377,9844.0
900,0.3226693570613861,-5.10652494430542,-26,5346.0,-13.982870101928711,-345,9844.0
910,0.32178664207458496,-5.473135948181152,-121,5346.0,-18.002220153808594,-10,9844.0
920,0.32066503167152405,-10.369792938232422,-115,5346.0,-9.557479858398438,-12,9844.0
930,0.3197953701019287,-4.6611127853393555,-79,5346.0,-16.24309730529785,-264,9844.0
940,0.31885239481925964,1.6940193176269531,-40,5346.0,-23.175159454345703,-351,9844.0
950,0.3180481493473053,1.401167869567871,39,5346.0,-14.606330871582031,-272,9844.0
960,0.31681737303733826,1.748520016670227,133,5346.0,-19.448781967163086,-383,9844.0
970,0.31622856855392456,0.9250988364219666,-17,5346.0,-18.473316192626953,-217,9844.0
980,0.31568440794944763,0.23560599982738495,-55,5346.0,-12.855426788330078,-171,9844.0
990,0.31501948833465576,1.3933483362197876,18,5346.0,-7.07844352722168,-256,9844.0
1000,0.3145145773887634,4.855461120605469,152,5346.0,-3.8897461891174316,-222,9844.0
1010,0.3155401349067688,7.41554069519043,220,5346.0,-9.115843772888184,-200,9844.0
1020,0.3153318762779236,10.257804870605469,95,5346.0,-16.84975814819336,-171,9844.0
1030,0.3153654634952545,8.450675964355469,57,5346.0,-11.308571815490723,-317,9844.0
1040,0.31534281373023987,0.6187481880187988,39,5346.0,-18.176025390625,-345,9844.0
1050,0.3145923912525177,-0.7234965562820435,23,5346.0,-19.52322006225586,-264,9844.0
1060,0.3144124150276184,-5.9712815284729,-10,5346.0,-14.983885765075684,-87,9844.0
1070,0.314283549785614,-7.364941596984863,-161,5346.0,-11.920504570007324,-80,9844.0
1080,0.3145170211791992,-7.432884216308594,-169,5346.0,-6.351672649383545,-61,9844.0
1090,0.3127047121524811,-2.2352545261383057,-140,5346.0,-1.2505074739456177,-94,9844.0
1100,0.3126443326473236,-0.08450357615947723,71,5346.0,3.82999324798584,-8,9844.0
1110,0.3126457929611206,5.497270584106445,170,5346.0,4.469423294067383,141,9844.0
1120,0.3127162456512451,8.163419723510742,202,5346.0,8.233399391174316,203,9844.0
1130,0.31275632977485657,11.226165771484375,140,5346.0,6.656670093536377,246,9844.0
1140,0.31165435910224915,12.145577430725098,85,5346.0,9.440134048461914,225,9844.0
1150,0.3117792308330536,3.977832555770874,5,5346.0,10.682564735412598,16,9844.0
1160,0.31179946660995483,-6.248985767364502,-77,5346.0,5.326913356781006,38,9844.0
1170,0.31209948658943176,-11.999985694885254,-235,5346.0,13.789649963378906,300,9844.0
1180,0.31287381052970886,-14.572068214416504,-287,5346.0,16.468692779541016,408,9844.0
1190,0.3130306303501129,-12.39428997039795,-228,5346.0,12.26797103881836,348,9844.0
1200,0.3130873143672943,-8.67197036743164,-43,5346.0,10.995758056640625,160,9844.0
1210,0.31322968006134033,-4.194099426269531,-51,5346.0,11.239562034606934,11,9844.0
1220,0.31378310918807983,-3.7512857913970947,-14,5346.0,8.676980018615723,215,9844.0
1230,0.3161660432815552,-2.66926646232605,-132,5346.0,18.369314193725586,408,9844.0
1240,0.31654036045074463,0.5455797910690308,-51,5346.0,16.15396499633789,403,9844.0
1250,0.31701406836509705,-0.1352248340845108,103,5346.0,18.638429641723633,267,9844.0
1260,0.31759780645370483,3.712815523147583,190,5346.0,20.943273544311523,231,9844.0
1270,0.3194473385810852,8.08263874053955,176,5346.0,15.5396728515625,193,9844.0
1280,0.320156067609787,7.893819332122803,15,5346.0,14.893802642822266,323,9844.0
1290,0.3206539452075958,7.542043685913086,45,5346.0,10.879268646240234,202,9844.0
1300,0.32133278250694275,6.043166160583496,153,5346.0,9.724798202514648,257,9844.0
1310,0.3230665624141693,6.2260637283325195,185,5346.0,10.119318008422852,118,9844.0
1320,0.3235286474227905,5.654633045196533,64,5346.0,8.831572532653809,197,9844.0
1330,0.32401764392852783,8.824953079223633,35,5346.0,0.8553810119628906,145,9844.0
1340,0.324453204870224,4.368964672088623,-17,5346.0,9.370140075683594,146,9844.0
1350,0.32478752732276917,4.663340091705322,154,5346.0,2.9153099060058594,-53,9844.0
1360,0.32756370306015015,3.3942811489105225,177,5346.0,8.942514419555664,123,9844.0
1370,0.3280595541000366,1.8859587907791138,116,5346.0,3.6101534366607666,76,9844.0
1380,0.3285217881202698,-0.7242658734321594,-119,5346.0,5.002971172332764,156,9844.0
1390,0.3289291262626648,0.9816738963127136,-127,5346.0,3.3553597927093506,120,9844.0
1400,0.3295948803424835,-1.5460902452468872,-96,5346.0,6.641641139984131,155,9844.0
1410,0.32978007197380066,0.5951062440872192,84,5346.0,6.978926658630371,29,9844.0
1420,0.32994571328163147,1.5109513998031616,128,5346.0,9.125897407531738,8,9844.0
1430,0.32998451590538025,2.037468433380127,82,5346.0,5.65167760848999,-3,9844.0
1440,0.3314797878265381,2.3923568725585938,-8,5346.0,3.1256048679351807,133,9844.0
1450,0.33133596181869507,1.2302300930023193,20,5346.0,1.346755862236023,174,9844.0
1460,0.3311716914176941,-0.22705823183059692,-63,5346.0,3.5052895545959473,147,9844.0
1470,0.33099234104156494,-0.6345773935317993,-103,5346.0,5.082714557647705,48,9844.0
1480,0.33085015416145325,0.4061536192893982,-60,5346.0,-5.686515808105469,-4,9844.0
1490,0.33196449279785156,-0.6870704889297485,14,5346.0,-6.353196144104004,-53,9844.0
1500,0.3318723142147064,-2.350116491317749,13,5346.0,-2.3923254013061523,-228,9844.0
1510,0.33172547817230225,-6.38719367980957,-66,5346.0,-5.767056465148926,-282,9844.0
1520,0.3314811587333679,-7.156030178070068,-58,5346.0,-3.564387798309326,-80,9844.0
1530,0.33233875036239624,-7.220949172973633,45,5346.0,-0.1037212535738945,-76,9844.0
1540,0.3320480287075043,-2.8316397666931152,2,5346.0,-8.61567497253418,-135,9844.0
1550,0.3316672146320343,-0.6952772736549377,-187,5346.0,-8.288164138793945,-76,9844.0
1560,0.33129802346229553,-2.968975782394409,-105,5346.0,-1.0650438070297241,67,9844.0
1570,0.33100852370262146,-3.703007936477661,-59,5346.0,-4.207647323608398,0,9844.0
1580,0.3306846618652344,-2.649791717529297,-44,5346.0,-7.548315525054932,-259,9844.0
1590,0.3303251266479492,-3.5713038444519043,-14,5346.0,-2.0508930683135986,-271,9844.0
1600,0.32995426654815674,-1.9859673976898193,54,5346.0,-5.622753620147705,-70,9844.0
1610,0.32965317368507385,0.44844284653663635,102,5346.0,-6.190986156463623,-235,9844.0
1620,0.32909438014030457,2.3487911224365234,-36,5346.0,-12.115471839904785,-69,9844.0
1630,0.328792929649353,4.269032001495361,-72,5346.0,-15.256189346313477,-153,9844.0
1640,0.3285883665084839,3.003434658050537,63,5346.0,-18.05105972290039,-145,9844.0
1650,0.3285004496574402,1.216383695602417,61,5346.0,-13.102551460266113,-297,9844.0
1660,0.3283955752849579,0.5728738903999329,34,5346.0,-17.014530181884766,-397,9844.0
1670,0.32810890674591064,-2.9824378490448,3,5346.0,-16.431922912597656,-4,9844.0
1680,0.32796552777290344,-3.1393303871154785,-92,5346.0,-9.353432655334473,-135,9844.0
1690,0.32794737815856934,-2.9549851417541504,-128,5346.0,-10.993887901306152,-102,9844.0
1700,0.32795706391334534,-1.6612931489944458,-49,5346.0,-2.8500747680664062,78,9844.0
1710,0.32550981640815735,0.4300072491168976,62,5346.0,-2.53298282623291,10,9844.0
1720,0.32527634501457214,2.5067765712738037,153,5346.0,2.1176416873931885,-75,9844.0
1730,0.3250025510787964,5.71034574508667,213,5346.0,-1.246772289276123,15,9844.0
1740,0.32472747564315796,6.528354167938232,82,5346.0,-4.761468410491943,-50,9844.0
1750,0.3242552578449249,3.091999053955078,-68,5346.0,-2.2877306938171387,57,9844.0
1760,0.32390162348747253,0.6498762369155884,-106,5346.0,-2.2047829627990723,-31,9844.0
1770,0.3236269950866699,-2.728609561920166,-1,5346.0,-0.17808391153812408,-58,9844.0
1780,0.323357492685318,-4.780806064605713,17,5346.0,-1.2887988090515137,-188,9844.0
1790,0.3230876326560974,-2.8197295665740967,33,5346.0,-3.7088961601257324,30,9844.0
1800,0.3223687410354614,-3.4601552486419678,-63,5346.0,-1.353751540184021,-69,9844.0
1810,0.32202160358428955,-1.264618992805481,-11,5346.0,-8.228949546813965,-107,9844.0
1820,0.321704626083374,1.5012691020965576,29,5346.0,-3.5587849617004395,-258,9844.0
1830,0.32156533002853394,-0.328437477350235,27,5346.0,0.6149246692657471,-55,9844.0
1840,0.3228223919868469,1.535378098487854,47,5346.0,3.133333206176758,39,9844.0
1850,0.32284313440322876,-0.46591147780418396,-17,5346.0,3.127782106399536,44,9844.0
1860,0.32278648018836975,-2.3211634159088135,-136,5346.0,9.560443878173828,271,9844.0
1870,0.32270848751068115,-6.92180871963501,-34,5346.0,8.976351737976074,92,9844.0
1880,0.32240957021713257,-5.418124198913574,-22,5346.0,9.890512466430664,113,9844.0
1890,0.32236379384994507,-4.522800922393799,13,5346.0,13.521053314208984,115,9844.0
1900,0.32226553559303284,-2.086559295654297,-125,5346.0,9.001895904541016,107,9844.0
1910,0.3221447169780731,1.9230858087539673,-65,5346.0,4.178333759307861,130,9844.0
1920,0.32206854224205017,3.4138295650482178,44,5346.0,0.7027087807655334,-26,9844.0
1930,0.322011798620224,3.865588665008545,224,5346.0,-1.0087677240371704,-72,9844.0
1940,0.32202157378196716,4.946774959564209,160,5346.0,-1.7987139225006104,22,9844.0
1950,0.32204702496528625,0.6235796213150024,-50,5346.0,-2.8478195667266846,-120,9844.0
1960,0.321993887424469,2.3594164848327637,-59,5346.0,-8.87965202331543,-101,9844.0
1970,0.32154738903045654,-1.2893049716949463,-29,5346.0,-3.383315324783325,-158,9844.0
1980,0.32147523760795593,-2.0043349266052246,13,5346.0,-0.759797990322113,7,9844.0
1990,0.3214668333530426,-0.3682126998901367,42,5346.0,0.050532836467027664,122,9844.0
2000,0.32146888971328735,-0.35258597135543823,20,5346.0,2.1536777019500732,213,9844.0
2010,0.3213904798030853,-2.3718700408935547,-126,5346.0,5.840742111206055,61,9844.0
2020,0.3231206238269806,-1.054323673248291,-113,5346.0,8.738929748535156,90,9844.0
2030,0.3231571316719055,-0.8378620147705078,-5,5346.0,11.766520500183105,-50,9844.0
2040,0.32313328981399536,1.233444094657898,113,5346.0,8.367070198059082,138,9844.0
2050,0.3230109214782715,3.9003043174743652,194,5346.0,6.858154773712158,61,9844.0
2060,0.32360219955444336,2.286863327026367,49,5346.0,5.583135604858398,170,9844.0
2070,0.32346558570861816,2.4525644779205322,-60,5346.0,5.982205390930176,60,9844.0
2080,0.32337525486946106,-0.5278849005699158,-97,5346.0,6.62014102935791,116,9844.0
2090,0.3232974112033844,-4.443703651428223,-93,5346.0,6.648684024810791,41,9844.0
2100,0.32385557889938354,-3.0096380710601807,56,5346.0,0.9295022487640381,-31,9844.0
2110,0.3236384689807892,-2.8229548931121826,-30,5346.0,2.5183212757110596,129,9844.0
2120,0.32344111800193787,-3.070416212081909,-148,5346.0,0.9434698224067688,51,9844.0
2130,0.3233117461204529,-2.9819324016571045,-170,5346.0,-1.4050748348236084,83,9844.0
2140,0.3231372535228729,-3.569401741027832,-105,5346.0,-0.40544643998146057,-15,9844.0
2150,0.3232439458370209,-3.593283176422119,2,5346.0,1.7480933666229248,-13,9844.0
2160,0.32300952076911926,0.8911888003349304,137,5346.0,2.283033609390259,-210,9844.0
2170,0.3228292465209961,0.529666543006897,143,5346.0,6.476408004760742,88,9844.0
2180,0.3226206600666046,6.616119384765625,45,5346.0,-1.4662234783172607,60,9844.0
2190,0.3234134018421173,6.127984523773193,76,5346.0,4.0644402503967285,171,9844.0
2200,0.32322442531585693,6.9680023193359375,118,5346.0,0.11455781012773514,48,9844.0
2210,0.3231452703475952,6.881393909454346,109,5346.0,3.7256383895874023,-47,9844.0
2220,0.3231232762336731,1.9523042440414429,76,5346.0,4.338478088378906,-61,9844.0
2230,0.3230222463607788,-1.9039515256881714,-21,5346.0,9.136256217956543,114,9844.0
2240,0.32490572333335876,0.3967481553554535,-2,5346.0,2.461078643798828,190,9844.0
2250,0.3249191343784332,-3.9758737087249756,-60,5346.0,-2.2055795192718506,97,9844.0
2260,0.3250187933444977,-0.5353047847747803,-113,5346.0,-7.863342761993408,-95,9844.0
2270,0.32509922981262207,-3.5485222339630127,-120,5346.0,-5.6048688888549805,-237,9844.0
2280,0.32539495825767517,-3.571805953979492,-20,5346.0,-7.363437652587891,-259,9844.0
2290,0.32527199387550354,-2.4684882164001465,28,5346.0,-11.920992851257324,-159,9844.0
2300,0.32517722249031067,-2.197511911392212,131,5346.0,-7.463098049163818,-80,9844.0
2310,0.325110524892807,-2.6183700561523438,-1,5346.0,-5.844598770141602,-210,9844.0
2320,0.3249923884868622,2.132479429244995,-29,5346.0,-6.718552112579346,29,9844.0
2330,0.3252473473548889,0.3480936586856842,-37,5346.0,1.7787643671035767,227,9844.0
2340,0.3252158463001251,-0.7051137089729309,-14,5346.0,5.430443286895752,176,9844.0
2350,0.3250870406627655,0.2413998544216156,-19,5346.0,5.952323913574219,9,9844.0
2360,0.3248497545719147,1.3472106456756592,73,5346.0,8.530961990356445,-125,9844.0
2370,0.32577142119407654,3.4838833808898926,85,5346.0,6.897858142852783,-25,9844.0
2380,0.32552120089530945,3.5003013610839844,108,5346.0,2.412429094314575,56,9844.0
2390,0.3252837657928467,2.249385356903076,103,5346.0,0.52576744556427,114,9844.0
2400,0.3249855637550354,0.7145868539810181,-60,5346.0,-1.4416613578796387,28,9844.0
2410,0.32678675651550293,-1.0267109870910645,-103,5346.0,-2.753688097000122,-60,9844.0
2420,0.326648473739624,-2.8256168365478516,-66,5346.0,-2.8637707233428955,-209,9844.0
2430,0.3265368342399597,-7.164700984954834,-106,5346.0,2.5125937461853027,-77,9844.0
2440,0.32637128233909607,-4.628855228424072,0,5346.0,-6.393032073974609,-72,9844.0
2450,0.3262040615081787,-4.298318862915039,-36,5346.0,-4.377490043640137,127,9844.0
2460,0.32719361782073975,-3.9915924072265625,-108,5346.0,-3.715765953063965,-20,9844.0
2470,0.32716915011405945,-0.5421735644340515,-92,5346.0,-1.7126619815826416,-80,9844.0
2480,0.32718437910079956,2.7828969955444336,23,5346.0,-0.5810360312461853,-201,9844.0
2490,0.3271283209323883,4.418148517608643,145,5346.0,3.995065212249756,-88,9844.0
2500,0.32657957077026367,6.49806022644043,219,5346.0,3.1920902729034424,26,9844.0
2510,0.32651185989379883,4.549038410186768,117,5346.0,-2.4627537727355957,43,9844.0
2520,0.32646140456199646,2.105071783065796,-59,5346.0,-1.510253667831421,17,9844.0
2530,0.326387494802475,0.6281875967979431,-56,5346.0,-2.4603099822998047,-2,9844.0
2540,0.32573115825653076,-2.4227936267852783,-105,5346.0,-4.488448619842529,-121,9844.0
2550,0.325560986995697,-7.03536319732666,-50,5346.0,-1.5763604640960693,6,9844.0
2560,0.3254339396953583,-7.472377777099609,-35,5346.0,1.6892670392990112,-42,9844.0
2570,0.32524967193603516,-8.178654670715332,-20,5346.0,-2.113685131072998,-101,9844.0
2580,0.3249562680721283,-5.75318717956543,-130,5346.0,-1.626089096069336,-14,9844.0
2590,0.32387644052505493,-1.7249479293823242,-141,5346.0,4.229948043823242,82,9844.0
2600,0.32358863949775696,2.121957302093506,23,5346.0,3.884814977645874,78,9844.0
2610,0.3232547640800476,5.5103631019592285,202,5346.0,2.4745354652404785,-6,9844.0
2620,0.3228265643119812,8.297345161437988,242,5346.0,3.6647017002105713,1,9844.0
2630,0.32323601841926575,9.123940467834473,137,5346.0,3.0137977600097656,41,9844.0
2640,0.3229212760925293,7.203807353973389,4,5346.0,-1.99289071559906,54,9844.0
2650,0.32264837622642517,5.247195720672607,0,5346.0,-1.4687646627426147,145,9844.0
2660,0.32231754064559937,0.40033698081970215,-46,5346.0,-1.3881903886795044,61,9844.0
2670,0.32190558314323425,-3.2069756984710693,46,5346.0,-0.9863930344581604,-138,9844.0
2680,0.3223688304424286,-4.629190921783447,-30,5346.0,-0.7164950966835022,-63,9844.0
2690,0.32210204005241394,-3.380302667617798,-79,5346.0,0.29388508200645447,-84,9844.0
2700,0.3218652307987213,-2.741330146789551,-133,5346.0,-2.5032033920288086,95,9844.0
2710,0.3215520679950714,-1.7323657274246216,-99,5346.0,-0.8470563888549805,97,9844.0
2720,0.32180193066596985,-3.7653157711029053,22,5346.0,0.3887085020542145,-14,9844.0
2730,0.3215610682964325,-0.6288954615592957,109,5346.0,2.0795810222625732,-83,9844.0
2740,0.32140403985977173,0.08376240730285645,128,5346.0,-0.5784822106361389,-104,9844.0
2750,0.32126373052597046,2.7272207736968994,-31,5346.0,-0.5909616947174072,101,9844.0
2760,0.32147660851478577,0.3602493107318878,-33,5346.0,2.7878916263580322,160,9844.0
2770,0.3213958740234375,-0.02694508247077465,-2,5346.0,-1.4508752822875977,115,9844.0
2780,0.32137876749038696,0.6303378343582153,49,5346.0,-4.3691020011901855,-109,9844.0
2790,0.3213913142681122,0.9238605499267578,93,5346.0,0.8559412360191345,-104,9844.0
2800,0.321341872215271,0.7078876495361328,16,5346.0,2.722803831100464,-33,9844.0
2810,0.32281437516212463,3.5803592205047607,-22,5346.0,-0.3744322955608368,99,9844.0
2820,0.32298022508621216,2.5372612476348877,-48,5346.0,-1.1352890729904175,231,9844.0
2830,0.3232294023036957,0.21752309799194336,-14,5346.0,-2.22296142578125,-5,9844.0
2840,0.3234739601612091,0.38402697443962097,-5,5346.0,-3.1609201431274414,-232,9844.0
2850,0.32267463207244873,-0.6617388129234314,5,5346.0,0.8406828045845032,-162,9844.0
2860,0.3228358030319214,-1.5760070085525513,33,5346.0,0.7666805982589722,-115,9844.0
2870,0.3230843245983124,0.15772134065628052,61,5346.0,-0.9284299612045288,66,9844.0
2880,0.32336899638175964,-3.0864779949188232,-21,5346.0,0.020541824400424957,116,9844.0
2890,0.3236701190471649,0.08888709545135498,-69,5346.0,-1.6798759698867798,36,9844.0
2900,0.32372140884399414,-0.8343633413314819,-87,5346.0,-0.2807028293609619,32,9844.0
2910,0.3240817189216614,-0.4658373296260834,-59,5346.0,2.452608585357666,23,9844.0
2920,0.32441070675849915,0.277785986661911,109,5346.0,2.832169771194458,23,9844.0
2930,0.32467177510261536,0.013326544314622879,110,5346.0,2.995314359664917,-70,9844.0
2940,0.3250657320022583,-0.5310245752334595,49,5346.0,4.209794521331787,103,9844.0
2950,0.3253602087497711,0.5199055671691895,-71,5346.0,6.48433780670166,139,9844.0
2960,0.3256213366985321,2.6930599212646484,-75,5346.0,3.2741827964782715,262,9844.0
2970,0.325766384601593,1.324106216430664,-55,5346.0,4.640107154846191,154,9844.0
2980,0.3259233832359314,1.7555618286132812,-113,5346.0,3.312135934829712,181,9844.0
2990,0.324924498796463,-0.5465665459632874,-43,5346.0,2.612912178039551,164,9844.0
3000,0.32510724663734436,-1.9615507125854492,-35,5346.0,1.2885910272598267,22,9844.0
3010,0.32527443766593933,-3.1720967292785645,13,5346.0,6.601741790771484,0,9844.0
3020,0.32547426223754883,-3.3099608421325684,-3,5346.0,4.013179302215576,-165,9844.0
3030,0.32467782497406006,-3.2093470096588135,-44,5346.0,-1.5487631559371948,1,9844.0
3040,0.32485875487327576,-1.8612768650054932,-24,5346.0,-1.1103023290634155,-31,9844.0
3050,0.3249548375606537,-1.1329532861709595,-9,5346.0,-2.790182590484619,128,9844.0
3060,0.32501745223999023,0.5186178684234619,-79,5346.0,2.7915689945220947,-20,9844.0
3070,0.324985146522522,1.4386659860610962,-70,5346.0,-0.3755938410758972,105,9844.0
3080,0.3248727023601532,0.6929610967636108,-40,5346.0,2.9035956859588623,21,9844.0
3090,0.324737012386322,0.9403845071792603,116,5346.0,2.293217897415161,-87,9844.0
3100,0.3246890902519226,1.4774127006530762,124,5346.0,-2.004544973373413,-210,9844.0
3110,0.32470858097076416,2.307131052017212,54,5346.0,-4.07912540435791,-138,9844.0
3120,0.3236030042171478,1.3996144533157349,8,5346.0,-2.524322032928467,-12,9844.0
3130,0.32354116439819336,2.9689178466796875,32,5346.0,-5.920457363128662,158,9844.0
3140,0.32348117232322693,-0.815680205821991,-49,5346.0,-2.885514497756958,26,9844.0
3150,0.3234007954597473,-0.3426540791988373,-72,5346.0,-3.6949880123138428,-9,9844.0
3160,0.3235182762145996,-0.9861338138580322,-87,5346.0,1.1175237894058228,-56,9844.0
3170,0.3235345780849457,-3.741511821746826,-27,5346.0,3.017380475997925,149,9844.0
3180,0.3236849904060364,-2.051480293273926,93,5346.0,-3.0549747943878174,-153,9844.0
3190,0.32377249002456665,-0.9777219891548157,140,5346.0,-0.7785208821296692,-168,9844.0
3200,0.32375672459602356,2.9232468605041504,16,5346.0,-3.567521572113037,-38,9844.0
3210,0.3229767680168152,3.128232002258301,-41,5346.0,-4.181124210357666,203,9844.0
3220,0.3228791058063507,-0.28463003039360046,-5,5346.0,-1.6571096181869507,29,9844.0
3230,0.3226828873157501,-0.4208308458328247,-15,5346.0,-2.4721834659576416,-19,9844.0
3240,0.3226936459541321,2.7272753715515137,3,5346.0,-2.3707938194274902,-139,9844.0
3250,0.3213287889957428,0.008147411979734898,30,5346.0,3.3163278102874756,-137,9844.0
3260,0.3213389813899994,-1.8630977869033813,72,5346.0,-8.160421371459961,-70,9844.0
3270,0.32114377617836,-0.9987237453460693,181,5346.0,-7.616678714752197,-108,9844.0
3280,0.32114318013191223,-2.781146287918091,-5,5346.0,-5.257630348205566,-63,9844.0
3290,0.32041046023368835,0.5902839303016663,-81,5346.0,-5.621412754058838,77,9844.0
3300,0.3204052150249481,0.9379380345344543,-72,5346.0,-3.1769657135009766,102,9844.0
3310,0.32041680812835693,0.8770095109939575,-1,5346.0,3.7454473972320557,187,9844.0
3320,0.3203471302986145,2.9168341159820557,41,5346.0,3.549877643585205,-23,9844.0
3330,0.320280522108078,3.1146819591522217,59,5346.0,5.685933589935303,-47,9844.0
3340,0.3182204067707062,0.6510490775108337,59,5346.0,1.5411297082901,-105,9844.0
3350,0.3181641697883606,-0.9611785411834717,58,5346.0,-0.24667057394981384,31,9844.0
3360,0.31790846586227417,-2.3207082748413086,67,5346.0,-1.8912996053695679,25,9844.0
3370,0.31792667508125305,-4.661498069763184,-84,5346.0,-2.6009535789489746,70,9844.0
3380,0.3156433403491974,-4.756472587585449,-208,5346.0,1.1946661472320557,64,9844.0
3390,0.31563884019851685,-2.6022300720214844,-123,5346.0,-4.547471046447754,-39,9844.0
3400,0.31515324115753174,-1.7557525634765625,-18,5346.0,-1.3437349796295166,-40,9844.0
3410,0.3151826858520508,2.5049021244049072,106,5346.0,-2.634014129638672,-79,9844.0
3420,0.31487777829170227,1.5348166227340698,137,5346.0,-2.0720937252044678,-210,9844.0
3430,0.3157353699207306,4.419269561767578,102,5346.0,-2.341468095779419,-124,9844.0
3440,0.3156544268131256,5.406625270843506,52,5346.0,0.18380765616893768,102,9844.0
3450,0.3156608045101166,2.910820722579956,98,5346.0,2.77197003364563,104,9844.0
3460,0.3156280815601349,0.712585985660553,21,5346.0,5.728259563446045,202,9844.0
3470,0.31768324971199036,0.609897255897522,-51,5346.0,4.888828754425049,61,9844.0
3480,0.31769993901252747,-0.11015809327363968,-102,5346.0,7.237599849700928,198,9844.0
3490,0.31766277551651,-3.429431676864624,-96,5346.0,8.647537231445312,84,9844.0
3500,0.31757768988609314,-0.5155686736106873,46,5346.0,-2.1327600479125977,116,9844.0
3510,0.3176465630531311,-2.0275774002075195,59,5346.0,1.8168597221374512,-11,9844.0
3520,0.317564457654953,-3.3123583793640137,8,5346.0,4.275879859924316,-97,9844.0
3530,0.3175719082355499,0.5902774930000305,-62,5346.0,1.4809635877609253,13,9844.0
3540,0.31768640875816345,1.5541040897369385,34,5346.0,-5.245189666748047,79,9844.0
3550,0.31808850169181824,2.665513753890991,9,5346.0,-10.506204605102539,-93,9844.0
3560,0.31938236951828003,3.4197113513946533,28,5346.0,-9.193901062011719,-190,9844.0
3570,0.3196425139904022,1.9737612009048462,-22,5346.0,-8.110803604125977,-227,9844.0
3580,0.3199271559715271,1.7930771112442017,75,5346.0,-5.4977126121521,-162,9844.0
3590,0.3202822506427765,-2.227198839187622,68,5346.0,4.455718040466309,74,9844.0
3600,0.3208175599575043,-1.002307415008545,141,5346.0,5.452533721923828,51,9844.0
3610,0.3211947977542877,-3.2635247707366943,3,5346.0,7.84591007232666,132,9844.0
3620,0.32157114148139954,-1.956236481666565,-110,5346.0,6.8660712242126465,251,9844.0
3630,0.3219801187515259,-2.2779526710510254,44,5346.0,10.591208457946777,312,9844.0
3640,0.32237228751182556,-1.199168086051941,6,5346.0,7.705646514892578,255,9844.0
3650,0.32072147727012634,2.8189268112182617,-39,5346.0,7.513798713684082,156,9844.0
3660,0.32080549001693726,1.8318146467208862,-98,5346.0,7.21497106552124,149,9844.0
3670,0.3209644854068756,0.9687561392784119,-34,5346.0,3.784816026687622,56,9844.0
3680,0.32108771800994873,2.8103389739990234,90,5346.0,-3.7300028800964355,-63,9844.0
3690,0.32150521874427795,1.857454538345337,65,5346.0,-3.3559045791625977,-274,9844.0
3700,0.321716845035553,-0.9757640361785889,24,5346.0,-1.463665246963501,-129,9844.0
3710,0.3218804895877838,-0.05690412595868111,38,5346.0,1.081102967262268,-42,9844.0
3720,0.32193607091903687,-2.9605891704559326,104,5346.0,1.6686152219772339,75,9844.0
3730,0.3223308026790619,-1.1376535892486572,-7,5346.0,1.7894192934036255,18,9844.0
3740,0.32233771681785583,0.5312202572822571,-117,5346.0,1.4452800750732422,165,9844.0
3750,0.3222448527812958,-2.8402798175811768,-131,5346.0,8.714066505432129,193,9844.0
3760,0.3221690356731415,0.8442242741584778,-84,5346.0,4.626416206359863,218,9844.0
3770,0.3221946060657501,-3.332211494445801,-132,5346.0,4.278251647949219,28,9844.0
3780,0.32291901111602783,0.23547758162021637,-51,5346.0,-1.5353569984436035,-74,9844.0
3790,0.3229457139968872,-0.924609899520874,-29,5346.0,1.2366565465927124,-14,9844.0
3800,0.32302388548851013,-0.625063955783844,74,5346.0,-1.9208251237869263,-63,9844.0
3810,0.32304686307907104,0.11785783618688583,121,5346.0,0.7441778182983398,-140,9844.0
3820,0.3237636089324951,-2.9168477058410645,-1,5346.0,2.3842225074768066,-111,9844.0
3830,0.3237534165382385,0.8458724617958069,-33,5346.0,-2.677760362625122,45,9844.0
3840,0.32366469502449036,1.133424162864685,49,5346.0,1.144955039024353,129,9844.0
3850,0.3234538733959198,0.3182448446750641,-29,5346.0,-1.2204041481018066,47,9844.0
3860,0.32243284583091736,2.5426690578460693,-94,5346.0,4.029841899871826,97,9844.0
3870,0.3222430646419525,-0.021634912118315697,-92,5346.0,-2.187282085418701,10,9844.0
3880,0.32201793789863586,-1.4768400192260742,-82,5346.0,-0.38979607820510864,92,9844.0
3890,0.32182735204696655,-0.392391562461853,50,5346.0,-8.4212064743042,-236,9844.0
3900,0.32169145345687866,-0.5492076277732849,76,5346.0,-8.72934627532959,-246,9844.0
3910,0.32092028856277466,-0.6714047789573669,-17,5346.0,-8.759665489196777,-262,9844.0
3920,0.32063865661621094,-0.5113189220428467,39,5346.0,-5.481335639953613,-52,9844.0
3930,0.32034245133399963,-2.5321807861328125,20,5346.0,-4.008539199829102,-47,9844.0
3940,0.3200300931930542,-3.6523327827453613,-37,5346.0,-6.052019119262695,-9,9844.0
3950,0.3199513256549835,0.20823553204536438,-100,5346.0,0.2989146113395691,50,9844.0
3960,0.3196050226688385,2.1479032039642334,-10,5346.0,2.289931535720825,162,9844.0
3970,0.31930801272392273,2.005035638809204,-14,5346.0,2.48829984664917,73,9844.0
3980,0.3189633786678314,1.5557514429092407,79,5346.0,5.489253997802734,26,9844.0
3990,0.3185472786426544,1.1618850231170654,17,5346.0,8.828250885009766,-101,9844.0
4000,0.3197050094604492,-1.643004059791565,55,5346.0,1.1769063472747803,-120,9844.0
4010,0.319514662027359,-0.93118816614151,29,5346.0,-3.137012243270874,21,9844.0
4020,0.3193519413471222,-1.1137547492980957,99,5346.0,-4.330697059631348,-18,9844.0
4030,0.3191676735877991,0.380487322807312,-93,5346.0,-7.530942916870117,-68,9844.0
4040,0.31863608956336975,-1.014983057975769,-133,5346.0,-5.580319404602051,-101,9844.0
4050,0.3184935450553894,-1.3560212850570679,-120,5346.0,-8.788979530334473,-39,9844.0
4060,0.31833314895629883,-0.32498234510421753,-6,5346.0,-7.664748668670654,-105,9844.0
4070,0.31820276379585266,1.7509191036224365,105,5346.0,-3.2773194313049316,-155,9844.0
4080,0.31768104434013367,-0.4278927147388458,90,5346.0,2.33048939704895,-266,9844.0
4090,0.3175455331802368,0.0766606405377388,35,5346.0,3.636090040206909,67,9844.0
4100,0.31735941767692566,1.2086446285247803,-21,5346.0,4.413758277893066,63,9844.0
4110,0.3171905279159546,-0.41915321350097656,4,5346.0,9.119321823120117,331,9844.0
4120,0.3171336054801941,-0.24732810258865356,-35,5346.0,9.169820785522461,257,9844.0
4130,0.3178599774837494,1.4158508777618408,-85,5346.0,10.235077857971191,173,9844.0
4140,0.31789547204971313,1.5432909727096558,-24,5346.0,5.252389430999756,-72,9844.0
4150,0.31801459193229675,-0.8553469777107239,-8,5346.0,7.179347515106201,43,9844.0
4160,0.31812816858291626,1.6794347763061523,85,5346.0,2.396650791168213,-44,9844.0
4170,0.3189205229282379,-0.09706953167915344,133,5346.0,2.445357084274292,-107,9844.0
4180,0.31902632117271423,0.7616278529167175,5,5346.0,-3.889495849609375,-121,9844.0
4190,0.31922101974487305,-0.6595518589019775,-128,5346.0,-3.7451765537261963,15,9844.0
4200,0.31938663125038147,0.07376008480787277,-64,5346.0,-9.112905502319336,-14,9844.0
4210,0.3194061815738678,-3.4554288387298584,-87,5346.0,-4.599068641662598,54,9844.0
4220,0.31960901618003845,2.2811357975006104,3,5346.0,-5.155569076538086,-11,9844.0
4230,0.31956350803375244,-1.6048905849456787,19,5346.0,2.6181139945983887,9,9844.0
4240,0.3195038437843323,-1.4581010341644287,-1,5346.0,6.898430824279785,-12,9844.0
4250,0.3194345235824585,-1.301552653312683,61,5346.0,3.2339799404144287,145,9844.0
4260,0.3192691206932068,0.2792174816131592,132,5346.0,4.9286723136901855,132,9844.0
4270,0.31932491064071655,-0.6577742099761963,80,5346.0,9.504232406616211,225,9844.0
4280,0.3192513585090637,-0.042293161153793335,9,5346.0,7.045919895172119,85,9844.0
4290,0.31912359595298767,-0.23470847308635712,-1,5346.0,5.602519989013672,253,9844.0
4300,0.31899750232696533,0.5870710015296936,-40,5346.0,-0.29192161560058594,122,9844.0
4310,0.3180025815963745,1.764760971069336,-69,5346.0,-0.20835989713668823,70,9844.0
4320,0.31771206855773926,0.5748649835586548,-93,5346.0,-2.609461545944214,-52,9844.0
4330,0.31743478775024414,0.8816633224487305,13,5346.0,0.07077881693840027,-89,9844.0
4340,0.31719210743904114,-1.1919128894805908,78,5346.0,-4.2186174392700195,-208,9844.0
4350,0.31849661469459534,0.4298563301563263,146,5346.0,-6.1129350662231445,-192,9844.0
4360,0.31819504499435425,-1.0836447477340698,49,5346.0,-2.435765027999878,-115,9844.0
4370,0.3179609775543213,2.4199416637420654,-39,5346.0,-7.158175945281982,36,9844.0
4380,0.3177378177642822,1.5440090894699097,-14,5346.0,-0.9824138879776001,151,9844.0
4390,0.3184322118759155,-0.33880823850631714,-52,5346.0,5.086063385009766,246,9844.0
4400,0.31831905245780945,2.9353187084198,-73,5346.0,5.684920310974121,173,9844.0
4410,0.31832584738731384,2.5016233921051025,7,5346.0,3.7826781272888184,47,9844.0
4420,0.31826820969581604,-1.715684175491333,-37,5346.0,9.151004791259766,98,9844.0
4430,0.3181116580963135,1.319337010383606,94,5346.0,2.4919967651367188,12,9844.0
4440,0.3184329867362976,1.1356487274169922,88,5346.0,2.0445239543914795,-12,9844.0
4450,0.3184041380882263,-1.1677486896514893,44,5346.0,0.6273507475852966,-13,9844.0
4460,0.31827643513679504,1.0832080841064453,-100,5346.0,-5.481628894805908,67,9844.0
4470,0.3181169927120209,0.9155510663986206,-34,5346.0,-3.4557812213897705,116,9844.0
4480,0.3202837109565735,0.7530766725540161,-26,5346.0,-5.604184150695801,111,9844.0
4490,0.32030725479125977,0.13802030682563782,14,5346.0,-5.521181583404541,-100,9844.0
4500,0.3203425705432892,0.47823408246040344,9,5346.0,-1.9689548015594482,-105,9844.0
4510,0.32043445110321045,-1.9513474702835083,-6,5346.0,0.9347270131111145,-122,9844.0
4520,0.32034188508987427,-0.8871670961380005,76,5346.0,-1.139264702796936,17,9844.0
4530,0.32032766938209534,-0.8199813961982727,79,5346.0,4.900349140167236,25,9844.0
4540,0.3202317953109741,-1.7384172677993774,78,5346.0,6.712477207183838,13,9844.0
4550,0.3201262950897217,2.637812852859497,-59,5346.0,0.8745498061180115,87,9844.0
4560,0.3199472725391388,1.7039047479629517,-36,5346.0,0.58217853307724,98,9844.0
4570,0.3206225335597992,1.0405936241149902,-18,5346.0,-0.4948033392429352,159,9844.0
4580,0.3205183148384094,-2.098698854446411,-79,5346.0,0.7598233222961426,-2,9844.0
4590,0.32043972611427307,-0.44110503792762756,-74,5346.0,1.7801718711853027,13,9844.0
4600,0.3203347623348236,-2.6227192878723145,-56,5346.0,0.32951098680496216,-127,9844.0
4610,0.3209351897239685,1.4641528129577637,92,5346.0,-1.6199923753738403,19,9844.0
4620,0.32098275423049927,-0.6747622489929199,118,5346.0,1.5611040592193604,-164,9844.0
4630,0.32099539041519165,-2.9962704181671143,72,5346.0,-2.2858588695526123,-95,9844.0
4640,0.32096630334854126,-1.6055634021759033,-96,5346.0,-2.211371421813965,3,9844.0
4650,0.3209529221057892,-1.871321201324463,-69,5346.0,0.13299259543418884,39,9844.0
4660,0.3205331265926361,-1.862669587135315,-20,5346.0,0.8779857158660889,118,9844.0
4670,0.32037457823753357,0.4007975459098816,-62,5346.0,-1.5704636573791504,29,9844.0
4680,0.3203228712081909,2.9091544151306152,-84,5346.0,-2.0598740577697754,-104,9844.0
4690,0.3202781081199646,0.024791333824396133,-8,5346.0,1.7719876766204834,-27,9844.0
4700,0.32129594683647156,2.095792770385742,77,5346.0,0.30661141872406006,57,9844.0
4710,0.3213157057762146,2.890298366546631,124,5346.0,3.6338376998901367,6,9844.0
4720,0.32142478227615356,-0.3308677077293396,116,5346.0,2.947565793991089,-167,9844.0
4730,0.3215424120426178,-0.2563030421733856,-18,5346.0,1.5175641775131226,18,9844.0
4740,0.3213498592376709,1.40005362033844,-85,5346.0,-6.726335525512695,10,9844.0
4750,0.32133612036705017,-1.6585758924484253,11,5346.0,-3.1454312801361084,78,9844.0
4760,0.3213523030281067,-1.0168558359146118,-79,5346.0,-4.450403690338135,23,9844.0
4770,0.32133474946022034,-0.1457236111164093,-131,5346.0,-1.7097322940826416,-44,9844.0
4780,0.3212814927101135,-0.08075201511383057,-87,5346.0,-3.4156651496887207,-64,9844.0
4790,0.321568101644516,0.36009320616722107,2,5346.0,-5.056940078735352,23,9844.0
4800,0.32154303789138794,-0.9119147658348083,74,5346.0,-2.747795581817627,-93,9844.0
4810,0.32142147421836853,0.057802289724349976,76,5346.0,-1.374406337738037,-166,9844.0
4820,0.3214506506919861,-1.7047843933105469,55,5346.0,0.7700491547584534,0,9844.0
4830,0.3216082751750946,0.5769716501235962,34,5346.0,4.295955657958984,120,9844.0
4840,0.32144758105278015,1.0669091939926147,-7,5346.0,4.299174785614014,177,9844.0
4850,0.3212767243385315,0.11976228654384613,5,5346.0,4.868627071380615,197,9844.0
4860,0.3211939334869385,2.0343706607818604,-68,5346.0,2.974656820297241,85,9844.0
4870,0.32097476720809937,2.2076470851898193,-80,5346.0,-1.1866388320922852,-7,9844.0
4880,0.3212447464466095,0.8777332305908203,-92,5346.0,1.2856459617614746,15,9844.0
4890,0.32113713026046753,-0.680279016494751,69,5346.0,-3.5034096240997314,-163,9844.0
4900,0.32108360528945923,-1.8830511569976807,89,5346.0,-4.259530067443848,-286,9844.0
4910,0.3208717703819275,-2.577423334121704,13,5346.0,-5.719574928283691,-152,9844.0
4920,0.3204019367694855,-2.6427149772644043,-81,5346.0,-6.038571834564209,-144,9844.0
4930,0.32026103138923645,-2.138702392578125,24,5346.0,-4.040560245513916,-272,9844.0
4940,0.32014358043670654,-0.7691734433174133,-93,5346.0,-6.0383148193359375,-85,9844.0
4950,0.319998174905777,0.7142170071601868,-72,5346.0,-8.011861801147461,-42,9844.0
4960,0.31996384263038635,-0.42094096541404724,-20,5346.0,-0.9970576763153076,143,9844.0
4970,0.3200092017650604,-0.2783730626106262,-4,5346.0,1.3367661237716675,107,9844.0
4980,0.320011705160141,2.700423002243042,-55,5346.0,4.046806812286377,203,9844.0
4990,0.32002684473991394,1.367738127708435,-9,5346.0,9.289326667785645,83,9844.0
5000,0.3200310468673706,-1.9380666017532349,-26,5346.0,11.86805248260498,164,9844.0
5010,0.3191356658935547,1.2225879430770874,107,5346.0,9.691044807434082,85,9844.0
5020,0.3188447952270508,-1.8926026821136475,162,5346.0,10.844003677368164,70,9844.0
5030,0.3185732960700989,-0.9945391416549683,66,5346.0,6.285152435302734,-10,9844.0
5040,0.3184390366077423,1.577095866203308,-57,5346.0,-1.6042962074279785,115,9844.0
5050,0.3185160756111145,-0.3295583128929138,-29,5346.0,-5.148453712463379,66,9844.0
5060,0.31840384006500244,1.3726882934570312,-45,5346.0,-7.368772983551025,-42,9844.0
5070,0.3183898329734802,3.3414998054504395,-7,5346.0,-9.97716999053955,-236,9844.0
5080,0.3183594346046448,-0.22404882311820984,-48,5346.0,-10.916053771972656,-251,9844.0
5090,0.3177793622016907,-2.0927231311798096,5,5346.0,-10.348308563232422,-188,9844.0
5100,0.31756290793418884,1.0478726625442505,129,5346.0,-6.002196788787842,-103,9844.0
5110,0.317313551902771,-1.4971532821655273,106,5346.0,-2.5446219444274902,-223,9844.0
5120,0.31706610321998596,-0.47590750455856323,35,5346.0,1.2743622064590454,5,9844.0
5130,0.3167947232723236,0.40286606550216675,-35,5346.0,2.071068525314331,127,9844.0
5140,0.31833693385124207,1.3845865726470947,-9,5346.0,6.679483890533447,316,9844.0
5150,0.31829845905303955,1.1251220703125,-44,5346.0,9.244457244873047,291,9844.0
5160,0.31820157170295715,2.61531662940979,-51,5346.0,13.179208755493164,199,9844.0
5170,0.31813183426856995,1.926462173461914,-51,5346.0,8.577189445495605,154,9844.0
5180,0.31806421279907227,0.19713200628757477,8,5346.0,7.038711071014404,13,9844.0
5190,0.3179655969142914,-1.136499047279358,96,5346.0,5.550692558288574,12,9844.0
5200,0.31790995597839355,-1.0419292449951172,65,5346.0,1.0493485927581787,-153,9844.0
5210,0.3179529905319214,0.00398799916729331,-1,5346.0,-7.578371524810791,-35,9844.0
5220,0.3181546628475189,0.3147831857204437,-60,5346.0,-7.274272918701172,-31,9844.0
5230,0.3189127743244171,2.7340362071990967,-4,5346.0,-10.1187744140625,56,9844.0
5240,0.3189239203929901,0.7711326479911804,20,5346.0,-8.566705703735352,-73,9844.0
5250,0.31895050406455994,1.8712743520736694,46,5346.0,-7.4534807205200195,-269,9844.0
5260,0.3189345598220825,-1.0039366483688354,8,5346.0,-2.668341636657715,-146,9844.0
5270,0.32050690054893494,0.6270986795425415,56,5346.0,1.7855064868927002,-21,9844.0
5280,0.3206210434436798,0.38932350277900696,47,5346.0,1.8755642175674438,8,9844.0
5290,0.3207256495952606,-2.8911900520324707,112,5346.0,5.691036701202393,40,9844.0
5300,0.320756733417511,-3.1315560340881348,-143,5346.0,6.545114517211914,156,9844.0
5310,0.32087451219558716,0.9465550780296326,-66,5346.0,-2.1027021408081055,59,9844.0
5320,0.321004718542099,-0.9060206413269043,-56,5346.0,7.586775302886963,270,9844.0
5330,0.3211993873119354,-2.9153075218200684,-29,5346.0,8.974569320678711,147,9844.0
5340,0.3212658762931824,2.2700867652893066,-10,5346.0,1.2456976175308228,85,9844.0
5350,0.32130616903305054,0.2452762871980667,-26,5346.0,5.093201160430908,-56,9844.0
5360,0.3223961889743805,-4.094832897186279,26,5346.0,4.8510894775390625,-26,9844.0
5370,0.3223789632320404,0.6783667206764221,122,5346.0,1.5925661325454712,-53,9844.0
5380,0.3223121464252472,-1.6863877773284912,124,5346.0,5.05322265625,-73,9844.0
5390,0.32232484221458435,-0.2131980061531067,48,5346.0,3.9729692935943604,-16,9844.0
5400,0.3222164809703827,2.0918097496032715,-71,5346.0,-1.7683402299880981,136,9844.0
5410,0.32222965359687805,-0.7951946258544922,-44,5346.0,-0.6910864114761353,122,9844.0
5420,0.3222445547580719,-0.1255371868610382,-51,5346.0,0.38762035965919495,86,9844.0
5430,0.3222670257091522,-0.6234696507453918,-94,5346.0,-0.3282254636287689,-73,9844.0
5440,0.32217875123023987,-0.24026218056678772,-75,5346.0,-0.024775156751275063,-40,9844.0
5450,0.32276734709739685,-0.6069480180740356,-70,5346.0,2.5477230548858643,75,9844.0
5460,0.32267215847969055,-0.09467113018035889,84,5346.0,6.761825084686279,33,9844.0
5470,0.3225126266479492,-0.09631660580635071,67,5346.0,4.767480850219727,-157,9844.0
5480,0.32230982184410095,-0.41850724816322327,37,5346.0,4.7667388916015625,-41,9844.0
5490,0.32248958945274353,1.0371907949447632,-3,5346.0,2.5263240337371826,87,9844.0
5500,0.3223657011985779,1.6689774990081787,90,5346.0,3.8019657135009766,100,9844.0
5510,0.3222652077674866,-0.9034649133682251,-18,5346.0,4.516282081604004,125,9844.0
5520,0.32226136326789856,1.1065031290054321,-96,5346.0,-3.8688716888427734,3,9844.0
5530,0.3233034610748291,1.8289674520492554,-95,5346.0,-2.2319979667663574,61,9844.0
5540,0.323260635137558,1.24856698513031,-59,5346.0,-3.076446533203125,17,9844.0
5550,0.32318100333213806,2.1342501640319824,26,5346.0,-6.44331693649292,-94,9844.0
5560,0.32314175367355347,0.0515606552362442,51,5346.0,-6.169379711151123,-318,9844.0
5570,0.32304584980010986,-1.8877612352371216,37,5346.0,-3.752016067504883,-197,9844.0
5580,0.3224993944168091,0.6786263585090637,73,5346.0,-4.830007076263428,-96,9844.0
5590,0.32224953174591064,-1.1113159656524658,137,5346.0,-1.2252129316329956,-83,9844.0
5600,0.3220028579235077,-1.2405661344528198,49,5346.0,1.8459224700927734,22,9844.0
5610,0.3217403292655945,0.7369340658187866,-18,5346.0,1.469273567199707,74,9844.0
5620,0.321650892496109,-0.6033942699432373,36,5346.0,-0.5687078833580017,34,9844.0
5630,0.32144850492477417,0.2244385927915573,7,5346.0,-5.778136730194092,42,9844.0
5640,0.32127687335014343,-0.15513265132904053,-126,5346.0,-0.12429054826498032,14,9844.0
5650,0.3210267722606659,-2.7044689655303955,-124,5346.0,2.677875518798828,132,9844.0
5660,0.3208324909210205,-1.7030342817306519,-88,5346.0,1.5233137607574463,118,9844.0
5670,0.3203146755695343,1.2410826683044434,99,5346.0,-0.8223183155059814,-72,9844.0
5680,0.32002371549606323,2.5755345821380615,106,5346.0,-3.4387571811676025,-259,9844.0
5690,0.3197340667247772,0.5799270868301392,92,5346.0,-5.706676959991455,-261,9844.0
5700,0.3195701241493225,2.61202335357666,-19,5346.0,-6.817936420440674,27,9844.0
5710,0.31964293122291565,1.814835786819458,34,5346.0,-3.422361373901367,128,9844.0
5720,0.31950363516807556,1.1639683246612549,-46,5346.0,-4.367455005645752,133,9844.0
5730,0.3196103572845459,1.1657719612121582,-104,5346.0,-2.508136749267578,-77,9844.0
5740,0.3195360004901886,0.30038076639175415,-103,5346.0,-3.359834671020508,57,9844.0
5750,0.3193824887275696,-1.377373456954956,-23,5346.0,-1.0820857286453247,-29,9844.0
5760,0.3191753327846527,-0.7160525321960449,51,5346.0,0.03416627272963524,56,9844.0
5770,0.3190290331840515,3.247013568878174,78,5346.0,-0.36687999963760376,-185,9844.0
5780,0.31892964243888855,0.9014104604721069,105,5346.0,-2.4781367778778076,-110,9844.0
5790,0.3187673091888428,0.0046410029754042625,-16,5346.0,2.1005842685699463,3,9844.0
5800,0.31940656900405884,1.0661677122116089,-29,5346.0,-2.537611722946167,95,9844.0
5810,0.31920021772384644,1.1352460384368896,-17,5346.0,-1.0839719772338867,114,9844.0
5820,0.318912148475647,-2.196457862854004,-69,5346.0,1.7234233617782593,29,9844.0
5830,0.318534255027771,-3.031130313873291,-109,5346.0,3.811310291290283,27,9844.0
5840,0.31895071268081665,-2.4836018085479736,-52,5346.0,0.3815152049064636,-119,9844.0
5850,0.31882184743881226,-1.5209319591522217,92,5346.0,-3.4036152362823486,-103,9844.0
5860,0.31867173314094543,-1.5461386442184448,112,5346.0,0.8215879201889038,-52,9844.0
5870,0.31852787733078003,-1.7761778831481934,69,5346.0,-2.6130564212799072,-76,9844.0
5880,0.31851473450660706,0.4344060719013214,-68,5346.0,-1.8066434860229492,42,9844.0
5890,0.31920555233955383,1.3211069107055664,-113,5346.0,-0.9466418623924255,158,9844.0
5900,0.31935879588127136,1.3263355493545532,-68,5346.0,-0.656147837638855,215,9844.0
5910,0.3195165693759918,-0.6379292607307434,23,5346.0,0.2621750831604004,76,9844.0
5920,0.32018354535102844,0.8763905167579651,-32,5346.0,8.696274757385254,-5,9844.0
5930,0.3198022246360779,3.0315334796905518,62,5346.0,8.003235816955566,-56,9844.0
5940,0.31978127360343933,1.7877846956253052,105,5346.0,4.816644668579102,24,9844.0
5950,0.319784939289093,3.4510066509246826,105,5346.0,5.251623153686523,145,9844.0
5960,0.31985557079315186,2.9994075298309326,139,5346.0,0.10863994061946869,63,9844.0
5970,0.32122138142585754,1.4614992141723633,-17,5346.0,3.72017502784729,18,9844.0
5980,0.3214142620563507,1.2115075588226318,-99,5346.0,-2.4952642917633057,33,9844.0
5990,0.32164061069488525,-1.5878721475601196,-104,5346.0,-0.4046645164489746,104,9844.0
6000,0.32184579968452454,-2.4294230937957764,15,5346.0,-2.298341751098633,-9,9844.0
6010,0.3219378590583801,-2.6511359214782715,-40,5346.0,0.9993413686752319,-120,9844.0
6020,0.3228584825992584,-3.824636459350586,-46,5346.0,3.465731382369995,-130,9844.0
6030,0.323058545589447,-4.9122209548950195,-51,5346.0,1.1613132953643799,-60,9844.0
6040,0.3232366442680359,-0.9146952033042908,121,5346.0,-2.2874202728271484,0,9844.0
6050,0.32337382435798645,-1.934300184249878,79,5346.0,3.5730528831481934,-72,9844.0
6060,0.3237245976924896,-0.29305407404899597,-23,5346.0,2.2788963317871094,50,9844.0
6070,0.32387420535087585,3.7578701972961426,-30,5346.0,6.299494743347168,165,9844.0
6080,0.32393085956573486,-0.26568254828453064,-60,5346.0,9.92105770111084,277,9844.0
6090,0.323957622051239,3.1677842140197754,27,5346.0,3.865988254547119,98,9844.0
6100,0.3240034282207489,3.212073802947998,22,5346.0,0.055382732301950455,-42,9844.0
6110,0.32401546835899353,2.1797122955322266,-19,5346.0,3.128828525543213,4,9844.0
6120,0.3240090608596802,2.0237367153167725,111,5346.0,-0.3618274927139282,-5,9844.0
6130,0.32404792308807373,1.5038806200027466,99,5346.0,-5.3885979652404785,-105,9844.0
6140,0.3240474462509155,-2.994579553604126,41,5346.0,2.343970537185669,-163,9844.0
6150,0.3235584795475006,-1.7830171585083008,-80,5346.0,-4.353068828582764,-17,9844.0
6160,0.32352587580680847,-2.9540655612945557,51,5346.0,-5.116034030914307,-142,9844.0
6170,0.32354626059532166,-0.7612236142158508,5,5346.0,-3.746657371520996,43,9844.0
6180,0.32349893450737,-0.7638459801673889,-96,5346.0,-1.7151670455932617,46,9844.0
6190,0.32324478030204773,-0.31528595089912415,-147,5346.0,1.676343321800232,174,9844.0
6200,0.3231488764286041,-0.8699418306350708,-71,5346.0,2.2139201164245605,127,9844.0
6210,0.32295891642570496,4.148522853851318,31,5346.0,3.018313407897949,113,9844.0
6220,0.32264524698257446,2.120666980743408,24,5346.0,0.5836448073387146,-126,9844.0
6230,0.3222876489162445,-0.46253207325935364,-21,5346.0,0.5363613963127136,23,9844.0
6240,0.3221680223941803,-2.051995038986206,-2,5346.0,0.8459156155586243,-22,9844.0
6250,0.321773499250412,-0.9880161881446838,63,5346.0,-0.9953791499137878,-63,9844.0
6260,0.32151302695274353,-2.6603407859802246,4,5346.0,-1.6217775344848633,-55,9844.0
6270,0.3213408887386322,-0.32339245080947876,-111,5346.0,-1.969626784324646,-60,9844.0
6280,0.3218759000301361,1.425200343132019,102,5346.0,-6.660871505737305,-33,9844.0
6290,0.32169702649116516,0.729372501373291,-55,5346.0,-0.6470106244087219,106,9844.0
6300,0.3215526342391968,2.1134934425354004,-127,5346.0,-2.9821054935455322,-36,9844.0
6310,0.32141146063804626,0.35887059569358826,-47,5346.0,-0.3382074534893036,-27,9844.0
6320,0.32120296359062195,-2.0678203105926514,-33,5346.0,0.49292895197868347,57,9844.0
6330,0.3212776780128479,-1.6180872917175293,59,5346.0,-0.5891132354736328,-155,9844.0
6340,0.32147181034088135,-3.5200998783111572,65,5346.0,-0.5779682397842407,-128,9844.0
6350,0.32164543867111206,-3.376622200012207,-24,5346.0,2.0014114379882812,-40,9844.0
6360,0.3217400014400482,0.0404941625893116,22,5346.0,-3.201565742492676,29,9844.0
6370,0.32243111729621887,2.5469257831573486,8,5346.0,-5.57271671295166,85,9844.0
6380,0.3226509988307953,3.1031241416931152,-45,5346.0,-2.2130324840545654,-12,9844.0
6390,0.3227984309196472,6.698970794677734,-35,5346.0,-7.00101375579834,-73,9844.0
6400,0.32286733388900757,5.726036548614502,62,5346.0,-2.557577610015869,-33,9844.0
6410,0.3229486048221588,6.296696186065674,177,5346.0,-4.591858386993408,-186,9844.0
6420,0.3229537606239319,5.212254524230957,173,5346.0,-6.216347694396973,-372,9844.0
6430,0.3229501247406006,0.06974311172962189,98,5346.0,-5.301394462585449,-263,9844.0
6440,0.32298800349235535,2.922429084777832,21,5346.0,-5.1842827796936035,-119,9844.0
6450,0.32315608859062195,3.8565566539764404,90,5346.0,-5.67239236831665,67,9844.0
6460,0.3232196271419525,-0.8977805376052856,91,5346.0,-3.0558598041534424,-22,9844.0
6470,0.32331934571266174,0.375206857919693,-71,5346.0,-1.7552564144134521,37,9844.0
6480,0.3233700394630432,-2.515533208847046,-95,5346.0,0.688959538936615,17,9844.0
6490,0.32330799102783203,-0.7451634407043457,-49,5346.0,2.0766050815582275,251,9844.0
6500,0.3234477937221527,1.0150176286697388,32,5346.0,1.4850915670394897,60,9844.0
6510,0.3233239948749542,-1.4063163995742798,15,5346.0,2.947150468826294,-21,9844.0
6520,0.3231709897518158,-1.0800234079360962,27,5346.0,-3.496014356613159,-213,9844.0
6530,0.3230409324169159,-1.473984718322754,-29,5346.0,-1.0731195211410522,-176,9844.0
6540,0.32384589314460754,-3.9384922981262207,-45,5346.0,3.36004638671875,114,9844.0
6550,0.3240179717540741,-3.536508083343506,94,5346.0,2.3331539630889893,86,9844.0
6560,0.3242689371109009,-3.2354156970977783,-62,5346.0,10.989965438842773,224,9844.0
6570,0.32469800114631653,-0.9572240710258484,-112,5346.0,12.41000747680664,253,9844.0
6580,0.32528451085090637,-1.5929707288742065,-113,5346.0,15.639708518981934,436,9844.0
6590,0.3261673152446747,-0.9369853138923645,-38,5346.0,13.374350547790527,327,9844.0
6600,0.3267541825771332,4.93083381652832,60,5346.0,11.000442504882812,81,9844.0
6610,0.3273039758205414,4.419463157653809,62,5346.0,5.82021951675415,-73,9844.0
6620,0.327995628118515,3.5546655654907227,180,5346.0,-5.38903284072876,-100,9844.0
6630,0.3259445130825043,3.0173840522766113,195,5346.0,-7.816985607147217,-362,9844.0
6640,0.3262837529182434,2.5014424324035645,-13,5346.0,-10.228307723999023,-191,9844.0
6650,0.32655519247055054,6.640167236328125,25,5346.0,-20.890562057495117,-190,9844.0
6660,0.3267107605934143,-1.4778810739517212,-8,5346.0,-12.40021800994873,-76,9844.0
6670,0.3264640271663666,-1.2510483264923096,-86,5346.0,-13.617107391357422,-207,9844.0
6680,0.3264428973197937,-0.10218523442745209,-152,5346.0,-13.466468811035156,-112,9844.0
6690,0.3265458345413208,-0.30788055062294006,-13,5346.0,-8.177875518798828,-40,9844.0
6700,0.32639798521995544,5.434815406799316,68,5346.0,-1.3846033811569214,168,9844.0
6710,0.3261950612068176,8.820304870605469,158,5346.0,-0.2744341492652893,-10,9844.0
6720,0.3270515203475952,7.343009948730469,115,5346.0,4.037492275238037,-32,9844.0
6730,0.326652467250824,3.9046788215637207,-18,5346.0,3.8283708095550537,95,9844.0
6740,0.3264724910259247,-2.9689812660217285,-50,5346.0,2.726787805557251,67,9844.0
6750,0.3261888027191162,-5.209054470062256,5,5346.0,-2.7267723083496094,-49,9844.0
6760,0.3258715271949768,-5.974986553192139,37,5346.0,-5.605559825897217,-114,9844.0
6770,0.3251601755619049,-6.006110191345215,-63,5346.0,-2.827690839767456,-318,9844.0
6780,0.32444581389427185,-6.222230911254883,-20,5346.0,5.656809329986572,-148,9844.0
6790,0.3238029181957245,-3.658398151397705,-80,5346.0,3.338732957839966,57,9844.0
6800,0.32273146510124207,-10.834644317626953,-155,5346.0,9.072822570800781,146,9844.0
6810,0.3206755816936493,-17.316198348999023,-231,5346.0,11.60011100769043,289,9844.0
6820,0.32013505697250366,-20.599933624267578,-201,5346.0,8.909290313720703,88,9844.0
6830,0.31942248344421387,-22.921337127685547,-194,5346.0,22.68653106689453,104,9844.0
6840,0.3185368478298187,-21.327823638916016,-293,5346.0,24.326208114624023,240,9844.0
6850,0.31633079051971436,-19.173192977905273,-378,5346.0,22.402379989624023,384,9844.0
6860,0.3155200779438019,-18.962831497192383,-378,5346.0,27.201906204223633,509,9844.0
6870,0.3142220973968506,-17.55727195739746,-306,5346.0,25.253149032592773,528,9844.0
6880,0.31294283270835876,-12.299105644226074,-197,5346.0,19.019678115844727,396,9844.0
6890,0.31053218245506287,-6.278700351715088,2,5346.0,24.1043701171875,278,9844.0
6900,0.3086838722229004,0.7989814281463623,136,5346.0,21.837841033935547,397,9844.0
6910,0.3068074584007263,7.468298435211182,116,5346.0,24.076364517211914,464,9844.0
6920,0.3053763210773468,14.791242599487305,239,5346.0,21.896175384521484,476,9844.0
6930,0.30241432785987854,18.812091827392578,286,5346.0,23.94253158569336,443,9844.0
6940,0.3008109927177429,20.536975860595703,366,5346.0,22.304101943969727,213,9844.0
6950,0.29932042956352234,22.82026481628418,461,5346.0,24.562484741210938,289,9844.0
6960,0.29781392216682434,21.599105834960938,380,5346.0,24.75810432434082,537,9844.0
6970,0.29555684328079224,20.454801559448242,270,5346.0,26.9780330657959,503,9844.0
6980,0.2937670648097992,20.83441162109375,422,5346.0,27.72579574584961,381,9844.0
6990,0.29237261414527893,19.47565460205078,438,5346.0,32.516883850097656,471,9844.0
7000,0.2908172309398651,20.92481231689453,345,5346.0,37.95610046386719,586,9844.0
7010,0.28950706124305725,23.253870010375977,365,5346.0,26.867862701416016,437,9844.0
7020,0.2866940498352051,23.80120086669922,409,5346.0,26.65636444091797,333,9844.0
7030,0.2848878502845764,22.164684295654297,386,5346.0,20.17925453186035,376,9844.0
7040,0.2829294502735138,18.87563705444336,249,5346.0,21.98702621459961,401,9844.0
7050,0.280984491109848,19.0196533203125,269,5346.0,15.980314254760742,330,9844.0
7060,0.27768218517303467,18.815351486206055,316,5346.0,20.621763229370117,290,9844.0
7070,0.27936485409736633,17.405345916748047,377,5346.0,22.816997528076172,403,9844.0
7080,0.2779586613178253,16.862905502319336,233,5346.0,20.179916381835938,434,9844.0
7090,0.27673715353012085,12.985676765441895,117,5346.0,29.922988891601562,609,9844.0
7100,0.2741503417491913,9.108972549438477,150,5346.0,26.075714111328125,386,9844.0
7110,0.27631527185440063,5.3992838859558105,153,5346.0,25.98969078063965,366,9844.0
7120,0.27468341588974,4.736807823181152,82,5346.0,23.701353073120117,478,9844.0
7130,0.2741411626338959,0.9084898829460144,-56,5346.0,25.133615493774414,464,9844.0
7140,0.27162766456604004,-1.111552119255066,-121,5346.0,19.45977210998535,221,9844.0
7150,0.2711948752403259,-11.419915199279785,-66,5346.0,21.675504684448242,270,9844.0
7160,0.2731665372848511,-18.01323890686035,-316,5346.0,24.46255874633789,501,9844.0
7170,0.2723415195941925,-19.17638397216797,-375,5346.0,24.13812255859375,440,9844.0
7180,0.2706334590911865,-15.285487174987793,-268,5346.0,19.849727630615234,244,9844.0
7190,0.270715594291687,-13.011191368103027,-115,5346.0,22.392078399658203,347,9844.0
7200,0.2700355648994446,-9.340127944946289,-249,5346.0,20.656564712524414,402,9844.0
7210,0.2697051167488098,-6.616575717926025,-122,5346.0,21.648181915283203,221,9844.0
7220,0.26867058873176575,-2.808748960494995,53,5346.0,12.796283721923828,136,9844.0
7230,0.268328994512558,1.934809684753418,-4,5346.0,12.775009155273438,242,9844.0
7240,0.268070787191391,6.263097763061523,69,5346.0,13.182757377624512,224,9844.0
7250,0.2641294598579407,8.913835525512695,212,5346.0,8.751935958862305,23,9844.0
7260,0.26227110624313354,9.151171684265137,143,5346.0,-3.9646170139312744,-70,9844.0
7270,0.2610837519168854,4.381412506103516,-29,5346.0,-10.198718070983887,-8,9844.0
7280,0.26163309812545776,-2.9193272590637207,-110,5346.0,-2.3573575019836426,-92,9844.0
7290,0.2581320106983185,-5.063733100891113,-11,5346.0,0.14700838923454285,-173,9844.0
7300,0.25621870160102844,-4.943123817443848,12,5346.0,3.3528101444244385,129,9844.0
7310,0.2567557096481323,-3.527283191680908,-94,5346.0,9.044428825378418,229,9844.0
7320,0.25510162115097046,-0.49637678265571594,-22,5346.0,9.089151382446289,238,9844.0
7330,0.254054993391037,-5.1707329750061035,-136,5346.0,13.809355735778809,0,9844.0
7340,0.25244656205177307,-10.982036590576172,-109,5346.0,14.13809585571289,182,9844.0
7350,0.2521827220916748,-11.98813533782959,-153,5346.0,15.566434860229492,334,9844.0
7360,0.2520202696323395,-10.792381286621094,-162,5346.0,15.331796646118164,447,9844.0
7370,0.25180676579475403,-5.8812971115112305,-156,5346.0,16.053443908691406,266,9844.0
7380,0.2503856122493744,-0.09936796873807907,55,5346.0,8.80459976196289,-12,9844.0
7390,0.2498515546321869,4.693422794342041,174,5346.0,5.821027755737305,58,9844.0
7400,0.2499922662973404,4.8485846519470215,104,5346.0,4.355198383331299,142,9844.0
7410,0.24980583786964417,4.045269012451172,15,5346.0,3.060228109359741,98,9844.0
7420,0.24854333698749542,1.9350851774215698,-78,5346.0,-0.7974139451980591,-24,9844.0
7430,0.24804654717445374,-0.7831771969795227,-7,5346.0,-4.970932960510254,-161,9844.0
7440,0.24792878329753876,-4.5365118980407715,-33,5346.0,-0.23921316862106323,-68,9844.0
7450,0.247672438621521,-5.1081929206848145,-35,5346.0,-2.882795810699463,-261,9844.0
7460,0.24730868637561798,-7.0942254066467285,-149,5346.0,-5.248495578765869,-21,9844.0
7470,0.24741220474243164,-7.07128381729126,-242,5346.0,-8.215715408325195,-28,9844.0
7480,0.24688345193862915,-7.267023086547852,-237,5346.0,-9.763559341430664,-176,9844.0
7490,0.24669286608695984,-8.612860679626465,-212,5346.0,-10.338083267211914,-118,9844.0
7500,0.24666370451450348,-9.905261993408203,-141,5346.0,-3.9302430152893066,-177,9844.0
7510,0.24556908011436462,-5.262623310089111,-23,5346.0,-6.343855857849121,-128,9844.0
7520,0.24547678232192993,-5.9873552322387695,-7,5346.0,3.0104801654815674,-145,9844.0
7530,0.24508902430534363,-4.242419242858887,7,5346.0,-0.4655250012874603,-122,9844.0
7540,0.24462713301181793,-5.200515270233154,-58,5346.0,-0.9750175476074219,-22,9844.0
7550,0.24412617087364197,-1.8594777584075928,-117,5346.0,-6.162927150726318,-72,9844.0
7560,0.24351215362548828,-0.23948486149311066,-83,5346.0,-7.1313557624816895,-3,9844.0
7570,0.2432839572429657,-0.4462871849536896,-37,5346.0,-7.506318092346191,-134,9844.0
7580,0.2429441213607788,0.7076444029808044,-66,5346.0,-11.742510795593262,-82,9844.0
7590,0.2424325942993164,4.170238018035889,-34,5346.0,-16.81351661682129,-183,9844.0
7600,0.24077922105789185,3.88252592086792,38,5346.0,-13.76551342010498,-298,9844.0
7610,0.24039043486118317,-0.4998146891593933,-15,5346.0,-11.130758285522461,-226,9844.0
7620,0.24005086719989777,-2.1032485961914062,1,5346.0,-6.783524513244629,-353,9844.0
7630,0.23944693803787231,-4.8454389572143555,42,5346.0,-6.108963489532471,-262,9844.0
7640,0.24056419730186462,-6.583377838134766,-46,5346.0,-6.002701282501221,-242,9844.0
7650,0.24026449024677277,-7.201793193817139,-73,5346.0,-6.8245320320129395,-191,9844.0
7660,0.23981468379497528,-6.882538795471191,-119,5346.0,-7.007894039154053,-69,9844.0
7670,0.23948714137077332,-9.519366264343262,-267,5346.0,-2.208467483520508,67,9844.0
7680,0.2392471581697464,-8.556739807128906,-254,5346.0,-3.5520057678222656,68,9844.0
7690,0.23862379789352417,-4.074192047119141,-201,5346.0,-8.69853401184082,-51,9844.0
7700,0.23838967084884644,-4.198864936828613,-133,5346.0,-6.8379411697387695,-107,9844.0
7710,0.23828984797000885,-1.3328834772109985,32,5346.0,-7.422196865081787,-207,9844.0
7720,0.2385048121213913,1.4045376777648926,104,5346.0,-13.773371696472168,-355,9844.0
7730,0.23828265070915222,0.9803500175476074,127,5346.0,-8.10451889038086,-273,9844.0
7740,0.2384057193994522,-0.6163392663002014,62,5346.0,-12.067258834838867,-148,9844.0
7750,0.23896202445030212,1.3056316375732422,42,5346.0,-11.934111595153809,-175,9844.0
7760,0.23895812034606934,0.31965702772140503,-75,5346.0,-9.801308631896973,-106,9844.0
7770,0.24004210531711578,-1.0786253213882446,-126,5346.0,-11.661715507507324,-148,9844.0
7780,0.24026505649089813,-1.210184097290039,-61,5346.0,-13.294839859008789,-102,9844.0
7790,0.24057532846927643,-3.4611399173736572,-184,5346.0,-9.895895957946777,13,9844.0
7800,0.24087296426296234,-7.571402072906494,-185,5346.0,-5.787484645843506,-90,9844.0
7810,0.24145589768886566,-3.797297477722168,-82,5346.0,-4.6236958503723145,-74,9844.0
7820,0.24178676307201385,-4.350671291351318,-111,5346.0,-2.3215906620025635,-37,9844.0
7830,0.24202992022037506,-3.38297176361084,13,5346.0,-1.875322699546814,-87,9844.0
7840,0.24240218102931976,-1.883671760559082,45,5346.0,-5.750709056854248,-206,9844.0
7850,0.24259860813617706,1.8327372074127197,168,5346.0,-1.232568383216858,-109,9844.0
7860,0.24113528430461884,4.237950325012207,134,5346.0,-2.7876405715942383,-120,9844.0
7870,0.24107316136360168,4.880429267883301,141,5346.0,0.8005058765411377,-102,9844.0
7880,0.2408541589975357,1.1563245058059692,127,5346.0,0.9312035441398621,-75,9844.0
7890,0.24078333377838135,0.0703350231051445,19,5346.0,-1.0344889163970947,-167,9844.0
7900,0.2412904053926468,-3.7247138023376465,-50,5346.0,0.7035520672798157,-117,9844.0
7910,0.2413947880268097,-7.269274711608887,-119,5346.0,-4.697047233581543,-102,9844.0
7920,0.241201713681221,-8.796157836914062,-85,5346.0,-6.902572154998779,-134,9844.0
7930,0.24131454527378082,-7.9297919273376465,-120,5346.0,-9.394686698913574,-48,9844.0
7940,0.24133379757404327,-6.9840617179870605,-164,5346.0,-7.312514781951904,11,9844.0
7950,0.24196158349514008,-6.098870754241943,-156,5346.0,-4.02145528793335,115,9844.0
7960,0.24204577505588531,-5.066042900085449,-145,5346.0,-3.381088972091675,-6,9844.0
7970,0.2422170639038086,1.5214624404907227,2,5346.0,-1.5570958852767944,19,9844.0
7980,0.24212348461151123,1.7077044248580933,3,5346.0,4.4895806312561035,63,9844.0
7990,0.2420727163553238,2.2584662437438965,109,5346.0,2.154776096343994,-97,9844.0
8000,0.24184885621070862,1.2341846227645874,108,5346.0,3.2796061038970947,84,9844.0
8010,0.24141928553581238,2.2290687561035156,161,5346.0,0.23329812288284302,-147,9844.0
8020,0.24174728989601135,3.379887580871582,82,5346.0,0.05449831113219261,-48,9844.0
8030,0.24278585612773895,1.3366434574127197,66,5346.0,-1.6411371231079102,-57,9844.0
8040,0.24263642728328705,-0.6349822878837585,-34,5346.0,-0.556763231754303,32,9844.0
8050,0.24252529442310333,0.9710505604743958,-118,5346.0,-1.8376291990280151,44,9844.0
8060,0.24247834086418152,0.7637413144111633,-117,5346.0,-2.3016600608825684,108,9844.0
8070,0.2424353063106537,2.4013967514038086,-67,5346.0,-0.3534260392189026,147,9844.0
8080,0.24387799203395844,2.2300868034362793,-64,5346.0,-1.2755628824234009,24,9844.0
8090,0.24401149153709412,3.7875404357910156,49,5346.0,3.844364643096924,62,9844.0
8100,0.2442496120929718,6.101476192474365,99,5346.0,-2.006911277770996,-48,9844.0
8110,0.24436914920806885,5.287890434265137,103,5346.0,1.391621470451355,-17,9844.0
8120,0.24602767825126648,4.001803874969482,104,5346.0,0.7196924090385437,94,9844.0
8130,0.24626094102859497,5.773038864135742,160,5346.0,2.0491418838500977,-75,9844.0
8140,0.24642589688301086,2.3895695209503174,157,5346.0,5.144545555114746,6,9844.0
8150,0.24655453860759735,1.683205485343933,116,5346.0,3.963414192199707,-145,9844.0
8160,0.24659280478954315,-1.613271713256836,116,5346.0,3.134716272354126,-45,9844.0
8170,0.24818019568920135,-3.3528385162353516,45,5346.0,4.887277603149414,-24,9844.0
8180,0.2486312985420227,-3.7635271549224854,-10,5346.0,2.4491825103759766,-82,9844.0
8190,0.2490198016166687,-4.4155988693237305,-87,5346.0,-3.698115348815918,-49,9844.0
8200,0.2495480477809906,-5.109903335571289,-86,5346.0,-1.2157131433486938,-130,9844.0
8210,0.2514536380767822,-4.549102306365967,-137,5346.0,-2.3342437744140625,-61,9844.0
8220,0.2519574761390686,-1.473157525062561,-57,5346.0,-1.7579030990600586,-111,9844.0
8230,0.2523576617240906,1.876888632774353,-7,5346.0,1.1854946613311768,-26,9844.0
8240,0.2529001832008362,2.4851958751678467,61,5346.0,-2.5300652980804443,-96,9844.0
8250,0.2540922164916992,6.968985557556152,136,5346.0,1.8596491813659668,-50,9844.0
8260,0.2546314299106598,6.863874435424805,140,5346.0,-0.939066469669342,-76,9844.0
8270,0.2551286518573761,4.452816009521484,38,5346.0,3.556431293487549,-36,9844.0
8280,0.2557264268398285,1.0094108581542969,29,5346.0,-2.6199419498443604,-89,9844.0
8290,0.2563866078853607,-0.5574511885643005,-31,5346.0,-0.8558330535888672,-41,9844.0
8300,0.2580900192260742,-1.4452418088912964,3,5346.0,-4.710028648376465,-159,9844.0
8310,0.25901052355766296,-3.6100926399230957,-38,5346.0,-4.829634189605713,-196,9844.0
8320,0.2596875727176666,-5.594601631164551,-63,5346.0,-5.457405090332031,-245,9844.0
8330,0.2605968713760376,-8.528940200805664,-66,5346.0,-1.9754823446273804,-155,9844.0
8340,0.2612760066986084,-7.260314464569092,-98,5346.0,-4.273522853851318,-150,9844.0
8350,0.2621490955352783,-6.8927764892578125,-109,5346.0,-2.3956379890441895,-157,9844.0
8360,0.2629636526107788,-4.645497798919678,-36,5346.0,-0.568427562713623,-47,9844.0
8370,0.26376819610595703,-3.5044963359832764,-39,5346.0,2.170677661895752,-47,9844.0
8380,0.26462891697883606,1.588518500328064,51,5346.0,1.630587100982666,-27,9844.0
8390,0.2635582983493805,4.345239162445068,74,5346.0,-0.6736377477645874,54,9844.0
8400,0.26429012417793274,4.695289611816406,67,5346.0,2.5855138301849365,85,9844.0
8410,0.26493313908576965,4.417657852172852,60,5346.0,2.311906099319458,186,9844.0
8420,0.2656393349170685,3.7381393909454346,39,5346.0,4.926229476928711,147,9844.0
8430,0.265213280916214,2.8194808959960938,23,5346.0,4.1986799240112305,114,9844.0
8440,0.2658163905143738,1.7218588590621948,-16,5346.0,2.2682836055755615,16,9844.0
8450,0.26632779836654663,-0.038214061409235,-19,5346.0,8.675760269165039,37,9844.0
8460,0.26679760217666626,-0.9291989207267761,-13,5346.0,3.78486704826355,28,9844.0
8470,0.26617392897605896,-1.0372953414916992,-23,5346.0,-0.7889838814735413,-135,9844.0
8480,0.2665392756462097,-1.8448301553726196,1,5346.0,0.649363100528717,-106,9844.0
8490,0.2667236030101776,-1.5885807275772095,-6,5346.0,-2.1034655570983887,-58,9844.0
8500,0.26815298199653625,-2.4305055141448975,-12,5346.0,-1.4740829467773438,-99,9844.0
8510,0.26847711205482483,-4.060569763183594,-51,5346.0,-4.761804103851318,9,9844.0
8520,0.26705044507980347,-4.306838512420654,-55,5346.0,-0.3315054476261139,-36,9844.0
8530,0.2674121558666229,-5.941074848175049,-91,5346.0,-2.611741781234741,9,9844.0
8540,0.26772841811180115,-6.336106777191162,-135,5346.0,-2.1111268997192383,128,9844.0
8550,0.2679671049118042,-6.271883964538574,-107,5346.0,0.01928551122546196,97,9844.0
8560,0.2665364146232605,-5.780856132507324,-99,5346.0,2.5683655738830566,146,9844.0
8570,0.26661163568496704,-2.5094306468963623,-70,5346.0,4.284818172454834,130,9844.0
8580,0.2666861414909363,0.3693000078201294,-30,5346.0,3.7686586380004883,78,9844.0
8590,0.26672765612602234,2.9860806465148926,22,5346.0,4.753849983215332,126,9844.0
8600,0.26678529381752014,5.410824775695801,82,5346.0,4.117308139801025,81,9844.0
8610,0.26607969403266907,6.357804775238037,116,5346.0,4.4309868812561035,15,9844.0
8620,0.26606887578964233,7.869829177856445,70,5346.0,3.50260329246521,53,9844.0
8630,0.26605334877967834,7.056430816650391,117,5346.0,0.4299873113632202,-110,9844.0
8640,0.2660115361213684,4.751292705535889,114,5346.0,1.641221046447754,-70,9844.0
8650,0.26472142338752747,-0.3142995238304138,37,5346.0,2.1998682022094727,-51,9844.0
8660,0.26472920179367065,-0.8011776208877563,10,5346.0,3.218090772628784,-142,9844.0
8670,0.26462605595588684,-2.7740883827209473,-17,5346.0,2.0242528915405273,-23,9844.0
8680,0.2645467221736908,-3.8629424571990967,-15,5346.0,-0.7806093692779541,-118,9844.0
8690,0.26263630390167236,-1.6101878881454468,37,5346.0,-1.6970030069351196,-106,9844.0
8700,0.2624826431274414,1.3353681564331055,56,5346.0,-3.689880609512329,-163,9844.0
8710,0.26235049962997437,2.624217987060547,78,5346.0,1.9088701009750366,38,9844.0
8720,0.2622426152229309,3.9086766242980957,84,5346.0,0.14653082191944122,-55,9844.0
8730,0.2620962858200073,2.7807605266571045,96,5346.0,6.166953086853027,9,9844.0
8740,0.261027991771698,1.7947660684585571,108,5346.0,2.758633852005005,-89,9844.0
8750,0.2608754634857178,3.026200771331787,38,5346.0,1.085524320602417,-1,9844.0
8760,0.26087769865989685,-0.031971849501132965,16,5346.0,1.5973013639450073,38,9844.0
8770,0.260772168636322,1.0148452520370483,88,5346.0,-0.9907447099685669,-130,9844.0
8780,0.26046180725097656,-1.568928837776184,19,5346.0,-0.41634365916252136,-164,9844.0
8790,0.26054418087005615,-1.9922962188720703,27,5346.0,-3.8659510612487793,-91,9844.0
8800,0.2606474757194519,-3.064761161804199,14,5346.0,-6.084138870239258,-144,9844.0
8810,0.26077982783317566,-0.28905585408210754,95,5346.0,-4.370776176452637,-147,9844.0
8820,0.26095765829086304,-0.8360924124717712,79,5346.0,-1.3307149410247803,-161,9844.0
8830,0.2615434527397156,0.6183885931968689,40,5346.0,0.23161858320236206,-1,9844.0
8840,0.26196861267089844,0.4159592390060425,56,5346.0,0.9837984442710876,-72,9844.0
8850,0.2623918950557709,0.1560675948858261,7,5346.0,0.7862978577613831,31,9844.0
8860,0.2628629505634308,0.7315444946289062,31,5346.0,4.770090103149414,31,9844.0
8870,0.2632116973400116,0.6080672144889832,90,5346.0,4.622378826141357,-74,9844.0
8880,0.2637626826763153,0.8914006352424622,83,5346.0,8.84306812286377,-1,9844.0
8890,0.26439523696899414,0.5604939460754395,46,5346.0,3.770728349685669,76,9844.0
8900,0.2650439739227295,2.3380239009857178,57,5346.0,0.03788604587316513,-60,9844.0
8910,0.2669413685798645,1.1881272792816162,98,5346.0,0.350956529378891,-91,9844.0
8920,0.26772281527519226,1.431134581565857,32,5346.0,-1.8860660791397095,-88,9844.0
8930,0.2685461640357971,2.1360368728637695,102,5346.0,-2.998974323272705,-217,9844.0
8940,0.2694339454174042,3.2578821182250977,88,5346.0,-4.683586597442627,-171,9844.0
8950,0.2702699899673462,3.6425516605377197,89,5346.0,-5.9266462326049805,-143,9844.0
8960,0.2718995213508606,3.4539709091186523,70,5346.0,-5.379656791687012,-135,9844.0
8970,0.2726985812187195,2.95876145362854,83,5346.0,-3.5538063049316406,-63,9844.0
8980,0.2741090953350067,3.660917043685913,113,5346.0,-4.584962368011475,-147,9844.0
8990,0.2755064368247986,2.344205379486084,15,5346.0,-5.864381790161133,-24,9844.0
9000,0.2774929106235504,3.008934259414673,48,5346.0,-3.5461933612823486,-11,9844.0
9010,0.2785607576370239,2.875216484069824,60,5346.0,-5.813545227050781,-57,9844.0
9020,0.2796550691127777,1.452920913696289,21,5346.0,-4.358932971954346,56,9844.0
9030,0.2806410491466522,1.5555580854415894,-52,5346.0,-6.530853748321533,81,9844.0
9040,0.28288841247558594,2.0086991786956787,20,5346.0,-3.999446153640747,-61,9844.0
9050,0.28396424651145935,2.2596139907836914,20,5346.0,-0.4801739454269409,14,9844.0
9060,0.2849947214126587,1.039189338684082,9,5346.0,1.2115451097488403,-15,9844.0
9070,0.28602978587150574,-0.5019915103912354,-17,5346.0,-0.2081967145204544,-46,9844.0
9080,0.28707098960876465,0.7584164142608643,0,5346.0,1.00079345703125,-17,9844.0
9090,0.28725308179855347,0.39967745542526245,69,5346.0,-0.201456218957901,-132,9844.0
9100,0.28821900486946106,1.0715152025222778,64,5346.0,5.3471808433532715,34,9844.0
9110,0.28905272483825684,0.4778590500354767,8,5346.0,7.677943706512451,73,9844.0
9120,0.28985077142715454,0.925550639629364,22,5346.0,6.464358329772949,2,9844.0
9130,0.29000380635261536,-0.6007871031761169,-12,5346.0,5.58748197555542,114,9844.0
9140,0.290719598531723,-1.833664059638977,-46,5346.0,0.23353376984596252,148,9844.0
9150,0.2913845181465149,-0.5229416489601135,-30,5346.0,1.5878493785858154,47,9844.0
9160,0.29202231764793396,-1.4537029266357422,-28,5346.0,-0.8497768640518188,79,9844.0
9170,0.29257071018218994,-0.7412106990814209,-51,5346.0,0.5500999093055725,158,9844.0
9180,0.2918854355812073,0.9328795671463013,-34,5346.0,-3.9901747703552246,-48,9844.0
9190,0.2923603355884552,0.9428532123565674,-20,5346.0,1.44001305103302,56,9844.0
9200,0.29283201694488525,-2.0604119300842285,-53,5346.0,0.00781992543488741,19,9844.0
9210,0.29366055130958557,-6.067379951477051,-131,5346.0,1.4104892015457153,-9,9844.0
9220,0.2944019138813019,-8.80200481414795,-104,5346.0,2.978793144226074,-39,9844.0
9230,0.29473522305488586,-9.363781929016113,-144,5346.0,4.962797164916992,15,9844.0
9240,0.29496580362319946,-7.905106067657471,-141,5346.0,4.285414695739746,-13,9844.0
9250,0.29524338245391846,-8.751143455505371,-122,5346.0,7.831233978271484,30,9844.0
9260,0.29608801007270813,-9.48338508605957,-118,5346.0,4.287463188171387,-66,9844.0
9270,0.2963361144065857,-8.844703674316406,-44,5346.0,0.9504981637001038,-81,9844.0
9280,0.2965201139450073,-6.955613613128662,-34,5346.0,2.200620412826538,-143,9844.0
9290,0.2966569662094116,-5.017560005187988,-32,5346.0,0.47442126274108887,-44,9844.0
9300,0.2969244420528412,-4.726799488067627,-49,5346.0,1.1187756061553955,-61,9844.0
9310,0.2958855926990509,-0.6736183762550354,71,5346.0,-3.9465391635894775,-222,9844.0
9320,0.29608920216560364,0.28121671080589294,34,5346.0,0.20262964069843292,-74,9844.0
9330,0.296240895986557,2.071979284286499,78,5346.0,-3.123408555984497,-91,9844.0
9340,0.2963847219944,2.6775999069213867,98,5346.0,-0.926762044429779,-99,9844.0
9350,0.2967667877674103,3.418433904647827,112,5346.0,-0.3490293622016907,-120,9844.0
9360,0.2969624996185303,2.1945018768310547,147,5346.0,0.2625541388988495,-67,9844.0
9370,0.297139972448349,2.0385138988494873,137,5346.0,-3.434873104095459,-87,9844.0
9380,0.297408789396286,3.40055775642395,62,5346.0,-0.6684909462928772,-66,9844.0
9390,0.29772329330444336,2.9451820850372314,75,5346.0,-0.0007367347716353834,-40,9844.0
9400,0.29894670844078064,0.1317313313484192,54,5346.0,3.083390474319458,-14,9844.0
9410,0.2993151843547821,-2.9683847427368164,-22,5346.0,4.862249851226807,18,9844.0
9420,0.2998441159725189,-1.2070012092590332,-35,5346.0,1.184435486793518,-44,9844.0
9430,0.3004703223705292,-1.8977552652359009,3,5346.0,-4.445555686950684,-130,9844.0
9440,0.3011479079723358,-1.6319440603256226,5,5346.0,-1.673964262008667,-109,9844.0
9450,0.30192920565605164,-0.8574511408805847,35,5346.0,-5.573153018951416,-62,9844.0
9460,0.30271345376968384,0.8042298555374146,41,5346.0,-6.636235237121582,-137,9844.0
9470,0.3034864664077759,1.484820008277893,21,5346.0,-4.858438491821289,-100,9844.0
9480,0.30432140827178955,1.9551953077316284,107,5346.0,-2.6553664207458496,-58,9844.0
9490,0.3055209517478943,1.7719860076904297,94,5346.0,0.5302125215530396,-51,9844.0
9500,0.3066227436065674,4.154018878936768,40,5346.0,-0.2505241930484772,-22,9844.0
9510,0.30768918991088867,3.0409932136535645,69,5346.0,-0.45697104930877686,23,9844.0
9520,0.30877745151519775,2.67683482170105,96,5346.0,-1.8169937133789062,36,9844.0
9530,0.3095569610595703,4.304736137390137,82,5346.0,-2.455326795578003,93,9844.0
9540,0.31065112352371216,3.744924306869507,39,5346.0,-3.7141342163085938,44,9844.0
9550,0.31175053119659424,4.44813346862793,38,5346.0,-5.094871520996094,-3,9844.0
9560,0.31276217103004456,2.5820562839508057,23,5346.0,-4.898249626159668,-18,9844.0
9570,0.31275975704193115,1.803754210472107,18,5346.0,-6.2156853675842285,-104,9844.0
9580,0.3138260543346405,-0.2619287371635437,-25,5346.0,-3.3965134620666504,-113,9844.0
9590,0.31483614444732666,-2.2903780937194824,-32,5346.0,-5.718161582946777,-116,9844.0
9600,0.3158184289932251,-3.6667120456695557,-92,5346.0,-7.885439872741699,-253,9844.0
9610,0.31681856513023376,-3.765671730041504,-31,5346.0,-7.6119513511657715,-208,9844.0
9620,0.3162093758583069,-2.5995829105377197,-3,5346.0,-4.880941390991211,-120,9844.0
9630,0.31700098514556885,-4.345646381378174,-43,5346.0,0.2753713130950928,9,9844.0
9640,0.31775182485580444,-3.6831204891204834,-66,5346.0,-0.8730335831642151,2,9844.0
9650,0.31846609711647034,-2.7462329864501953,-37,5346.0,-2.012357473373413,107,9844.0
9660,0.3179892301559448,-3.0134551525115967,-54,5346.0,1.909480094909668,148,9844.0
9670,0.3186033368110657,1.4298039674758911,-23,5346.0,-2.6267693042755127,130,9844.0
9680,0.3192051947116852,-0.6517988443374634,-4,5346.0,-0.5260592103004456,-25,9844.0
9690,0.31982898712158203,-2.3773536682128906,-37,5346.0,3.1971595287323,-29,9844.0
9700,0.31925901770591736,-3.031177043914795,-38,5346.0,0.5940642356872559,-71,9844.0
9710,0.31983304023742676,-5.618381977081299,-101,5346.0,-1.214194893836975,-163,9844.0
9720,0.32028868794441223,-4.5688796043396,-50,5346.0,0.040782928466796875,-110,9844.0
9730,0.32072171568870544,-3.6344869136810303,-18,5346.0,-0.5493451952934265,-65,9844.0
9740,0.32109034061431885,-1.4582191705703735,-12,5346.0,-1.1749683618545532,67,9844.0
9750,0.3212737739086151,0.05872618407011032,5,5346.0,2.1003003120422363,152,9844.0
9760,0.3215911090373993,0.6826971173286438,20,5346.0,2.7465503215789795,155,9844.0
9770,0.32189902663230896,-0.6220053434371948,-24,5346.0,3.1335744857788086,129,9844.0
9780,0.322211891412735,1.2955273389816284,17,5346.0,4.763208866119385,106,9844.0
9790,0.3219487965106964,-1.4404574632644653,-32,5346.0,4.060810565948486,91,9844.0
9800,0.3222423493862152,-0.2168126106262207,-28,5346.0,7.419249057769775,35,9844.0
9810,0.322551965713501,-0.9597164392471313,-31,5346.0,6.136674404144287,15,9844.0
9820,0.32291093468666077,-1.707884430885315,15,5346.0,5.151361465454102,-42,9844.0
9830,0.32329240441322327,-1.4204005002975464,22,5346.0,8.858484268188477,-70,9844.0
9840,0.32419443130493164,-0.05609111487865448,6,5346.0,2.97790265083313,10,9844.0
9850,0.3245789110660553,1.92034113407135,39,5346.0,-0.04762186482548714,101,9844.0
9860,0.3249809443950653,2.0723376274108887,44,5346.0,-0.31026211380958557,55,9844.0
9870,0.3254077136516571,1.0257295370101929,-16,5346.0,3.3335013389587402,145,9844.0
9880,0.32629042863845825,-0.3988877236843109,-43,5346.0,2.4283158779144287,145,9844.0
9890,0.32679256796836853,-0.65813148021698,-50,5346.0,-2.0962302684783936,-43,9844.0
9900,0.32735931873321533,-1.1864529848098755,-21,5346.0,2.1090571880340576,7,9844.0
9910,0.32792922854423523,-1.9460119009017944,-24,5346.0,2.9194016456604004,61,9844.0
9920,0.3286398649215698,-0.42659297585487366,-2,5346.0,1.2786251306533813,-13,9844.0
9930,0.3291434049606323,-0.9059489965438843,-49,5346.0,3.527198314666748,-108,9844.0
9940,0.32975608110427856,0.23540440201759338,19,5346.0,1.1569851636886597,-102,9844.0
9950,0.3302905261516571,-0.4539491534233093,3,5346.0,-1.3593894243240356,-117,9844.0
9960,0.33065518736839294,-3.2699623107910156,-33,5346.0,-1.1746834516525269,-78,9844.0
9970,0.3311050236225128,-3.7818055152893066,-35,5346.0,-2.7155277729034424,-69,9844.0
9980,0.3315885663032532,-6.28602409362793,-77,5346.0,-4.91360330581665,54,9844.0
9990,0.33223485946655273,-5.225214004516602,-137,5346.0,-5.699282646179199,49,9844.0
10000,0.3328278362751007,-3.495997667312622,-98,5346.0,-9.292571067810059,-15,9844.0
10010,0.3321603238582611,-4.008177757263184,-64,5346.0,-7.926467418670654,-89,9844.0
10020,0.3327479958534241,-3.8799967765808105,-34,5346.0,-3.651517868041992,-200,9844.0
10030,0.3333451747894287,-2.6890485286712646,-15,5346.0,-2.314954996109009,-112,9844.0
10040,0.3339536488056183,-0.9664316177368164,6,5346.0,1.2826260328292847,-136,9844.0
10050,0.33454862236976624,0.11946769058704376,-11,5346.0,4.047544956207275,31,9844.0
10060,0.3334302008152008,-0.056059129536151886,3,5346.0,5.408758640289307,67,9844.0
10070,0.333869993686676,-0.2395252138376236,13,5346.0,8.080900192260742,94,9844.0
10080,0.33430030941963196,-0.31049078702926636,-11,5346.0,7.6743364334106445,155,9844.0
10090,0.3347216546535492,-0.8488020300865173,-24,5346.0,4.891119480133057,81,9844.0
10100,0.33510762453079224,-1.3966875076293945,-47,5346.0,1.587174654006958,84,9844.0
10110,0.33554303646087646,-0.6474252343177795,-1,5346.0,0.7848971486091614,66,9844.0
10120,0.3359566330909729,-2.1919331550598145,-7,5346.0,-0.5940253734588623,-28,9844.0
10130,0.3363663852214813,1.2254433631896973,15,5346.0,-3.319031000137329,-72,9844.0
10140,0.3367207944393158,1.9686866998672485,65,5346.0,-4.127767086029053,-132,9844.0
10150,0.3383272886276245,1.7227418422698975,49,5346.0,0.25171515345573425,-120,9844.0
10160,0.33865803480148315,3.5754575729370117,81,5346.0,-0.23509876430034637,-38,9844.0
10170,0.3389955461025238,5.4974565505981445,51,5346.0,-3.4836153984069824,45,9844.0
10180,0.3393634259700775,3.5589869022369385,54,5346.0,0.18319743871688843,127,9844.0
10190,0.33984488248825073,4.62335729598999,-33,5346.0,-0.8972046971321106,268,9844.0
10200,0.3402743935585022,0.9779660701751709,-47,5346.0,6.460360050201416,164,9844.0
10210,0.3407444357872009,-0.1546621173620224,-13,5346.0,2.990145683288574,-124,9844.0
10220,0.3412385582923889,-0.9662302136421204,21,5346.0,3.9867732524871826,-183,9844.0
10230,0.3433459997177124,-2.045581340789795,0,5346.0,2.1674716472625732,-34,9844.0
10240,0.3438529372215271,0.9344293475151062,36,5346.0,1.5109905004501343,11,9844.0
10250,0.34433713555336,1.0811775922775269,19,5346.0,1.418179988861084,120,9844.0
10260,0.3448019027709961,-0.902603805065155,9,5346.0,4.047924518585205,89,9844.0
10270,0.345260351896286,1.3298168182373047,35,5346.0,-1.0052597522735596,-40,9844.0
10280,0.34741124510765076,3.226346731185913,-2,5346.0,-0.6551041603088379,-2,9844.0
10290,0.3479309678077698,1.3362089395523071,41,5346.0,2.197464942932129,69,9844.0
10300,0.3484124541282654,2.1060242652893066,34,5346.0,2.564831495285034,14,9844.0
10310,0.3489687144756317,2.446537494659424,60,5346.0,2.7174887657165527,-20,9844.0
10320,0.35085034370422363,2.878842830657959,32,5346.0,-0.19496987760066986,-85,9844.0
10330,0.3514566719532013,0.12504510581493378,29,5346.0,2.0946414470672607,8,9844.0
10340,0.3520865738391876,-0.6062335968017578,28,5346.0,3.6559066772460938,-22,9844.0
10350,0.3527218997478485,1.2690755128860474,18,5346.0,-3.2207767963409424,-34,9844.0
10360,0.3533313572406769,0.9689704179763794,52,5346.0,-5.174092769622803,-30,9844.0
10370,0.35413578152656555,-0.41744720935821533,7,5346.0,-5.810579776763916,42,9844.0
10380,0.3546862304210663,1.8600480556488037,33,5346.0,-8.137125968933105,-61,9844.0
10390,0.3552950322628021,1.6021199226379395,34,5346.0,-5.059032917022705,-119,9844.0
10400,0.3558725118637085,1.920030951499939,37,5346.0,-5.383540153503418,-151,9844.0
10410,0.3574378490447998,0.8946617245674133,-53,5346.0,-2.911223888397217,-31,9844.0
10420,0.3580569922924042,1.7312828302383423,33,5346.0,-3.4398434162139893,-20,9844.0
10430,0.35866448283195496,2.024655342102051,8,5346.0,0.9317301511764526,150,9844.0
10440,0.35923314094543457,1.9230351448059082,-18,5346.0,2.4489712715148926,78,9844.0
10450,0.35985851287841797,1.2543364763259888,2,5346.0,-2.5866620540618896,46,9844.0
10460,0.360405832529068,-0.39473822712898254,-6,5346.0,3.780982732772827,-1,9844.0
10470,0.3609786927700043,-2.4038257598876953,-52,5346.0,0.8943096399307251,-46,9844.0
10480,0.36155200004577637,-3.7690017223358154,-70,5346.0,-0.7243520021438599,-57,9844.0
10490,0.36206158995628357,-2.9279539585113525,-66,5346.0,-5.2603020668029785,59,9844.0
10500,0.3636666238307953,-1.9913018941879272,-6,5346.0,-5.379275798797607,56,9844.0
10510,0.3641853630542755,-0.43215101957321167,-48,5346.0,-2.9216508865356445,-7,9844.0
10520,0.36467254161834717,-0.2618316113948822,8,5346.0,-3.492138147354126,-22,9844.0
10530,0.3651028275489807,0.932366132736206,42,5346.0,-2.307612419128418,-91,9844.0
10540,0.36451736092567444,-0.9066882133483887,42,5346.0,-6.163333892822266,-195,9844.0
10550,0.36493757367134094,-0.3702865242958069,50,5346.0,-7.481479167938232,-252,9844.0
10560,0.3653423488140106,-3.251206398010254,-81,5346.0,-2.1359286308288574,71,9844.0
10570,0.36568349599838257,-2.7901077270507812,-47,5346.0,-6.4641499519348145,59,9844.0
10580,0.3671395778656006,-1.581504225730896,0,5346.0,-3.3352878093719482,31,9844.0
10590,0.36751165986061096,-0.38789400458335876,-35,5346.0,-2.443711757659912,-106,9844.0
10600,0.3678573966026306,-1.2356020212173462,-27,5346.0,-2.97725248336792,-116,9844.0
10610,0.36823877692222595,1.5271852016448975,46,5346.0,-0.24576517939567566,-122,9844.0
10620,0.3685660660266876,0.9450051188468933,-3,5346.0,-0.5098738074302673,-15,9844.0
10630,0.3701096177101135,0.8686726093292236,15,5346.0,5.8016557693481445,133,9844.0
10640,0.3704308867454529,0.03800071030855179,22,5346.0,3.6474456787109375,151,9844.0
10650,0.37073540687561035,-1.4202977418899536,-36,5346.0,6.2674031257629395,59,9844.0
10660,0.37105080485343933,-0.45858415961265564,-23,5346.0,6.907028675079346,110,9844.0
10670,0.37123385071754456,-1.928056240081787,-15,5346.0,10.775382995605469,127,9844.0
10680,0.3715638518333435,-0.609383761882782,-9,5346.0,2.4264514446258545,41,9844.0
10690,0.3719138205051422,-3.0330095291137695,-53,5346.0,1.2168315649032593,89,9844.0
10700,0.37226513028144836,-6.233613967895508,-66,5346.0,0.045284517109394073,15,9844.0
10710,0.3726354241371155,-1.1167774200439453,-101,5346.0,-1.2541722059249878,41,9844.0
10720,0.3731157183647156,-2.530362844467163,-37,5346.0,-4.457941055297852,-95,9844.0
10730,0.3734365701675415,-1.7580363750457764,-45,5346.0,-1.6052159070968628,-60,9844.0
10740,0.373744398355484,-0.6324572563171387,-15,5346.0,-3.585449695587158,-124,9844.0
10750,0.374039888381958,-2.468268394470215,7,5346.0,-0.6534959673881531,-58,9844.0
10760,0.37618833780288696,1.4640488624572754,44,5346.0,-0.8964110612869263,31,9844.0
10770,0.3765338063240051,2.670088052749634,22,5346.0,-1.2053163051605225,131,9844.0
10780,0.3768777549266815,2.68149471282959,0,5346.0,0.8608373403549194,104,9844.0
10790,0.37722715735435486,2.7864441871643066,25,5346.0,-0.7451962232589722,21,9844.0
10800,0.37757474184036255,-0.9003626704216003,-12,5346.0,3.9013237953186035,33,9844.0
10810,0.3785189092159271,-0.631636381149292,-23,5346.0,7.909034729003906,24,9844.0
10820,0.3789181411266327,-0.27303776144981384,13,5346.0,5.33206844329834,-66,9844.0
10830,0.3793027102947235,-2.109086513519287,-38,5346.0,4.29379415512085,39,9844.0
10840,0.37964490056037903,-2.769819498062134,-75,5346.0,6.299482345581055,106,9844.0
10850,0.380378782749176,-2.052493095397949,-46,5346.0,4.851136684417725,176,9844.0
10860,0.3806898295879364,-0.31912076473236084,24,5346.0,0.4514874815940857,91,9844.0
10870,0.3809891641139984,-1.144556999206543,2,5346.0,-0.49717047810554504,36,9844.0
10880,0.38126909732818604,-0.8677018284797668,49,5346.0,1.1263928413391113,-119,9844.0
10890,0.38285937905311584,0.5665484666824341,10,5346.0,-3.349534511566162,-175,9844.0
10900,0.3831537663936615,1.616333246231079,38,5346.0,-0.5616804957389832,-52,9844.0
10910,0.3834195137023926,3.5041353702545166,49,5346.0,-2.04547381401062,7,9844.0
10920,0.3836567997932434,3.765315294265747,26,5346.0,-2.9736196994781494,46,9844.0
10930,0.3838732838630676,3.685476541519165,82,5346.0,-0.9985315799713135,78,9844.0
10940,0.3849094808101654,1.2038874626159668,-2,5346.0,2.0522360801696777,99,9844.0
10950,0.3851444125175476,1.3364338874816895,39,5346.0,1.074099063873291,-85,9844.0
10960,0.38538649678230286,-1.7922370433807373,-26,5346.0,8.156996726989746,37,9844.0
10970,0.3856503665447235,-2.842545747756958,-14,5346.0,7.530502796173096,70,9844.0
10980,0.38594892621040344,-4.539230823516846,-105,5346.0,8.958986282348633,141,9844.0
10990,0.3862238824367523,-4.322572708129883,-97,5346.0,4.793765544891357,141,9844.0
11000,0.3864792585372925,-5.391183853149414,-66,5346.0,3.6484363079071045,171,9844.0
11010,0.3867541253566742,-3.1580262184143066,-54,5346.0,0.33753636479377747,138,9844.0
11020,0.38699862360954285,-1.9705734252929688,-95,5346.0,-1.8014165163040161,18,9844.0
11030,0.38718363642692566,-2.0292513370513916,-17,5346.0,-1.6004116535186768,11,9844.0
11040,0.3873431384563446,0.7025245428085327,61,5346.0,-3.3528313636779785,-145,9844.0
11050,0.387471467256546,0.1375366747379303,22,5346.0,-2.720850706100464,-183,9844.0
11060,0.38758811354637146,-0.7322410345077515,9,5346.0,-5.558905601501465,-208,9844.0
11070,0.3889889717102051,-3.781294345855713,-77,5346.0,-1.1050829887390137,-11,9844.0
11080,0.3891872465610504,-8.964357376098633,-145,5346.0,4.5732316970825195,112,9844.0
11090,0.38936930894851685,-9.132257461547852,-187,5346.0,4.736961841583252,148,9844.0
11100,0.3895412087440491,-10.613727569580078,-197,5346.0,8.139174461364746,321,9844.0
11110,0.3898657262325287,-11.706636428833008,-238,5346.0,10.318211555480957,273,9844.0
11120,0.3900076448917389,-8.779255867004395,-163,5346.0,6.697474479675293,231,9844.0
11130,0.39015501737594604,-3.9649415016174316,-44,5346.0,4.802542209625244,48,9844.0
11140,0.39034005999565125,6.205910682678223,90,5346.0,1.9649732112884521,46,9844.0
11150,0.3905857801437378,13.653011322021484,187,5346.0,-5.0177435874938965,-29,9844.0
11160,0.3937647342681885,15.802008628845215,177,5346.0,-6.964168071746826,-60,9844.0
11170,0.394255131483078,10.165042877197266,128,5346.0,-6.052117824554443,4,9844.0
11180,0.3947821855545044,9.368348121643066,134,5346.0,-6.665621757507324,-67,9844.0
11190,0.39530688524246216,6.473861217498779,74,5346.0,1.5844684839248657,-49,9844.0
11200,0.39548173546791077,4.047346591949463,58,5346.0,-1.3032608032226562,-94,9844.0
11210,0.3959696590900421,0.22653555870056152,15,5346.0,3.798837661743164,-3,9844.0
11220,0.39646685123443604,-4.467337608337402,-38,5346.0,2.6322755813598633,-46,9844.0
11230,0.3969615399837494,-6.594180107116699,-57,5346.0,3.6780786514282227,29,9844.0
11240,0.39843156933784485,-5.0688066482543945,-49,5346.0,-0.02200976386666298,42,9844.0
11250,0.3989502489566803,-3.8307013511657715,-36,5346.0,2.871067523956299,31,9844.0
11260,0.3993888795375824,0.3297276198863983,33,5346.0,-5.0731329917907715,47,9844.0
11270,0.39975008368492126,3.074073553085327,12,5346.0,-5.257323265075684,26,9844.0
11280,0.40001705288887024,4.735254287719727,63,5346.0,-2.311427354812622,33,9844.0
11290,0.39855316281318665,5.814554214477539,93,5346.0,-3.002610445022583,0,9844.0
11300,0.3986808955669403,6.4542927742004395,142,5346.0,-0.4261772632598877,38,9844.0
11310,0.3987606465816498,7.971521377563477,94,5346.0,-6.707401275634766,-78,9844.0
11320,0.3988162577152252,4.7610321044921875,96,5346.0,-0.7836624979972839,-82,9844.0
11330,0.39852795004844666,1.5616999864578247,39,5346.0,-4.0845417976379395,-140,9844.0
11340,0.39857158064842224,2.0247750282287598,61,5346.0,-1.687923789024353,-75,9844.0
11350,0.3986053466796875,0.3204787075519562,32,5346.0,-2.99062442779541,-154,9844.0
11360,0.3985947072505951,1.4539092779159546,64,5346.0,-3.3667819499969482,-70,9844.0
11370,0.398540735244751,0.16112785041332245,80,5346.0,0.7099747657775879,-50,9844.0
11380,0.39982011914253235,1.6592788696289062,17,5346.0,2.519012689590454,148,9844.0
11390,0.3997730612754822,1.57455313205719,13,5346.0,8.47374153137207,260,9844.0
11400,0.39969682693481445,2.9996845722198486,-16,5346.0,6.080060005187988,259,9844.0
11410,0.39959603548049927,5.022393226623535,63,5346.0,6.411349773406982,233,9844.0
11420,0.3992883563041687,6.888409614562988,60,5346.0,4.57578706741333,152,9844.0
11430,0.3991374373435974,3.8510544300079346,13,5346.0,3.3678786754608154,76,9844.0
11440,0.39901259541511536,-0.3952355980873108,-3,5346.0,3.7671191692352295,-50,9844.0
11450,0.39879554510116577,-1.113036036491394,-12,5346.0,-1.8923929929733276,-89,9844.0
11460,0.39858582615852356,-2.582909345626831,-5,5346.0,-2.620164394378662,-139,9844.0
11470,0.3989751935005188,-2.9763875007629395,-35,5346.0,-2.4845266342163086,-148,9844.0
11480,0.39888232946395874,-2.6609811782836914,-28,5346.0,-2.400407075881958,-101,9844.0
11490,0.3988127112388611,-2.017244815826416,30,5346.0,-2.371656656265259,-43,9844.0
11500,0.3987452983856201,3.7592272758483887,26,5346.0,-4.09934139251709,-62,9844.0
11510,0.39798402786254883,3.071549415588379,78,5346.0,-0.015024174936115742,-33,9844.0
11520,0.3978523910045624,2.929596424102783,24,5346.0,4.476595878601074,113,9844.0
11530,0.39773672819137573,0.8287043571472168,50,5346.0,4.023816108703613,100,9844.0
11540,0.39764729142189026,0.82069331407547,-17,5346.0,4.798131465911865,193,9844.0
11550,0.40004122257232666,-0.45576295256614685,-44,5346.0,2.836914300918579,123,9844.0
11560,0.4001423418521881,-0.20398451387882233,-46,5346.0,2.0154457092285156,132,9844.0
11570,0.4002014398574829,-1.1606675386428833,-62,5346.0,-0.7506850361824036,72,9844.0
11580,0.4002417325973511,-0.8181225061416626,-62,5346.0,2.742091417312622,145,9844.0
11590,0.40030336380004883,-0.5721787810325623,-52,5346.0,3.7961106300354004,85,9844.0
11600,0.40147343277931213,-0.7864757180213928,-30,5346.0,2.7694478034973145,42,9844.0
11610,0.4016387462615967,2.067725658416748,90,5346.0,-0.5252382755279541,-79,9844.0
11620,0.4018230736255646,4.008724689483643,81,5346.0,2.4839460849761963,6,9844.0
11630,0.4019715487957001,4.67460298538208,74,5346.0,4.451653003692627,34,9844.0
11640,0.4028482437133789,6.693692207336426,116,5346.0,-0.7448955774307251,-94,9844.0
11650,0.4030382037162781,6.297798156738281,104,5346.0,2.157829523086548,-58,9844.0
11660,0.40323466062545776,4.53436279296875,76,5346.0,2.1189212799072266,-40,9844.0
11670,0.4034103453159332,4.347970008850098,81,5346.0,0.2667537033557892,-44,9844.0
11680,0.40489158034324646,3.8175413608551025,60,5346.0,2.0325872898101807,42,9844.0
11690,0.4051215946674347,3.916785717010498,53,5346.0,1.3130664825439453,111,9844.0
11700,0.4053259491920471,3.1087796688079834,1,5346.0,1.4581029415130615,89,9844.0
11710,0.40546101331710815,1.8503752946853638,-12,5346.0,-3.1044604778289795,17,9844.0
11720,0.40550878643989563,2.0171291828155518,48,5346.0,0.7942174673080444,54,9844.0
11730,0.40645313262939453,2.611924886703491,9,5346.0,3.3467459678649902,55,9844.0
11740,0.4064348042011261,0.9210920929908752,24,5346.0,2.2360951900482178,-50,9844.0
11750,0.40642249584198,-0.7026256918907166,25,5346.0,1.702761173248291,-42,9844.0
11760,0.40640684962272644,0.13405141234397888,16,5346.0,2.3344125747680664,-38,9844.0
11770,0.4078225791454315,-1.8205595016479492,11,5346.0,2.7886962890625,-87,9844.0
11780,0.4079650044441223,-1.5619062185287476,-30,5346.0,-0.20098942518234253,-47,9844.0
11790,0.4081296920776367,-1.654279351234436,-10,5346.0,-1.084136724472046,86,9844.0
11800,0.408274382352829,-2.3362679481506348,-63,5346.0,-3.3995018005371094,153,9844.0
11810,0.4083724915981293,-1.1411241292953491,-50,5346.0,3.1643290519714355,207,9844.0
11820,0.4102649688720703,0.7832081317901611,-13,5346.0,-1.2589130401611328,10,9844.0
11830,0.41036638617515564,-0.16801434755325317,12,5346.0,1.2303943634033203,31,9844.0
11840,0.4104291796684265,0.1355077475309372,8,5346.0,-1.0646353960037231,12,9844.0
11850,0.41045182943344116,-2.0552256107330322,-26,5346.0,0.4800455868244171,-142,9844.0
11860,0.40947380661964417,-1.430354118347168,-8,5346.0,1.226986050605774,-71,9844.0
11870,0.4094027578830719,-0.7941915988922119,10,5346.0,-4.589786052703857,-94,9844.0
11880,0.4093608558177948,-5.611348628997803,-78,5346.0,-2.525803565979004,-10,9844.0
11890,0.40931981801986694,-2.9685468673706055,-83,5346.0,-5.640854835510254,44,9844.0
11900,0.40955132246017456,-1.3136310577392578,-53,5346.0,-9.738591194152832,-50,9844.0
11910,0.40951475501060486,-0.7497314810752869,1,5346.0,-2.599813938140869,-13,9844.0
11920,0.40947118401527405,2.3222415447235107,39,5346.0,-3.9291019439697266,-74,9844.0
11930,0.4094468951225281,0.07117193192243576,17,5346.0,-0.36134085059165955,-36,9844.0
11940,0.4093756675720215,-2.3950912952423096,-13,5346.0,2.6779673099517822,-32,9844.0
11950,0.4099317193031311,0.0548870712518692,-22,5346.0,-0.5493044853210449,-16,9844.0
11960,0.4098515510559082,-2.9004855155944824,-55,5346.0,-1.0473166704177856,27,9844.0
11970,0.4097643792629242,-5.489175796508789,-95,5346.0,-1.1725332736968994,16,9844.0
11980,0.4096521735191345,-5.151025295257568,-138,5346.0,-3.6737475395202637,21,9844.0
11990,0.40971919894218445,-6.375720500946045,-95,5346.0,-3.9510135650634766,-31,9844.0
12000,0.40961477160453796,-5.543600559234619,-92,5346.0,-5.927133083343506,-136,9844.0
12010,0.40952229499816895,-4.5941162109375,-70,5346.0,-10.185507774353027,-239,9844.0
12020,0.40942108631134033,-6.732701301574707,-101,5346.0,-2.888812303543091,-175,9844.0
12030,0.40931135416030884,-6.667177677154541,-60,5346.0,-3.2801620960235596,-74,9844.0
12040,0.4094778001308441,-3.3238162994384766,-19,5346.0,0.22592869400978088,-78,9844.0
12050,0.4094199240207672,-2.3439652919769287,-16,5346.0,6.5135674476623535,36,9844.0
12060,0.4093267023563385,-1.4712282419204712,1,5346.0,3.4158763885498047,146,9844.0
12070,0.4092313051223755,1.058658480644226,-2,5346.0,5.6993889808654785,194,9844.0
12080,0.4103016257286072,0.23546428978443146,13,5346.0,4.525118350982666,187,9844.0
12090,0.41032060980796814,-0.751585841178894,-45,5346.0,4.116911888122559,214,9844.0
12100,0.4103197753429413,-0.007081817369908094,-79,5346.0,-7.69049072265625,5,9844.0
12110,0.4103745222091675,-3.3199610710144043,-90,5346.0,-3.065056800842285,-158,9844.0
12120,0.4103802442550659,-1.8649301528930664,-25,5346.0,-7.229776382446289,-112,9844.0
12130,0.4110303223133087,-1.4453504085540771,-5,5346.0,-4.7545013427734375,-101,9844.0
12140,0.4110364019870758,-0.02416662499308586,68,5346.0,-1.9990183115005493,-129,9844.0
12150,0.41104617714881897,1.6468108892440796,75,5346.0,0.35938388109207153,-95,9844.0
12160,0.4110358953475952,3.7437095642089844,77,5346.0,-3.500370502471924,-12,9844.0
12170,0.41222402453422546,2.4184272289276123,32,5346.0,4.496738910675049,74,9844.0
12180,0.41226357221603394,0.2109529972076416,-48,5346.0,6.223743915557861,43,9844.0
12190,0.4123114049434662,-1.3538943529129028,-54,5346.0,0.40950271487236023,49,9844.0
12200,0.41236093640327454,-3.279818534851074,-72,5346.0,-0.5511175394058228,-23,9844.0
12210,0.411848783493042,-4.004384994506836,-73,5346.0,-1.6217823028564453,-95,9844.0
12220,0.41185328364372253,-4.811114311218262,-68,5346.0,-2.498561143875122,-140,9844.0
12230,0.4118487536907196,-4.435620307922363,-3,5346.0,0.38957300782203674,-89,9844.0
12240,0.4118376076221466,-0.6998270153999329,15,5346.0,-0.14464516937732697,6,9844.0
12250,0.4118120074272156,0.770979642868042,9,5346.0,-0.40007099509239197,-19,9844.0
12260,0.41427743434906006,2.3797993659973145,27,5346.0,2.354264497756958,58,9844.0
12270,0.414451003074646,2.871889352798462,59,5346.0,-0.7206381559371948,77,9844.0
12280,0.4145967364311218,2.852180242538452,39,5346.0,-3.505398988723755,92,9844.0
12290,0.414673775434494,1.8209561109542847,-34,5346.0,-1.238792061805725,93,9844.0
12300,0.4148414134979248,2.054945230484009,13,5346.0,-3.983165979385376,14,9844.0
12310,0.4149380028247833,1.6148680448532104,1,5346.0,-8.604415893554688,-66,9844.0
12320,0.41490140557289124,-2.5631446838378906,-62,5346.0,-1.7145951986312866,-94,9844.0
12330,0.41477635502815247,-1.8717665672302246,-26,5346.0,-5.412598133087158,-267,9844.0
12340,0.4146037697792053,-2.9170424938201904,23,5346.0,1.4893598556518555,-207,9844.0
12350,0.4149956703186035,-2.982668161392212,-36,5346.0,-3.6218981742858887,-83,9844.0
12360,0.41490980982780457,-1.2135106325149536,4,5346.0,-5.436615943908691,-105,9844.0
12370,0.41480520367622375,-0.506437361240387,-42,5346.0,-4.419026851654053,-7,9844.0
12380,0.4147649109363556,-1.5635566711425781,-35,5346.0,-4.707432270050049,-22,9844.0
12390,0.41481220722198486,-1.6530200242996216,-45,5346.0,-0.46088024973869324,110,9844.0
12400,0.41472795605659485,-3.6086955070495605,-76,5346.0,2.4598214626312256,153,9844.0
12410,0.41460728645324707,-1.7173242568969727,-92,5346.0,2.0456130504608154,65,9844.0
12420,0.41447412967681885,-2.551675319671631,-14,5346.0,-0.4800232946872711,4,9844.0
12430,0.4133929908275604,-2.511866807937622,-45,5346.0,6.751514434814453,40,9844.0
12440,0.41310328245162964,-1.2364416122436523,3,5346.0,1.4985442161560059,-146,9844.0
12450,0.4128067195415497,-0.6755063533782959,-4,5346.0,-0.09929405897855759,-112,9844.0
12460,0.41249844431877136,-1.3532819747924805,49,5346.0,4.241011619567871,-64,9844.0
12470,0.41220128536224365,2.2285070419311523,52,5346.0,1.9775612354278564,90,9844.0
12480,0.41181156039237976,2.3892199993133545,54,5346.0,-1.5220715999603271,53,9844.0
12490,0.41154029965400696,5.308614730834961,42,5346.0,-0.44686248898506165,133,9844.0
12500,0.41122859716415405,1.1749528646469116,-17,5346.0,1.456445574760437,199,9844.0
12510,0.4109415113925934,0.06756627559661865,-32,5346.0,-1.6940298080444336,54,9844.0
12520,0.4119842052459717,-3.8416624069213867,-75,5346.0,1.2108315229415894,108,9844.0
12530,0.4117514491081238,-2.1072113513946533,-75,5346.0,0.13035282492637634,100,9844.0
12540,0.41149425506591797,-0.1833740770816803,-13,5346.0,2.8520779609680176,106,9844.0
12550,0.41124600172042847,0.25079894065856934,36,5346.0,7.869815349578857,73,9844.0
12560,0.412859708070755,0.6567093729972839,61,5346.0,6.567703723907471,10,9844.0
12570,0.4126449227333069,2.2547309398651123,54,5346.0,5.68962287902832,-26,9844.0
12580,0.4124390482902527,2.6449286937713623,112,5346.0,10.311174392700195,39,9844.0
12590,0.412200003862381,2.6155059337615967,84,5346.0,5.055273532867432,1,9844.0
12600,0.4119710922241211,-0.01816500537097454,40,5346.0,7.535182476043701,12,9844.0
12610,0.4137517511844635,1.9323594570159912,44,5346.0,-2.119494915008545,8,9844.0
12620,0.41363605856895447,1.259582757949829,25,5346.0,-0.039202090352773666,18,9844.0
12630,0.4135301411151886,0.9746848940849304,0,5346.0,-0.1805485486984253,92,9844.0
12640,0.4134362041950226,2.3033103942871094,9,5346.0,-0.4084811210632324,73,9844.0
12650,0.41400471329689026,3.047609806060791,-24,5346.0,-3.2842226028442383,69,9844.0
12660,0.4139295220375061,0.3245924115180969,5,5346.0,-0.6086520552635193,78,9844.0
12670,0.41384515166282654,1.9071013927459717,25,5346.0,0.101903535425663,48,9844.0
12680,0.4137220084667206,2.1538541316986084,53,5346.0,3.1781580448150635,37,9844.0
12690,0.4135688245296478,5.14098596572876,13,5346.0,4.687331676483154,29,9844.0
12700,0.4152119755744934,3.547853946685791,113,5346.0,6.5322265625,24,9844.0
12710,0.4151674509048462,4.5311360359191895,151,5346.0,1.8475888967514038,-32,9844.0
12720,0.4151252210140228,6.734097480773926,122,5346.0,1.420653223991394,-26,9844.0
12730,0.4151061475276947,6.241096496582031,72,5346.0,-0.20860157907009125,7,9844.0
12740,0.41548120975494385,5.033995628356934,69,5346.0,-1.5602209568023682,-25,9844.0
12750,0.4155048131942749,2.402735710144043,39,5346.0,-4.635424613952637,-8,9844.0
12760,0.4155035614967346,-1.1728932857513428,2,5346.0,-2.3480429649353027,17,9844.0
12770,0.41547131538391113,-0.47241678833961487,-21,5346.0,-6.0376200675964355,-33,9844.0
12780,0.41538381576538086,-0.06644459068775177,0,5346.0,-6.383403301239014,-177,9844.0
12790,0.41629672050476074,-2.471698760986328,-25,5346.0,1.2773592472076416,-48,9844.0
12800,0.4161547124385834,-0.9521965384483337,8,5346.0,0.17020274698734283,-27,9844.0
12810,0.41598427295684814,-0.5308712124824524,-17,5346.0,3.6644623279571533,11,9844.0
12820,0.4158080816268921,-0.038206130266189575,7,5346.0,2.8552064895629883,104,9844.0
12830,0.4148856997489929,-0.035161618143320084,1,5346.0,2.4656145572662354,181,9844.0
12840,0.41465315222740173,1.6924569606781006,6,5346.0,1.9935139417648315,101,9844.0
12850,0.4144453704357147,1.1206122636795044,12,5346.0,-4.221691131591797,-90,9844.0
12860,0.4142095148563385,0.3887697160243988,44,5346.0,-2.248708963394165,-106,9844.0
12870,0.4167530834674835,-0.7453075051307678,42,5346.0,1.334481954574585,-88,9844.0
12880,0.41666871309280396,1.0984327793121338,41,5346.0,0.6297293901443481,-111,9844.0
12890,0.4165838360786438,-0.5171158313751221,23,5346.0,0.5800362229347229,-105,9844.0
12900,0.41644972562789917,-1.0839260816574097,-22,5346.0,-2.8618032932281494,-23,9844.0
12910,0.41628408432006836,-2.577526807785034,-53,5346.0,-3.4742789268493652,42,9844.0
12920,0.4171367287635803,-2.6509482860565186,-57,5346.0,-1.9828261137008667,161,9844.0
12930,0.4169565737247467,-0.1945769041776657,-61,5346.0,-6.410089015960693,58,9844.0
12940,0.41672930121421814,-1.3580294847488403,-55,5346.0,0.07721798121929169,76,9844.0
12950,0.41648873686790466,-2.633092164993286,-46,5346.0,-1.6263983249664307,35,9844.0
12960,0.41601523756980896,-2.645594358444214,-31,5346.0,2.229100465774536,-16,9844.0
12970,0.41570618748664856,-0.9746376276016235,-22,5346.0,1.9731090068817139,-93,9844.0
12980,0.4153813421726227,-0.329755574464798,25,5346.0,1.8277860879898071,-41,9844.0
12990,0.4150480628013611,-1.6510531902313232,-6,5346.0,5.687946796417236,-6,9844.0
13000,0.41444632411003113,0.49478399753570557,62,5346.0,0.3809118866920471,-26,9844.0
13010,0.4140963554382324,-0.8600654006004333,-2,5346.0,-2.078537702560425,29,9844.0
13020,0.4137573540210724,-1.5323865413665771,-21,5346.0,-8.53005599975586,-68,9844.0
13030,0.41342514753341675,-1.479378342628479,-52,5346.0,-3.031398057937622,49,9844.0
13040,0.4131326675415039,-0.5364559888839722,-15,5346.0,-0.7301192283630371,89,9844.0
13050,0.41323521733283997,1.3133677244186401,4,5346.0,-2.1344165802001953,138,9844.0
13060,0.41303402185440063,2.175400495529175,0,5346.0,1.65828275680542,119,9844.0
13070,0.4128185212612152,2.5078999996185303,15,5346.0,0.9260152578353882,21,9844.0
13080,0.4125652313232422,1.2396444082260132,33,5346.0,3.655458927154541,15,9844.0
13090,0.4129476547241211,0.43727728724479675,18,5346.0,0.41550901532173157,-61,9844.0
13100,0.4126269817352295,-0.18368121981620789,39,5346.0,0.8239272236824036,-67,9844.0
13110,0.4122861325740814,-0.6256954073905945,-20,5346.0,-0.30741408467292786,-81,9844.0
13120,0.4119207262992859,-1.072890281677246,-7,5346.0,0.531641960144043,3,9844.0
13130,0.4115198254585266,-0.7711703777313232,-8,5346.0,1.1680150032043457,8,9844.0
13140,0.4116997718811035,0.40078288316726685,43,5346.0,-2.9739787578582764,-31,9844.0
13150,0.4113174080848694,0.32537323236465454,46,5346.0,-4.423678874969482,-1,9844.0
13160,0.4109863042831421,3.5308806896209717,29,5346.0,-6.855909824371338,-23,9844.0
13170,0.4107060432434082,2.8219962120056152,9,5346.0,-1.8439377546310425,-19,9844.0
13180,0.411725252866745,1.1599065065383911,-6,5346.0,-3.9470317363739014,-30,9844.0
13190,0.41154566407203674,1.2695673704147339,-39,5346.0,-3.930619478225708,-7,9844.0
13200,0.4113398790359497,0.14738987386226654,-42,5346.0,-6.274459362030029,-95,9844.0
13210,0.41115716099739075,-1.6055567264556885,8,5346.0,-1.1405819654464722,-37,9844.0
13220,0.4125432074069977,0.884052038192749,2,5346.0,1.5710750818252563,-20,9844.0
13230,0.41242390871047974,1.5778459310531616,60,5346.0,-1.7104322910308838,-70,9844.0
13240,0.41229313611984253,1.1028305292129517,48,5346.0,4.917121887207031,4,9844.0
13250,0.4121571481227875,2.0257606506347656,-3,5346.0,3.3289339542388916,69,9844.0
13260,0.412011981010437,-1.419129729270935,19,5346.0,7.765296936035156,101,9844.0
13270,0.41308319568634033,-0.22788499295711517,16,5346.0,9.95482349395752,209,9844.0
13280,0.41301262378692627,0.03173685446381569,-29,5346.0,2.8689894676208496,96,9844.0
13290,0.4129908084869385,-1.5201843976974487,-36,5346.0,-2.7786600589752197,4,9844.0
13300,0.41304928064346313,-1.318008542060852,-45,5346.0,-2.721275806427002,113,9844.0
13310,0.4138936996459961,0.1549091786146164,-46,5346.0,-5.688839912414551,4,9844.0
13320,0.4140302240848541,-0.3648352026939392,-8,5346.0,-6.072484970092773,-12,9844.0
13330,0.4141213595867157,1.3482881784439087,26,5346.0,-5.878881454467773,-27,9844.0
13340,0.4141685664653778,0.757523775100708,8,5346.0,-2.499084711074829,-67,9844.0
13350,0.4141765832901001,3.12311053276062,63,5346.0,-0.5163593292236328,-160,9844.0
13360,0.4128466844558716,2.7952468395233154,31,5346.0,1.175042748451233,-89,9844.0
13370,0.41274493932724,2.71553897857666,32,5346.0,-1.9121954441070557,-49,9844.0
13380,0.41263827681541443,2.9769132137298584,25,5346.0,-0.487173467874527,-4,9844.0
13390,0.4125254452228546,1.464138388633728,55,5346.0,0.414639413356781,-39,9844.0
13400,0.41220206022262573,0.5768032073974609,-19,5346.0,0.4600687325000763,69,9844.0
13410,0.4120594263076782,-1.9693760871887207,-66,5346.0,3.3765952587127686,45,9844.0
13420,0.4118885397911072,-0.6496368646621704,-26,5346.0,1.790328025817871,14,9844.0
13430,0.4116992652416229,-3.140495538711548,-64,5346.0,1.3911209106445312,79,9844.0
13440,0.4114798605442047,-1.4732978343963623,-76,5346.0,1.8926714658737183,93,9844.0
13450,0.4110416769981384,-2.8196775913238525,-45,5346.0,3.6989543437957764,39,9844.0
13460,0.4107761085033417,-2.2706313133239746,-21,5346.0,0.24056078493595123,58,9844.0
13470,0.41049131751060486,-0.6580594778060913,4,5346.0,2.7228877544403076,-39,9844.0
13480,0.410163015127182,0.8634851574897766,59,5346.0,0.3913074731826782,-96,9844.0
13490,0.40935346484184265,1.4541261196136475,29,5346.0,-0.8671246767044067,-97,9844.0
13500,0.40897655487060547,-2.2799527645111084,25,5346.0,2.4058125019073486,80,9844.0
13510,0.4085679054260254,0.578721284866333,-24,5346.0,4.8537983894348145,156,9844.0
13520,0.4081595540046692,2.392571210861206,-39,5346.0,-3.54052996635437,118,9844.0
13530,0.4078496992588043,-1.3519953489303589,-69,5346.0,-0.5782737135887146,107,9844.0
13540,0.4074374735355377,-2.6499576568603516,-60,5346.0,-0.22370927035808563,15,9844.0
13550,0.40705636143684387,-1.2540223598480225,-54,5346.0,1.4539728164672852,57,9844.0
13560,0.4066944420337677,-0.7901744246482849,28,5346.0,-2.7081563472747803,-89,9844.0
13570,0.40629878640174866,-3.310614585876465,-22,5346.0,1.449749231338501,-52,9844.0
13580,0.40655699372291565,-1.1691381931304932,12,5346.0,4.391960144042969,58,9844.0
13590,0.4061231017112732,-0.23735901713371277,4,5346.0,6.104322910308838,26,9844.0
13600,0.40563321113586426,-1.6205649375915527,-12,5346.0,4.6866888999938965,-16,9844.0
13610,0.4050787091255188,-2.8083879947662354,-21,5346.0,7.803135395050049,58,9844.0
13620,0.4048490822315216,-3.437620162963867,-24,5346.0,0.4823782444000244,-9,9844.0
13630,0.40430155396461487,-3.4399220943450928,-57,5346.0,-2.414033889770508,19,9844.0
13640,0.403735488653183,-3.711146116256714,-43,5346.0,-0.793070375919342,7,9844.0
13650,0.40312856435775757,-3.0840682983398438,-46,5346.0,-3.2130086421966553,19,9844.0
13660,0.40462884306907654,-2.676952362060547,-28,5346.0,-3.894237756729126,-73,9844.0
13670,0.40404048562049866,-3.409114360809326,-31,5346.0,-4.546522617340088,-39,9844.0
13680,0.40346384048461914,-1.614458441734314,11,5346.0,-2.653756856918335,12,9844.0
13690,0.4029461741447449,0.549626350402832,4,5346.0,0.7108111381530762,10,9844.0
13700,0.40247800946235657,-1.4480435848236084,-39,5346.0,3.5834624767303467,77,9844.0
13710,0.40380722284317017,-0.06777910888195038,3,5346.0,2.1649727821350098,92,9844.0
13720,0.4034479856491089,-0.26014798879623413,-37,5346.0,0.4818054139614105,134,9844.0
13730,0.4030837118625641,-2.3676347732543945,-78,5346.0,4.149207592010498,181,9844.0
13740,0.4026995301246643,-2.3115012645721436,-75,5346.0,1.1590023040771484,67,9844.0
13750,0.40257537364959717,-3.343573808670044,-62,5346.0,3.045318603515625,164,9844.0
13760,0.40223658084869385,-0.35254958271980286,-57,5346.0,4.725026607513428,187,9844.0
13770,0.40192848443984985,0.5647321939468384,-43,5346.0,3.2737131118774414,155,9844.0
13780,0.4015970528125763,2.5203287601470947,14,5346.0,-0.7917121052742004,136,9844.0
13790,0.40125635266304016,2.928539514541626,-21,5346.0,-1.6121045351028442,25,9844.0
13800,0.4012336730957031,3.8271663188934326,11,5346.0,-1.9225939512252808,13,9844.0
13810,0.40100252628326416,3.9190614223480225,5,5346.0,-5.208250999450684,65,9844.0
13820,0.4007607400417328,5.011546611785889,17,5346.0,-3.0937886238098145,20,9844.0
13830,0.40047407150268555,3.2114830017089844,3,5346.0,-0.03630527853965759,7,9844.0
13840,0.4031183421611786,2.5037319660186768,53,5346.0,-2.736938714981079,-47,9844.0
13850,0.4029274582862854,-0.6088681221008301,-33,5346.0,1.2128300666809082,-81,9844.0
13860,0.40273281931877136,1.1348330974578857,28,5346.0,-1.6310750246047974,-38,9844.0
13870,0.40255650877952576,0.517564594745636,31,5346.0,3.3700292110443115,-42,9844.0
13880,0.40341052412986755,-1.1655534505844116,45,5346.0,9.187053680419922,-20,9844.0
13890,0.40326985716819763,-0.9090645909309387,21,5346.0,8.68221664428711,91,9844.0
13900,0.4030957520008087,-1.575804591178894,6,5346.0,6.3920087814331055,135,9844.0
13910,0.4028514325618744,-1.8480011224746704,1,5346.0,6.211487293243408,156,9844.0
13920,0.4026036858558655,-0.7303526401519775,-29,5346.0,0.4501853883266449,-24,9844.0
13930,0.4045218825340271,0.4003957509994507,1,5346.0,-2.7852675914764404,-21,9844.0
13940,0.40432170033454895,-0.16218826174736023,26,5346.0,-3.4985523223876953,-41,9844.0
13950,0.40409910678863525,1.9786137342453003,9,5346.0,-8.745752334594727,-91,9844.0
13960,0.40385887026786804,3.035371780395508,31,5346.0,-8.44387149810791,-113,9844.0
13970,0.4053780436515808,3.823004961013794,50,5346.0,-5.891140460968018,-111,9844.0
13980,0.40519002079963684,4.830568790435791,98,5346.0,-4.5810065269470215,8,9844.0
13990,0.40501925349235535,3.4157233238220215,35,5346.0,3.031047821044922,39,9844.0
14000,0.4048088788986206,3.9010326862335205,54,5346.0,1.693782925605774,-5,9844.0
14010,0.4045778810977936,1.820605993270874,-10,5346.0,0.02848309464752674,73,9844.0
14020,0.4041110575199127,-1.3629575967788696,1,5346.0,3.549576759338379,61,9844.0
14030,0.40383389592170715,0.2447100281715393,14,5346.0,0.45985305309295654,-69,9844.0
14040,0.4035388231277466,-3.2043612003326416,-45,5346.0,4.964104175567627,66,9844.0
14050,0.4032149910926819,-4.541346549987793,-14,5346.0,5.95477819442749,13,9844.0
14060,0.40477773547172546,-2.211275815963745,-33,5346.0,1.9784806966781616,-6,9844.0
14070,0.4044896960258484,-2.3536510467529297,-43,5346.0,-2.899029493331909,23,9844.0
14080,0.40420016646385193,-2.614936351776123,13,5346.0,-1.2924224138259888,19,9844.0
14090,0.40390685200691223,-0.6633944511413574,-12,5346.0,-2.40472149848938,40,9844.0
14100,0.4036378562450409,-0.03787582740187645,-14,5346.0,-4.318049430847168,55,9844.0
14110,0.40397152304649353,2.9979336261749268,25,5346.0,-5.7293596267700195,-5,9844.0
14120,0.4038027822971344,1.5387046337127686,-2,5346.0,-4.594720363616943,45,9844.0
14130,0.4036495089530945,2.417006254196167,54,5346.0,-1.788771629333496,-26,9844.0
14140,0.40347468852996826,2.407653570175171,78,5346.0,-2.361102342605591,-41,9844.0
14150,0.4042664170265198,3.2327890396118164,73,5346.0,-1.8392105102539062,-64,9844.0
14160,0.40405982732772827,1.1107505559921265,78,5346.0,-1.4633257389068604,-125,9844.0
14170,0.40385761857032776,-0.3717973530292511,-21,5346.0,0.9925163984298706,-45,9844.0
14180,0.4036164879798889,-1.9851346015930176,-1,5346.0,0.5986307859420776,-5,9844.0
14190,0.4036106467247009,-3.9582462310791016,-35,5346.0,0.8329861760139465,137,9844.0
14200,0.4033300578594208,-3.0874521732330322,-71,5346.0,1.5107146501541138,167,9844.0
14210,0.40302523970603943,-3.6151387691497803,-65,5346.0,2.0499041080474854,42,9844.0
